onset	duration	trial_type	response_time	cueOnset	targetOnset	fbOnset	cueRT	firstfixOnset	secondfixOnset	waitOnset	firstfixdur	secondfixdur	waitdur	nback_fbOnset	nback_response_time	nback_targetOnset	block	wm	trial	cue	cond	is_common	outcome_go	outcome_nogo	key_correct	key_pressed	is_correct	key_correct_nback	key_pressed_nback	is_correct_nback	outcome	rt	rt_nback	time_scan	time_onset	time_isi1	time_circle	time_isi2	time_feedback	time_same	time_correct	time_iti	time_done	timestamp_scan	DV	Qgo	Qnogo	SV	Wgo	Wnogo	mDV	Qchosen	Qunchosen	Wchosen	Wunchosen	PE	DVC	QgoC	QnogoC	SVC	WgoC	WnogoC	PEC	WchosenC	WunchosenC	QchosenC	QunchosenC	run	outcome_nback	nback_targetResp
0.0	6.36830390011869	nogo_reward	0.4951053000986576	0.040256999898701906	1.461226999759674	4.007480699569214	1.4209699998609722	1.0371814998798072	2.990986499935616	5.0146673996932805	0.42404549987986684	1.0164941996335983	1.3938935003241113	n/a	1.0	n/a	2	0	1	2	nogo_reward	0	1	0	0	1	0	0	n/a	n/a	1	0.4951053000986576	1.0	1604.754729400389	1604.7949864002876	1605.7919109002687	1606.2159564001486	1607.7457159003245	1608.762210099958	n/a	n/a	1609.7693968000822	1611.1632903004063	2020-01-14 11:39:40.677171	0.0898618845668538	0.0	0.0	0.0	0.0898618845668538	0.0	-0.0898618845668538	0.0	0.0	0.0898618845668538	0.0	12.8758137532596	-1.6987588918445722	-0.7037427231667525	-0.6864557208775158	-1.358953977077412	-0.6690956393192962	-0.6864557208775158	11.597672067726101	-1.5271551260206928	0.1716037658238803	-1.3481598037875844	-0.042038640256683246	3	missed	0.0
6.397589900065213	7.3286152998916805	nogo_punish	0.2254039999097585	6.437846899963915	8.91194439958781	11.452951299957931	2.4740974996238947	7.437216699589044	10.43906379956752	12.463268799707294	1.4747276999987662	1.0138875003904104	1.3031934001483023	n/a	1.0	n/a	2	0	2	4	nogo_punish	1	-1	0	0	1	0	0	n/a	n/a	-1	0.2254039999097585	1.0	1604.754729400389	1611.1925763003528	1612.191946099978	1613.6666737999767	1615.1937931999564	1616.2076807003468	n/a	n/a	1617.2179982000962	1618.5211916002445	2020-01-14 11:39:40.677171	0.0898618845668538	0.0	0.0	0.0	0.0898618845668538	0.0	-0.0898618845668538	0.0	0.0	0.0898618845668538	0.0	-3.05432900481882	-1.6987588918445722	-0.7037427231667525	-0.6864557208775158	-1.358953977077412	-0.6690956393192962	-0.6864557208775158	-4.332470690352319	-1.5271551260206928	0.1716037658238803	-1.3481598037875844	-0.042038640256683246	3	missed	0.0
13.767234900034964	6.344707400072366	nogo_reward	0.242824800312519	13.807491899933666	15.62641579983756	18.167570899706334	1.8189238999038935	14.807149599771947	17.15751739963889	19.18108109990135	0.8192662000656128	1.0100535000674427	0.9711182001046836	n/a	1.0	n/a	2	0	3	2	nogo_reward	1	0	1	0	1	0	1	n/a	n/a	0	0.242824800312519	1.0	1604.754729400389	1618.5622213003226	1619.5618790001608	1620.3811452002265	1621.9122468000278	1622.9223003000952	n/a	n/a	1623.9358105002902	1624.906928700395	2020-01-14 11:39:40.677171	1.11919842894368	1.47898100630507	0.0	1.47898100630507	1.11919842894368	0.0	-1.11919842894368	1.47898100630507	0.0	1.11919842894368	0.0	-1.47898100630507	-0.6694223474677459	0.7752382831383174	-0.6864557208775158	0.12002702922765796	0.36024090505753004	-0.6864557208775158	-2.757122691838569	-0.4978185816438665	0.1716037658238803	0.13082120251748552	-0.042038640256683246	3	missed	0.0
20.160286800004315	7.08697209972911	go_punish	0.393510099966079	20.200543799903016	22.9687818996606	25.51215079985559	2.768238099757582	21.20893379999302	24.49217649968341	26.51137419976294	1.759848099667579	1.01997430017218	0.7761416998691857	n/a	1.0	n/a	2	0	4	3	go_punish	1	0	-1	1	1	1	0	n/a	n/a	0	0.393510099966079	1.0	1604.754729400389	1624.955273200292	1625.963663200382	1627.7235113000495	1629.2469059000723	1630.2668802002445	n/a	n/a	1631.2661036001518	1632.042245300021	2020-01-14 11:39:40.677171	0.0898618845668538	0.0	0.0	0.0	0.0898618845668538	0.0	-0.0898618845668538	0.0	0.0	0.0898618845668538	0.0	0.0	-1.6987588918445722	-0.7037427231667525	-0.6864557208775158	-1.358953977077412	-0.6690956393192962	-0.6864557208775158	-1.278141685533499	-1.5271551260206928	0.1716037658238803	-1.3481598037875844	-0.042038640256683246	3	missed	0.0
27.288217099849135	6.441619799938053	nogo_reward	0.2761653997004032	27.328474099747837	28.984207099769264	31.51809539971873	1.6557330000214279	28.33362239971757	30.50750179961301	32.53159279981628	0.6505847000516951	1.0105936001057216	1.2385010998696089	n/a	1.0	n/a	2	0	5	2	nogo_reward	1	0	1	0	1	0	1	n/a	n/a	0	0.2761653997004032	1.0	1604.754729400389	1632.0832035001367	1633.0883518001065	1633.7389365001582	1635.262231200002	1636.2728248001076	n/a	n/a	1637.2863222002052	1638.5248233000748	2020-01-14 11:39:40.677171	0.987575365900201	1.28114064730899	0.0	1.28114064730899	0.987575365900201	0.0	-0.987575365900201	1.28114064730899	0.0	0.987575365900201	0.0	-1.28114064730899	-0.8010454105112249	0.5773979241422375	-0.6864557208775158	-0.07781332976842203	0.228617842014051	-0.6864557208775158	-2.559282332842489	-0.6294416446873455	0.1716037658238803	-0.06701915647859447	-0.042038640256683246	3	missed	0.0
33.76130050001689	5.921028399839997	go_reward	0.4138213000260293	33.80155749991559	35.2696139998734	37.81962009985	1.468056499957811	34.80012229969702	36.799514199607074	38.82299369992688	0.469491700176377	1.0201059002429247	0.8995921998287031	n/a	1.0	n/a	2	0	6	1	go_reward	0	0	1	1	1	1	0	n/a	n/a	0	0.4138213000260293	1.0	1604.754729400389	1638.5562869003045	1639.554851700086	1640.0243434002623	1641.554243599996	1642.574349500239	n/a	n/a	1643.5777231003158	1644.4773153001445	2020-01-14 11:39:40.677171	0.0898618845668538	0.0	0.0	0.0	0.0898618845668538	0.0	-0.0898618845668538	0.0	0.0	0.0898618845668538	0.0	0.0	-1.6987588918445722	-0.7037427231667525	-0.6864557208775158	-1.358953977077412	-0.6690956393192962	-0.6864557208775158	-1.278141685533499	-1.5271551260206928	0.1716037658238803	-1.3481598037875844	-0.042038640256683246	3	missed	0.0
39.72998369997367	6.553500399924815	go_punish	0.4922372000291943	39.770240699872375	41.426170099992305	43.96209659986198	1.6559294001199305	40.76423199987039	42.94719779957086	44.97473909985274	0.6619381001219153	1.014898800291121	1.3490019999444485	n/a	1.0	n/a	2	0	7	3	go_punish	1	0	-1	1	1	1	0	n/a	n/a	0	0.4922372000291943	1.0	1604.754729400389	1644.5249701002613	1645.5189614002593	1646.1808995003812	1647.7019271999598	1648.7168260002509	n/a	n/a	1649.7294685002416	1651.078470500186	2020-01-14 11:39:40.677171	0.0898618845668538	0.0	0.0	0.0	0.0898618845668538	0.0	-0.0898618845668538	0.0	0.0	0.0898618845668538	0.0	0.0	-1.6987588918445722	-0.7037427231667525	-0.6864557208775158	-1.358953977077412	-0.6690956393192962	-0.6864557208775158	-1.278141685533499	-1.5271551260206928	0.1716037658238803	-1.3481598037875844	-0.042038640256683246	3	missed	0.0
46.308735500089824	6.809238099958748	go_reward	1.0	46.348992499988526	48.21167979994789	50.722397799603414	1.8626872999593616	47.349055300001055	49.713465599808615	51.72114369971678	0.8626244999468327	1.008932199794799	1.4370869002304971	n/a	1.0	n/a	2	0	8	1	go_reward	1	1	0	1	0	0	1	n/a	n/a	0	1.0	1.0	1604.754729400389	1651.1037219003774	1652.10378470039	1652.9664092003368	1654.4681950001975	1655.4771271999923	n/a	n/a	1656.4758731001057	1657.9129600003362	2020-01-14 11:39:40.677171	-0.0898618845668538	0.0	0.0	0.0	0.0898618845668538	0.0	0.0898618845668538	0.0	0.0	0.0	0.0898618845668538	0.0	-1.8784826609782797	-0.7037427231667525	-0.6864557208775158	-1.358953977077412	-0.6690956393192962	-0.6864557208775158	-1.278141685533499	-1.6170170105875465	0.2614656503907341	-1.3481598037875844	-0.042038640256683246	3	missed	0.0
53.14031790010631	7.000403499696404	nogo_punish	1.0	53.18057490000501	55.69040669966489	58.2153907995671	2.509831799659878	54.17476549977437	57.19576619984582	59.234430299606174	1.5156411998905241	1.0196245997212827	0.9465481000952423	n/a	1.0	n/a	2	0	9	4	nogo_punish	1	-1	0	0	0	1	0	n/a	n/a	0	1.0	1.0	1604.754729400389	1657.935304300394	1658.9294949001633	1660.4451361000538	1661.9504956002347	1662.970120199956	n/a	n/a	1663.989159699995	1664.9357078000903	2020-01-14 11:39:40.677171	0.162667032302625	-0.359380194528514	0.0	-0.359380194528514	-0.162667032302625	0.0	-0.162667032302625	0.0	-0.359380194528514	0.0	-0.162667032302625	0.0	-1.625953744108801	-1.0631229176952663	-0.6864557208775158	-1.718334171605926	-0.921624556188775	-0.6864557208775158	-1.278141685533499	-1.6170170105875465	0.008936733521255291	-1.3481598037875844	-0.40141883478519724	3	missed	0.0
60.17048340011411	7.1668004998934975	go_reward	1.0	60.21074040001281	62.365095799788605	64.88018919993192	2.1543553997757954	61.20817969972268	63.874078299850225	65.89284959994279	1.1569161000659278	1.0061109000816941	1.4846912999635151	n/a	1.0	n/a	2	0	10	1	go_reward	1	1	0	1	0	0	1	n/a	n/a	0	1.0	1.0	1604.754729400389	1664.9654698004017	1665.9629091001116	1667.1198252001775	1668.6288077002391	1669.6349186003208	n/a	n/a	1670.6475790003317	1672.1322703002952	2020-01-14 11:39:40.677171	-0.0898618845668538	0.0	0.0	0.0	0.0898618845668538	0.0	0.0898618845668538	0.0	0.0	0.0	0.0898618845668538	0.0	-1.8784826609782797	-0.7037427231667525	-0.6864557208775158	-1.358953977077412	-0.6690956393192962	-0.6864557208775158	-1.278141685533499	-1.6170170105875465	0.2614656503907341	-1.3481598037875844	-0.042038640256683246	3	missed	0.0
67.3623067997396	6.114467500243109	nogo_punish	1.0	67.4025637996383	68.69305369956419	71.2184238997288	1.2904898999258876	68.4108329997398	70.20911569986492	72.23223849991359	0.2822206998243928	1.0093081998638809	1.2847927999678177	n/a	1.0	n/a	2	0	11	4	nogo_punish	1	-1	0	0	0	1	1	n/a	n/a	0	1.0	1.0	1604.754729400389	1672.1572932000272	1673.1655624001287	1673.447783099953	1674.9638451002538	1675.9731533001177	n/a	n/a	1676.9869679003025	1678.2717607002703	2020-01-14 11:39:40.677171	0.178925867436473	-0.359380194528514	0.0	-0.309699237872273	-0.178925867436473	0.0	-0.178925867436473	0.0	-0.359380194528514	0.0	-0.178925867436473	0.0	-1.6096949089749528	-1.0631229176952663	-0.6864557208775158	-1.6686532149496849	-0.937883391322623	-0.6864557208775158	-1.278141685533499	-1.6170170105875465	-0.007322101612592724	-1.3481598037875844	-0.40141883478519724	3	missed	0.0
73.51948060002178	7.563448299653828	nogo_reward	1.0	73.55973759992048	76.3933409997262	78.91536779981107	2.8336033998057246	74.56279009999707	77.89928779983893	79.92664089985192	1.8305508997291327	1.0160799999721348	1.1965449997223914	n/a	1.0	n/a	2	0	12	2	nogo_reward	1	0	1	0	0	1	0	n/a	n/a	1	1.0	1.0	1604.754729400389	1678.3144670003094	1679.317519500386	1681.148070400115	1682.6540172002278	1683.6700972002	n/a	n/a	1684.6813703002408	1685.8779152999632	2020-01-14 11:39:40.677171	-0.87541004598268	1.1138191649361	0.0	1.1138191649361	0.87541004598268	0.0	0.87541004598268	0.0	1.1138191649361	0.0	0.87541004598268	12.8758137532596	-2.664030822394106	0.41007644176934754	-0.6864557208775158	-0.24513481214131194	0.11645252209653001	-0.6864557208775158	11.597672067726101	-1.6170170105875465	1.0470138118065604	-1.3481598037875844	1.0717805246794168	3	missed	0.0
81.12782509997487	6.360728399827849	go_punish	1.0	81.16808209987357	82.59295159997419	85.1171985999681	1.4248695001006126	82.16615779977292	84.09817949961871	86.12938919989392	0.426793800201267	1.0190191003493965	1.3994212998075	n/a	1.0	n/a	2	0	13	3	go_punish	0	-1	0	1	0	0	0	n/a	n/a	0	1.0	1.0	1604.754729400389	1685.9228115002625	1686.9208872001618	1687.347681000363	1688.8529089000076	1689.871928000357	n/a	n/a	1690.8841186002828	1692.2835399000903	2020-01-14 11:39:40.677171	-0.0898618845668538	0.0	0.0	0.0	0.0898618845668538	0.0	0.0898618845668538	0.0	0.0	0.0	0.0898618845668538	0.0	-1.8784826609782797	-0.7037427231667525	-0.6864557208775158	-1.358953977077412	-0.6690956393192962	-0.6864557208775158	-1.278141685533499	-1.6170170105875465	0.2614656503907341	-1.3481598037875844	-0.042038640256683246	3	missed	0.0
87.5300056999547	6.3553102998996565	nogo_reward	1.0	87.5702626998534	89.53542649978772	92.07277289964281	1.9651637999343166	88.57718859985471	91.05127409985289	93.08533029956743	0.9582378999330103	1.0214987997899243	0.8402427001856267	n/a	1.0	n/a	2	0	14	2	nogo_reward	1	0	1	0	0	1	1	n/a	n/a	1	1.0	1.0	1604.754729400389	1692.3249921002423	1693.3319180002436	1694.2901559001766	1695.8060035002418	1696.8275023000317	n/a	n/a	1697.8400596999563	1698.680302400142	2020-01-14 11:39:40.677171	1.00702324078975	1.1138191649361	1.47898100630507	2.45058264035605	0.471957765515327	1.47898100630507	-1.00702324078975	1.47898100630507	1.1138191649361	1.47898100630507	0.471957765515327	11.39683274695453	-0.781597535621676	0.41007644176934754	0.7925252854275541	1.0916286632786378	-0.28699975837082303	0.7925252854275541	10.118691061421032	-0.13803600428247664	0.6435615313392072	0.13082120251748552	1.0717805246794168	3	missed	0.0
93.9114764998667	5.916365799959749	go_reward	1.0	93.9517334997654	95.52208999963477	98.0583651997149	1.5703564998693764	94.960768699646	97.03832589974627	99.06243789987639	0.5613212999887764	1.02003929996863	0.8056613998487592	n/a	1.0	n/a	2	0	15	1	go_reward	1	1	0	1	0	0	0	n/a	n/a	0	1.0	1.0	1604.754729400389	1698.7064629001543	1699.715498100035	1700.2768194000237	1701.7930553001352	1702.8130946001038	n/a	n/a	1703.8171673002653	1704.622828700114	2020-01-14 11:39:40.677171	-0.0898618845668538	0.0	0.0	0.0	0.0898618845668538	0.0	0.0898618845668538	0.0	0.0	0.0	0.0898618845668538	0.0	-1.8784826609782797	-0.7037427231667525	-0.6864557208775158	-1.358953977077412	-0.6690956393192962	-0.6864557208775158	-1.278141685533499	-1.6170170105875465	0.2614656503907341	-1.3481598037875844	-0.042038640256683246	3	missed	0.0
99.8544360999947	6.650330199860264	nogo_punish	1.0	99.8946930998934	101.7521583000198	104.27594619989395	1.8574652001263985	100.90273159975186	103.26538719981909	105.29923029989004	0.8494267002679408	1.0105590000748634	1.2457929998636246	n/a	1.0	n/a	2	0	16	4	nogo_punish	1	-1	0	0	0	1	0	n/a	n/a	0	1.0	1.0	1604.754729400389	1704.6494225002823	1705.6574610001408	1706.5068877004087	1708.020116600208	1709.0306756002828	n/a	n/a	1710.053959700279	1711.2997527001426	2020-01-14 11:39:40.677171	0.192343970571457	-0.359380194528514	0.0	-0.268025084505749	-0.192343970571457	0.0	-0.192343970571457	0.0	-0.359380194528514	0.0	-0.192343970571457	0.0	-1.596276805839969	-1.0631229176952663	-0.6864557208775158	-1.626979061583161	-0.951301494457607	-0.6864557208775158	-1.278141685533499	-1.6170170105875465	-0.020740204747576707	-1.3481598037875844	-0.40141883478519724	3	missed	0.0
106.53017999976873	6.195756500121206	go_reward	1.0	106.57043699966744	108.13297819998115	110.65008529974148	1.5625412003137171	107.58458029991016	109.62872409960255	111.65571149997413	0.5483979000709951	1.0213612001389265	1.1104819998145103	n/a	1.0	n/a	2	0	17	1	go_reward	1	1	0	1	0	0	1	n/a	n/a	0	1.0	1.0	1604.754729400389	1711.3251664000563	1712.339309700299	1712.88770760037	1714.3834534999914	1715.4048147001304	n/a	n/a	1716.410440900363	1717.5209229001775	2020-01-14 11:39:40.677171	-0.0898618845668538	0.0	0.0	0.0	0.0898618845668538	0.0	0.0898618845668538	0.0	0.0	0.0	0.0898618845668538	0.0	-1.8784826609782797	-0.7037427231667525	-0.6864557208775158	-1.358953977077412	-0.6690956393192962	-0.6864557208775158	-1.278141685533499	-1.6170170105875465	0.2614656503907341	-1.3481598037875844	-0.042038640256683246	3	missed	0.0
112.76981029985473	6.962464000098407	nogo_reward	1.0	112.81006729975343	114.85115969972662	117.37635289970785	2.041092399973195	113.81173309963197	116.3562862998806	118.3784115999008	1.0394266000946573	1.0200665998272598	1.394119699951034	n/a	1.0	n/a	2	0	18	2	nogo_reward	0	1	0	0	0	1	0	n/a	n/a	0	1.0	1.0	1604.754729400389	1717.5647967001423	1718.5664625000209	1719.6058891001155	1721.1110157002695	1722.1310823000968	n/a	n/a	1723.1331410002897	1724.5272607002407	2020-01-14 11:39:40.677171	2.63271729789415	1.1138191649361	2.76012165361406	3.61029937858	0.127404355719908	2.76012165361406	-2.63271729789415	2.76012165361406	1.1138191649361	2.76012165361406	0.127404355719908	-2.76012165361406	0.8440965214827243	0.41007644176934754	2.073665932736544	2.251345401502588	-0.6315531681662421	2.073665932736544	-4.038263339147559	1.1431046430265135	0.2990081215437883	1.4119618498264757	1.0717805246794168	3	missed	0.0
119.76000409992389	6.285513499751914	go_reward	1.0	119.80026109982259	121.27551879966632	123.79565789969638	1.4752576998437235	120.80743289971701	122.78773259976879	124.8057908997871	0.46808589994930117	1.0079252999275923	1.2799836997874081	n/a	1.0	n/a	2	0	19	1	go_reward	0	0	1	1	0	0	1	n/a	n/a	1	1.0	1.0	1604.754729400389	1724.5549905002115	1725.562162300106	1726.0302482000552	1727.5424620001577	1728.5503873000853	n/a	n/a	1729.560520300176	1730.8405039999634	2020-01-14 11:39:40.677171	-0.0898618845668538	0.0	0.0	0.0	0.0898618845668538	0.0	0.0898618845668538	0.0	0.0	0.0	0.0898618845668538	12.8758137532596	-1.8784826609782797	-0.7037427231667525	-0.6864557208775158	-1.358953977077412	-0.6690956393192962	-0.6864557208775158	11.597672067726101	-1.6170170105875465	0.2614656503907341	-1.3481598037875844	-0.042038640256683246	3	missed	0.0
126.0700241997838	6.4610939999111	nogo_punish	1.0	126.1102811996825	127.66873939987272	130.18363330001011	1.5584582001902163	127.12301759980619	129.17462239973247	131.19719019997865	0.5457218000665307	1.0090109002776444	1.374184999614954	n/a	1.0	n/a	2	0	20	4	nogo_punish	1	-1	0	0	0	1	0	n/a	n/a	0	1.0	1.0	1604.754729400389	1730.8650106000714	1731.877747000195	1732.4234688002616	1733.9293518001214	1734.938362700399	n/a	n/a	1735.9519196003675	1737.3261045999825	2020-01-14 11:39:40.677171	0.203489809389728	-0.359380194528514	0.0	-0.23285840125053	-0.203489809389728	0.0	-0.203489809389728	0.0	-0.359380194528514	0.0	-0.203489809389728	0.0	-1.585130967021698	-1.0631229176952663	-0.6864557208775158	-1.5918123783279419	-0.9624473332758781	-0.6864557208775158	-1.278141685533499	-1.6170170105875465	-0.031886043565847705	-1.3481598037875844	-0.40141883478519724	3	missed	0.0
132.57747050002217	7.364517199806869	go_punish	1.0	132.61772749992087	134.9702633996494	137.50385179976	2.3525358997285366	133.6135895997288	136.4864556998948	138.50357780000195	1.3566737999205998	1.0173960998652092	1.4786668997257948	n/a	1.0	n/a	2	0	21	3	go_punish	1	0	-1	1	0	0	0	n/a	n/a	-1	1.0	1.0	1604.754729400389	1737.3724569003098	1738.3683190001177	1739.7249928000383	1741.2411851002837	1742.258581200149	n/a	n/a	1743.2583072003908	1744.7369741001166	2020-01-14 11:39:40.677171	-0.0898618845668538	0.0	0.0	0.0	0.0898618845668538	0.0	0.0898618845668538	0.0	0.0	0.0	0.0898618845668538	-3.05432900481882	-1.8784826609782797	-0.7037427231667525	-0.6864557208775158	-1.358953977077412	-0.6690956393192962	-0.6864557208775158	-4.332470690352319	-1.6170170105875465	0.2614656503907341	-1.3481598037875844	-0.042038640256683246	3	missed	0.0
139.9859082996843	6.275899300352194	go_punish	1.0	140.026165299583	141.81028829980642	144.33785289991647	1.784123000223417	141.02274269983172	143.3172022998333	145.34022569982335	0.7875455999746919	1.0206506000831723	0.961838900111843	n/a	1.0	n/a	2	0	22	3	go_punish	1	0	-1	1	0	0	0	n/a	n/a	-1	1.0	1.0	1604.754729400389	1744.780894699972	1745.7774721002206	1746.5650177001953	1748.0719317002222	1749.0925823003054	n/a	n/a	1750.0949551002122	1751.056794000324	2020-01-14 11:39:40.677171	-0.556093356754403	0.0	-0.359380194528514	-0.359380194528514	0.196713162225889	-0.359380194528514	0.556093356754403	-0.359380194528514	0.0	-0.359380194528514	0.196713162225889	-2.694948810290306	-2.3447141331658288	-0.7037427231667525	-1.04583591540603	-1.718334171605926	-0.562244361660261	-1.04583591540603	-3.973090495823805	-1.9763972051160605	0.3683169280497693	-1.7075399983160984	-0.042038640256683246	3	missed	0.0
146.2892088000665	6.611102599650394	go_reward	1.0	146.3294657999652	148.2432279996574	150.76948449993506	1.9137621996922007	147.33784289984033	149.748912799638	151.7756002997046	0.9053850998170674	1.0205717002970687	1.1649680999109933	n/a	1.0	n/a	2	0	23	1	go_reward	1	1	0	1	0	0	0	n/a	n/a	0	1.0	1.0	1604.754729400389	1751.084195200354	1752.0925723002292	1752.9979574000463	1754.503642200027	1755.524213900324	n/a	n/a	1756.5303297000935	1757.6952978000045	2020-01-14 11:39:40.677171	1.83876358366647	0.0	1.47898100630507	1.47898100630507	-0.359782577361395	1.47898100630507	-1.83876358366647	1.47898100630507	0.0	1.47898100630507	-0.359782577361395	-1.47898100630507	0.05014280725504405	-0.7037427231667525	0.7925252854275541	0.12002702922765796	-1.118740101247545	0.7925252854275541	-2.757122691838569	-0.13803600428247664	-0.18817881153751473	0.13082120251748552	-0.042038640256683246	3	missed	0.0
152.9264640999029	6.009201500098925	go_reward	1.0	152.9667210998016	154.65790819982067	157.18936759978533	1.6911871000190786	153.96693719970062	156.16596119990572	158.20747089991346	0.6909710001200438	1.0234063998796046	0.7684516999870539	n/a	1.0	n/a	2	0	24	1	go_reward	0	0	1	1	0	0	0	n/a	n/a	1	1.0	1.0	1604.754729400389	1757.7214505001905	1758.7216666000895	1759.4126376002096	1760.9206906002946	1761.9440970001742	n/a	n/a	1762.9622003003024	1763.7306520002894	2020-01-14 11:39:40.677171	1.57470592871777	0.0	1.28114064730899	1.28114064730899	-0.293565281408787	1.28114064730899	-1.57470592871777	1.28114064730899	0.0	1.28114064730899	-0.293565281408787	11.59467310595061	-0.21391484769365587	-0.7037427231667525	0.5946849264314741	-0.07781332976842203	-1.0525228052949371	0.5946849264314741	10.31653142041711	-0.33587636327855663	-0.12196151558490673	-0.06701915647859447	-0.042038640256683246	3	missed	0.0
158.96315669966862	7.6659841001965106	nogo_punish	0.2801135997287929	159.00341369956732	161.78326719999313	164.30733719980344	2.7798535004258156	160.01090029999614	163.29366039996967	165.31628979975358	1.772366899996996	1.0136767998337746	1.353108000010252	n/a	1.0	n/a	2	0	25	4	nogo_punish	1	-1	0	0	1	0	0	n/a	n/a	-1	0.2801135997287929	1.0	1604.754729400389	1763.7581430999562	1764.765629700385	1766.537996600382	1768.0483898003586	1769.0620666001923	n/a	n/a	1770.0710192001425	1771.4241272001527	2020-01-14 11:39:40.677171	-0.212802239996991	-0.359380194528514	0.0	-0.203024589974047	-0.212802239996991	0.0	0.212802239996991	-0.359380194528514	0.0	-0.212802239996991	0.0	-2.694948810290306	-2.001423016408417	-1.0631229176952663	-0.6864557208775158	-1.561978567051459	-0.971759763883141	-0.6864557208775158	-3.973090495823805	-1.8298192505845376	0.1716037658238803	-1.7075399983160984	-0.042038640256683246	3	missed	0.0
166.65239189984277	7.196576599963009	nogo_punish	0.2575524998828769	166.69264889974147	169.4228101996705	171.9691473999992	2.730161299929023	167.70507759973407	170.95580419991165	172.98421539971605	1.7177325999364257	1.0133432000875473	0.9050100999884307	n/a	1.0	n/a	2	0	26	4	nogo_punish	0	0	-1	0	1	0	0	n/a	n/a	0	0.2575524998828769	1.0	1604.754729400389	1771.4473783001304	1772.459807000123	1774.1775396000594	1775.7105336003006	1776.723876800388	n/a	n/a	1777.738944800105	1778.6439549000934	2020-01-14 11:39:40.677171	-0.423471750648467	-0.669079432400787	0.0	-0.536973509652847	-0.423471750648467	0.0	0.423471750648467	-0.669079432400787	0.0	-0.423471750648467	0.0	0.669079432400787	-2.212092527059893	-1.3728221555675395	-0.6864557208775158	-1.895927486730259	-1.182429274534617	-0.6864557208775158	-0.609062253132712	-2.0404887612360136	0.1716037658238803	-2.0172392361883715	-0.042038640256683246	3	missed	0.0
173.87308439984918	7.554260199889541	nogo_punish	0.233300999738276	173.91334139974788	176.89527279976755	179.45161539968103	2.9819314000196755	174.9222293999046	178.43843539990462	180.46358529990562	1.973043399862945	1.013179999776412	1.004016299731802	n/a	1.0	n/a	2	0	27	4	nogo_punish	1	-1	0	0	1	0	1	n/a	n/a	-1	0.233300999738276	1.0	1604.754729400389	1778.6680708001368	1779.6769588002935	1781.6500022001565	1783.1931648002935	1784.20634480007	n/a	n/a	1785.2183147002945	1786.2223310000263	2020-01-14 11:39:40.677171	-0.354976171387611	-0.577724322378022	0.0	-0.465519670832212	-0.354976171387611	0.0	0.354976171387611	-0.577724322378022	0.0	-0.354976171387611	0.0	-2.476604682440798	-2.143596947799037	-1.2814670455447743	-0.6864557208775158	-1.824473647909624	-1.113933695273761	-0.6864557208775158	-3.754746367974297	-1.9719931819751575	0.1716037658238803	-1.9258841261656063	-0.042038640256683246	3	missed	0.0
181.4540258999914	6.086943999864161	nogo_punish	1.0	181.4942828998901	182.82312679989263	185.35026409989223	1.3288439000025392	182.49514089990407	184.3395603997633	186.3574458998628	0.32798589998856187	1.0107037001289427	1.22378099989146	n/a	1.0	n/a	2	0	28	4	nogo_punish	1	-1	0	0	0	1	1	n/a	n/a	0	1.0	1.0	1604.754729400389	1786.249012300279	1787.249870300293	1787.5778562002815	1789.0942898001522	1790.1049935002811	n/a	n/a	1791.1121753002517	1792.3359563001432	2020-01-14 11:39:40.677171	0.549677000125043	-0.860263680284793	0.0	-0.764510752605406	-0.549677000125043	0.0	-0.549677000125043	0.0	-0.860263680284793	0.0	-0.549677000125043	0.0	-1.238943776286383	-1.5640064034515455	-0.6864557208775158	-2.123464729682818	-1.308634524011193	-0.6864557208775158	-1.278141685533499	-1.6170170105875465	-0.3780732343011627	-1.3481598037875844	-0.9023023205414763	3	missed	0.0
187.5633105998861	7.175936200190108	nogo_punish	1.0	187.6035675997848	189.89594919979572	192.42342739971355	2.2923816000109127	188.62152819987386	191.40199409984052	193.436092999764	1.2744209999218583	1.0214332998730242	1.3434108002109042	n/a	1.0	n/a	2	0	29	4	nogo_punish	1	-1	0	0	0	1	1	n/a	n/a	0	1.0	1.0	1604.754729400389	1792.3582970001737	1793.3762576002628	1794.6506786001846	1796.1567235002294	1797.1781568001024	n/a	n/a	1798.190822400153	1799.5342332003638	2020-01-14 11:39:40.677171	0.581842550177577	-0.860263680284793	0.0	-0.663517715423189	-0.581842550177577	0.0	-0.581842550177577	0.0	-0.860263680284793	0.0	-0.581842550177577	0.0	-1.206778226233849	-1.5640064034515455	-0.6864557208775158	-2.022471692500601	-1.340800074063727	-0.6864557208775158	-1.278141685533499	-1.6170170105875465	-0.41023878435369676	-1.3481598037875844	-0.9023023205414763	3	missed	0.0
194.7671734998005	6.052812600042216	go_reward	1.0	194.8074304996992	196.3714850996621	198.89214309956878	1.5640545999629012	195.80566219985462	197.87867239955813	199.89807230001315	0.5658228998074719	1.0134707000106573	0.9621707997282556	n/a	1.0	n/a	2	0	30	1	go_reward	1	1	0	1	0	0	0	n/a	n/a	0	1.0	1.0	1604.754729400389	1799.562159900088	1800.5603916002435	1801.126214500051	1802.633401799947	1803.6468724999577	n/a	n/a	1804.652801700402	1805.6149725001303	2020-01-14 11:39:40.677171	3.28085375212284	0.0	2.59280017124117	2.59280017124117	-0.688053580881669	2.59280017124117	-3.28085375212284	2.59280017124117	0.0	2.59280017124117	-0.688053580881669	-2.59280017124117	1.4922329757114141	-0.7037427231667525	1.9063444503636542	1.2338461941637582	-1.4470111047678191	1.9063444503636542	-3.870941856774669	0.9757831606536236	-0.5164498150577888	1.2446403674535857	-0.042038640256683246	3	missed	0.0
200.84709269972518	6.976587200071663	go_reward	1.0	200.88734969962388	202.86478139972314	205.37770449975505	1.9774317000992596	201.89038599980995	204.3644235995598	206.3945495998487	0.9743953999131918	1.013280900195241	1.4693872998468578	n/a	1.0	n/a	2	0	31	1	go_reward	1	1	0	1	0	0	0	n/a	n/a	0	1.0	1.0	1604.754729400389	1805.6420791000128	1806.6451154001988	1807.619510800112	1809.1191529999487	1810.132433900144	n/a	n/a	1811.1492790002376	1812.6186663000844	2020-01-14 11:39:40.677171	2.82838638482813	0.0	2.25274228135997	2.25274228135997	-0.575644103468165	2.25274228135997	-2.82838638482813	2.25274228135997	0.0	2.25274228135997	-0.575644103468165	-2.25274228135997	1.039765608416704	-0.7037427231667525	1.566286560482454	0.8937883042825581	-1.3346016273543149	1.566286560482454	-3.530883966893469	0.6357252707724235	-0.4040403376442847	0.9045824775723856	-0.042038640256683246	3	missed	0.0
207.84739919984713	6.351276500150561	nogo_punish	1.0	207.88765619974583	209.25534019991755	211.77677359990798	1.367684000171721	208.8941410998816	210.7622651997956	212.77882899995916	0.3611991000359467	1.0145084001123905	1.4601036999372354	n/a	1.0	n/a	2	0	32	4	nogo_punish	0	0	-1	0	0	1	0	n/a	n/a	-1	1.0	1.0	1604.754729400389	1812.6423856001347	1813.6488705002705	1814.0100696003065	1815.5169946001845	1816.5315030002969	n/a	n/a	1817.533558400348	1818.9936621002853	2020-01-14 11:39:40.677171	0.608639392559456	-0.860263680284793	0.0	-0.578033923906784	-0.608639392559456	0.0	-0.608639392559456	0.0	-0.860263680284793	0.0	-0.608639392559456	-3.05432900481882	-1.17998138385197	-1.5640064034515455	-0.6864557208775158	-1.936987900984196	-1.3675969164456059	-0.6864557208775158	-4.332470690352319	-1.6170170105875465	-0.4370356267355757	-1.3481598037875844	-0.9023023205414763	3	missed	0.0
214.24204349983484	6.290966100059222	go_punish	0.2950430000200867	214.28230049973354	216.0118412999434	218.55459149973512	1.7295408002098611	215.29253989970312	217.5338514000175	219.57312059961237	0.7193014002402833	1.0207400997176137	1.0001460001803935	n/a	1.0	n/a	2	0	33	3	go_punish	1	0	-1	1	1	1	0	n/a	n/a	0	0.2950430000200867	1.0	1604.754729400389	1819.0370299001224	1820.047269300092	1820.7665707003323	1822.2885808004064	1823.309320900124	n/a	n/a	1824.3278500000013	1825.3279960001817	2020-01-14 11:39:40.677171	0.956385037151863	0.0	-0.669079432400787	-0.669079432400787	0.287305604751076	-0.669079432400787	-0.956385037151863	0.0	-0.669079432400787	0.287305604751076	-0.669079432400787	0.0	-0.832235739259563	-0.7037427231667525	-1.3555351532783029	-2.028033409478199	-0.471651919135074	-1.3555351532783029	-1.278141685533499	-1.3297114058364705	-0.4974756665769068	-1.3481598037875844	-0.7111180726574703	3	missed	0.0
220.5571734998373	7.14723020000406	nogo_punish	0.0901623000390827	220.597430499736	222.93227269966155	225.49173389980547	2.3348421999255606	221.5972229000181	224.4681498999712	226.50154359964677	1.335049799643457	1.0235839998342726	1.2431171000932864	n/a	1.0	n/a	2	0	34	4	nogo_punish	1	-1	0	0	1	0	1	n/a	n/a	-1	0.0901623000390827	1.0	1604.754729400389	1825.352159900125	1826.351952300407	1827.6870021000504	1829.22287930036	1830.2464633001944	n/a	n/a	1831.2562730000357	1832.499390100129	2020-01-14 11:39:40.677171	-0.164860280306001	-0.860263680284793	-0.359380194528514	-0.86468020763901	-0.524240474834514	-0.359380194528514	0.164860280306001	-0.860263680284793	-0.359380194528514	-0.524240474834514	-0.359380194528514	-2.194065324534027	-1.953481056717427	-1.5640064034515455	-1.04583591540603	-2.223634184716422	-1.2831979987206639	-1.04583591540603	-3.472207010067526	-2.1412574854220603	-0.1877764287046337	-2.2084234840723775	-0.40141883478519724	3	missed	0.0
227.74851340008922	5.8448200998827815	go_punish	1.0	227.78877039998792	229.182449099608	231.70348929986358	1.393678699620068	228.79271239973605	230.6994855999951	232.71325289970264	0.38973669987194626	1.0040036998684627	0.9203376001680681	n/a	1.0	n/a	2	0	35	3	go_punish	1	0	-1	1	0	0	1	n/a	n/a	-1	1.0	1.0	1604.754729400389	1832.5434998003768	1833.547441800125	1833.937178499997	1835.454215000384	1836.4582187002525	n/a	n/a	1837.4679823000915	1838.3883199002596	2020-01-14 11:39:40.677171	-0.92670809888303	0.0	-0.669079432400787	-0.577724322378022	0.257628666482243	-0.669079432400787	0.92670809888303	-0.669079432400787	0.0	-0.669079432400787	0.257628666482243	-2.385249572418033	-2.715328875294456	-0.7037427231667525	-1.3555351532783029	-1.936678299455434	-0.501328857403907	-1.3555351532783029	-3.663391257951532	-2.2860964429883337	0.4292324323061233	-2.0172392361883715	-0.042038640256683246	3	missed	0.0
233.63532779971138	6.894678500015516	nogo_reward	1.0	233.67558479961008	235.89570409990824	238.41617539990716	2.2201193002981654	234.68557599978521	237.40215929970145	239.4315176997336	1.210128100123029	1.0140161002057084	1.1387455998919904	n/a	1.0	n/a	2	0	36	2	nogo_reward	1	0	1	0	0	1	0	n/a	n/a	1	1.0	1.0	1604.754729400389	1838.430314199999	1839.440305400174	1840.6504335002971	1842.1568887000903	1843.170904800296	n/a	n/a	1844.1862471001225	1845.3249927000145	2020-01-14 11:39:40.677171	2.11332277355516	1.1138191649361	2.39495981224509	3.14104354448644	0.281637038689926	2.39495981224509	-2.11332277355516	2.39495981224509	1.1138191649361	2.39495981224509	0.281637038689926	10.480853941014509	0.32470199714373416	0.41007644176934754	1.708504091367574	1.7820895674090282	-0.477320485196224	1.708504091367574	9.20271225548101	0.7779428016575434	0.45324080451380633	1.0468000084575055	1.0717805246794168	3	missed	0.0
240.5584732000716	7.086718000005703	go_reward	0.3142170999199152	240.5987301999703	243.3422901998274	245.89296829979912	2.743559999857098	241.59479609970003	244.8762745996935	246.91078189993277	1.7474941001273692	1.016693700105634	0.7746663000432363	n/a	1.0	n/a	2	0	37	1	go_reward	1	1	0	1	1	1	0	n/a	n/a	1	0.3142170999199152	1.0	1604.754729400389	1845.3534596003592	1846.349525500089	1848.0970196002163	1849.6310040000824	1850.647697700188	n/a	n/a	1851.6655113003217	1852.440177600365	2020-01-14 11:39:40.677171	-2.44561107473462	0.0	1.96399688990204	1.96399688990204	-0.481614184832577	1.96399688990204	2.44561107473462	0.0	1.96399688990204	-0.481614184832577	1.96399688990204	12.8758137532596	-4.2342318511460455	-0.7037427231667525	1.277541169024524	0.605042912824628	-1.240571708718727	1.277541169024524	11.597672067726101	-2.0986311954201238	2.1356006557259204	-1.3481598037875844	1.9219582496453567	3	missed	0.0
247.67244039988145	5.929896200075746	go_reward	1.0	247.71269739978015	249.0709271999076	251.59106549993157	1.3582298001274467	248.71026419987902	250.59084540000185	252.6051156995818	0.3606630000285804	1.0002200999297202	1.037477900274098	n/a	1.0	n/a	2	0	38	1	go_reward	1	1	0	1	0	0	0	n/a	n/a	0	1.0	1.0	1604.754729400389	1852.467426800169	1853.464993600268	1853.8256566002965	1855.3455748003908	1856.3457949003205	n/a	n/a	1857.3598450999707	1858.3973230002448	2020-01-14 11:39:40.677171	1.33722312433485	1.47898100630507	1.96399688990204	3.1966663725974	0.626773765567186	1.96399688990204	-1.33722312433485	1.96399688990204	1.47898100630507	1.96399688990204	0.626773765567186	-1.96399688990204	-0.4513976520765759	0.7752382831383174	1.277541169024524	1.837712395519988	-0.132183758318964	1.277541169024524	-3.242138575435539	0.34697987931449337	0.7983775313910663	0.6158370861144555	1.4369423660483867	3	missed	0.0
253.63039739988744	6.2683358998037875	go_reward	1.0	253.67065439978614	255.17752209957666	257.7014154000208	1.5068676997905186	254.67788739968069	256.6902326997367	258.7155020995999	0.499634699895978	1.0111827002840528	1.2234881999900153	n/a	1.0	n/a	2	0	39	1	go_reward	1	1	0	1	0	0	1	n/a	n/a	0	1.0	1.0	1604.754729400389	1858.425383800175	1859.4326168000696	1859.9322514999656	1861.4449621001256	1862.4561448004097	n/a	n/a	1863.4702314999888	1864.6937196999788	2020-01-14 11:39:40.677171	0.9579335671197	1.47898100630507	1.71768536629233	2.78783112692952	0.759751799172628	1.71768536629233	-0.9579335671197	1.71768536629233	1.47898100630507	1.71768536629233	0.759751799172628	-1.71768536629233	-0.8306872092917259	0.7752382831383174	1.0312296454148142	1.428877149852108	0.0007942752864780189	1.0312296454148142	-2.995827051825829	0.10066835570478339	0.9313555649965083	0.36952556250474555	1.4369423660483867	3	missed	0.0
259.92698339978233	7.395890400278859	go_reward	1.0	259.96724039968103	262.4083248996176	264.93855109997116	2.441084499936551	260.974344199989	263.9243009998463	265.9477754998952	1.4339806996285915	1.0142501001248547	1.4153553000646752	n/a	1.0	n/a	2	0	40	1	go_reward	0	0	1	1	0	0	1	n/a	n/a	1	1.0	1.0	1604.754729400389	1864.72196980007	1865.729073600378	1867.1630543000065	1868.6790304002352	1869.69328050036	n/a	n/a	1870.702504900284	1872.1178602003488	2020-01-14 11:39:40.677171	0.635168792398161	1.47898100630507	1.50669047962053	2.43907594360195	0.871521687222373	1.50669047962053	-0.635168792398161	1.50669047962053	1.47898100630507	1.50669047962053	0.871521687222373	11.369123273639069	-1.1534519840132649	0.7752382831383174	0.8202347587430142	1.0801219665245378	0.11256416333622299	0.8202347587430142	10.09098158810557	-0.1103265309670165	1.0431254530462533	0.15853067583294567	1.4369423660483867	3	missed	0.0
267.36794340005144	6.7812311998568475	go_punish	0.2617874997667968	267.40820039995015	269.19868779974036	271.7684949999675	1.7904873997902087	268.41401999955997	270.74505529971793	272.7804890996774	0.7846678001803866	1.0234397002495825	1.4089425001295695	n/a	1.0	n/a	2	0	41	3	go_punish	1	0	-1	1	1	1	0	n/a	n/a	0	0.2617874997667968	1.0	1604.754729400389	1872.162929800339	1873.1687493999489	1873.9534172001293	1875.4997847001068	1876.5232244003564	n/a	n/a	1877.5352185000663	1878.944161000196	2020-01-14 11:39:40.677171	1.27702051909456	0.0	-0.937104516906536	-0.860263680284793	0.339916002188024	-0.937104516906536	-1.27702051909456	0.0	-0.937104516906536	0.339916002188024	-0.937104516906536	0.0	-0.5116002573168659	-0.7037427231667525	-1.623560237784052	-2.219217657362205	-0.41904152169812603	-1.623560237784052	-1.278141685533499	-1.2771010083995225	-0.7655007510826557	-1.3481598037875844	-0.9791431571632192	3	missed	0.0
274.175627099816	6.804827900137525	go_reward	1.0	274.2158840997147	276.2611774997788	278.7965857996603	2.0452934000641108	275.21527249971405	277.777477499563	279.8035081997516	1.0459050000647494	1.0191083000972867	1.2172038001006058	n/a	1.0	n/a	2	0	42	1	go_reward	1	1	0	1	0	0	1	n/a	n/a	0	1.0	1.0	1604.754729400389	1878.9706135001036	1879.970001900103	1881.0159069001677	1882.532206899952	1883.5513152000492	n/a	n/a	1884.5582376001405	1885.775441400241	2020-01-14 11:39:40.677171	2.28797798632092	1.47898100630507	2.80423778497092	3.61927631437693	0.516259798649997	2.80423778497092	-2.28797798632092	2.80423778497092	1.47898100630507	2.80423778497092	0.516259798649997	-2.80423778497092	0.4993572099094943	0.7752382831383174	2.117782064093404	2.260322337299518	-0.24269772523615296	2.117782064093404	-4.082379470504419	1.1872207743833734	0.6878635644738773	1.4560779811833355	1.4369423660483867	3	missed	0.0
281.0072137000973	7.609940699767094	nogo_punish	0.2398097002878785	281.047470699996	283.6206984999592	286.16658939979993	2.573227799963206	282.0521173998711	285.1440673000179	287.17058479972184	1.5685811000880676	1.0225220997820088	1.4868266000412405	n/a	1.0	n/a	2	0	43	4	nogo_punish	0	0	-1	0	1	0	0	n/a	n/a	0	0.2398097002878785	1.0	1604.754729400389	1885.8022001003849	1886.80684680026	1888.375427900348	1889.8987967004068	1890.9213188001888	n/a	n/a	1891.9253142001107	1893.412140800152	2020-01-14 11:39:40.677171	-0.337876004011038	-1.10496242362536	-0.359380194528514	-1.11220335878035	-0.697256198539552	-0.359380194528514	0.337876004011038	-1.10496242362536	-0.359380194528514	-0.697256198539552	-0.359380194528514	1.10496242362536	-2.126496780422464	-1.8087051467921125	-1.04583591540603	-2.471157335857762	-1.456213722425702	-1.04583591540603	-0.17317926190813915	-2.3142732091270988	-0.1877764287046337	-2.453122227412944	-0.40141883478519724	3	missed	0.0
288.6418880000708	6.382738200016547	nogo_punish	0.3278387002646923	288.6821449999695	290.4795520999471	293.0401479997672	1.7974070999775904	289.68133269995474	292.0166462999766	294.0491379997695	0.7982193999923766	1.023501699790586	1.0157452002165428	n/a	1.0	n/a	2	0	44	4	nogo_punish	1	-1	0	0	1	0	0	n/a	n/a	-1	0.3278387002646923	1.0	1604.754729400389	1893.4368744003584	1894.4360621003436	1895.234281500336	1896.7713757003655	1897.794877400156	n/a	n/a	1898.8038674001584	1899.819612600375	2020-01-14 11:39:40.677171	-0.236932818183845	-0.958342227476403	-0.359380194528514	-0.967471424967249	-0.596313012712359	-0.359380194528514	0.236932818183845	-0.958342227476403	-0.359380194528514	-0.596313012712359	-0.359380194528514	-2.095986777342417	-2.0255535945952707	-1.6620849506431554	-1.04583591540603	-2.326425402044661	-1.3552705365985092	-1.04583591540603	-3.374128462875916	-2.2133300232999056	-0.1877764287046337	-2.3065020312639875	-0.40141883478519724	3	missed	0.0
295.0679814997129	6.2391435001045465	go_punish	1.0	295.1082384996116	296.62750929966546	299.1528047998436	1.519270800053846	296.1157647999935	298.12950109969825	300.1596745997672	0.5117444996719769	1.023303700145334	1.1877073999489767	n/a	1.0	n/a	2	0	45	3	go_punish	1	0	-1	1	0	0	0	n/a	n/a	-1	1.0	1.0	1604.754729400389	1899.8629679000005	1900.8704942003824	1901.3822387000544	1902.8842305000871	1903.9075342002325	n/a	n/a	1904.914404000156	1906.102111400105	2020-01-14 11:39:40.677171	-1.24030341453518	0.0	-0.937104516906536	-0.745582229096851	0.303198897628642	-0.937104516906536	1.24030341453518	-0.937104516906536	0.0	-0.937104516906536	0.303198897628642	-2.117224487912284	-3.028924190946606	-0.7037427231667525	-1.623560237784052	-2.104536206174263	-0.455758626257508	-1.623560237784052	-3.395366173445783	-2.5541215274940825	0.4748026634525223	-2.2852643206941203	-0.042038640256683246	3	missed	0.0
301.3508262997493	5.7684470000679084	go_punish	0.3238670998252928	301.391083299648	302.7385491998866	305.28788219997637	1.3474659002386034	302.3955230996946	304.275805299636	306.294640999753	0.34302610019199165	1.0120769003403893	0.864889299962897	n/a	1.0	n/a	2	0	46	3	go_punish	1	0	-1	1	1	1	0	n/a	n/a	0	0.3238670998252928	1.0	1604.754729400389	1906.145812700037	1907.1502525000835	1907.4932786002755	1909.0305347000249	1910.0426116003653	n/a	n/a	1911.049370400142	1911.9142597001048	2020-01-14 11:39:40.677171	1.54946100926426	0.0	-1.16996291815707	-1.00802318413264	0.379498091107192	-1.16996291815707	-1.54946100926426	0.0	-1.16996291815707	0.379498091107192	-1.16996291815707	0.0	-0.2391597671471659	-0.7037427231667525	-1.8564186390345858	-2.366977161210052	-0.379459432778958	-1.8564186390345858	-1.278141685533499	-1.2375189194803546	-0.9983591523331898	-1.3481598037875844	-1.2120015584137533	3	missed	0.0
307.1460131998174	7.68243499984942	go_reward	1.0	307.1862701997161	309.93024429958314	312.44298349972814	2.743974099867046	308.1947235995908	311.440706499852	313.45994059974305	1.7355206999923212	1.0022769998761305	1.4087645998224616	n/a	1.0	n/a	2	0	47	1	go_reward	1	1	0	1	0	0	0	n/a	n/a	0	1.0	1.0	1604.754729400389	1911.940999600105	1912.9494529999797	1914.684973699972	1916.195435900241	1917.197712900117	n/a	n/a	1918.214670000132	1919.6234345999544	2020-01-14 11:39:40.677171	1.78732024053042	1.47898100630507	2.44983432132987	3.16447020007726	0.662514080799451	2.44983432132987	-1.78732024053042	2.44983432132987	1.47898100630507	2.44983432132987	0.662514080799451	-2.44983432132987	-0.001300535881005871	0.7752382831383174	1.763378600452354	1.8055162229998483	-0.09644344308669905	1.763378600452354	-3.727976006863369	0.8328173107423233	0.8341178466233312	1.1016745175422855	1.4369423660483867	3	missed	0.0
314.8541355999189	5.828134499955922	go_reward	0.5745586003176868	314.8943925998176	316.2528844997287	318.7951480997724	1.3584918999110869	315.89436519984156	317.78109119972214	319.80587209993996	0.3585192998871207	1.0140569000502637	0.916654999833554	n/a	1.0	n/a	2	0	48	1	go_reward	1	1	0	1	1	1	0	n/a	n/a	1	0.5745586003176868	1.0	1604.754729400389	1919.6491220002065	1920.6490946002305	1921.0076139001176	1922.535820600111	1923.5498775001613	n/a	n/a	1924.5606015003289	1925.4772565001624	2020-01-14 11:39:40.677171	-1.36116710409936	1.47898100630507	2.14697099273844	2.77535552875205	0.785803888639073	2.14697099273844	1.36116710409936	1.47898100630507	2.14697099273844	0.785803888639073	2.14697099273844	11.39683274695453	-3.149787880510786	0.7752382831383174	1.460515271860924	1.416401551674638	0.026846364752923013	1.460515271860924	10.118691061421032	-0.8312131219484735	2.3185747585623204	0.13082120251748552	2.1049323524817565	3	missed	0.0
320.7097223997116	7.384932199958712	nogo_punish	1.0	320.7499793996103	323.364410799928	325.89453209983185	2.6144314003176987	321.7478027995676	324.8718592999503	326.8927073995583	1.6166080003604293	1.0226727998815477	1.2422042000107467	n/a	1.0	n/a	2	0	49	4	nogo_punish	0	0	-1	0	0	1	0	n/a	n/a	-1	1.0	1.0	1604.754729400389	1925.5047087999992	1926.5025321999565	1928.119140200317	1929.6265887003392	1930.6492615002207	n/a	n/a	1931.6474367999472	1932.889640999958	2020-01-14 11:39:40.677171	0.403576777831042	-1.19367742836907	-0.359380194528514	-1.20401002444976	-0.762956972359556	-0.359380194528514	-0.403576777831042	-0.359380194528514	-1.19367742836907	-0.359380194528514	-0.762956972359556	-2.694948810290306	-1.385043998580384	-1.8974201515358224	-1.04583591540603	-2.562964001527172	-1.521914496245706	-1.04583591540603	-3.973090495823805	-1.9763972051160605	-0.5913532065356757	-1.7075399983160984	-1.2357160686257533	3	missed	0.0
328.11859579989687	7.3081835000775754	nogo_punish	1.0	328.15885279979557	330.58592280000425	333.1129081998952	2.427070000208687	329.1699864999391	332.09207169990987	334.1242619999682	1.415936300065141	1.0208364999853075	1.3427742999049315	n/a	1.0	n/a	2	0	50	4	nogo_punish	1	-1	0	0	0	1	0	n/a	n/a	0	1.0	1.0	1604.754729400389	1932.9135822001845	1933.924715900328	1935.3406522003932	1936.8468011002988	1937.867637600284	n/a	n/a	1938.878991400357	1940.221765700262	2020-01-14 11:39:40.677171	0.0353418925908507	-1.19367742836907	-0.669079432400787	-1.40892325472322	-0.704421324991638	-0.669079432400787	-0.0353418925908507	-0.669079432400787	-1.19367742836907	-0.669079432400787	-0.704421324991638	0.669079432400787	-1.7532788838205753	-1.8974201515358224	-1.3555351532783029	-2.767877231800632	-1.4633788488777881	-1.3555351532783029	-0.609062253132712	-2.2860964429883337	-0.5328175591677577	-2.0172392361883715	-1.2357160686257533	3	missed	0.0
335.4535197997468	6.7107071001080385	go_reward	1.0	335.4937767996455	337.92293999996036	340.44515349995345	2.4291632003148607	336.4931226000192	339.4336349996738	341.454399399925	1.4298173999411574	1.0115185002796352	0.7500844998285174	n/a	1.0	n/a	2	0	51	1	go_reward	1	1	0	1	0	0	0	n/a	n/a	0	1.0	1.0	1604.754729400389	1940.2485062000344	1941.247852000408	1942.6776694003493	1944.1883644000627	1945.1998829003423	n/a	n/a	1946.209128800314	1946.9592133001424	2020-01-14 11:39:40.677171	0.425272492953122	2.76012165361406	2.14697099273844	3.92005206282533	1.72169849978531	2.14697099273844	-0.425272492953122	2.14697099273844	2.76012165361406	2.14697099273844	1.72169849978531	-2.14697099273844	-1.363348283458304	2.0563789304473077	1.460515271860924	2.561098085747918	0.96274097589916	1.460515271860924	-3.425112678271939	0.5299539821508934	1.8933022656091902	0.7988111889508556	2.7180830133573766	3	missed	0.0
342.2082402999513	7.556665199809004	go_punish	0.3160166000016033	342.24849729985	344.78752459958196	347.32856489997357	2.53902729973197	343.2441905997696	346.3057480999271	348.33801639964804	1.5433339998123756	1.0228168000464848	1.4671461000109502	n/a	1.0	n/a	2	0	52	3	go_punish	0	-1	0	1	1	1	0	n/a	n/a	-1	0.3160166000016033	1.0	1604.754729400389	1947.0032267002389	1947.9989200001585	1949.5422539999709	1951.060477500316	1952.0832943003625	n/a	n/a	1953.092745800037	1954.559891900048	2020-01-14 11:39:40.677171	1.50763408924584	0.0	-1.16996291815707	-0.875971387207076	0.337671171088774	-1.16996291815707	-1.50763408924584	0.0	-1.16996291815707	0.337671171088774	-1.16996291815707	-3.05432900481882	-0.28098668716558595	-0.7037427231667525	-1.8564186390345858	-2.234925364284488	-0.42128635279737603	-1.8564186390345858	-4.332470690352319	-1.2793458394987725	-0.9983591523331898	-1.3481598037875844	-1.2120015584137533	3	missed	0.0
349.8061341997236	6.216313700191677	nogo_reward	1.0	349.8463911996223	351.5030772998	354.0337322996927	1.6566861001776942	350.85687729995675	353.014029999729	355.03817179985344	0.6461999998432475	1.019702299963683	1.0245330999605358	n/a	1.0	n/a	2	0	53	2	nogo_reward	0	1	0	0	0	1	0	n/a	n/a	0	1.0	1.0	1604.754729400389	1954.6011206000112	1955.6116067003456	1956.257806700189	1957.768759400118	1958.7884617000816	n/a	n/a	1959.7929012002423	1960.8174343002029	2020-01-14 11:39:40.677171	3.6031739031416	1.1138191649361	3.56440180529215	4.22091455994675	-0.0387720978494502	3.56440180529215	-3.6031739031416	3.56440180529215	1.1138191649361	3.56440180529215	-0.0387720978494502	-3.56440180529215	1.8145531267301742	0.41007644176934754	2.877946084414634	2.861960582869338	-0.7977296217356002	2.877946084414634	-4.8425434908256495	1.9473847947046035	0.13283166797443008	2.2162420015045656	1.0717805246794168	3	missed	0.0
356.0676593999376	6.5124289998786935	go_punish	0.6846683998592198	356.1079163998363	358.1029350999743	360.6396920997647	1.9950187001379618	357.10385479964316	359.6343712997623	361.6524213999512	0.9990803003311157	1.005320800002437	0.9679239997637978	n/a	1.0	n/a	2	0	54	3	go_punish	1	0	-1	1	1	1	1	n/a	n/a	0	0.6846683998592198	1.0	1604.754729400389	1960.8626458002252	1961.858584200032	1962.8576645003632	1964.3891007001512	1965.3944215001536	n/a	n/a	1966.40715080034	1967.375074800104	2020-01-14 11:39:40.677171	1.22017929765134	-0.359380194528514	-1.16996291815707	-1.12335577553939	0.0502163794942755	-1.16996291815707	-1.22017929765134	-0.359380194528514	-1.16996291815707	0.0502163794942755	-1.16996291815707	0.359380194528514	-0.568441478760086	-1.0631229176952663	-1.8564186390345858	-2.4823097526168016	-0.7087411443918745	-1.8564186390345858	-0.918761491004985	-1.566800631093271	-0.9983591523331898	-1.7075399983160984	-1.2120015584137533	3	missed	0.0
362.60791889997245	6.876924300099972	nogo_punish	1.0	362.64817589987115	364.49907849961915	367.02550679957517	1.8509025997479966	363.6555283996279	366.00062989955745	368.0413003996946	0.843550099991262	1.0248769000177163	1.483799800276529	n/a	1.0	n/a	2	0	55	4	nogo_punish	1	-1	0	0	0	1	0	n/a	n/a	0	1.0	1.0	1604.754729400389	1967.40290530026	1968.4102578000168	1969.253807900008	1970.7553592999463	1971.780236199964	n/a	n/a	1972.7960298000835	1974.27982960036	2020-01-14 11:39:40.677171	0.183438117140725	-1.19367742836907	-0.577724322378022	-1.22777934206279	-0.761162439518747	-0.577724322378022	-0.183438117140725	-0.577724322378022	-1.19367742836907	-0.577724322378022	-0.761162439518747	0.577724322378022	-1.6051826592707008	-1.8974201515358224	-1.264180043255538	-2.586733319140202	-1.520119963404897	-1.264180043255538	-0.7004173631554771	-2.1947413329655685	-0.5895586736948667	-1.9258841261656063	-1.2357160686257533	3	missed	0.0
369.5259583001025	6.975148699712008	nogo_reward	0.2783602997660637	369.5662153000012	372.0463244998832	374.5910119996404	2.4801091998820084	370.57207149965666	373.5711630997248	375.6101434999148	1.474253000226554	1.019848899915587	0.9312204997984281	n/a	1.0	n/a	2	0	56	2	nogo_reward	1	0	1	0	1	0	0	n/a	n/a	0	0.2783602997660637	1.0	1604.754729400389	1974.32094470039	1975.3268009000456	1976.801053900272	1978.3258925001137	1979.3457414000293	n/a	n/a	1980.3648729003037	1981.296093400102	2020-01-14 11:39:40.677171	-2.96665436954929	1.1138191649361	3.1029200063259	3.6820930527504	0.136265636776612	3.1029200063259	2.96665436954929	1.1138191649361	3.1029200063259	0.136265636776612	3.1029200063259	-1.1138191649361	-4.755275145960716	0.41007644176934754	2.416464285448384	2.323139075672988	-0.622691887109538	2.416464285448384	-2.391960850469599	-1.4807513738109346	3.2745237721497804	-0.23434063885148437	3.060881366069217	3	missed	0.0
376.5299325999804	6.507624899968505	nogo_punish	1.0	376.5701895998791	378.34655679995194	380.86264749988914	1.7763672000728548	377.58196529978864	379.8457745998162	381.86462879972555	0.7645915001633057	1.01687290007294	1.2131857001220396	n/a	1.0	n/a	2	0	57	4	nogo_punish	1	-1	0	0	0	1	1	n/a	n/a	0	1.0	1.0	1604.754729400389	1981.324919000268	1982.3366947001775	1983.1012862003408	1984.600504000205	1985.617376900278	n/a	n/a	1986.6193582001144	1987.8325439002365	2020-01-14 11:39:40.677171	0.307795505624526	-1.19367742836907	-0.500883485756279	-1.07368438263756	-0.808678991380806	-0.500883485756279	-0.307795505624526	-0.500883485756279	-1.19367742836907	-0.500883485756279	-0.808678991380806	0.500883485756279	-1.4808252707868998	-1.8974201515358224	-1.1873392066337947	-2.432638359714972	-1.567636515266956	-1.1873392066337947	-0.7772581997772201	-2.1179004963438253	-0.6370752255569258	-1.8490432895438633	-1.2357160686257533	3	missed	0.0
383.08348769973963	6.51596360001713	nogo_reward	1.0	383.12374469963834	385.0383635996841	387.5784529997036	1.9146189000457525	384.1198448999787	386.5556319998575	388.587970599998	0.9185186997053734	1.0228209998460898	1.0517376996574512	n/a	1.0	n/a	2	0	58	2	nogo_reward	1	0	1	0	0	1	1	n/a	n/a	1	1.0	1.0	1604.754729400389	1987.8784741000272	1988.8745743003676	1989.793093000073	1991.3103614002464	1992.3331824000925	n/a	n/a	1993.342700000387	1994.3944377000444	2020-01-14 11:39:40.677171	2.96167934681442	0.971601634050978	3.1029200063259	3.22226154150968	0.141240659511487	3.1029200063259	-2.96167934681442	3.1029200063259	0.971601634050978	3.1029200063259	0.141240659511487	9.7728937469337	1.173058570402994	0.26785891088422553	2.416464285448384	1.8633075644322679	-0.617716864374663	2.416464285448384	8.494752061400202	1.4859029957383534	0.31284442533536727	1.7547602025383155	0.9295629937942947	3	missed	0.0
389.6408925000576	5.763618899975199	nogo_reward	1.0	389.6811494999563	391.019158099778	393.5480512999927	1.3380085998217055	390.69172449968755	392.5249336999841	394.55399329960346	0.3274336000904441	1.023117600008618	0.8907751003280282	n/a	1.0	n/a	2	0	59	2	nogo_reward	1	0	1	0	0	1	0	n/a	n/a	1	1.0	1.0	1604.754729400389	1994.4358789003452	1995.4464539000764	1995.773887500167	1997.279663100373	1998.3027807003816	n/a	n/a	1999.3087226999924	2000.1994978003204	2020-01-14 11:39:40.677171	4.37311831438539	0.971601634050978	4.18906162844846	4.30715790862984	-0.184056685936925	4.18906162844846	-4.37311831438539	4.18906162844846	0.971601634050978	4.18906162844846	-0.184056685936925	8.68675212481114	2.584497537973964	0.26785891088422553	3.502605907570944	2.948203931552428	-0.943014209823075	3.502605907570944	7.40861043927764	2.5720446178609135	-0.012452920113044719	2.8409018246608757	0.9295629937942947	3	missed	0.0
395.4504419998268	6.0518149002455175	go_punish	1.0	395.4906989997255	397.0569320996292	399.58897349983476	1.566233099903684	396.4956193999392	398.5661236997696	400.5897046998143	0.5613126996900064	1.0228498000651598	0.9528092001567074	n/a	1.0	n/a	2	0	60	3	go_punish	1	0	-1	1	0	0	0	n/a	n/a	-1	1.0	1.0	1604.754729400389	2000.2454284001144	2001.250348800328	2001.811661500018	2003.3208531001585	2004.3437029002237	n/a	n/a	2005.3444341002032	2006.29724330036	2020-01-14 11:39:40.677171	-1.2242785084621	-0.309699237872273	-1.16996291815707	-0.978216504118665	0.0543155903050319	-1.16996291815707	1.2242785084621	-1.16996291815707	-0.309699237872273	-1.16996291815707	0.0543155903050319	-1.88436608666175	-3.0128992848735257	-1.0134419610390255	-1.8564186390345858	-2.337170481196077	-0.7046419335811182	-1.8564186390345858	-3.162507772195249	-2.786979928744617	0.22591935612891217	-2.5181227219446543	-0.35173787812895624	3	missed	0.0
