onset	duration	trial_type	response_time	cueOnset	targetOnset	fbOnset	cueRT	firstfixOnset	secondfixOnset	waitOnset	firstfixdur	secondfixdur	waitdur	nback_fbOnset	nback_response_time	nback_targetOnset	block	wm	trial	cue	cond	is_common	outcome_go	outcome_nogo	key_correct	key_pressed	is_correct	key_correct_nback	key_pressed_nback	is_correct_nback	outcome	rt	rt_nback	time_scan	time_onset	time_isi1	time_circle	time_isi2	time_feedback	time_same	time_correct	time_iti	time_done	timestamp_scan	DV	Qgo	Qnogo	SV	Wgo	Wnogo	mDV	Qchosen	Qunchosen	Wchosen	Wunchosen	PE	DVC	QgoC	QnogoC	SVC	WgoC	WnogoC	PEC	WchosenC	WunchosenC	QchosenC	QunchosenC	run	outcome_nback	nback_targetResp
0.0	6.753191899973899	go_reward	1.0	0.011839600279927254	1.8591390000656247	4.393090900033712	1.8472993997856975	1.0090244002640247	3.372342400252819	5.40518209990114	0.8501145998016	1.0207484997808933	1.3598494003526866	n/a	1.0	n/a	2	0	61	1	go_reward	1	1	0	1	0	0	0	n/a	n/a	0	1.0	1.0	2070.9010187000968	2070.9128583003767	2071.910043100361	2072.7601577001624	2074.2733611003496	2075.2941096001305	n/a	n/a	2076.306200799998	2077.6660502003506	2020-01-14 11:47:26.824525	0.0103762427720528	2.76012165361406	1.88705426562558	3.43395259575868	1.87667802285352	1.88705426562558	-0.0103762427720528	1.88705426562558	2.76012165361406	1.88705426562558	1.87667802285352	-1.88705426562558	-1.778244533639373	2.0563789304473077	1.2005985447480643	2.074998618681268	1.11772049896737	1.2005985447480643	-3.1651959511590793	0.27003725503803344	2.0482817886774005	0.5388944618379956	2.7180830133573766	4	missed	0.0
6.7809442998841405	7.295003499836184	go_reward	1.0	6.792783900164068	9.268474600277841	11.806820400059223	2.4756907001137733	7.800829800311021	10.78472530003637	12.81953370012343	1.4676447999668198	1.0220951000228524	1.2682536998768228	n/a	1.0	n/a	2	0	62	1	go_reward	1	1	0	1	0	0	0	n/a	n/a	0	1.0	1.0	2070.9010187000968	2077.693802600261	2078.701848500408	2080.1694933003746	2081.685744000133	2082.707839100156	n/a	n/a	2083.72055240022	2084.988806100097	2020-01-14 11:47:26.824525	-0.344449004821879	2.76012165361406	1.66313439278062	3.0172031910182	2.0075833976025	1.66313439278062	0.344449004821879	1.66313439278062	2.76012165361406	1.66313439278062	2.0075833976025	-1.66313439278062	-2.133069781233305	2.0563789304473077	0.9766786719031041	1.6582492139407878	1.24862587371635	0.9766786719031041	-2.941276078314119	0.046117382193073375	2.1791871634263806	0.31497458899303554	2.7180830133573766	4	missed	0.0
14.1022120998241	7.337019000202417	nogo_punish	1.0	14.114051700104028	16.680256800260395	19.198751700110734	2.566205100156367	15.116421299986996	18.177362699992955	20.203439200296998	1.5638355002733988	1.0213890001177788	1.2476315000094473	n/a	1.0	n/a	2	0	63	4	nogo_punish	1	-1	0	0	0	1	0	n/a	n/a	0	1.0	1.0	2070.9010187000968	2085.015070400201	2086.0174400000838	2087.581275500357	2089.0783814000897	2090.0997704002075	n/a	n/a	2091.1044579003938	2092.352089400403	2020-01-14 11:47:26.824525	0.412800429361119	-1.19367742836907	-0.435882991224578	-0.941964804136545	-0.848683420585696	-0.435882991224578	-0.412800429361119	-0.435882991224578	-1.19367742836907	-0.435882991224578	-0.848683420585696	0.435882991224578	-1.375820347050307	-1.8974201515358224	-1.1223387121020938	-2.300918781213957	-1.607640944471846	-1.1223387121020938	-0.842258694308921	-2.0529000018121244	-0.6770796547618158	-1.7840427950121625	-1.2357160686257533	4	missed	0.0
21.485137399751693	7.04189300024882	go_punish	1.0	21.49697700003162	24.201999200042337	26.722641800064594	2.705022200010717	22.49216050002724	25.707919199951448	27.732853800058365	1.7098387000150979	1.0147226001131457	0.806016200222075	n/a	1.0	n/a	2	0	64	3	go_punish	1	0	-1	1	0	0	0	n/a	n/a	-1	1.0	1.0	2070.9010187000968	2092.3979957001284	2093.393179200124	2095.103017900139	2096.608937900048	2097.6236605001613	n/a	n/a	2098.633872500155	2099.439888700377	2020-01-14 11:47:26.824525	-1.49599596198483	-0.309699237872273	-1.37298750813111	-1.21419462769562	0.123008453853712	-1.37298750813111	1.49599596198483	-1.37298750813111	-0.309699237872273	-1.37298750813111	0.123008453853712	-1.68134149668771	-3.284616738396256	-1.0134419610390255	-2.0594432290086258	-2.573148604773032	-0.6359490700324381	-2.0594432290086258	-2.9594831822212093	-2.9900045187186564	0.29461221967759227	-2.7211473119186946	-0.35173787812895624	4	missed	0.0
28.553346099797636	6.16637620003894	nogo_punish	1.0	28.565185700077564	29.89190270006702	32.40633019991219	1.3267169999894577	29.57371830008924	31.40480070002377	33.40891710016831	0.31818439997778114	1.00152949988842	1.3226447999481934	n/a	1.0	n/a	2	0	65	4	nogo_punish	1	-1	0	0	0	1	1	n/a	n/a	0	1.0	1.0	2070.9010187000968	2099.4662044001743	2100.474737000186	2100.792921400164	2102.3058194001205	2103.307348900009	n/a	n/a	2104.309935800265	2105.6325806002133	2020-01-14 11:47:26.824525	0.501908012616744	-1.19367742836907	-0.380617905098381	-0.828879584777041	-0.882525917715125	-0.380617905098381	-0.501908012616744	-0.380617905098381	-1.19367742836907	-0.380617905098381	-0.882525917715125	0.380617905098381	-1.2867127637946818	-1.8974201515358224	-1.0670736259758968	-2.187833561854453	-1.6414834416012751	-1.0670736259758968	-0.897523780435118	-1.9976349156859277	-0.7109221518912447	-1.7287777088859655	-1.2357160686257533	4	missed	0.0
34.76550389965996	6.520160000305623	nogo_reward	1.0	34.77734349993989	36.550399600062974	39.0726554999128	1.7730561001230853	35.795124500059046	38.05243819998577	40.08547479985282	0.755275100003928	1.020217299927026	1.2120287003926933	n/a	1.0	n/a	2	0	66	2	nogo_reward	0	1	0	0	0	1	0	n/a	n/a	0	1.0	1.0	2070.9010187000968	2105.6783622000366	2106.696143200156	2107.4514183001597	2108.9534569000825	2109.9736742000096	n/a	n/a	2110.9864934999496	2112.1985222003423	2020-01-14 11:47:26.824525	5.59631737738854	0.971601634050978	5.13431977456099	5.2492568918674	-0.46199760282755	5.13431977456099	-5.59631737738854	5.13431977456099	0.971601634050978	5.13431977456099	-0.46199760282755	-5.13431977456099	3.8076966009771143	0.26785891088422553	4.447864053683475	3.8903029147899884	-1.2209551267137	4.447864053683475	-6.412461460094489	3.5173027639734435	-0.2903938370036697	3.7861599707734057	0.9295629937942947	4	missed	0.0
41.308167999610305	6.255323300138116	nogo_punish	1.0	41.32000759989023	42.837697099894285	45.361441300251045	1.5176895000040531	42.33852569991723	44.353746599983424	46.37297570006922	0.49917139997705817	1.0076947002676206	1.202355199959129	n/a	1.0	n/a	2	0	67	4	nogo_punish	1	-1	0	0	0	1	1	n/a	n/a	0	1.0	1.0	2070.9010187000968	2112.221026299987	2113.239544400014	2113.738715799991	2115.25476530008	2116.262460000348	n/a	n/a	2117.273994400166	2118.476349600125	2020-01-14 11:47:26.824525	0.577867426981261	-1.19367742836907	-0.333413748084272	-0.73140653419097	-0.911281175065533	-0.333413748084272	-0.577867426981261	-0.333413748084272	-1.19367742836907	-0.333413748084272	-0.911281175065533	0.333413748084272	-1.2107533494301648	-1.8974201515358224	-1.0198694689617878	-2.090360511268382	-1.670238698951683	-1.0198694689617878	-0.944727937449227	-1.9504307586718186	-0.7396774092416527	-1.6815735518718564	-1.2357160686257533	4	missed	0.0
47.60708019975573	7.767569900024682	nogo_reward	1.0	47.618919800035655	50.37139580026269	52.89046770008326	2.752476000227034	48.616809899918735	51.87655790010422	53.893135299906135	1.7545859003439546	1.0139097999790465	1.4933544001542032	n/a	1.0	n/a	2	0	68	2	nogo_reward	1	0	1	0	0	1	1	n/a	n/a	1	1.0	1.0	2070.9010187000968	2118.5199385001324	2119.5178286000155	2121.2724145003594	2122.777576600201	2123.79148640018	n/a	n/a	2124.794154000003	2126.287508400157	2020-01-14 11:47:26.824525	4.73161981284524	0.971601634050978	4.48082333829012	4.59137539671406	-0.250796474555122	4.48082333829012	-4.73161981284524	4.48082333829012	0.971601634050978	4.48082333829012	-0.250796474555122	8.39499041496948	2.9429990364338146	0.26785891088422553	3.7943676174126044	3.232421419636648	-1.009753998441272	3.7943676174126044	7.11684872943598	2.863806327702574	-0.0791927087312417	3.132663534502536	0.9295629937942947	4	missed	0.0
55.40257089957595	5.856117500457913	go_reward	1.0	55.414410499855876	56.9789527002722	59.497730200179376	1.5645422004163265	56.41859359992668	58.48606600007042	60.50282629998401	0.5603591003455222	1.011664200108953	0.7677017003297806	n/a	1.0	n/a	2	0	69	1	go_reward	1	1	0	1	0	0	0	n/a	n/a	0	1.0	1.0	2070.9010187000968	2126.3154291999526	2127.3196123000234	2127.879971400369	2129.387084700167	2130.398748900276	n/a	n/a	2131.4038450000808	2132.1715467004105	2020-01-14 11:47:26.824525	-0.649096468003527	2.76012165361406	1.46954490930061	2.65846958449603	2.11864137730413	1.46954490930061	0.649096468003527	1.46954490930061	2.76012165361406	1.46954490930061	2.11864137730413	-1.46954490930061	-2.437717244414953	2.0563789304473077	0.7830891884230943	1.299515607418618	1.3596838534179798	0.7830891884230943	-2.747686594834109	-0.14747210128693644	2.2902451431280104	0.12138510551302573	2.7180830133573766	4	missed	0.0
61.28479509986937	5.974799799732864	nogo_punish	1.0	61.2966347001493	62.77904869988561	65.30006870022044	1.482413999736309	62.311659799888275	64.28967770002782	66.3044457999058	0.46738889999733146	1.0103910001926124	0.9669886999763548	n/a	1.0	n/a	2	0	70	4	nogo_punish	1	-1	0	0	0	1	0	n/a	n/a	0	1.0	1.0	2070.9010187000968	2132.197653400246	2133.212678499985	2133.6800673999824	2135.1906964001246	2136.201087400317	n/a	n/a	2137.2054645000026	2138.172453199979	2020-01-14 11:47:26.824525	0.64288602095151	-1.19367742836907	-0.292925906531082	-0.647084118418369	-0.935811927482592	-0.292925906531082	-0.64288602095151	-0.292925906531082	-1.19367742836907	-0.292925906531082	-0.935811927482592	0.292925906531082	-1.145734755459916	-1.8974201515358224	-0.9793816274085978	-2.006038095495781	-1.694769451368742	-0.9793816274085978	-0.985215779002417	-1.9099429171186286	-0.7642081616587117	-1.6410857103186665	-1.2357160686257533	4	missed	0.0
67.28403300000309	6.097423399799027	nogo_punish	1.0	67.29587260028302	68.84377889987127	71.38402780005708	1.5479062995882487	68.30816309992224	70.36071370029822	72.38426489988342	0.5356157999490279	1.0233140997588634	1.0090311001986265	n/a	1.0	n/a	2	0	71	4	nogo_punish	0	0	-1	0	0	1	0	n/a	n/a	-1	1.0	1.0	2070.9010187000968	2138.19689130038	2139.209181800019	2139.744797599968	2141.261732400395	2142.285046500154	n/a	n/a	2143.28528359998	2144.294314700179	2020-01-14 11:47:26.824525	0.698750545286677	-1.19367742836907	-0.258065549871528	-0.573892773418576	-0.956816095158205	-0.258065549871528	-0.698750545286677	-0.258065549871528	-1.19367742836907	-0.258065549871528	-0.956816095158205	-2.796263454947292	-1.089870231124749	-1.8974201515358224	-0.9445212707490438	-1.932846750495988	-1.7157736190443549	-0.9445212707490438	-4.074405140480791	-1.8750825604590746	-0.7852123293343247	-1.6062253536591125	-1.2357160686257533	4	missed	0.0
73.42594649968714	6.4120351001615745	go_punish	1.0	73.43778609996707	75.41180860018358	77.9318977999501	1.9740225002165062	74.44428799999878	76.91729340003803	78.94174499996006	0.9675206001847982	1.0146043999120593	0.9080762001685798	n/a	1.0	n/a	2	0	72	3	go_punish	1	0	-1	1	0	0	0	n/a	n/a	-1	1.0	1.0	2070.9010187000968	2144.338804800064	2145.3453067000955	2146.3128273002803	2147.818312100135	2148.832916500047	n/a	n/a	2149.842763700057	2150.7508399002254	2020-01-14 11:47:26.824525	-1.73206840570591	-0.309699237872273	-1.55058082325545	-1.41846916850941	0.181487582450461	-1.55058082325545	1.73206840570591	-1.55058082325545	-0.309699237872273	-1.55058082325545	0.181487582450461	-1.50374818156337	-3.520689182117336	-1.0134419610390255	-2.237036544132966	-2.777423145586822	-0.577469941435689	-2.237036544132966	-2.781889867096869	-3.1675978338429966	0.3530913482743413	-2.8987406270430345	-0.35173787812895624	4	missed	0.0
79.88023459957913	7.973128800280392	go_punish	0.2281040996313095	79.89207419985905	82.8552926001139	85.40231799986213	2.9632184002548456	80.90171930007637	84.38280800031544	86.40672610001639	1.953573300037533	1.019509999546699	1.4584769001230597	n/a	1.0	n/a	2	0	73	3	go_punish	1	0	-1	1	1	1	0	n/a	n/a	0	0.2281040996313095	1.0	2070.9010187000968	2150.793092899956	2151.802738000173	2153.7563113002107	2155.283826700412	2156.303336699959	n/a	n/a	2157.307744800113	2158.766221700236	2020-01-14 11:47:26.824525	1.9379079083884	-0.309699237872273	-1.70640125621539	-1.59603681632212	0.231506652173011	-1.70640125621539	-1.9379079083884	-0.309699237872273	-1.70640125621539	0.231506652173011	-1.70640125621539	0.309699237872273	0.14928713197697419	-1.0134419610390255	-2.392856977092906	-2.954990793399532	-0.527450871713139	-2.392856977092906	-0.9684424476612261	-1.3855103584145356	-1.5347974903915098	-1.6578590416598573	-1.7484398964720733	4	missed	0.0
87.87886269995943	6.192713999655098	nogo_punish	0.2838960997760296	87.89070230023935	89.55747830029577	92.1091652000323	1.6667760000564158	88.90061490004882	91.08954610023602	93.12504420010373	0.656863400246948	1.019619099796273	0.9583720997907221	n/a	1.0	n/a	2	0	74	4	nogo_punish	0	0	-1	0	1	0	0	n/a	n/a	0	0.2838960997760296	1.0	2070.9010187000968	2158.791721000336	2159.8016336001456	2160.4584970003925	2161.990564800333	2163.010183900129	n/a	n/a	2164.0260629002005	2164.984434999991	2020-01-14 11:47:26.824525	-0.280686391793783	-1.19367742836907	-0.587324520255887	-0.869544895493503	-0.86801091204967	-0.587324520255887	0.280686391793783	-1.19367742836907	-0.587324520255887	-0.86801091204967	-0.587324520255887	1.19367742836907	-2.069307168205209	-1.8974201515358224	-1.273780241133403	-2.228498872570915	-1.62696843593582	-1.273780241133403	-0.08446425716442896	-2.4850279226372165	-0.41572075443200673	-2.5418372321566545	-0.6293631605125702	4	missed	0.0
94.11939270002767	5.955648699775793	nogo_reward	1.0	94.1312323003076	95.79561940021813	98.30210740026087	1.6643870999105275	95.12482229992702	97.28777649998665	99.31198380002752	0.6707971002911108	1.0143309002742171	0.7748972000558751	n/a	1.0	n/a	2	0	75	2	nogo_reward	1	0	1	0	0	1	0	n/a	n/a	1	1.0	1.0	2070.9010187000968	2165.0322510004044	2166.025841000024	2166.696638100315	2168.1887952000834	2169.2031261003576	n/a	n/a	2170.2130025001243	2170.98789970018	2020-01-14 11:47:26.824525	5.92417001550893	0.971601634050978	5.40183950332429	5.50726372554182	-0.522330512184648	5.40183950332429	-5.92417001550893	5.40183950332429	0.971601634050978	5.40183950332429	-0.522330512184648	7.47397424993531	4.135549239097505	0.26785891088422553	4.715383782446774	4.148309748464408	-1.2812880360707979	4.715383782446774	6.195832564401811	3.784822492736743	-0.3507267463607677	4.053679699536705	0.9295629937942947	4	missed	0.0
100.1189337996766	6.748665600083768	nogo_reward	1.0	100.13077339995652	101.83650870015845	104.37167640030384	1.7057353002019227	101.1439153002575	103.34750859998167	105.38017080025747	0.692593399900943	1.024167800322175	1.4992681997828186	n/a	1.0	n/a	2	0	76	2	nogo_reward	1	0	1	0	0	1	0	n/a	n/a	1	1.0	1.0	2070.9010187000968	2171.0317921000533	2172.0449340003543	2172.737527400255	2174.2485273000784	2175.2726951004006	n/a	n/a	2176.2811895003542	2177.780457700137	2020-01-14 11:47:26.824525	6.95945492467091	0.971601634050978	6.2045734680297	6.30446604067924	-0.75488145664121	6.2045734680297	-6.95945492467091	6.2045734680297	0.971601634050978	6.2045734680297	-0.75488145664121	6.671240285229899	5.170834148259484	0.26785891088422553	5.518117747152185	4.945512063601829	-1.51383898052736	5.518117747152185	5.3930985996964	4.587556457442154	-0.5832776908173297	4.856413664242115	0.9295629937942947	4	missed	0.0
106.89489369979128	7.092429100070149	nogo_punish	0.2873105998151004	106.90673330007121	108.95808340003714	111.50692699989304	2.05135009996593	107.90565339988098	110.48915449995502	112.51680620014668	1.0524300001561642	1.0177724999380189	1.4823561999946833	n/a	1.0	n/a	2	0	77	4	nogo_punish	0	0	-1	0	1	0	0	n/a	n/a	0	0.2873105998151004	1.0	2070.9010187000968	2177.807752000168	2178.8066720999777	2179.859102100134	2181.390173200052	2182.40794569999	n/a	n/a	2183.4178249002434	2184.900181100238	2020-01-14 11:47:26.824525	-0.157329956346269	-1.03850813562793	-0.587324520255887	-0.764213735149126	-0.744654476602157	-0.587324520255887	0.157329956346269	-1.03850813562793	-0.587324520255887	-0.744654476602157	-0.587324520255887	1.03850813562793	-1.9459507327576948	-1.7422508587946823	-1.273780241133403	-2.1231677122265378	-1.5036120004883071	-1.273780241133403	-0.23963354990556907	-2.3616714871897035	-0.41572075443200673	-2.3866679394155144	-0.6293631605125702	4	missed	0.0
114.01806239970028	7.29809350008145	go_reward	0.3218781999312341	114.02990199998021	116.35502630006522	118.9196327002719	2.325124300085008	115.03637639991939	117.89582920027942	119.92866960028186	1.3186499001458287	1.023803499992482	1.3993258997797966	n/a	1.0	n/a	2	0	78	1	go_reward	1	1	0	1	1	1	0	n/a	n/a	1	0.3218781999312341	1.0	2070.9010187000968	2184.930920700077	2185.937395100016	2187.256045000162	2188.796847900376	2189.8206514003687	n/a	n/a	2190.8296883003786	2192.2290142001584	2020-01-14 11:47:26.824525	0.91160576710309	2.76012165361406	1.30163212912906	2.34854065746113	2.21323789623214	1.30163212912906	-0.91160576710309	2.76012165361406	1.30163212912906	2.21323789623214	1.30163212912906	10.115692099645539	-0.8770150093083359	2.0563789304473077	0.6151764082515442	0.9895866803837179	1.4542803723459898	0.6151764082515442	8.837550414112041	0.5962208856445934	1.4732358949529403	1.4119618498264757	1.2595934888723768	4	missed	0.0
121.40198759967507	6.37606610031753	go_punish	0.4561113999225199	121.413827199955	122.76030329987407	125.3120491001755	1.346476099919073	122.41715330025227	124.29148450028151	126.32098950026557	0.3431499996218008	1.0205645998939872	1.4689038000069559	n/a	1.0	n/a	2	0	79	3	go_punish	1	0	-1	1	1	1	0	n/a	n/a	0	0.4561113999225199	1.0	2070.9010187000968	2192.3148459000518	2193.318172000349	2193.661321999971	2195.1925032003783	2196.2130678002723	n/a	n/a	2197.2220082003623	2198.6909120003693	2020-01-14 11:47:26.824525	1.91569660732092	-0.268025084505749	-1.70640125621539	-1.39159297909035	0.209295351105536	-1.70640125621539	-1.91569660732092	-0.268025084505749	-1.70640125621539	0.209295351105536	-1.70640125621539	0.268025084505749	0.12707583090949415	-0.9717678076725015	-2.392856977092906	-2.750546956167762	-0.549662172780614	-2.392856977092906	-1.01011660102775	-1.4077216594820106	-1.5347974903915098	-1.6161848882933334	-1.7484398964720733	4	missed	0.0
127.82197399996221	6.9891732996329665	nogo_reward	1.0	127.83381360024214	130.4546668999833	132.9756689001806	2.6208532997411567	128.84097710018978	131.9622416999191	133.98568030027627	1.6136897997935193	1.0134272002615035	0.8373065995988327	n/a	1.0	n/a	2	0	80	2	nogo_reward	1	0	1	0	0	1	0	n/a	n/a	1	1.0	1.0	2070.9010187000968	2198.734832300339	2199.7419958002865	2201.35568560008	2202.863260400016	2203.8766876002774	n/a	n/a	2204.886699000373	2205.724005599972	2020-01-14 11:47:26.824525	7.86145321223675	0.971601634050978	6.9066258157681	7.00081974333056	-0.954827396468653	6.9066258157681	-7.86145321223675	6.9066258157681	0.971601634050978	6.9066258157681	-0.954827396468653	5.969187937491499	6.072832435825324	0.26785891088422553	6.220170094890585	5.641865766253147	-1.713784920354803	6.220170094890585	4.691046251958	5.289608805180554	-0.7832236306447727	5.558466011980515	0.9295629937942947	4	missed	0.0
134.8578426996246	7.673962200060487	nogo_reward	1.0	134.86968229990453	137.61837110016495	140.14725020015612	2.7486888002604246	135.87345710024238	139.12488280003936	141.1587864998728	1.7449139999225736	1.0223674001167637	1.3848580000922084	n/a	1.0	n/a	2	0	81	2	nogo_reward	1	0	1	0	0	1	0	n/a	n/a	1	1.0	1.0	2070.9010187000968	2205.7707010000013	2206.774475800339	2208.5193898002617	2210.025901500136	2211.048268900253	n/a	n/a	2212.0598051999696	2213.4446632000618	2020-01-14 11:47:26.824525	8.6499260398126	0.971601634050978	7.52256945750853	7.61106175798748	-1.12735658230407	7.52256945750853	-8.6499260398126	7.52256945750853	0.971601634050978	7.52256945750853	-1.12735658230407	5.35324429575107	6.861305263401174	0.26785891088422553	6.836113736631014	6.252107780910068	-1.8863141061902202	6.836113736631014	4.075102610217571	5.905552446920983	-0.9557528164801898	6.174409653720945	0.9295629937942947	4	missed	0.0
142.57251919992314	6.55226189969062	nogo_reward	1.0	142.58435880020306	144.3281650999561	146.83947509992822	1.7438062997530324	143.59434140007943	145.83551430003718	147.84508810006082	0.7338236998766661	1.003960799891047	1.2915325998328626	n/a	1.0	n/a	2	0	82	2	nogo_reward	1	0	1	0	0	1	1	n/a	n/a	1	1.0	1.0	2070.9010187000968	2213.4853775003	2214.495360100176	2215.229183800053	2216.736533000134	2217.740493800025	n/a	n/a	2218.7461068001576	2220.0376393999904	2020-01-14 11:47:26.824525	9.34127284146104	0.971601634050978	8.0645521113118	8.14745169597657	-1.27672073014925	8.0645521113118	-9.34127284146104	8.0645521113118	0.971601634050978	8.0645521113118	-1.27672073014925	4.8112616419478	7.552652065049614	0.26785891088422553	7.378096390434284	6.788497718899158	-2.0356782540354	7.378096390434284	3.5331199564143008	6.447535100724253	-1.1051169643253698	6.716392307524215	0.9295629937942947	4	missed	0.0
149.1671946998681	6.387346299831279	nogo_reward	1.0	149.17903430014803	150.97396390000358	153.50107190012932	1.79492959985555	150.1879126001154	152.47879080008715	154.51252479990944	0.7860512998881859	1.0222811000421643	1.0538558000698686	n/a	1.0	n/a	2	0	83	2	nogo_reward	1	0	1	0	0	1	1	n/a	n/a	1	1.0	1.0	2070.9010187000968	2220.080053000245	2221.088931300212	2221.8749826001003	2223.379809500184	2224.402090600226	n/a	n/a	2225.413543500006	2226.467399300076	2020-01-14 11:47:26.824525	9.9491876180473	0.971601634050978	8.54276054069608	8.62025079838912	-1.40642707735121	8.54276054069608	-9.9491876180473	8.54276054069608	0.971601634050978	8.54276054069608	-1.40642707735121	4.33305321256352	8.160566841635875	0.26785891088422553	7.856304819818564	7.261296821311708	-2.16538460123736	7.856304819818564	3.054911527030021	6.925743530108533	-1.2348233115273297	7.1946007369084946	0.9295629937942947	4	missed	0.0
155.5988319995813	6.0399118000641465	nogo_reward	1.0	155.61067159986123	157.17166200000793	159.69875530013815	1.560990400146693	156.61005680030212	158.67587580019608	160.70436660014093	0.5616051997058094	1.0228794999420643	0.9462167997844517	n/a	1.0	n/a	2	0	84	2	nogo_reward	1	0	1	0	0	1	1	n/a	n/a	1	1.0	1.0	2070.9010187000968	2226.511690299958	2227.511075500399	2228.0726807001047	2229.576894500293	2230.599774000235	n/a	n/a	2231.6053853002377	2232.551602100022	2020-01-14 11:47:26.824525	10.4851684792128	0.971601634050978	8.96578268924328	9.03809460364871	-1.51938578996955	8.96578268924328	-10.4851684792128	8.96578268924328	0.971601634050978	8.96578268924328	-1.51938578996955	3.9100310640163194	8.696547702801375	0.26785891088422553	8.279326968365764	7.679140626571298	-2.2783433138557	8.279326968365764	2.6318893784828203	7.348765678655734	-1.3477820241456697	7.617622885455695	0.9295629937942947	4	missed	0.0
161.6651332997717	6.356559100095637	go_reward	0.2707612998783588	161.67697290005162	163.6346534001641	166.16042109997943	1.957680500112474	162.67632109997794	165.15625200001523	167.17135269986466	0.9583323001861572	1.0041690999642015	0.8621793002826053	n/a	1.0	n/a	2	0	85	1	go_reward	1	1	0	1	1	1	0	n/a	n/a	1	0.2707612998783588	1.0	2070.9010187000968	2232.5779916001484	2233.5773398000747	2234.535672100261	2236.057270700112	2237.061439800076	n/a	n/a	2238.0723713999614	2238.934550700244	2020-01-14 11:47:26.824525	1.6566501893882	3.87394081855016	1.30163212912906	3.55885354614475	2.95828231851726	1.30163212912906	-1.6566501893882	3.87394081855016	1.30163212912906	2.95828231851726	1.30163212912906	9.00187293470944	-0.13197058702322595	3.1701980953834075	0.6151764082515442	2.199899569067338	2.19932479463111	0.6151764082515442	7.72373124917594	1.3412653079297137	1.4732358949529403	2.5257810147625754	1.2595934888723768	4	missed	0.0
168.06954269995913	6.758844899944961	go_punish	0.2869529002346098	168.08138230023906	169.8974446002394	172.42903310013935	1.8160623000003397	169.08067290019244	171.421689299867	173.4424705998972	0.8167717000469565	1.0073438002723378	1.3977566002868116	n/a	1.0	n/a	2	0	86	3	go_punish	1	0	-1	1	1	1	0	n/a	n/a	0	0.2869529002346098	1.0	2070.9010187000968	2238.982401000336	2239.981691600289	2240.798463300336	2242.3227079999638	2243.330051800236	n/a	n/a	2244.343489299994	2245.741245900281	2020-01-14 11:47:26.824525	1.89732197661774	-0.23285840125053	-1.70640125621539	-1.21755103052467	0.190920720402351	-1.70640125621539	-1.89732197661774	-0.23285840125053	-1.70640125621539	0.190920720402351	-1.70640125621539	0.23285840125053	0.10870120020631413	-0.9366011244172825	-2.392856977092906	-2.5765050076020817	-0.568036803483799	-2.392856977092906	-1.0452832842829691	-1.4260962901851955	-1.5347974903915098	-1.5810182050381143	-1.7484398964720733	4	missed	0.0
174.87650869973004	7.264440900180489	nogo_reward	1.0	174.88834830000997	177.71629679994703	180.24586280016229	2.827948499937065	175.89756050007418	179.22131390031427	181.24376320000738	1.8187362998728531	1.0245488998480141	0.9090260001830757	n/a	1.0	n/a	2	0	87	2	nogo_reward	1	0	1	0	0	1	0	n/a	n/a	1	1.0	1.0	2070.9010187000968	2245.7893670001067	2246.798579200171	2248.617315500044	2250.122332600411	2251.146881500259	n/a	n/a	2252.144781900104	2253.053807900287	2020-01-14 11:47:26.824525	10.9589176808773	0.971601634050978	9.34089330471105	9.40828616615276	-1.61802437616628	9.34089330471105	-10.9589176808773	9.34089330471105	0.971601634050978	9.34089330471105	-1.61802437616628	3.534920448548549	9.170296904465875	0.26785891088422553	8.654437583833534	8.049332189075347	-2.37698190005243	8.654437583833534	2.25677876301505	7.723876294123504	-1.4464206103423998	7.992733500923466	0.9295629937942947	4	missed	0.0
182.16962149972096	6.455856500193477	go_reward	0.2968526999466121	182.1814611000009	184.04167419997975	186.5940287001431	1.8602130999788642	183.19437699997798	185.57385470019653	187.59693490015343	0.8472972000017762	1.0201739999465644	1.0403827000409365	n/a	1.0	n/a	2	0	88	1	go_reward	0	0	1	1	1	1	0	n/a	n/a	0	0.2968526999466121	1.0	2070.9010187000968	2253.0824798000976	2254.0953957000747	2254.9426929000765	2256.4748734002933	2257.49504740024	n/a	n/a	2258.49795360025	2259.538336300291	2020-01-14 11:47:26.824525	2.31419241234835	4.84554245260114	1.30163212912906	4.60636593907598	3.61582454147741	1.30163212912906	-2.31419241234835	4.84554245260114	1.30163212912906	3.61582454147741	1.30163212912906	-4.84554245260114	0.525571635936924	4.141799729434387	0.6151764082515442	3.247411961998568	2.85686701759126	0.6151764082515442	-6.123684138134639	1.9988075308898634	1.4732358949529403	3.4973826488135553	1.2595934888723768	4	missed	0.0
188.6687158998102	7.29716659989208	nogo_reward	1.0	188.68055550009012	191.23346729995683	193.7492285999474	2.552911799866706	189.6881428998895	192.7396515998994	194.75915100006387	1.5453244000673294	1.0095770000480115	1.2185710999183357	n/a	1.0	n/a	2	0	89	2	nogo_reward	1	0	1	0	0	1	1	n/a	n/a	1	1.0	1.0	2070.9010187000968	2259.581574200187	2260.5891615999863	2262.1344860000536	2263.640670299996	2264.650247300044	n/a	n/a	2265.6601697001606	2266.878740800079	2020-01-14 11:47:26.824525	11.3786588559414	0.971601634050978	9.67428145499486	9.73702907819662	-1.70437740094651	9.67428145499486	-11.3786588559414	9.67428145499486	0.971601634050978	9.67428145499486	-1.70437740094651	3.2015322982647394	9.590038079529974	0.26785891088422553	8.987825734117344	8.378075101119208	-2.46333492483266	8.987825734117344	1.9233906127312403	8.057264444407313	-1.5327736351226298	8.326121651207275	0.9295629937942947	4	missed	0.0
195.99288729997352	6.427904899697751	nogo_punish	0.5286057000048459	196.00472690025344	197.48345179995522	200.03225929988548	1.4787248997017741	197.0110627003014	199.01113620027945	201.04303340008482	0.47238909965381026	1.0211230996060294	1.3895983998663723	n/a	1.0	n/a	2	0	90	4	nogo_punish	1	-1	0	0	1	0	0	n/a	n/a	-1	0.5286057000048459	1.0	2070.9010187000968	2266.90574560035	2267.912081400398	2268.384470500052	2269.912154900376	2270.9332779999822	n/a	n/a	2271.9440521001816	2273.333650500048	2020-01-14 11:47:26.824525	-0.0523945557415482	-0.906708539475658	-0.587324520255887	-0.673810307998263	-0.639719075997435	-0.587324520255887	0.0523945557415482	-0.906708539475658	-0.587324520255887	-0.639719075997435	-0.587324520255887	-2.147620465343162	-1.841015332152974	-1.6104512626424103	-1.273780241133403	-2.032764285075675	-1.398676599883585	-1.273780241133403	-3.425762150876661	-2.2567360865849815	-0.41572075443200673	-2.2548683432632424	-0.6293631605125702	4	missed	0.0
202.46495229983702	6.679743399843574	go_punish	0.3429060000926256	202.47679190011695	204.70260880002752	207.22987199993804	2.225816899910569	203.4844247000292	206.2231800002046	208.2480152999051	1.218184099998325	1.006691999733448	0.9085200000554323	n/a	1.0	n/a	2	0	91	3	go_punish	1	0	-1	1	1	1	0	n/a	n/a	0	0.3429060000926256	1.0	2070.9010187000968	2273.3778106002137	2274.385443400126	2275.6036275001243	2277.1241987003013	2278.130890700035	n/a	n/a	2279.149034000002	2280.0575540000573	2020-01-14 11:47:26.824525	1.88204662291254	-0.203024589974047	-1.70640125621539	-1.06868187579698	0.175645366697157	-1.70640125621539	-1.88204662291254	-0.203024589974047	-1.70640125621539	0.175645366697157	-1.70640125621539	0.203024589974047	0.09342584650111418	-0.9067673131407994	-2.392856977092906	-2.427635852874392	-0.583312157188993	-2.392856977092906	-1.075117095559452	-1.4413716438903896	-1.5347974903915098	-1.5511843937616314	-1.7484398964720733	4	missed	0.0
209.1717586996965	6.829869400244206	go_reward	0.2795716999098658	209.18359829997644	211.03587280027568	213.58583680028096	1.8522745002992451	210.1929879002273	212.5619564000517	214.59393309988081	0.8428849000483751	1.0238804002292454	1.41953460033983	n/a	1.0	n/a	2	0	92	1	go_reward	1	1	0	1	1	1	0	n/a	n/a	1	0.2795716999098658	1.0	2070.9010187000968	2280.084617000073	2281.094006600324	2281.9368915003724	2283.4629751001485	2284.4868555003777	n/a	n/a	2285.4949517999776	2286.9144864003174	2020-01-14 11:47:26.824525	1.86645027865692	4.216739171262	1.30163212912906	4.03745424935321	3.16808240778597	1.30163212912906	-1.86645027865692	4.216739171262	1.30163212912906	3.16808240778597	1.30163212912906	8.6590745819976	0.07782950224549401	3.5129964480952474	0.6151764082515442	2.6785002722757985	2.40912488389982	0.6151764082515442	7.380932896464102	1.5510653971984234	1.4732358949529403	2.8685793674744153	1.2595934888723768	4	missed	0.0
216.03291139984503	6.350012000184506	go_reward	0.519420400261879	216.04475100012496	217.49210700020194	220.032311799936	1.4473560000769794	217.05067369993776	219.00955389998853	221.04253840027377	0.4414333002641797	1.0227578999474645	1.3522246000356972	n/a	1.0	n/a	2	0	93	1	go_reward	1	1	0	1	1	1	0	n/a	n/a	1	0.519420400261879	1.0	2070.9010187000968	2286.9457697002217	2287.9516924000345	2288.3931257002987	2289.9105726000853	2290.9333305000328	n/a	n/a	2291.9435571003705	2293.295781700406	2020-01-14 11:47:26.824525	2.51358656125489	5.16066326249944	1.30163212912906	5.02871889499391	3.81521869038394	1.30163212912906	-2.51358656125489	5.16066326249944	1.30163212912906	3.81521869038394	1.30163212912906	7.715150490760159	0.7249657848434643	4.456920539332688	0.6151764082515442	3.6697649179164977	3.05626116649779	0.6151764082515442	6.43700880522666	2.1982016797963935	1.4732358949529403	3.812503458711856	1.2595934888723768	4	missed	0.0
222.42816129978746	5.65954149980098	go_punish	0.1944677997380495	222.4400009000674	223.8079625000246	226.33683439996094	1.367961599957198	223.4523443998769	225.32508639991283	227.3503672000952	0.35561810014769435	1.011748000048101	0.7491751997731626	n/a	1.0	n/a	2	0	94	3	go_punish	1	0	-1	1	1	1	0	n/a	n/a	0	0.1944677997380495	1.0	2070.9010187000968	2293.341019600164	2294.3533630999736	2294.7089812001213	2296.2261051000096	2297.2378531000577	n/a	n/a	2298.251385900192	2299.000561099965	2020-01-14 11:47:26.824525	1.86929157787854	-0.177593315124334	-1.70640125621539	-0.940794874638176	0.162890321663159	-1.70640125621539	-1.86929157787854	-0.177593315124334	-1.70640125621539	0.162890321663159	-1.70640125621539	0.177593315124334	0.08067080146711403	-0.8813360382910864	-2.392856977092906	-2.299748851715588	-0.596067202222991	-2.392856977092906	-1.100548370409165	-1.4541266889243876	-1.5347974903915098	-1.5257531189119184	-1.7484398964720733	4	missed	0.0
228.13078859960706	6.364700000267021	nogo_reward	1.0	228.14262819988699	230.06758420029655	232.59677409986034	1.9249560004095656	229.15585920028389	231.58405670011416	233.60723790014163	0.911725000012666	1.0127173997461796	0.9000903000123799	n/a	1.0	n/a	2	0	95	2	nogo_reward	1	0	1	0	0	1	0	n/a	n/a	1	1.0	1.0	2070.9010187000968	2299.0436468999837	2300.0568779003806	2300.9686029003933	2302.485075400211	2303.497792799957	n/a	n/a	2304.5082566002384	2305.4083469002508	2020-01-14 11:47:26.824525	11.7513908498959	0.971601634050978	9.9712333634684	10.0296143143351	-1.7801574864275	9.9712333634684	-11.7513908498959	9.9712333634684	0.971601634050978	9.9712333634684	-1.7801574864275	2.9045803897911995	9.962770073484474	0.26785891088422553	9.284777642590884	8.670660337257688	-2.53911501031365	9.284777642590884	1.6264387042577004	8.354216352880854	-1.6085537206036198	8.623073559680815	0.9295629937942947	4	missed	0.0
234.54330669995397	5.980431299657084	go_punish	0.4826776999980211	234.5551463002339	235.94778970023617	238.5009089000523	1.392643400002271	235.55827620020136	237.4768094001338	239.5108167999424	0.3895135000348091	1.0240994999185205	1.0247607999485808	n/a	1.0	n/a	2	0	96	3	go_punish	0	-1	0	1	1	1	1	n/a	n/a	-1	0.4826776999980211	1.0	2070.9010187000968	2305.4561650003307	2306.459294900298	2306.848808400333	2308.3778281002305	2309.401927600149	n/a	n/a	2310.411835500039	2311.4365962999877	2020-01-14 11:47:26.824525	1.85859833361281	-0.155820432959939	-1.70640125621539	-0.830500946907432	0.152197077397421	-1.70640125621539	-1.85859833361281	-0.155820432959939	-1.70640125621539	0.152197077397421	-1.70640125621539	-2.898508571858881	0.0699775572013841	-0.8595631561266914	-2.392856977092906	-2.1894549239848438	-0.6067604464887291	-2.392856977092906	-4.17665025739238	-1.4648199331901255	-1.5347974903915098	-1.5039802367475235	-1.7484398964720733	4	missed	0.0
240.54945219960064	6.399554800242186	nogo_punish	0.2919357996433973	240.56129179988056	242.21459130011544	244.7579037998803	1.6532995002348798	241.55974650010467	243.73680170020089	245.7687062001787	0.6548448000107783	1.0211020996794105	1.1921403999440372	n/a	1.0	n/a	2	0	97	4	nogo_punish	1	-1	0	0	1	0	0	n/a	n/a	-1	0.2919357996433973	1.0	2070.9010187000968	2311.4623104999773	2312.4607652002014	2313.115610000212	2314.6378204002976	2315.658922499977	n/a	n/a	2316.6697249002755	2317.8618653002195	2020-01-14 11:47:26.824525	-0.215233708742481	-1.15359666959069	-0.587324520255887	-0.955244662336105	-0.802558228998368	-0.587324520255887	0.215233708742481	-1.15359666959069	-0.587324520255887	-0.802558228998368	-0.587324520255887	-1.90073233522813	-2.003854485153907	-1.8573393927574426	-1.273780241133403	-2.314198639413517	-1.561515752884518	-1.273780241133403	-3.1788740207616293	-2.4195752395859147	-0.41572075443200673	-2.5017564733782747	-0.6293631605125702	4	missed	0.0
246.9938127999194	6.330349300056696	nogo_reward	1.0	247.00565240019932	248.9233111999929	251.4418728002347	1.9176587997935712	248.00286190025508	250.4328125002794	252.4503171001561	0.9204492997378111	1.0090602999553084	0.8856846000999212	n/a	1.0	n/a	2	0	98	2	nogo_reward	0	1	0	0	0	1	0	n/a	n/a	0	1.0	1.0	2070.9010187000968	2317.906671100296	2318.903880600352	2319.8243299000897	2321.333831200376	2322.3428915003315	n/a	n/a	2323.351335800253	2324.237020400353	2020-01-14 11:47:26.824525	12.0830924709127	0.971601634050978	10.2362804995112	10.2905712498621	-1.84681197140146	10.2362804995112	-12.0830924709127	10.2362804995112	0.971601634050978	10.2362804995112	-1.84681197140146	-10.2362804995112	10.294471694501274	0.26785891088422553	9.549824778633683	8.931617272784688	-2.60576949528761	9.549824778633683	-11.514422185044697	8.619263488923654	-1.6752082055775797	8.888120695723615	0.9295629937942947	4	missed	0.0
253.37159519968554	5.87129530031234	nogo_reward	1.0	253.38343479996547	254.948409399949	257.47966219997033	1.5649745999835432	254.38712080009282	256.4565928000957	258.49558420013636	0.5612885998561978	1.0230693998746574	0.7591459001414478	n/a	1.0	n/a	2	0	99	2	nogo_reward	1	0	1	0	0	1	0	n/a	n/a	1	1.0	1.0	2070.9010187000968	2324.284453500062	2325.2881395001896	2325.8494281000458	2327.3576115001924	2328.380680900067	n/a	n/a	2329.396602900233	2330.1557488003746	2020-01-14 11:47:26.824525	10.4502633729854	0.971601634050978	8.9943393675919	9.04480959181827	-1.4559240053935	8.9943393675919	-10.4502633729854	8.9943393675919	0.971601634050978	8.9943393675919	-1.4559240053935	3.8814743856676994	8.661642596573975	0.26785891088422553	8.307883646714384	7.685855614740857	-2.21488152927965	8.307883646714384	2.6033327001342004	7.377322357004354	-1.2843202395696198	7.646179563804315	0.9295629937942947	4	missed	0.0
259.2880422999151	5.864198999945074	go_punish	0.3981746002100408	259.29988190019503	260.6573323002085	263.19027840020135	1.3574504000134766	260.2993328999728	262.17883950006217	264.20221030013636	0.35799940023571253	1.0114389001391828	0.9618706000037491	n/a	1.0	n/a	2	0	100	3	go_punish	1	0	-1	1	1	1	0	n/a	n/a	0	0.3981746002100408	1.0	2070.9010187000968	2330.200900600292	2331.2003516000696	2331.5583510003053	2333.079858200159	2334.091297100298	n/a	n/a	2335.103229000233	2336.065099600237	2020-01-14 11:47:26.824525	1.59707200996642	-0.496485668099657	-1.70640125621539	-1.09441718776503	-0.109329246248967	-1.70640125621539	-1.59707200996642	-0.496485668099657	-1.70640125621539	-0.109329246248967	-1.70640125621539	0.496485668099657	-0.19154876644500596	-1.2002283912664096	-2.392856977092906	-2.4533711648424417	-0.868286770135117	-2.392856977092906	-0.781656017433842	-1.7263462568365135	-1.5347974903915098	-1.8446454718872414	-1.7484398964720733	4	missed	0.0
265.1954631996341	6.032869900111109	go_punish	0.3892850000411272	265.20730279991403	266.7082433002074	269.2505681999028	1.5009405002933818	266.219698700123	268.230615099892	270.2637069001794	0.488544600084424	1.0199531000107527	0.9764657998457551	n/a	1.0	n/a	2	0	101	3	go_punish	1	0	-1	1	1	1	0	n/a	n/a	0	0.3892850000411272	1.0	2070.9010187000968	2336.108321500011	2337.1207174002197	2337.609262000304	2339.131633799989	2340.1515868999995	n/a	n/a	2341.164725600276	2342.141191400122	2020-01-14 11:47:26.824525	1.62289838374222	-0.430659314172659	-1.70640125621539	-0.961833204279789	-0.0835028724731667	-1.70640125621539	-1.62289838374222	-0.430659314172659	-1.70640125621539	-0.0835028724731667	-1.70640125621539	0.430659314172659	-0.16572239266920596	-1.1344020373394115	-2.392856977092906	-2.320787181357201	-0.8424603963593167	-2.392856977092906	-0.84748237136084	-1.7005198830607133	-1.5347974903915098	-1.7788191179602433	-1.7484398964720733	4	missed	0.0
271.276891999878	7.215980399865657	nogo_reward	1.0	271.2887316001579	274.0349584999494	276.5652649998665	2.746226899791509	272.29790770029604	275.55072499997914	277.57259560003877	1.7370507996533888	1.0145399998873472	0.9321163999848068	n/a	1.0	n/a	2	0	102	2	nogo_reward	1	0	1	0	0	1	0	n/a	n/a	1	1.0	1.0	2070.9010187000968	2342.1897503002547	2343.198926400393	2344.935977200046	2346.451743700076	2347.4662836999632	n/a	n/a	2348.4736143001355	2349.4057307001203	2020-01-14 11:47:26.824525	10.9786196156106	0.971601634050978	9.40457504629084	9.45148448505832	-1.57404456931979	9.40457504629084	-10.9786196156106	9.40457504629084	0.971601634050978	9.40457504629084	-1.57404456931979	3.4712387069687587	9.189998839199175	0.26785891088422553	8.718119325413324	8.092530507980907	-2.33300209320594	8.718119325413324	2.1930970214352596	7.787558035703294	-1.4024408034959097	8.056415242503256	0.9295629937942947	4	missed	0.0
278.5364604997444	7.026083400007792	nogo_reward	1.0	278.54830010002433	280.81940860021905	283.33729769987985	2.271108500194714	279.55510829994455	282.3343386002816	284.33881379989907	1.264300300274499	1.002959099598229	1.2355697001330554	n/a	1.0	n/a	2	0	103	2	nogo_reward	1	0	1	0	0	1	0	n/a	n/a	1	1.0	1.0	2070.9010187000968	2349.449318800121	2350.4561270000413	2351.720427300316	2353.2353573003784	2354.2383163999766	n/a	n/a	2355.239832499996	2356.475402200129	2020-01-14 11:47:26.824525	11.4376997688334	0.971601634050978	9.76255705187341	9.8061535203145	-1.67514271695995	9.76255705187341	-11.4376997688334	9.76255705187341	0.971601634050978	9.76255705187341	-1.67514271695995	3.11325670138619	9.649078992421975	0.26785891088422553	9.076101330995893	8.447199543237087	-2.4341002408461	9.076101330995893	1.8351150158526908	8.145540041285862	-1.5035389511360697	8.414397248085825	0.9295629937942947	4	missed	0.0
285.60776539985136	6.815667800139181	go_punish	0.7262510000728071	285.6196050001313	287.65129020018503	290.2052588001825	2.0316852000537438	286.61623679986224	289.18451800011144	291.2059520999901	1.035053400322795	1.020740800071053	1.2293207002803683	n/a	1.0	n/a	2	0	104	3	go_punish	1	0	-1	1	1	1	0	n/a	n/a	0	0.7262510000728071	1.0	2070.9010187000968	2356.520623700228	2357.517255499959	2358.552308900282	2360.085536700208	2361.1062775002792	n/a	n/a	2362.106970800087	2363.336291500367	2020-01-14 11:47:26.824525	1.64472234509429	-0.375009333932737	-1.70640125621539	-0.847941554729436	-0.0616789111210976	-1.70640125621539	-1.64472234509429	-0.375009333932737	-1.70640125621539	-0.0616789111210976	-1.70640125621539	0.375009333932737	-0.14389843131713587	-1.0787520570994895	-2.392856977092906	-2.2068955318068477	-0.8206364350072476	-2.392856977092906	-0.9031323516007621	-1.6786959217086441	-1.5347974903915098	-1.7231691377203213	-1.7484398964720733	4	missed	0.0
292.4694581995718	6.489155700430274	nogo_reward	1.0	292.48129779985175	294.48115740017965	297.0046745999716	1.999859600327909	293.4918122002855	295.98689670022577	298.00851459987507	0.98934519989416	1.0177778997458518	0.961938900406949	n/a	1.0	n/a	2	0	105	2	nogo_reward	0	1	0	0	0	1	1	n/a	n/a	0	1.0	1.0	2070.9010187000968	2363.3823164999485	2364.3928309003823	2365.3821761002764	2366.8879154003225	2367.9056933000684	n/a	n/a	2368.909533299972	2369.871472200379	2020-01-14 11:47:26.824525	11.8383043682488	0.971601634050978	10.0762250409922	10.1167432695489	-1.76207932725666	10.0762250409922	-11.8383043682488	10.0762250409922	0.971601634050978	10.0762250409922	-1.76207932725666	-10.0762250409922	10.049683591837374	0.26785891088422553	9.389769320114684	8.757789292471488	-2.52103685114281	9.389769320114684	-11.3543667265257	8.459208030404653	-1.5904755614327797	8.728065237204616	0.9295629937942947	4	missed	0.0
299.004060999956	6.423038899898529	go_punish	1.0	299.0159006002359	300.8015335001983	303.32456950005144	1.7856328999623656	300.0217514000833	302.3099405001849	304.33411320019513	0.7797821001149714	1.0146289998665452	1.1048262999393046	n/a	1.0	n/a	2	0	106	3	go_punish	1	0	-1	1	0	0	1	n/a	n/a	-1	1.0	1.0	2070.9010187000968	2369.9169193003327	2370.92277010018	2371.702552200295	2373.2109592002816	2374.225588200148	n/a	n/a	2375.235131900292	2376.339958200231	2020-01-14 11:47:26.824525	-1.66328108372827	-0.327706697986163	-1.70640125621539	-0.749683850720749	-0.0431201724871115	-1.70640125621539	1.66328108372827	-1.70640125621539	-0.327706697986163	-1.70640125621539	-0.0431201724871115	-1.34792774860343	-3.451901860139696	-1.0314494211529155	-2.392856977092906	-2.108637827798161	-0.8020776963732615	-2.392856977092906	-2.6260694341369293	-3.3234182668029364	0.1284835933367688	-3.0545610600029747	-0.3697453382428462	4	missed	0.0
305.4700076999143	7.181230999995023	go_punish	0.2899362002499401	305.4818473001942	307.9135798001662	310.4623460001312	2.431732499971986	306.4856158001353	309.449257500004	311.4618508000858	1.4279640000308973	1.0130885001271963	1.201227500103414	n/a	1.0	n/a	2	0	107	3	go_punish	0	-1	0	1	1	1	0	n/a	n/a	-1	0.2899362002499401	1.0	2070.9010187000968	2376.382866000291	2377.386634500232	2378.814598500263	2380.350276200101	2381.363364700228	n/a	n/a	2382.3628695001826	2383.564097000286	2020-01-14 11:47:26.824525	1.88270544567763	-0.327706697986163	-1.84350672978653	-1.02396280266993	0.0391987158911061	-1.84350672978653	-1.88270544567763	-0.327706697986163	-1.84350672978653	0.0391987158911061	-1.84350672978653	-2.726622306832657	0.09408466926620407	-1.0314494211529155	-2.529962450664046	-2.382916779747342	-0.7197588079950439	-2.529962450664046	-4.004763992366156	-1.5778182946964405	-1.6719029639626497	-1.6758665017737473	-1.8855453700432132	4	missed	0.0
312.698244899977	6.4425589996390045	nogo_reward	1.0	312.7100845002569	314.27663710014895	316.79987150011584	1.5665525998920202	313.7150691002603	315.7949954001233	317.7988251000643	0.5615679998886662	1.0048760999925435	1.3538183998316526	n/a	1.0	n/a	2	0	108	2	nogo_reward	1	0	1	0	0	1	0	n/a	n/a	1	1.0	1.0	2070.9010187000968	2383.6111032003537	2384.616087800357	2385.1776558002457	2386.69601410022	2387.7008902002126	n/a	n/a	2388.699843800161	2390.0536621999927	2020-01-14 11:47:26.824525	10.2606159150155	0.971601634050978	8.87310466726171	8.91076574434109	-1.38751124775377	8.87310466726171	-10.2606159150155	8.87310466726171	0.971601634050978	8.87310466726171	-1.38751124775377	4.002709085997889	8.471995138604074	0.26785891088422553	8.186648946384194	7.551811767263677	-2.14646877163992	8.186648946384194	2.72456740046439	7.256087656674164	-1.2159074819298898	7.524944863474126	0.9295629937942947	4	missed	0.0
319.1684695999138	5.837702299933881	go_reward	0.4702391000464558	319.18030920019373	320.4612829000689	323.0150150000118	1.280973699875176	320.181059500203	321.99296620022506	324.0249361000024	0.2802233998659176	1.0220487997867167	0.9930754001252353	n/a	1.0	n/a	2	0	109	1	go_reward	1	1	0	1	1	1	0	n/a	n/a	1	0.4702391000464558	1.0	2070.9010187000968	2390.0813279002905	2391.0820782002997	2391.3623016001657	2392.893984900322	2393.9160337001085	n/a	n/a	2394.925954800099	2395.9190302002244	2020-01-14 11:47:26.824525	3.08363113031727	5.98449749952692	1.30163212912906	5.8900033316374	4.38526325944633	1.30163212912906	-3.08363113031727	5.98449749952692	1.30163212912906	4.38526325944633	1.30163212912906	6.89131625373268	1.295010353905844	5.280754776360167	0.6151764082515442	4.531049354559988	3.62630573556018	0.6151764082515442	5.613174568199181	2.768246248858784	1.4732358949529403	4.636337695739336	1.2595934888723768	4	missed	0.0
325.0310254995711	7.438574200030416	nogo_punish	0.2546062003821134	325.04286509985104	327.5738802002743	330.1190279000439	2.5310151004232466	326.0538133000955	329.0958507000473	331.127689700108	1.52006690017879	1.023177199996553	1.3537495997734368	n/a	1.0	n/a	2	0	110	4	nogo_punish	1	-1	0	0	1	0	0	n/a	n/a	-1	0.2546062003821134	1.0	2070.9010187000968	2395.943883799948	2396.9548320001923	2398.474898900371	2399.996869400144	2401.0200466001406	n/a	n/a	2402.028708400205	2403.382457999978	2020-01-14 11:47:26.824525	-0.35735131937398	-1.36686247506854	-0.587324520255887	-1.19746282439348	-0.944675839629867	-0.587324520255887	0.35735131937398	-1.36686247506854	-0.587324520255887	-0.944675839629867	-0.587324520255887	-1.68746652975028	-2.145972095785406	-2.0706051982352927	-1.273780241133403	-2.556416801470892	-1.703633363516017	-1.273780241133403	-2.965608215283779	-2.5616928502174137	-0.41572075443200673	-2.7150222788561242	-0.6293631605125702	4	missed	0.0
332.519112200011	7.139598099980503	go_punish	0.2666378999128937	332.53095180029095	334.67719219997525	337.19547250028745	2.1462403996843022	333.5297357002273	336.19730070000514	338.21051650028676	1.147456499747932	0.9981718002823072	1.4600333999846953	n/a	1.0	n/a	2	0	111	3	go_punish	1	0	-1	1	1	1	0	n/a	n/a	0	0.2666378999128937	1.0	2070.9010187000968	2403.4319705003877	2404.430754400324	2405.578210900072	2407.098319400102	2408.096491200384	n/a	n/a	2409.1115352003835	2410.571568600368	2020-01-14 11:47:26.824525	1.63329948811099	-0.646683687948141	-1.84350672978653	-1.25969291539489	-0.210207241675542	-1.84350672978653	-1.63329948811099	-0.646683687948141	-1.84350672978653	-0.210207241675542	-1.84350672978653	0.646683687948141	-0.155321288300436	-1.3504264111148934	-2.529962450664046	-2.618646892472302	-0.969164765561692	-2.529962450664046	-0.631457997585358	-1.8272242522630886	-1.6719029639626497	-1.9948434917357254	-1.8855453700432132	4	missed	0.0
339.70078689977527	5.9551587998867035	go_punish	0.9928338997997344	339.7126265000552	341.08062419993803	343.63108510011807	1.3679976998828351	340.7219275999814	342.6194620002061	344.6432600002736	0.35869659995660186	1.011623099911958	1.024525299668312	n/a	1.0	n/a	2	0	112	3	go_punish	1	0	-1	1	1	1	0	n/a	n/a	0	0.9928338997997344	1.0	2070.9010187000968	2410.613645200152	2411.622946300078	2411.981642900035	2413.520480700303	2414.532103800215	n/a	n/a	2415.5442787003703	2416.5688040000387	2020-01-14 11:47:26.824525	1.66988668313913	-0.562340866890357	-1.84350672978653	-1.103834024418	-0.173620046647398	-1.84350672978653	-1.66988668313913	-0.562340866890357	-1.84350672978653	-0.173620046647398	-1.84350672978653	0.562340866890357	-0.118734093272296	-1.2660835900571095	-2.529962450664046	-2.462788001495412	-0.932577570533548	-2.529962450664046	-0.715800818643142	-1.7906370572349446	-1.6719029639626497	-1.9105006706779415	-1.8855453700432132	4	missed	0.0
345.68427519965917	7.806388400028936	go_reward	0.257111799903214	345.6961147999391	348.47244499996305	351.01181060029194	2.776330200023949	346.70192759996326	349.9884482999332	352.02218049997464	1.7705173999997896	1.0233623003587127	1.480322699993394	n/a	1.0	n/a	2	0	113	1	go_reward	1	1	0	1	1	1	0	n/a	n/a	1	0.257111799903214	1.0	2070.9010187000968	2416.597133500036	2417.60294630006	2419.37346370006	2420.88946700003	2421.9128293003887	n/a	n/a	2422.9231992000714	2424.403521900065	2020-01-14 11:47:26.824525	3.58715236409325	6.70588807683654	1.30163212912906	6.64101239245307	4.88878449322231	1.30163212912906	-3.58715236409325	6.70588807683654	1.30163212912906	4.88878449322231	1.30163212912906	6.16992567642306	1.798531587681824	6.002145353669787	0.6151764082515442	5.2820584153756585	4.12982696933616	0.6151764082515442	4.891783990889561	3.271767482634764	1.4732358949529403	5.357728273048956	1.2595934888723768	4	missed	0.0
353.5198889998719	6.2970897001214325	go_reward	0.6060744002461433	353.53172860015184	354.86554790008813	357.4308374002576	1.3338192999362946	354.5380279002711	356.3861096003093	358.4297736999574	0.32751999981701374	1.044727799948305	1.3990446003158468	n/a	1.0	n/a	2	0	114	1	go_reward	0	0	1	1	1	1	0	n/a	n/a	0	0.6060744002461433	1.0	2070.9010187000968	2424.4327473002486	2425.439046600368	2425.766566600185	2427.287128300406	2428.3318561003543	n/a	n/a	2429.330792400054	2430.72983700037	2020-01-14 11:47:26.824525	4.03305429453485	7.33949290528787	1.30163212912906	7.29800887011073	5.33468642366391	1.30163212912906	-4.03305429453485	7.33949290528787	1.30163212912906	5.33468642366391	1.30163212912906	-7.33949290528787	2.244433518123424	6.635750182121118	0.6151764082515442	5.939054893033319	4.57572889977776	0.6151764082515442	-8.61763459082137	3.7176694130763632	1.4732358949529403	5.991333101500286	1.2595934888723768	4	missed	0.0
359.8423532997258	6.874809300061315	nogo_punish	0.327282799873501	359.8541929000057	361.73223780002445	364.289896300063	1.8780449000187218	360.867588799912	363.2703014998697	365.2900168001652	0.8646490001124221	1.0195948001933175	1.438985399901867	n/a	1.0	n/a	2	0	115	4	nogo_punish	1	-1	0	0	1	0	0	n/a	n/a	-1	0.327282799873501	1.0	2070.9010187000968	2430.7552116001025	2431.768607500009	2432.633256500121	2434.1713201999664	2435.1909150001597	n/a	n/a	2436.191035500262	2437.630020900164	2020-01-14 11:47:26.824525	-0.481855368717668	-1.55189058208361	-0.587324520255887	-1.40684884578218	-1.06917988897356	-0.587324520255887	0.481855368717668	-1.55189058208361	-0.587324520255887	-1.06917988897356	-0.587324520255887	-1.50243842273521	-2.270476145129094	-2.2556333052503623	-1.273780241133403	-2.765802822859592	-1.8281374128597099	-1.273780241133403	-2.780580108268709	-2.6861968995611063	-0.41572075443200673	-2.9000503858711943	-0.6293631605125702	4	missed	0.0
366.76287759980187	7.152127199806273	nogo_reward	1.0	366.7747172000818	369.12865999992937	371.66780469985633	2.353942799847573	367.78414250025526	370.6446161000058	372.67796180024743	1.3445174996741116	1.0231885998505277	1.2488825996406376	n/a	1.0	n/a	2	0	116	2	nogo_reward	1	0	1	0	0	1	0	n/a	n/a	1	1.0	1.0	2070.9010187000968	2437.6757359001786	2438.685161200352	2440.029678700026	2441.5456348001026	2442.568823399953	n/a	n/a	2443.578980500344	2444.827863099985	2020-01-14 11:47:26.824525	10.833190461474	0.971601634050978	9.31437734708421	9.34938859231194	-1.51881311438976	9.31437734708421	-10.833190461474	9.31437734708421	0.971601634050978	9.31437734708421	-1.51881311438976	3.561436406175389	9.044569685062575	0.26785891088422553	8.627921626206694	7.990434615234527	-2.27777063827591	8.627921626206694	2.28329472064189	7.697360336496664	-1.3472093485658798	7.966217543296626	0.9295629937942947	4	missed	0.0
373.9437245000154	7.230320799630135	nogo_punish	0.2761858999729156	373.9555641002953	376.3884109002538	378.9297736999574	2.4328467999584973	374.95996499992907	377.9050754001364	379.94136669998943	1.428445900324732	1.0246982998210115	1.2445181999360102	n/a	1.0	n/a	2	0	117	4	nogo_punish	1	-1	0	0	1	0	1	n/a	n/a	-1	0.2761858999729156	1.0	2070.9010187000968	2444.856582800392	2445.860983700026	2447.2894296003506	2448.806094100233	2449.830792400054	n/a	n/a	2450.842385400086	2452.086903600022	2020-01-14 11:47:26.824525	-0.591303511478698	-1.71305489418371	-0.587324520255887	-1.58857790361993	-1.17862803173459	-0.587324520255887	0.591303511478698	-1.71305489418371	-0.587324520255887	-1.17862803173459	-0.587324520255887	-1.34127411063511	-2.379924287890124	-2.4167976173504626	-1.273780241133403	-2.947531880697342	-1.93758555562074	-1.273780241133403	-2.6194157961686093	-2.7956450423221364	-0.41572075443200673	-3.0612146979712946	-0.6293631605125702	4	missed	0.0
381.2017903998494	6.122199299745716	go_reward	0.356233200058341	381.21363000012934	382.6324482001364	385.163841800299	1.418818200007081	382.2206385000609	384.15724779991433	386.1806816998874	0.41180970007553697	1.0065940003846663	1.1551475999876857	n/a	1.0	n/a	2	0	118	1	go_reward	1	1	0	1	1	1	0	n/a	n/a	1	0.356233200058341	1.0	2070.9010187000968	2452.114648700226	2453.1216572001576	2453.533466900233	2455.058266500011	2456.0648605003958	n/a	n/a	2457.081700399984	2458.236847999972	2020-01-14 11:47:26.824525	3.39954248271991	6.41858467308522	1.30163212912906	6.39552495701558	4.70117461184897	1.30163212912906	-3.39954248271991	6.41858467308522	1.30163212912906	4.70117461184897	1.30163212912906	6.45722908017438	1.6109217063084842	5.714841949918467	0.6151764082515442	5.036570979938167	3.9422170879628196	0.6151764082515442	5.179087394640881	3.084157601261423	1.4732358949529403	5.070424869297636	1.2595934888723768	4	missed	0.0
387.36942649958655	7.368091500364244	go_punish	0.3335183002054691	387.3812660998665	389.8059796001762	392.340077000204	2.4247135003097355	388.37527329986915	391.3288533003074	393.34951510000974	1.4307063003070652	1.0112236998966182	1.3998425002209842	n/a	1.0	n/a	2	0	119	3	go_punish	1	0	-1	1	1	1	0	n/a	n/a	0	0.3335183002054691	1.0	2070.9010187000968	2458.2822847999632	2459.276291999966	2460.706998300273	2462.229872000404	2463.241095700301	n/a	n/a	2464.2505338001065	2465.6503763003275	2020-01-14 11:47:26.824525	1.70125197817357	-0.490811352370328	-1.84350672978653	-0.97057305846524	-0.142254751612958	-1.84350672978653	-1.70125197817357	-0.490811352370328	-1.84350672978653	-0.142254751612958	-1.84350672978653	0.490811352370328	-0.08736879823785593	-1.1945540755370805	-2.529962450664046	-2.329527035542652	-0.901212275499108	-2.529962450664046	-0.787330333163171	-1.7592717622005045	-1.6719029639626497	-1.8389711561579123	-1.8855453700432132	4	missed	0.0
394.7863371996209	7.171266900375485	go_punish	0.3228326998651027	394.79817679990083	397.26767189987004	399.82421940006316	2.4694950999692082	395.80083779990673	398.805246300064	400.8358720000833	1.4668340999633074	1.0189730999991298	1.133571700192988	n/a	1.0	n/a	2	0	120	3	go_punish	0	-1	0	1	1	1	0	n/a	n/a	-1	0.3228326998651027	1.0	2070.9010187000968	2465.6991954999976	2466.7018565000035	2468.168690599967	2469.706265000161	2470.72523810016	n/a	n/a	2471.73689070018	2472.870462400373	2020-01-14 11:47:26.824525	1.72826635792759	-0.429834982921397	-1.84350672978653	-0.856083779433144	-0.115240371858942	-1.84350672978653	-1.72826635792759	-0.429834982921397	-1.84350672978653	-0.115240371858942	-1.84350672978653	-2.624494021897423	-0.060354418483835826	-1.1335777060881496	-2.529962450664046	-2.215037756510556	-0.874197895745092	-2.529962450664046	-3.902635707430922	-1.7322573824464886	-1.6719029639626497	-1.7779947867089814	-1.8855453700432132	4	missed	0.0
