onset	duration	trial_type	response_time	cueOnset	targetOnset	fbOnset	cueRT	firstfixOnset	secondfixOnset	waitOnset	firstfixdur	secondfixdur	waitdur	nback_fbOnset	nback_response_time	nback_targetOnset	block	wm	trial	cue	cond	is_common	outcome_go	outcome_nogo	key_correct	key_pressed	is_correct	key_correct_nback	key_pressed_nback	is_correct_nback	outcome	rt	rt_nback	time_scan	time_onset	time_isi1	time_circle	time_isi2	time_feedback	time_same	time_correct	time_iti	time_done	timestamp_scan	DV	Qgo	Qnogo	SV	Wgo	Wnogo	mDV	Qchosen	Qunchosen	Wchosen	Wunchosen	PE	DVC	QgoC	QnogoC	SVC	WgoC	WnogoC	PEC	WchosenC	WunchosenC	QchosenC	QunchosenC	run	outcome_nback	nback_targetResp
0.0	6.961867699981667	go_punish	0.4374497999669984	0.025523899996187538	2.5122762999963015	5.06208920001518	2.486752400000114	1.0348858999786898	4.0417933000135235	6.065937799983658	1.4773904000176117	1.0202959000016563	0.9214537999941967	n/a	1.0	n/a	1	0	61	2	go_punish	1	0	-1	1	1	1	1	n/a	n/a	0	0.4374497999669984	1.0	886.2580446000211	886.2835685000173	887.2929304999998	888.7703209000174	890.2998379000346	891.3201338000363	n/a	n/a	892.3239824000048	893.245436199999	2020-02-21 17:39:47.391887	1.97512401440778	0.0	-1.3813211370757	-0.785882565257442	0.593802877332082	-1.3813211370757	-1.97512401440778	0.0	-1.3813211370757	0.593802877332082	-1.3813211370757	0.0	-0.9398057727600952	-2.2758883369896483	-2.136525656986864	-3.6586838077886443	-2.048582587306954	-2.136525656986864	-0.6309655325589063	-2.562457008526957	-1.6226512357668632	-2.8941717507035136	-1.5182422432730005	2	missed	0.0
6.996554300014395	5.87692040001275	go_reward	0.3143316000350751	7.022078200010583	8.58533199998783	11.131806500023231	1.5632537999772467	8.038363999978174	10.11574009998003	12.139694700017571	0.546968000009656	1.0160664000432007	0.7593039000057615	n/a	1.0	n/a	1	0	62	4	go_reward	1	1	0	1	1	1	1	n/a	n/a	1	0.3143316000350751	1.0	886.2580446000211	893.2801228000317	894.2964085999993	894.8433766000089	896.3737847000011	897.3898511000443	n/a	n/a	898.3977393000387	899.1570432000444	2020-02-21 17:39:47.391887	8.66828333460235	9.20505706310397	0.220795905979888	9.26967152904631	8.88907924058224	0.220795905979888	-8.66828333460235	9.20505706310397	0.220795905979888	8.88907924058224	0.220795905979888	4.980789783509129	5.753353547434475	6.929168726114321	-0.5344086139312759	6.3968702865151075	6.2466937759432035	-0.5344086139312759	4.349824250950223	5.732819354723199	-0.020534192711275212	6.3108853124004565	0.08387479978258736	2	missed	0.0
12.908954899990931	6.281768699991403	go_reward	0.3168096999870613	12.934478799987119	14.289799700025469	16.81477689999167	1.3553209000383504	13.940089399984572	15.811088100017514	17.816383800003678	0.349710300040897	1.0036887999741566	1.3998636999748442	n/a	1.0	n/a	1	0	63	4	go_reward	1	1	0	1	1	1	0	n/a	n/a	1	0.3168096999870613	1.0	886.2580446000211	899.1925234000082	900.1981340000057	900.5478443000466	902.0691327000386	903.0728215000128	n/a	n/a	904.0744284000248	905.4742920999996	2020-02-21 17:39:47.391887	9.79344394640887	10.4383921171365	0.220795905979888	10.4927600036216	10.0142398523888	0.220795905979888	-9.79344394640887	10.4383921171365	0.220795905979888	10.0142398523888	0.220795905979888	3.7474547294765994	6.878514159240995	8.162503780146851	-0.5344086139312759	7.619958761090397	7.371854387749764	-0.5344086139312759	3.1164891969176933	6.85797996652976	-0.020534192711275212	7.544220366432986	0.08387479978258736	2	missed	0.0
19.223296299984327	7.223071800020762	nogo_punish	0.2736481999745592	19.248820199980514	21.693571400013752	24.24655069998687	2.444751200033238	20.251489099988135	23.225898000004122	25.25853529997414	1.4420823000256178	1.0206526999827474	1.2133567000271341	n/a	1.0	n/a	1	0	64	1	nogo_punish	0	0	-1	0	1	0	0	n/a	n/a	0	0.2736481999745592	1.0	886.2580446000211	905.5068648000016	906.5095337000092	907.9516160000348	909.4839426000252	910.504595300008	n/a	n/a	911.5165798999952	912.7299366000224	2020-02-21 17:39:47.391887	-0.391508152845364	-1.22886537217028	-0.233723736630403	-0.935343164470407	-0.625231889475767	-0.233723736630403	0.391508152845364	-1.22886537217028	-0.233723736630403	-0.625231889475767	-0.233723736630403	1.22886537217028	-3.306437940013239	-3.504753709159928	-0.9889282565415669	-3.8081444070016093	-3.2676173541148033	-0.9889282565415669	0.5978998396113737	-3.7814917753348065	-0.4750538353215662	-4.123037122873794	-0.3706448428277036	2	missed	0.0
26.490833299991095	7.409725999983607	nogo_reward	0.2718201999668963	26.516357199987283	29.485892999975476	32.01292170002125	2.9695357999881935	27.52817770000547	31.002531800011752	33.02631280000787	1.9577152999700047	1.0103899000094998	0.8997703999630176	n/a	1.0	n/a	1	0	65	3	nogo_reward	1	0	1	0	1	0	0	n/a	n/a	0	0.2718201999668963	1.0	886.2580446000211	912.7744018000084	913.7862223000266	915.7439375999966	917.2605764000328	918.2709663000423	n/a	n/a	919.284357400029	920.184127799992	2020-02-21 17:39:47.391887	-5.29397404943944	5.53052575568746	10.4065083997288	10.6309465704232	5.11253435028938	10.4065083997288	5.29397404943944	5.53052575568746	10.4065083997288	5.11253435028938	10.4065083997288	-5.53052575568746	-8.208903836607314	3.2546374186978118	9.651303879817636	7.758145327891998	2.4701488856503437	9.651303879817636	-6.161491288246366	1.9562744644303405	10.165178301037637	2.6363540049839465	10.2695872935315	2	missed	0.0
33.93964180001069	6.9647364999980255	nogo_reward	1.0	33.96516570000688	36.01477519999014	38.53288389998488	2.049609499983262	34.96617059997527	37.524809499969706	39.54590580001252	1.048604600014869	1.0080744000151753	1.3839963999923839	n/a	1.0	n/a	1	0	66	3	nogo_reward	0	1	0	0	0	1	0	n/a	n/a	0	1.0	1.0	886.2580446000211	920.223210300028	921.2242151999964	922.2728198000112	923.7828540999908	924.790928500006	n/a	n/a	925.8039504000336	927.187946800026	2020-02-21 17:39:47.391887	6.84180584200138	3.6745313074165	10.4065083997288	7.40961909095474	3.56470255772744	10.4065083997288	-6.84180584200138	10.4065083997288	3.6745313074165	10.4065083997288	3.56470255772744	-10.4065083997288	3.9268760548335044	1.3986429704268515	9.651303879817636	4.536817848423538	0.9223170930884037	9.651303879817636	-11.037473932287707	7.25024851386976	3.3233724590362765	7.512336649025286	3.537610201219199	2	missed	0.0
40.94024959998194	7.192197900032738	go_punish	0.2563197000417858	40.96577349997813	43.70640909997746	46.25305679999292	2.7406355999993366	41.97175109997613	45.23691139998846	47.2581341000041	1.7346580000013319	1.0161454000044614	0.8998373000067659	n/a	1.0	n/a	1	0	67	2	go_punish	1	0	-1	1	1	1	0	n/a	n/a	0	0.2563197000417858	1.0	886.2580446000211	927.2238180999992	928.2297956999972	929.9644536999986	931.4949560000096	932.511101400014	n/a	n/a	933.5161787000252	934.416016000032	2020-02-21 17:39:47.391887	1.95418656891113	0.0	-1.3813211370757	-0.524937748746251	0.572865431835425	-1.3813211370757	-1.95418656891113	0.0	-1.3813211370757	0.572865431835425	-1.3813211370757	0.0	-0.9607432182567452	-2.2758883369896483	-2.136525656986864	-3.3977389912774534	-2.069520032803611	-2.136525656986864	-0.6309655325589063	-2.5833944540236145	-1.6226512357668632	-2.8941717507035136	-1.5182422432730005	2	missed	0.0
48.17070969997428	6.619553200027667	go_punish	1.0	48.19623359997047	50.04359339998325	52.55926860001648	1.8473598000127822	49.199845900002515	51.54919390002033	53.57239829999173	0.8437474999807364	1.010074699996153	1.2433885000064038	n/a	1.0	n/a	1	0	68	2	go_punish	0	-1	0	1	0	0	0	n/a	n/a	0	1.0	1.0	886.2580446000211	934.4542781999916	935.4578905000236	936.3016380000043	937.8072385000414	938.8173132000376	n/a	n/a	939.8304429000128	941.0738314000192	2020-02-21 17:39:47.391887	-1.94199644758347	0.0	-1.3813211370757	-0.360789939835868	0.560675310507763	-1.3813211370757	1.94199644758347	-1.3813211370757	0.0	-1.3813211370757	0.560675310507763	1.3813211370757	-4.856926234751345	-2.2758883369896483	-2.136525656986864	-3.23359118236707	-2.0817101541312732	-2.136525656986864	0.7503556045167936	-4.53758102293474	0.3193452118165998	-4.2754928877792135	-0.13692110619730063	2	missed	0.0
54.82486300001631	7.679991799988784	nogo_punish	0.3051320000085979	54.850386900012495	57.55446590000054	60.10435669997253	2.7040789999880417	55.86216840002453	59.08470539998973	61.11757790000411	1.6922974999760072	1.0196512999827974	1.4128007999971715	n/a	1.0	n/a	1	0	69	1	nogo_punish	0	0	-1	0	1	0	0	n/a	n/a	0	0.3051320000085979	1.0	886.2580446000211	941.1084315000336	942.1202130000456	943.8125105000216	945.3427500000108	946.3624012999936	n/a	n/a	947.3756225000252	948.7884233000224	2020-02-21 17:39:47.391887	-0.0066014401631952	-0.819827045155436	-0.233723736630403	-0.630139947679439	-0.240325176793598	-0.233723736630403	0.0066014401631952	-0.819827045155436	-0.233723736630403	-0.240325176793598	-0.233723736630403	0.819827045155436	-2.9215312273310703	-3.0957153821450842	-0.9889282565415669	-3.5029411902106413	-2.882710641432634	-0.9889282565415669	0.18886151259652972	-3.3965850626526373	-0.4750538353215662	-3.7139987958589495	-0.3706448428277036	2	missed	0.0
62.54378309997276	7.599087800015582	go_punish	1.0	62.569306999968944	65.39932419999968	67.91800860001251	2.8300172000307384	63.569247499981316	66.89288459997613	68.92512500000896	1.8300767000183669	1.025124000036385	1.2432697999755646	n/a	1.0	n/a	1	0	70	2	go_punish	1	0	-1	1	0	0	1	n/a	n/a	-1	1.0	1.0	886.2580446000211	948.82735159999	949.8272921000024	951.6573688000208	953.1509291999972	954.1760532000336	n/a	n/a	955.18316960003	956.4264394000056	2020-02-21 17:39:47.391887	-1.47299238589472	0.0	-0.919689050537845	-0.254616980484137	0.553303335356876	-0.919689050537845	1.47299238589472	-0.919689050537845	0.0	-0.919689050537845	0.553303335356876	-0.808654064163765	-4.387922173062595	-2.2758883369896483	-1.6748935704490089	-3.127418223015339	-2.08908212928216	-1.6748935704490089	-1.4396195967226713	-4.075948936396884	0.31197323666571286	-3.8138608012413586	-0.13692110619730063	2	missed	0.0
70.18008090002695	7.455547599994929	go_punish	0.2596688999910839	70.20560480002314	72.64211539999815	75.19031330000132	2.4365105999750085	71.21114149998175	74.1696879999945	76.19179469998926	1.4309739000163972	1.0206253000068273	1.4693577000288087	n/a	1.0	n/a	1	0	71	2	go_punish	1	0	-1	1	1	1	0	n/a	n/a	0	0.2596688999910839	1.0	886.2580446000211	956.4636494000442	957.4691861000028	958.9001600000192	960.4277326000156	961.4483579000224	n/a	n/a	962.4498393000104	963.9191970000392	2020-02-21 17:39:47.391887	1.75756626341501	0.0	-1.16793255774216	-0.723257384914391	0.589633705672847	-1.16793255774216	-1.75756626341501	0.0	-1.16793255774216	0.589633705672847	-1.16793255774216	0.0	-1.1573635237528652	-2.2758883369896483	-1.9231370776533239	-3.596058627445593	-2.052751758966189	-1.9231370776533239	-0.6309655325589063	-2.5666261801861925	-1.4092626564333233	-2.8941717507035136	-1.3048536639394606	2	missed	0.0
77.67625229997793	6.205888400028812	nogo_reward	0.3005577999865636	77.70177619997412	79.49494030000653	82.02664940000966	1.7931641000324134	78.7137940999819	81.0161246000207	83.03962489997491	0.7811462000246365	1.010524799988957	0.8680397000280209	n/a	1.0	n/a	1	0	72	3	nogo_reward	1	0	1	0	1	0	0	n/a	n/a	0	0.3005577999865636	1.0	886.2580446000211	963.9598207999952	964.971838700003	965.7529849000276	967.2741692000418	968.2846940000308	n/a	n/a	969.297669499996	970.165709200024	2020-02-21 17:39:47.391887	-3.47083063320059	3.6745313074165	7.22723748383477	5.31368601840023	3.75640685063418	7.22723748383477	3.47083063320059	3.6745313074165	7.22723748383477	3.75640685063418	7.22723748383477	-3.6745313074165	-6.385760420368465	1.3986429704268515	6.472032963923606	2.440884775869028	1.114021385995144	6.472032963923606	-4.305496839975406	0.6001469647751407	6.985907385143607	0.7803595567129862	7.090316377637469	2	missed	0.0
83.92071540001791	6.290273899969179	nogo_reward	1.0	83.9462393000141	85.35446030000446	87.87080410000635	1.4082209999903625	84.95869699999446	86.84973110002454	88.8838486999739	0.39576330001000315	1.0210729999818113	1.3526645000093822	n/a	1.0	n/a	1	0	73	3	nogo_reward	0	1	0	0	0	1	0	n/a	n/a	0	1.0	1.0	886.2580446000211	970.2042839000352	971.2167416000156	971.6125049000256	973.1077757000456	974.1288487000274	n/a	n/a	975.141893299995	976.4945578000044	2020-02-21 17:39:47.391887	4.50586065372967	2.51527408407953	7.22723748383477	3.9088934975635	2.7213768301051	7.22723748383477	-4.50586065372967	7.22723748383477	2.51527408407953	7.22723748383477	2.7213768301051	-7.22723748383477	1.5909308665617945	0.23938574708988147	6.472032963923606	1.036092255032298	0.07899136546606389	6.472032963923606	-7.858203016393676	4.07097759797573	2.4800467314139367	4.3330657331312565	2.378352977882229	2	missed	0.0
90.25017770001432	7.1418731000158004	go_punish	0.2689890000037849	90.2757016000105	92.82464750000509	95.36628600000415	2.548945899994578	91.28789039998094	94.35532739997132	96.37107110000215	1.536757100024147	1.0109586000328363	1.0465036000241525	n/a	1.0	n/a	1	0	74	2	go_punish	1	0	-1	1	1	1	0	n/a	n/a	0	0.2689890000037849	1.0	886.2580446000211	976.5337462000316	977.545935000002	979.0826921000262	980.6133719999924	981.6243306000252	n/a	n/a	982.6291157000232	983.6756193000474	2020-02-21 17:39:47.391887	1.73816077275934	0.0	-1.16793255774216	-0.483468785573256	0.570228215017175	-1.16793255774216	-1.73816077275934	0.0	-1.16793255774216	0.570228215017175	-1.16793255774216	0.0	-1.1767690144085352	-2.2758883369896483	-1.9231370776533239	-3.356270028104458	-2.072157249621861	-1.9231370776533239	-0.6309655325589063	-2.5860316708418645	-1.4092626564333233	-2.8941717507035136	-1.3048536639394606	2	missed	0.0
97.42882999998994	6.561647900030721	go_reward	0.4280393000226468	97.45435389998613	98.96863159997167	101.52326089999406	1.5142776999855414	98.46886040002573	100.49952810001571	102.52283149998414	0.49977119994593977	1.0237327999783474	1.4931703000327161	n/a	1.0	n/a	1	0	75	4	go_reward	1	1	0	1	1	1	0	n/a	n/a	1	0.4280393000226468	1.0	886.2580446000211	983.7123985000072	984.7269050000468	985.2266761999928	986.7575727000368	987.7813055000152	n/a	n/a	988.7808761000052	990.274046400038	2020-02-21 17:39:47.391887	10.5812090620778	11.2998658083206	0.220795905979888	11.3459313494515	10.8020049680577	0.220795905979888	-10.5812090620778	11.2998658083206	0.220795905979888	10.8020049680577	0.220795905979888	2.885981038292499	7.666279274909925	9.023977471330952	-0.5344086139312759	8.473130106920298	8.159619503418664	-0.5344086139312759	2.255015505733593	7.64574508219866	-0.020534192711275212	8.405694057617087	0.08387479978258736	2	missed	0.0
104.03140089998487	6.641962800000215	nogo_reward	0.3007306999643333	104.05692479998106	105.7231393000111	108.2787753000157	1.666214500030037	105.06736539996928	107.25860749999993	109.29134090000287	0.6557739000418223	1.02016780001577	1.4075466999784112	n/a	1.0	n/a	1	0	76	3	nogo_reward	1	0	1	0	1	0	0	n/a	n/a	0	0.3007306999643333	1.0	886.2580446000211	990.3149694000022	991.3254099999904	991.9811839000322	993.516652100021	994.5368199000368	n/a	n/a	995.549385500024	996.9569322000024	2020-02-21 17:39:47.391887	-2.35886921090219	2.51527408407953	5.16382006942826	2.94157347064076	2.80495085852608	5.16382006942826	2.35886921090219	2.51527408407953	5.16382006942826	2.80495085852608	5.16382006942826	-2.51527408407953	-5.273798998070065	0.23938574708988147	4.408615549517096	0.06877222810955796	0.16256539388704372	4.408615549517096	-3.146239616638436	-0.35130902733295954	4.922489970737097	-0.37889766662398383	5.026898963230959	2	missed	0.0
110.71534420002706	7.1472260999728405	nogo_reward	0.3726047999807633	110.74086810002325	113.09004929999355	115.63020349998249	2.349181199970303	111.74005700001726	114.62066189997131	116.64165579999087	1.349992299976293	1.0095416000111754	1.2464384000052178	n/a	1.0	n/a	1	0	77	3	nogo_reward	1	0	1	0	1	0	0	n/a	n/a	0	0.3726047999807633	1.0	886.2580446000211	996.9989127000443	997.9981016000384	999.3480939000146	1000.8787064999924	1001.8882481000036	n/a	n/a	1002.899700400012	1004.1461388000172	2020-02-21 17:39:47.391887	-3.04687291586405	1.76911783664576	5.16382006942826	2.2588220275046	2.11694715356422	5.16382006942826	3.04687291586405	1.76911783664576	5.16382006942826	2.11694715356422	5.16382006942826	-1.76911783664576	-5.961802703031925	-0.5067705003438883	4.408615549517096	-0.6139792150266024	-0.525438311074816	4.408615549517096	-2.4000833692046664	-1.0393127322948192	4.922489970737097	-1.1250539140577536	5.026898963230959	2	missed	0.0
117.89883600000746	5.988164799986407	nogo_punish	0.50080809998326	117.92435990000365	119.4077964000171	121.95196320000093	1.483436500013454	118.93865329999255	120.93841220001934	122.96227369998815	0.46914310002455295	1.0135509999815895	0.9502510000019129	n/a	1.0	n/a	1	0	78	1	nogo_punish	1	-1	0	0	1	0	0	n/a	n/a	-1	0.50080809998326	1.0	886.2580446000211	1004.1824045000247	1005.1966979000136	1005.6658410000382	1007.1964568000404	1008.210007800022	n/a	n/a	1009.2203183000092	1010.1705693000112	2020-02-21 17:39:47.391887	0.23716432565277	-0.561892026111229	-0.233723736630403	-0.436808987465852	0.0034405890223675	-0.233723736630403	-0.23716432565277	-0.561892026111229	-0.233723736630403	0.0034405890223675	-0.233723736630403	-1.166451088590381	-2.677765461515105	-2.8377803631008773	-0.9889282565415669	-3.309610229997054	-2.6389448756166685	-0.9889282565415669	-1.7974166211492872	-3.1528192968366717	-0.4750538353215662	-3.4560637768147426	-0.3706448428277036	2	missed	0.0
123.92262760002632	6.467681499954779	go_reward	0.344275799987372	123.9481515000225	125.52744959999109	128.0536683999817	1.5792980999685824	124.96450190001633	127.03855040000053	129.06273730000248	0.5629476999747567	1.0151179999811575	1.3530956999748014	n/a	1.0	n/a	1	0	79	4	go_reward	1	1	0	1	1	1	0	n/a	n/a	1	0.344275799987372	1.0	886.2580446000211	1010.2061961000436	1011.2225465000374	1011.7854942000122	1013.2965950000216	1014.3117130000028	n/a	n/a	1015.3207819000236	1016.6738775999984	2020-02-21 17:39:47.391887	11.146848490352	11.9175080013258	0.220795905979888	11.9567874230123	11.3676443963318	0.220795905979888	-11.146848490352	11.9175080013258	0.220795905979888	11.3676443963318	0.220795905979888	2.2683388452872997	8.231918703184125	9.641619664336151	-0.5344086139312759	9.083986180481098	8.725258931692764	-0.5344086139312759	1.6373733127283934	8.21138451047276	-0.020534192711275212	9.023336250622286	0.08387479978258736	2	missed	0.0
130.42897200002335	5.986980899993796	go_reward	0.3443265000241808	130.45449590001954	131.8253563999897	134.38515119999647	1.3708604999701492	131.46599709999293	133.36141120002128	135.3940476999851	0.3593592999967541	1.0237399999751915	1.0474291000282392	n/a	1.0	n/a	1	0	80	4	go_reward	1	1	0	1	1	1	0	n/a	n/a	1	0.3443265000241808	1.0	886.2580446000211	1016.7125405000406	1017.724041700014	1018.0834010000108	1019.6194558000424	1020.6431958000176	n/a	n/a	1021.6520923000062	1022.6995214000344	2020-02-21 17:39:47.391887	11.5624712901846	12.3709485322551	0.220795905979888	12.404636592201	11.7832671961645	0.220795905979888	-11.5624712901846	12.3709485322551	0.220795905979888	11.7832671961645	0.220795905979888	1.8148983143579986	8.647541503016726	10.095060195265452	-0.5344086139312759	9.531835349669798	9.140881731525464	-0.5344086139312759	1.1839327817990923	8.62700731030546	-0.020534192711275212	9.476776781551587	0.08387479978258736	2	missed	0.0
136.45063390000712	7.205761799996367	go_reward	0.2665506000048481	136.4761578000033	138.83114470000146	141.38636709999992	2.3549868999981527	137.48976440000115	140.36247819999699	142.39105600002222	1.34138030000031	1.0238889000029303	1.290863599977456	n/a	1.0	n/a	1	0	81	4	go_reward	1	1	0	1	1	1	1	n/a	n/a	1	0.2665506000048481	1.0	886.2580446000211	1022.7342024000244	1023.7478090000222	1025.0891893000226	1026.620522800018	1027.644411700021	n/a	n/a	1028.6491006000433	1029.9399642000208	2020-02-21 17:39:47.391887	11.8743442304984	12.7110461701712	0.220795905979888	12.7400933531282	12.0951401364782	0.220795905979888	-11.8743442304984	12.7110461701712	0.220795905979888	12.0951401364782	0.220795905979888	1.4748006764419	8.959414443330525	10.43515783318155	-0.5344086139312759	9.867292110596999	9.452754671839164	-0.5344086139312759	0.8438351438829936	8.93888025061916	-0.020534192711275212	9.816874419467686	0.08387479978258736	2	missed	0.0
143.70233860000735	6.203460999997333	nogo_reward	1.0	143.72786250000354	145.59246890002396	148.1163950000191	1.8646064000204206	144.73798410000722	147.09144350001588	149.1257731000078	0.8544848000167349	1.024951500003226	0.8055503999930806	n/a	1.0	n/a	1	0	82	3	nogo_reward	1	0	1	0	0	1	0	n/a	n/a	1	1.0	1.0	886.2580446000211	1029.9859071000246	1030.9960287000283	1031.850513500045	1033.349488100037	1034.3744396000402	n/a	n/a	1035.3838177000289	1036.189368100022	2020-02-21 17:39:47.391887	3.49878407831439	1.27552122012428	5.16382006942826	1.76589270373937	1.66503599111387	5.16382006942826	-3.49878407831439	5.16382006942826	1.27552122012428	5.16382006942826	1.66503599111387	9.02202677718484	0.583854291146515	-1.0003671168653683	4.408615549517096	-1.1069085387918323	-0.9773494735251662	4.408615549517096	8.391061244625933	2.0075601835692205	1.4237058924227066	2.2696483187247463	1.1386001139269795	2	missed	0.0
149.94521199999144	7.032646200037789	go_punish	1.0	149.97073589998763	151.98658640001668	154.5243277999689	2.015850500029046	150.9826911999844	153.50323889998253	155.52958370000124	1.0038952000322752	1.0210888999863528	1.4737984000241795	n/a	1.0	n/a	1	0	83	2	go_punish	0	-1	0	1	0	0	0	n/a	n/a	0	1.0	1.0	886.2580446000211	1036.2287805000087	1037.2407358000055	1038.2446310000378	1039.7612835000036	1040.78237239999	n/a	n/a	1041.7876283000223	1043.2614267000465	2020-02-21 17:39:47.391887	-1.726887036729	0.0	-1.16793255774216	-0.332810012849618	0.558954478986834	-1.16793255774216	1.726887036729	-1.16793255774216	0.0	-1.16793255774216	0.558954478986834	1.16793255774216	-4.641816823896875	-2.2758883369896483	-1.9231370776533239	-3.2056112553808203	-2.083430985652202	-1.9231370776533239	0.5369670251832537	-4.324192443601199	0.31762438029567086	-4.062104308445674	-0.13692110619730063	2	missed	0.0
157.0126921000192	6.40422749996651	nogo_punish	1.0	157.03821600001538	158.94608670001617	161.4734647999867	1.9078707000007853	158.03990159998648	160.44997590000276	162.4743446999928	0.9061851000296883	1.0234888999839313	0.9680987999890931	n/a	1.0	n/a	1	0	84	1	nogo_punish	0	0	-1	0	0	1	0	n/a	n/a	-1	1.0	1.0	886.2580446000211	1043.2962606000365	1044.2979462000076	1045.2041313000373	1046.7080205000238	1047.7315094000078	n/a	n/a	1048.732389300014	1049.700488100003	2020-02-21 17:39:47.391887	0.102640946719059	-0.934008364637068	-0.233723736630403	-0.849991317400449	-0.336364683349462	-0.233723736630403	-0.102640946719059	-0.233723736630403	-0.934008364637068	-0.233723736630403	-0.336364683349462	-1.494619378071207	-2.812288840448816	-3.2098967016267164	-0.9889282565415669	-3.7227925599316514	-2.978750147988498	-0.9889282565415669	-2.1255849106301135	-3.389983622489442	-0.5776947820406252	-3.1278954873339164	-1.0709294708343686	2	missed	0.0
163.45025120000355	6.344534499978181	nogo_punish	0.3085028000059537	163.47577509999974	165.0302389999854	167.586102099973	1.5544638999856488	164.46608059998835	166.56683189998148	168.59910310001578	0.5641583999970408	1.0192701999915244	1.2212064999621361	n/a	1.0	n/a	1	0	85	1	nogo_punish	1	-1	0	0	1	0	0	n/a	n/a	-1	0.3085028000059537	1.0	886.2580446000211	1049.7338197000208	1050.7241252000094	1051.2882836000065	1052.8248765000026	1053.844146699994	n/a	n/a	1054.8571477000369	1056.078354199999	2020-02-21 17:39:47.391887	0.386992079954642	-0.934008364637068	-0.704271902452571	-1.11305822530649	-0.317279822497929	-0.704271902452571	-0.386992079954642	-0.934008364637068	-0.704271902452571	-0.317279822497929	-0.704271902452571	-0.7943347500645419	-2.5279377072132334	-3.2098967016267164	-1.4594764223637349	-3.985859467837692	-2.959665287136965	-1.4594764223637349	-1.4253002826234482	-3.4735397083569683	-0.9456020011437342	-3.8281801153405817	-0.8411930086498716	2	missed	0.0
169.83281150000403	6.096036400005687	go_punish	0.366988499998115	169.85833540000021	171.1416897000163	173.7013125999947	1.2833543000160716	170.8714036999736	172.68030850001378	174.70588369999314	0.2702860000426881	1.021004099980928	1.2484881000127643	n/a	1.0	n/a	1	0	86	2	go_punish	1	0	-1	1	1	1	0	n/a	n/a	0	0.366988499998115	1.0	886.2580446000211	1056.1163800000213	1057.1294482999947	1057.3997343000374	1058.9383531000349	1059.9593572000158	n/a	n/a	1060.9639283000142	1062.212416400027	2020-02-21 17:39:47.391887	1.34013037955785	0.0	-0.787983502700292	-0.235411093352712	0.552146876857555	-0.787983502700292	-1.34013037955785	0.0	-0.787983502700292	0.552146876857555	-0.787983502700292	0.0	-1.5747994076100251	-2.2758883369896483	-1.543188022611456	-3.108212335883914	-2.090238587781481	-1.543188022611456	-0.6309655325589063	-2.6041130090014843	-1.0293136013914552	-2.8941717507035136	-0.9249046088975927	2	missed	0.0
175.9627689999761	6.871990800020285	nogo_punish	0.9358346000080928	175.9882928999723	177.82898930000374	180.37936179997632	1.8406964000314474	176.9930404999759	179.3588686999865	181.39264520001598	0.8359488000278361	1.0204930999898352	1.4676384999766015	n/a	1.0	n/a	1	0	87	1	nogo_punish	0	0	-1	0	1	0	1	n/a	n/a	0	0.9358346000080928	1.0	886.2580446000211	1062.2463374999934	1063.251085099997	1064.0870339000248	1065.6169133000076	1066.6374063999974	n/a	n/a	1067.650689800037	1069.1183283000137	2020-02-21 17:39:47.391887	0.162268718901387	-1.17045110884924	-0.704271902452571	-1.28533422898678	-0.542003183551185	-0.704271902452571	-0.162268718901387	-1.17045110884924	-0.704271902452571	-0.542003183551185	-0.704271902452571	1.17045110884924	-2.7526610682664883	-3.4463394458388885	-1.4594764223637349	-4.158135471517982	-3.1843886481902213	-1.4594764223637349	0.5394855762903337	-3.6982630694102245	-0.9456020011437342	-4.064622859552753	-0.8411930086498716	2	missed	0.0
182.8710473999963	6.444730399991386	go_punish	0.2823750000097789	182.8965712999925	184.83336869999766	187.36611549998634	1.9367974000051618	183.9112346000038	186.35386560001643	188.379255099979	0.9221340999938548	1.012249899969902	0.9620466000048964	n/a	1.0	n/a	1	0	88	2	go_punish	1	0	-1	1	1	1	1	n/a	n/a	0	0.2823750000097789	1.0	886.2580446000211	1069.1546159000136	1070.169279200025	1071.0914133000188	1072.6119102000375	1073.6241601000074	n/a	n/a	1074.6372997	1075.599346300005	2020-02-21 17:39:47.391887	1.33586003169284	0.0	-0.787983502700292	-0.170752801145106	0.547876528992543	-0.787983502700292	-1.33586003169284	0.0	-0.787983502700292	0.547876528992543	-0.787983502700292	0.0	-1.5790697554750353	-2.2758883369896483	-1.543188022611456	-3.043554043676308	-2.094508935646493	-1.543188022611456	-0.6309655325589063	-2.6083833568664962	-1.0293136013914552	-2.8941717507035136	-0.9249046088975927	2	missed	0.0
189.35600640001962	6.2899835999703555	go_punish	0.2875984000274911	189.3815303000158	190.899174899969	193.44637929997407	1.5176445999532007	190.39219719998073	192.43610789999366	194.45904889999656	0.5069776999882833	1.010271399980411	1.2124649999896064	n/a	1.0	n/a	1	0	89	2	go_punish	1	0	-1	1	1	1	0	n/a	n/a	0	0.2875984000274911	1.0	886.2580446000211	1075.639574900037	1076.6502418000018	1077.15721949999	1078.6941525000148	1079.7044238999952	n/a	n/a	1080.7170935000177	1081.9295585000073	2020-02-21 17:39:47.391887	1.33307988437517	0.0	-0.787983502700292	-0.126748165145511	0.545096381674879	-0.787983502700292	-1.33307988437517	0.0	-0.787983502700292	0.545096381674879	-0.787983502700292	0.0	-1.581849902792705	-2.2758883369896483	-1.543188022611456	-2.9995494076767133	-2.0972890829641573	-1.543188022611456	-0.6309655325589063	-2.6111635041841605	-1.0293136013914552	-2.8941717507035136	-0.9249046088975927	2	missed	0.0
195.68816610000795	6.6031696000136435	nogo_reward	1.0	195.71369000000414	197.6738734000246	200.20704379997915	1.960183400020469	196.71404280001298	199.18251189996954	201.20677300001262	0.9598306000116281	1.024531900009606	1.110086600005161	n/a	1.0	n/a	1	0	90	3	nogo_reward	1	0	1	0	0	1	0	n/a	n/a	1	1.0	1.0	886.2580446000211	1081.9717346000252	1082.972087400034	1083.9319180000457	1085.4405564999906	1086.4650884000002	n/a	n/a	1087.4648176000337	1088.5749042000389	2020-02-21 17:39:47.391887	6.74448719179948	1.27552122012428	8.03310703053474	5.6511670153316	1.28861983873526	8.03310703053474	-6.74448719179948	8.03310703053474	1.27552122012428	8.03310703053474	1.28861983873526	6.152739816078359	3.8295574046316045	-1.0003671168653683	7.277902510623576	2.778365772800398	-1.353765625903776	7.277902510623576	5.521774283519453	4.8768471446757005	1.0472897400440968	5.138935279831227	1.1386001139269795	2	missed	0.0
202.33003529999382	6.597211199987214	nogo_punish	1.0	202.35555919999	203.92551929998444	206.4619423999684	1.5699600999944323	203.37385350000113	205.44208499998786	207.46681150002405	0.5516657999833114	1.0198573999805376	1.4859588999531752	n/a	1.0	n/a	1	0	91	1	nogo_punish	1	-1	0	0	0	1	0	n/a	n/a	0	1.0	1.0	886.2580446000211	1088.613603800011	1089.6318981000222	1090.1835639000055	1091.700129600009	1092.7199869999895	n/a	n/a	1093.7248561000451	1095.2108149999983	2020-02-21 17:39:47.391887	-0.51320459101647	-0.786033497035355	-0.704271902452571	-0.862056529626661	-0.191067311436101	-0.704271902452571	0.51320459101647	-0.704271902452571	-0.786033497035355	-0.704271902452571	-0.191067311436101	0.704271902452571	-3.428134378184345	-3.061921834025003	-1.4594764223637349	-3.7348577721578633	-2.833452776075137	-1.4594764223637349	0.07330636989366468	-3.8605317883116106	-0.4323974101272642	-3.5984436531560844	-0.9229546032326557	2	missed	0.0
208.97321630001534	6.785964199982118	go_reward	0.3333833999931812	208.99874020001153	210.8293881000136	213.3917456999768	1.8306479000020772	210.01685100002214	212.3679686000105	214.40052470000228	0.8125370999914594	1.0237770999663098	1.384179699991364	n/a	1.0	n/a	1	0	92	4	go_reward	1	1	0	1	1	1	0	n/a	n/a	1	0.3333833999931812	1.0	886.2580446000211	1095.2567848000326	1096.2748956000432	1097.0874327000347	1098.6260132000316	1099.649790299998	n/a	n/a	1100.6585693000234	1102.0427490000147	2020-02-21 17:39:47.391887	12.11285959712	12.9710940843358	0.220795905979888	12.9962632375669	12.3336555030999	0.220795905979888	-12.11285959712	12.9710940843358	0.220795905979888	12.3336555030999	0.220795905979888	1.2147527622772998	9.197929809952125	10.69520574734615	-0.5344086139312759	10.123461995035697	9.691270038460864	-0.5344086139312759	0.5837872297183935	9.17739561724086	-0.020534192711275212	10.076922333632286	0.08387479978258736	2	missed	0.0
215.8008682000218	6.039015799993649	nogo_reward	1.0	215.82639210001798	217.19124409998767	219.72220169997308	1.3648519999696873	216.82739659998333	218.70800959999906	220.73118419997627	0.36384750000433996	1.014192099974025	1.1342237000353634	n/a	1.0	n/a	1	0	93	3	nogo_reward	1	0	1	0	0	1	0	n/a	n/a	1	1.0	1.0	886.2580446000211	1102.084436700039	1103.0854412000044	1103.4492887000088	1104.9660542000202	1105.9802462999942	n/a	n/a	1106.9892287999974	1108.1234525000327	2020-02-21 17:39:47.391887	8.79453849306073	1.27552122012428	9.85291405176798	8.14519724801112	1.05837555870725	9.85291405176798	-8.79453849306073	9.85291405176798	1.27552122012428	9.85291405176798	1.05837555870725	4.332932794845119	5.879608705892855	-1.0003671168653683	9.097709531856816	5.272396005479918	-1.584009905931786	9.097709531856816	3.701967262286213	6.6966541659089405	0.8170454600160869	6.958742301064467	1.1386001139269795	2	missed	0.0
221.8786888999748	6.751026600017212	go_reward	0.3101850000093691	221.904212799971	224.09354450000683	226.63149310002336	2.1893317000358365	222.92257419996895	225.6249635000131	227.6405545999878	1.1709703000378795	1.0065296000102535	1.0146848000003956	n/a	1.0	n/a	1	0	94	4	go_reward	1	1	0	1	1	1	1	n/a	n/a	1	0.3101850000093691	1.0	886.2580446000211	1108.162257399992	1109.18061879999	1110.351589100028	1111.8830081000342	1112.8895377000445	n/a	n/a	1113.898599200009	1114.9132840000093	2020-02-21 17:39:47.391887	12.2984277053888	13.1733955616837	0.220795905979888	13.1953039379116	12.5192236113686	0.220795905979888	-12.2984277053888	13.1733955616837	0.220795905979888	12.5192236113686	0.220795905979888	1.0124512849293996	9.383497918220925	10.897507224694051	-0.5344086139312759	10.322502695380397	9.876838146729565	-0.5344086139312759	0.3814857523704933	9.36296372550956	-0.020534192711275212	10.279223810980186	0.08387479978258736	2	missed	0.0
228.6677100000088	6.371690200001467	nogo_punish	1.0	228.693233900005	230.1584088000236	232.6939207999967	1.46517490001861	229.69967960001668	231.67393889999948	233.7121648999746	0.4587292000069283	1.0199818999972194	1.3527592000318691	n/a	1.0	n/a	1	0	95	1	nogo_punish	1	-1	0	0	0	1	0	n/a	n/a	0	1.0	1.0	886.2580446000211	1114.951278500026	1115.9577242000378	1116.4164534000447	1117.9319835000206	1118.9519654000178	n/a	n/a	1119.9702094999957	1121.3229687000276	2020-02-21 17:39:47.391887	-0.255898299535073	-0.786033497035355	-0.466582257662708	-0.594655333351506	-0.210683958127634	-0.466582257662708	0.255898299535073	-0.466582257662708	-0.786033497035355	-0.466582257662708	-0.210683958127634	0.466582257662708	-3.170828086702948	-3.061921834025003	-1.2217867775738718	-3.467456575882708	-2.85306942276667	-1.2217867775738718	-0.1643832748961983	-3.6228421435217473	-0.4520140568187972	-3.3607540083662215	-0.9229546032326557	2	missed	0.0
235.07528490002733	5.720799499948271	go_reward	0.416304400016088	235.10080880002351	236.42136859998573	238.98389009997481	1.3205597999622114	236.10445009998512	237.9600529000163	239.9846194999991	0.31691850000061095	1.023837199958507	0.836988799972687	n/a	1.0	n/a	1	0	96	4	go_reward	1	1	0	1	1	1	1	n/a	n/a	1	0.416304400016088	1.0	886.2580446000211	1121.3588534000446	1122.3624947000062	1122.6794132000068	1124.2180975000374	1125.241934699996	n/a	n/a	1126.2426641000202	1127.0796528999929	2020-02-21 17:39:47.391887	12.4450438851441	13.3332192664357	0.220795905979888	13.3523700812203	12.665839791124	0.220795905979888	-12.4450438851441	13.3332192664357	0.220795905979888	12.665839791124	0.220795905979888	0.8526275801773995	9.530114097976226	11.057330929446051	-0.5344086139312759	10.479568838689097	10.023454326484964	-0.5344086139312759	0.22166204761849317	9.50957990526496	-0.020534192711275212	10.439047515732186	0.08387479978258736	2	missed	0.0
240.83315770002082	6.782900799997151	go_punish	0.2762489999877289	240.858681600017	242.72251049999613	245.2867857000092	1.8638288999791257	241.87252159998752	244.2656819999686	246.2985116000052	0.8499889000086114	1.0211037000406122	1.3430708000089453	n/a	1.0	n/a	1	0	97	2	go_punish	1	0	-1	1	1	1	0	n/a	n/a	0	0.2762489999877289	1.0	886.2580446000211	1127.116726200038	1128.1305662000086	1128.9805551000172	1130.5237265999897	1131.5448303000303	n/a	n/a	1132.5565562000263	1133.8996270000353	2020-02-21 17:39:47.391887	1.33120452756215	0.0	-0.787983502700292	-0.0960903219948617	0.543221024861858	-0.787983502700292	-1.33120452756215	0.0	-0.787983502700292	0.543221024861858	-0.787983502700292	0.0	-1.5837252596057252	-2.2758883369896483	-1.543188022611456	-2.968891564526064	-2.0991644397771783	-1.543188022611456	-0.6309655325589063	-2.6130388609971815	-1.0293136013914552	-2.8941717507035136	-0.9249046088975927	2	missed	0.0
247.6605807999731	6.484188500035316	nogo_reward	1.0	247.6861046999693	249.68231649999507	252.21511519997148	1.996211800025776	248.6985152999987	251.19669239997165	253.22219170001335	0.9838011999963783	1.0184227999998257	0.9481014999912531	n/a	1.0	n/a	1	0	98	3	nogo_reward	1	0	1	0	0	1	0	n/a	n/a	1	1.0	1.0	886.2580446000211	1133.9441492999904	1134.9565599000198	1135.9403611000162	1137.4547369999927	1138.4731597999926	n/a	n/a	1139.4802363000344	1140.4283378000257	2020-02-21 17:39:47.391887	10.1320276218523	1.27552122012428	11.0438104303094	9.79415281676914	0.911782808457078	11.0438104303094	-10.1320276218523	11.0438104303094	1.27552122012428	11.0438104303094	0.911782808457078	3.1420364163037	7.2170978346844255	-1.0003671168653683	10.288605910398235	6.921351574237938	-1.730602656181958	10.288605910398235	2.511070883744794	7.8875505444503595	0.6704527097659149	8.149638679605886	1.1386001139269795	2	missed	0.0
254.18224150000583	6.235309900017683	go_punish	1.0	254.20776540000202	255.9555741000222	258.4787148999749	1.7478087000201867	255.22128030000022	257.45916999998735	259.4809770999709	0.7342938000219874	1.0195448999875225	0.9620982000487857	n/a	1.0	n/a	1	0	99	2	go_punish	1	0	-1	1	0	0	1	n/a	n/a	-1	1.0	1.0	886.2580446000211	1140.465810000023	1141.4793249000213	1142.2136187000433	1143.7172146000084	1144.736759499996	n/a	n/a	1145.739021699992	1146.7011199000408	2020-02-21 17:39:47.391887	-1.3298970100232	0.0	-0.787983502700292	-0.0742559677970412	0.541913507322907	-0.787983502700292	1.3298970100232	-0.787983502700292	0.0	-0.787983502700292	0.541913507322907	-0.9403596120013179	-4.244826797191076	-2.2758883369896483	-1.543188022611456	-2.9470572103282433	-2.1004719573161292	-1.543188022611456	-1.571325144560224	-3.9442433885593315	0.3005834086317438	-3.682155253403806	-0.13692110619730063	2	missed	0.0
260.4519282000256	6.645016499969643	nogo_punish	1.0	260.47745210002176	262.7034112000258	265.23584179999307	2.2259591000040473	261.48487689998	264.2159508999903	266.2480073000188	1.2185343000458033	1.0198909000027925	0.8744612999726087	n/a	1.0	n/a	1	0	100	1	nogo_punish	1	-1	0	0	0	1	0	n/a	n/a	0	1.0	1.0	886.2580446000211	1146.7354967000429	1147.742921500001	1148.961455800047	1150.4739955000114	1151.4938864000142	n/a	n/a	1152.50605190004	1153.3805132000125	2020-02-21 17:39:47.391887	-0.0953458454591474	-0.786033497035355	-0.317960582133868	-0.421069865595405	-0.22261473667472	-0.317960582133868	0.0953458454591474	-0.317960582133868	-0.786033497035355	-0.317960582133868	-0.22261473667472	0.317960582133868	-3.010275632627023	-3.061921834025003	-1.073165102045032	-3.293871108126607	-2.865000201313756	-1.073165102045032	-0.3130049504250383	-3.4742204679929074	-0.4639448353658832	-3.2121323328373816	-0.9229546032326557	2	missed	0.0
267.1362249000231	6.834017899993341	go_reward	0.4461922000045888	267.16174880001927	269.46059769997373	272.0025957999751	2.2988488999544643	268.17751920002047	270.9830537000089	273.0016694000226	1.2830784999532625	1.019542099966202	0.9940972999900168	n/a	1.0	n/a	1	0	101	4	go_reward	1	1	0	1	1	1	0	n/a	n/a	1	0.4461922000045888	1.0	886.2580446000211	1153.4197934000404	1154.4355638000416	1155.7186422999948	1157.24109830003	1158.2606403999962	n/a	n/a	1159.2597140000437	1160.2538113000337	2020-02-21 17:39:47.391887	12.5624951669733	13.4612329870706	0.220795905979888	13.4780393530213	12.7832910729532	0.220795905979888	-12.5624951669733	13.4612329870706	0.220795905979888	12.7832910729532	0.220795905979888	0.7246138595424991	9.647565379805425	11.185344650080951	-0.5344086139312759	10.605238110490099	10.140905608314164	-0.5344086139312759	0.09364832698359282	9.62703118709416	-0.020534192711275212	10.567061236367087	0.08387479978258736	2	missed	0.0
274.0064863000298	6.596489399962593	go_reward	0.3173755999887362	274.032010200026	275.5923827000079	278.14177260000724	1.560372499981895	275.03777059999993	277.12247649999335	279.15056390000973	0.5546121000079438	1.0192961000138894	1.4779356999788433	n/a	1.0	n/a	1	0	102	4	go_reward	1	1	0	1	1	1	0	n/a	n/a	1	0.3173755999887362	1.0	886.2580446000211	1160.290054800047	1161.295815200021	1161.850427300029	1163.3805211000144	1164.3998172000283	n/a	n/a	1165.4086085000308	1166.8865442000097	2020-02-21 17:39:47.391887	12.6577534614903	13.5650333949117	0.220795905979888	13.5798366519405	12.8785493674702	0.220795905979888	-12.6577534614903	13.5650333949117	0.220795905979888	12.8785493674702	0.220795905979888	0.6208134517013999	9.742823674322425	11.28914505792205	-0.5344086139312759	10.707035409409297	10.236163902831164	-0.5344086139312759	-0.010152080857506407	9.72228948161116	-0.020534192711275212	10.670861644208186	0.08387479978258736	2	missed	0.0
280.6386115999776	6.100833900040016	go_punish	0.355096000013873	280.6641354999738	282.0076114999829	284.565432299976	1.3434760000091046	281.6797056000214	283.5447289000149	285.57745430001523	0.327905899961479	1.0207033999611212	1.1875150999985635	n/a	1.0	n/a	1	0	103	2	go_punish	1	0	-1	1	1	1	0	n/a	n/a	0	0.355096000013873	1.0	886.2580446000211	1166.9221800999949	1167.9377502000425	1168.265656100004	1169.802773500036	1170.823476899997	n/a	n/a	1171.8354989000363	1173.023014000035	2020-02-21 17:39:47.391887	1.66711641005905	0.0	-1.08518385417339	-0.597495341701814	0.581932555885661	-1.08518385417339	-1.66711641005905	0.0	-1.08518385417339	0.581932555885661	-1.08518385417339	0.0	-1.2478133771088251	-2.2758883369896483	-1.840388374084554	-3.470296584233016	-2.0604529087533754	-1.840388374084554	-0.6309655325589063	-2.5743273299733787	-1.3265139528645533	-2.8941717507035136	-1.2221049603706906	2	missed	0.0
286.7772607000079	7.2441992000094615	go_punish	0.2640791000449098	286.8027846000041	289.2267378999968	291.76874249998946	2.423953299992718	287.81566329998896	290.75834170001326	292.7817065999843	1.4110746000078507	1.0104007999761961	1.2652772000292316	n/a	1.0	n/a	1	0	104	2	go_punish	1	0	-1	1	1	1	0	n/a	n/a	0	0.2640791000449098	1.0	886.2580446000211	1173.0608292000252	1174.07370790001	1175.484782500018	1177.0163863000344	1178.0267871000106	n/a	n/a	1179.0397512000054	1180.3050284000346	2020-02-21 17:39:47.391887	1.65003114100867	0.0	-1.08518385417339	-0.393868457152399	0.564847286835284	-1.08518385417339	-1.65003114100867	0.0	-1.08518385417339	0.564847286835284	-1.08518385417339	0.0	-1.264898646159205	-2.2758883369896483	-1.840388374084554	-3.266669699683601	-2.0775381778037523	-1.840388374084554	-0.6309655325589063	-2.5914125990237555	-1.3265139528645533	-2.8941717507035136	-1.2221049603706906	2	missed	0.0
294.06041660002666	6.334224199992377	nogo_punish	1.0	294.08594050002284	295.88317200000165	298.4024034999893	1.7972314999788068	295.0981116999758	297.3876412999816	299.4109807999921	0.7850603000258616	1.0147622000076808	1.0091839000231175	n/a	1.0	n/a	1	0	105	1	nogo_punish	0	0	-1	0	0	1	0	n/a	n/a	-1	1.0	1.0	886.2580446000211	1180.343985100044	1181.3561562999969	1182.1412166000227	1183.6456859000027	1184.6604481000104	n/a	n/a	1185.6690254000132	1186.6782093000363	2020-02-21 17:39:47.391887	0.0077157371098263	-0.786033497035355	-0.222427816451779	-0.305485279569511	-0.230143553561605	-0.222427816451779	-0.0077157371098263	-0.222427816451779	-0.786033497035355	-0.222427816451779	-0.230143553561605	-1.505915298249831	-2.907214050058049	-3.061921834025003	-0.9776323363629429	-3.1782865221007133	-2.872529018200641	-0.9776323363629429	-2.136880830808737	-3.3786877023108186	-0.4714736522527682	-3.1165995671552924	-0.9229546032326557	2	missed	0.0
300.4293799999866	7.370101700013265	nogo_punish	1.0	300.4549038999828	303.0827751000179	305.62348349997774	2.627871200035088	301.46891260001576	304.60000869998476	306.62208040000405	1.613862500002142	1.0234747999929823	1.2029251999920234	n/a	1.0	n/a	1	0	106	1	nogo_punish	0	0	-1	0	0	1	0	n/a	n/a	-1	1.0	1.0	886.2580446000211	1186.712948500004	1187.7269572000368	1189.340819700039	1190.8580533000058	1191.8815280999988	n/a	n/a	1192.8801250000251	1194.0830502000172	2020-02-21 17:39:47.391887	-0.504431372581838	-0.786033497035355	-0.698541421257251	-0.765769350264331	-0.194110048675413	-0.698541421257251	0.504431372581838	-0.698541421257251	-0.786033497035355	-0.698541421257251	-0.194110048675413	-1.0298016934443588	-3.4193611597497133	-3.061921834025003	-1.4537459411684148	-3.638570592795533	-2.836495513314449	-1.4537459411684148	-1.660767226003265	-3.8548013071162903	-0.4354401473665762	-3.5927131719607646	-0.9229546032326557	2	missed	0.0
307.83951249998063	7.2306257000309415	go_reward	0.0255905000376515	307.8650363999768	310.3510617999709	312.91309470002307	2.486025399994105	308.87629739998374	311.88906760001555	313.930941300001	1.4747643999871798	1.0240271000075154	1.1647208000067621	n/a	1.0	n/a	1	0	107	4	go_reward	1	1	0	1	1	1	0	n/a	n/a	1	0.0255905000376515	1.0	886.2580446000211	1194.123080999998	1195.1343420000048	1196.609106399992	1198.1471122000366	1199.1711393000442	n/a	n/a	1200.188985900022	1201.3537067000289	2020-02-21 17:39:47.391887	12.7358722215884	13.6501271658945	0.220795905979888	13.6632110484083	12.9566681275683	0.220795905979888	-12.7358722215884	13.6501271658945	0.220795905979888	12.9566681275683	0.220795905979888	0.5357196807186	9.820942434420525	11.37423882890485	-0.5344086139312759	10.790409805877097	10.314282662929264	-0.5344086139312759	-0.09524585184030632	9.80040824170926	-0.020534192711275212	10.755955415190986	0.08387479978258736	2	missed	0.0
315.1079541000072	7.509787500021048	go_reward	0.2891440000385046	315.1334780000034	317.6596638999763	320.1966324999812	2.5261858999729156	316.1376739999978	319.17150850000326	321.19549349998124	1.5219898999785073	1.02512399997795	1.4477720000431873	n/a	1.0	n/a	1	0	108	4	go_reward	1	1	0	1	1	1	0	n/a	n/a	1	0.2891440000385046	1.0	886.2580446000211	1201.3915226000245	1202.3957186000189	1203.9177084999974	1205.4295531000243	1206.4546771000023	n/a	n/a	1207.4535381000023	1208.9013101000455	2020-02-21 17:39:47.391887	12.8005742189197	13.7205724124168	0.220795905979888	13.7321740930288	13.0213701248996	0.220795905979888	-12.8005742189197	13.7205724124168	0.220795905979888	13.0213701248996	0.220795905979888	0.4652744341962993	9.885644431751825	11.444684075427151	-0.5344086139312759	10.859372850497596	10.378984660260564	-0.5344086139312759	-0.16569109836260698	9.86511023904056	-0.020534192711275212	10.826400661713286	0.08387479978258736	2	missed	0.0
322.65218610002194	5.7714133999543265	nogo_punish	1.0	322.6777100000181	324.1287254000199	326.652957000013	1.4510154000017792	323.6875221999944	325.6435773000121	327.668038700009	0.44120320002548397	1.0093797000008635	0.7810846999634578	n/a	1.0	n/a	1	0	109	1	nogo_punish	1	-1	0	0	0	1	0	n/a	n/a	0	1.0	1.0	886.2580446000211	1208.9357546000392	1209.9455668000155	1210.386770000041	1211.9016219000332	1212.911001600034	n/a	n/a	1213.92608330003	1214.7071679999935	2020-02-21 17:39:47.391887	-0.8303590899483	-0.786033497035355	-1.00323704261582	-1.05802839891721	-0.172877952667524	-1.00323704261582	0.8303590899483	-1.00323704261582	-0.786033497035355	-1.00323704261582	-0.172877952667524	1.00323704261582	-3.745288877116175	-3.061921834025003	-1.7584415625269838	-3.930829641448412	-2.8152634173065603	-1.7584415625269838	0.3722715100569136	-4.1594969284748595	-0.4142080513586872	-3.8974087933193333	-0.9229546032326557	2	missed	0.0
328.46151170000667	6.138501700013876	go_punish	0.2329274999792687	328.48703560000286	330.155829399999	332.7069206999731	1.6687937999961377	329.50014499999816	331.6870921999798	333.7098554999684	0.6556844000008368	1.0198284999933094	0.9156818000483327	n/a	1.0	n/a	1	0	110	2	go_punish	1	0	-1	1	1	1	0	n/a	n/a	0	0.2329274999792687	1.0	886.2580446000211	1214.745080200024	1215.7581896000193	1216.41387400002	1217.945136800001	1218.9649652999942	n/a	n/a	1219.9679000999895	1220.8835819000378	2020-02-21 17:39:47.391887	1.6402655498593	0.0	-1.08518385417339	-0.267680702972732	0.555081695685912	-1.08518385417339	-1.6402655498593	0.0	-1.08518385417339	0.555081695685912	-1.08518385417339	0.0	-1.2746642373085753	-2.2758883369896483	-1.840388374084554	-3.140481945503934	-2.087303768953124	-1.840388374084554	-0.6309655325589063	-2.6011781901731275	-1.3265139528645533	-2.8941717507035136	-1.2221049603706906	2	missed	0.0
334.6412043999878	5.988902000012104	nogo_reward	1.0	334.666728299984	336.3546070000157	338.8813868999714	1.6878787000316606	335.675113699981	337.8692582999938	339.89016050001374	0.6794933000346646	1.0121285999775864	0.7654697999823838	n/a	1.0	n/a	1	0	111	3	nogo_reward	1	0	1	0	0	1	0	n/a	n/a	1	1.0	1.0	886.2580446000211	1220.924772900005	1221.933158300002	1222.6126516000368	1224.127302900015	1225.1394314999925	n/a	n/a	1226.1482051000348	1226.9136749000172	2020-02-21 17:39:47.391887	11.0311203621928	1.27552122012428	11.8460055239674	10.9143961621234	0.814885161774603	11.8460055239674	-11.0311203621928	11.8460055239674	1.27552122012428	11.8460055239674	0.814885161774603	2.3398413226457	8.116190575024925	-1.0003671168653683	11.090801004056235	8.041594919592196	-1.8275003028644332	11.090801004056235	1.708875790086794	8.68974563810836	0.5735550630834398	8.951833773263886	1.1386001139269795	2	missed	0.0
340.67206190002616	6.764935899991542	nogo_reward	1.0	340.69758580002235	342.7457908000215	345.25567889999365	2.048204999999143	341.6960811999743	344.2486615999951	346.25291370000923	1.0497096000472084	1.0070172999985516	1.209608000004664	n/a	1.0	n/a	1	0	112	3	nogo_reward	1	0	1	0	0	1	0	n/a	n/a	1	1.0	1.0	886.2580446000211	1226.9556304000434	1227.9541257999954	1229.0038354000426	1230.5067062000162	1231.5137235000147	n/a	n/a	1232.5109583000303	1233.720566300035	2020-02-21 17:39:47.391887	11.6525409222222	1.27552122012428	12.4011336282276	11.6948567519052	0.748592706005347	12.4011336282276	-11.6525409222222	12.4011336282276	1.27552122012428	12.4011336282276	0.748592706005347	1.7847132183855	8.737611135054324	-1.0003671168653683	11.645929108316436	8.822055509373996	-1.8937927586336891	11.645929108316436	1.1537476858265936	9.24487374236856	0.5072626073141838	9.506961877524086	1.1386001139269795	2	missed	0.0
347.4812568000052	7.621933099988382	go_punish	0.2443777000298723	347.5067807000014	350.0824356999947	352.632779399981	2.575654999993276	348.5093882000074	351.6118419999839	353.63556239998434	1.5730474999872968	1.0209373999971376	1.4931514000054449	n/a	1.0	n/a	1	0	113	2	go_punish	1	0	-1	1	1	1	0	n/a	n/a	0	0.2443777000298723	1.0	886.2580446000211	1233.7648253000225	1234.7674328000285	1236.3404803000158	1237.869886600005	1238.890824000002	n/a	n/a	1239.8936070000054	1241.3867584000109	2020-02-21 17:39:47.391887	1.63446962845935	0.0	-1.08518385417339	-0.187181383376393	0.549285774285961	-1.08518385417339	-1.63446962845935	0.0	-1.08518385417339	0.549285774285961	-1.08518385417339	0.0	-1.2804601587085251	-2.2758883369896483	-1.840388374084554	-3.0599826259075953	-2.093099690353075	-1.840388374084554	-0.6309655325589063	-2.6069741115730785	-1.3265139528645533	-2.8941717507035136	-1.2221049603706906	2	missed	0.0
355.1378602000186	6.027528400009032	go_reward	0.3762749999877997	355.1633841000148	356.8754808999947	359.424174099986	1.7120967999799177	356.1793441000045	358.4048891999994	360.4321865999955	0.6961367999901995	1.0192848999865873	0.7587259000283666	n/a	1.0	n/a	1	0	114	4	go_reward	1	1	0	1	1	1	0	n/a	n/a	1	0.3762749999877997	1.0	886.2580446000211	1241.421428700036	1242.4373887000256	1243.1335255000158	1244.6629338000205	1245.682218700007	n/a	n/a	1246.6902312000166	1247.448957100045	2020-02-21 17:39:47.391887	12.8546436508779	13.7794057712108	0.220795905979888	13.7897245389047	13.0754395568578	0.220795905979888	-12.8546436508779	13.7794057712108	0.220795905979888	13.0754395568578	0.220795905979888	0.4064410754022987	9.939713863710026	11.503517434221152	-0.5344086139312759	10.916923296373497	10.433054092218764	-0.5344086139312759	-0.22452445715660763	9.91917967099876	-0.020534192711275212	10.885234020507287	0.08387479978258736	2	missed	0.0
361.2001533000148	6.237921399995685	nogo_punish	1.0	361.225677200011	363.0079187999945	365.53038160002325	1.7822415999835357	362.24226389999967	364.5190303999698	366.54241370002273	0.7656548999948427	1.0113512000534683	0.9211848999839276	n/a	1.0	n/a	1	0	115	1	nogo_punish	1	-1	0	0	0	1	0	n/a	n/a	0	1.0	1.0	886.2580446000211	1247.483721800032	1248.5003085000208	1249.2659634000156	1250.7770749999909	1251.7884262000443	n/a	n/a	1252.8004583000438	1253.7216432000278	2020-02-21 17:39:47.391887	-0.46381595778047	-0.786033497035355	-0.664658925523177	-0.709663924914872	-0.200842967742707	-0.664658925523177	0.46381595778047	-0.664658925523177	-0.786033497035355	-0.664658925523177	-0.200842967742707	0.664658925523177	-3.378745744948345	-3.061921834025003	-1.4198634454343408	-3.582465167446074	-2.843228432381743	-1.4198634454343408	0.03369339296427065	-3.8209188113822163	-0.4421730664338702	-3.5588306762266906	-0.9229546032326557	2	missed	0.0
367.4815476000076	7.7187480999855325	nogo_reward	1.0	367.5070715000038	370.26652649999596	372.79616029997123	2.7594549999921583	368.51157189998776	371.7725119999959	373.8107055000146	1.7549546000082046	1.0236482999753207	1.415114099974744	n/a	1.0	n/a	1	0	116	3	nogo_reward	1	0	1	0	0	1	0	n/a	n/a	1	1.0	1.0	886.2580446000211	1253.765116100025	1254.7696165000089	1256.524571100017	1258.030556600017	1259.0542048999923	n/a	n/a	1260.0687501000357	1261.4838642000104	2020-02-21 17:39:47.391887	12.0932585541986	1.27552122012428	12.7950703904132	12.251442952198	0.701811836214624	12.7950703904132	-12.0932585541986	12.7950703904132	1.27552122012428	12.7950703904132	0.701811836214624	1.3907764561998999	9.178328767030726	-1.0003671168653683	12.039865870502036	9.378641709666798	-1.9405736284244122	12.039865870502036	0.7598109236409936	9.63881050455416	0.4604817375234608	9.900898639709686	1.1386001139269795	2	missed	0.0
375.23725140001625	5.9929566999780945	nogo_punish	1.0	375.26277530001244	376.694597999973	379.2256635000231	1.4318226999605486	376.2679367000237	378.2005737000145	380.2261221000224	0.4266612999492736	1.0250898000085726	1.0296098999681362	n/a	1.0	n/a	1	0	117	1	nogo_punish	0	0	-1	0	0	1	1	n/a	n/a	-1	1.0	1.0	886.2580446000211	1261.5208199000335	1262.5259813000448	1262.952642599994	1264.4586183000356	1265.4837081000442	n/a	n/a	1266.4841667000435	1267.5137766000116	2020-02-21 17:39:47.391887	-0.235744722211652	-0.786033497035355	-0.452899916951625	-0.490165468398815	-0.217155194739973	-0.452899916951625	0.235744722211652	-0.452899916951625	-0.786033497035355	-0.452899916951625	-0.217155194739973	-1.275443197749985	-3.1506745093795274	-3.061921834025003	-1.208104436862789	-3.362966710930017	-2.859540659379009	-1.208104436862789	-1.9064087303088912	-3.609159802810664	-0.4584852934311362	-3.347071667655139	-0.9229546032326557	2	missed	0.0
381.26616980001563	5.8597756999661215	nogo_punish	1.0	381.2916937000118	382.6403657000044	385.17341019999003	1.3486719999925754	382.3076294999919	384.149724900024	386.1825873000198	0.3327362000125049	1.0236852999660186	0.9688820999581367	n/a	1.0	n/a	1	0	118	1	nogo_punish	0	0	-1	0	0	1	0	n/a	n/a	-1	1.0	1.0	886.2580446000211	1267.549738300033	1268.565674100013	1268.8984103000255	1270.407769500045	1271.4314548000111	n/a	n/a	1272.440631900041	1273.409513999999	2020-02-21 17:39:47.391887	-0.669828965210934	-0.786033497035355	-0.855912652137339	-0.887015719883661	-0.186083686926404	-0.855912652137339	0.669828965210934	-0.855912652137339	-0.786033497035355	-0.855912652137339	-0.186083686926404	-0.8724304625642709	-3.5847587523788094	-3.061921834025003	-1.611117172048503	-3.759816962414863	-2.8284691515654403	-1.611117172048503	-1.5033959951231772	-4.012172537996379	-0.4274137856175672	-3.7500844028408524	-0.9229546032326557	2	missed	0.0
387.1636455000264	7.636792599980026	nogo_punish	0.3046063000219874	387.1891694000226	389.9582236999995	392.50433299998986	2.769054299976915	388.1914913000073	391.48058759997366	393.5045127000194	1.7667323999921791	1.023745400016196	1.3214492999832146	n/a	1.0	n/a	1	0	119	1	nogo_punish	1	-1	0	0	1	0	1	n/a	n/a	-1	0.3046063000219874	1.0	886.2580446000211	1273.4472140000437	1274.4495359000284	1276.2162683000206	1277.7386321999948	1278.762377600011	n/a	n/a	1279.7625573000405	1281.0840066000237	2020-02-21 17:39:47.391887	0.945698387842889	-0.786033497035355	-1.11343983758989	-1.13959812865662	-0.167741449747001	-1.11343983758989	-0.945698387842889	-0.786033497035355	-1.11343983758989	-0.167741449747001	-1.11343983758989	-0.942309617666255	-1.9692313993249861	-3.061921834025003	-1.8686443575010538	-4.012399371187822	-2.810126914386037	-1.8686443575010538	-1.5732751502251614	-3.3240013356060403	-1.3547699362810532	-3.6802052477388685	-1.2503609437871905	2	missed	0.0
394.8455490000197	7.723337800008949	nogo_reward	1.0	394.87107290001586	397.65012740000384	400.1790101000224	2.7790544999879785	395.88301079999655	399.1560654999921	401.195403999998	1.7671166000072844	1.0229446000303142	1.3990067000268027	n/a	1.0	n/a	1	0	120	3	nogo_reward	0	1	0	0	0	1	0	n/a	n/a	0	1.0	1.0	886.2580446000211	1281.129117500037	1282.1410554000176	1283.908172000025	1285.4141101000132	1286.4370547000435	n/a	n/a	1287.453448600019	1288.852455300046	2020-02-21 17:39:47.391887	12.4133426909502	1.27552122012428	13.0812269450733	12.6570380757049	0.667884254123171	13.0812269450733	-12.4133426909502	13.0812269450733	1.27552122012428	13.0812269450733	0.667884254123171	-13.0812269450733	9.498412903782326	-1.0003671168653683	12.326022425162137	9.784236833173697	-1.9745012105158652	12.326022425162137	-13.712192477632207	9.92496705921426	0.4265541554320078	10.187055194369787	1.1386001139269795	2	missed	0.0
