onset	duration	trial_type	response_time	cueOnset	targetOnset	fbOnset	cueRT	firstfixOnset	secondfixOnset	waitOnset	firstfixdur	secondfixdur	waitdur	nback_fbOnset	nback_response_time	nback_targetOnset	block	wm	trial	cue	cond	is_common	outcome_go	outcome_nogo	key_correct	key_pressed	is_correct	key_correct_nback	key_pressed_nback	is_correct_nback	outcome	rt	rt_nback	time_scan	time_onset	time_isi1	time_circle	time_isi2	time_feedback	time_same	time_correct	time_iti	time_done	timestamp_scan	DV	Qgo	Qnogo	SV	Wgo	Wnogo	mDV	Qchosen	Qunchosen	Wchosen	Wunchosen	PE	DVC	QgoC	QnogoC	SVC	WgoC	WnogoC	PEC	WchosenC	WunchosenC	QchosenC	QunchosenC	run	outcome_nback	nback_targetResp
0.0	7.220892100012861	go_reward	1.0	0.04114190000132112	2.5226020000413882	5.053314300021384	2.481460100040067	1.0472830000801423	4.03256510000233	6.065775200026337	1.475318999961246	1.0207492000190541	1.1962587999878451	n/a	1.0	n/a	2	0	1	2	go_reward	1	1	0	1	0	0	0	n/a	n/a	0	1.0	1.0	1622.5634021000003	1622.6045440000016	1623.6106851000804	1625.0860041000417	1626.5959672000026	1627.6167164000217	n/a	n/a	1628.6291773000266	1629.8254361000145	2019-12-24 16:43:17.066536	-0.85242922141325	0.0	0.0	0.0	0.85242922141325	0.0	0.85242922141325	0.0	0.0	0.0	0.85242922141325	0.0	-10.738021373021017	-4.5150042432096775	-0.877616421037602	-6.5790956827004266	-5.803394423962641	-0.877616421037602	-1.08405338111933	-8.709516109010632	2.028505264010386	-6.845975453682052	1.453354789434769	3	missed	0.0
7.26110670005437	6.173444699961692	go_reward	0.5160982999950647	7.302248600055691	8.958196400082898	11.520577799994726	1.6559478000272065	8.312902600038797	10.49602120008808	12.529151300085005	0.6452938000441009	1.0245565999066457	0.9465419999323785	n/a	1.0	n/a	2	0	2	2	go_reward	1	1	0	1	1	1	0	n/a	n/a	1	0.5160982999950647	1.0	1622.5634021000003	1629.865650700056	1630.876304700039	1631.5215985000832	1633.0594233000884	1634.083979899995	n/a	n/a	1635.0925534000853	1636.0390954000177	2019-12-24 16:43:17.066536	0.85242922141325	0.0	0.0	0.0	0.85242922141325	0.0	-0.85242922141325	0.0	0.0	0.85242922141325	0.0	33.4667716302243	-9.033162930194518	-4.5150042432096775	-0.877616421037602	-6.5790956827004266	-5.803394423962641	-0.877616421037602	32.38271824910497	-7.857086887597382	1.1760760425971362	-6.845975453682052	1.453354789434769	3	missed	0.0
13.459093000041321	6.485225299955346	go_punish	1.0	13.500234900042642	15.418171400088113	17.942364800023142	1.917936500045471	14.506709599984106	16.922621799982608	18.956258199992817	0.9114618001040071	1.0197430000405348	1.0292020000051707	n/a	1.0	n/a	2	0	3	4	go_punish	0	-1	0	1	0	0	0	n/a	n/a	0	1.0	1.0	1622.5634021000003	1636.063637000043	1637.0701116999844	1637.9815735000884	1639.486023899983	1640.5057669000234	n/a	n/a	1641.5196602999931	1642.5488622999983	2019-12-24 16:43:17.066536	-0.85242922141325	0.0	0.0	0.0	0.85242922141325	0.0	0.85242922141325	0.0	0.0	0.0	0.85242922141325	0.0	-10.738021373021017	-4.5150042432096775	-0.877616421037602	-6.5790956827004266	-5.803394423962641	-0.877616421037602	-1.08405338111933	-8.709516109010632	2.028505264010386	-6.845975453682052	1.453354789434769	3	missed	0.0
19.966945699998178	7.5527944000205025	go_punish	0.1539813999552279	20.0080875999995	22.75440520001621	25.31789830001094	2.7463176000167095	21.02136680006538	24.298091800068732	26.32493250002176	1.7330383999508285	1.0198064999422058	1.2359494999982417	n/a	1.0	n/a	2	0	4	4	go_punish	1	0	-1	1	1	1	0	n/a	n/a	0	0.1539813999552279	1.0	1622.5634021000003	1642.5714896999998	1643.5847689000657	1645.3178073000165	1646.861493900069	1647.8813004000112	n/a	n/a	1648.888334600022	1650.1242841000203	2019-12-24 16:43:17.066536	0.85242922141325	0.0	0.0	0.0	0.85242922141325	0.0	-0.85242922141325	0.0	0.0	0.85242922141325	0.0	0.0	-9.033162930194518	-4.5150042432096775	-0.877616421037602	-6.5790956827004266	-5.803394423962641	-0.877616421037602	-1.08405338111933	-7.857086887597382	1.1760760425971362	-6.845975453682052	1.453354789434769	3	missed	0.0
27.546560700051486	6.303546100039966	go_punish	1.0	27.587702600052808	29.58525470003974	32.12139480002247	1.9975520999869332	28.595861300011393	31.1019230000677	33.140101500088576	0.989393400028348	1.019471799954772	0.7511472000041977	n/a	1.0	n/a	2	0	5	4	go_punish	0	-1	0	1	0	0	1	n/a	n/a	0	1.0	1.0	1622.5634021000003	1650.151104700053	1651.1592634000117	1652.14865680004	1653.665325100068	1654.6847969000228	n/a	n/a	1655.7035036000889	1656.454650800093	2019-12-24 16:43:17.066536	-0.85242922141325	0.0	0.0	0.0	0.85242922141325	0.0	0.85242922141325	0.0	0.0	0.0	0.85242922141325	0.0	-10.738021373021017	-4.5150042432096775	-0.877616421037602	-6.5790956827004266	-5.803394423962641	-0.877616421037602	-1.08405338111933	-8.709516109010632	2.028505264010386	-6.845975453682052	1.453354789434769	3	missed	0.0
33.8726932000136	6.7253826999804005	go_punish	1.0	33.91383510001492	35.887206600047875	38.42293290002294	1.973371500032954	34.91921309998747	37.403016800061096	39.42695100000151	0.9679935000604019	1.019916099961847	1.212266799993813	n/a	1.0	n/a	2	0	6	4	go_punish	0	-1	0	1	0	0	1	n/a	n/a	0	1.0	1.0	1622.5634021000003	1656.4772372000152	1657.4826151999878	1658.4506087000482	1659.9664189000614	1660.9863350000232	n/a	n/a	1661.9903531000018	1663.2026198999956	2019-12-24 16:43:17.066536	-0.85242922141325	0.0	0.0	0.0	0.85242922141325	0.0	0.85242922141325	0.0	0.0	0.0	0.85242922141325	0.0	-10.738021373021017	-4.5150042432096775	-0.877616421037602	-6.5790956827004266	-5.803394423962641	-0.877616421037602	-1.08405338111933	-8.709516109010632	2.028505264010386	-6.845975453682052	1.453354789434769	3	missed	0.0
40.641308000078425	5.804326599929482	go_reward	0.1767959999851882	40.682449900079746	42.02656810008921	44.56225770001788	1.3441182000094614	41.683635600027856	43.548780600074906	45.580225800047856	0.3429325000613517	1.0134770999429747	0.9065506999613717	n/a	1.0	n/a	2	0	7	2	go_reward	1	1	0	1	1	1	0	n/a	n/a	1	0.1767959999851882	1.0	1622.5634021000003	1663.24585200008	1664.2470377000282	1664.5899702000895	1666.1121827000752	1667.1256598000182	n/a	n/a	1668.1436279000482	1669.0501786000095	2019-12-24 16:43:17.066536	19.6458250021794	12.8493562844876	0.0	12.8493562844876	19.6458250021794	0.0	-19.6458250021794	12.8493562844876	0.0	19.6458250021794	0.0	20.617415345736703	9.760232850571633	8.334352041277922	-0.877616421037602	6.270260601787173	12.990001356803509	-0.877616421037602	19.533361964617374	10.936308893168768	1.1760760425971362	6.003380830805548	1.453354789434769	3	missed	0.0
46.48813690000679	6.077695399988443	go_reward	0.3337981000076979	46.529278800008115	48.08957780001242	50.63278710003965	1.5602990000043064	47.526624800055515	49.61217010009591	51.64473729999759	0.5629529999569058	1.0206169999437407	0.9622368999989703	n/a	1.0	n/a	2	0	8	2	go_reward	0	0	1	1	1	1	0	n/a	n/a	0	0.3337981000076979	1.0	1622.5634021000003	1669.0926809000084	1670.0900269000558	1670.6529799000127	1672.1755722000962	1673.19618920004	n/a	n/a	1674.208139399998	1675.1703762999969	2019-12-24 16:43:17.066536	30.5976499468192	20.3452981374755	0.0	20.3452981374755	30.5976499468192	0.0	-30.5976499468192	20.3452981374755	0.0	30.5976499468192	0.0	-20.3452981374755	20.712057795211432	15.830293894265822	-0.877616421037602	13.766202454775073	23.941826301443307	-0.877616421037602	-21.429351518594828	21.888133837808567	1.1760760425971362	13.499322683793448	1.453354789434769	3	missed	0.0
52.59935290005524	7.095317299943645	nogo_reward	0.1710518000181764	52.64049480005656	54.96238819998712	57.51388750004139	2.321893399930559	53.6445642000765	56.493775099981804	58.52699530008272	1.3178239999106154	1.0201124000595883	1.2088167999174857	n/a	1.0	n/a	2	0	9	1	nogo_reward	1	0	1	0	1	0	0	n/a	n/a	0	0.1710518000181764	1.0	1622.5634021000003	1675.2038969000569	1676.2079663000768	1677.5257902999874	1679.057177199982	1680.0772896000417	n/a	n/a	1681.090397400083	1682.2992142000005	2019-12-24 16:43:17.066536	0.85242922141325	0.0	0.0	0.0	0.85242922141325	0.0	-0.85242922141325	0.0	0.0	0.85242922141325	0.0	0.0	-9.033162930194518	-4.5150042432096775	-0.877616421037602	-6.5790956827004266	-5.803394423962641	-0.877616421037602	-1.08405338111933	-7.857086887597382	1.1760760425971362	-6.845975453682052	1.453354789434769	3	missed	0.0
59.72022180003114	6.310859099961817	nogo_reward	0.2712850000243634	59.76136370003246	61.55118469998729	64.0811363999967	1.7898209999548271	60.77054080006201	63.07954429998085	65.09406979999062	0.7806438999252805	1.0015921000158414	0.9781530000036582	n/a	1.0	n/a	2	0	10	1	nogo_reward	1	0	1	0	1	0	0	n/a	n/a	0	0.2712850000243634	1.0	1622.5634021000003	1682.3247658000328	1683.3339429000623	1684.1145867999876	1685.6429463999812	1686.644538499997	n/a	n/a	1687.657471899991	1688.6356248999946	2019-12-24 16:43:17.066536	0.85242922141325	0.0	0.0	0.0	0.85242922141325	0.0	-0.85242922141325	0.0	0.0	0.85242922141325	0.0	0.0	-9.033162930194518	-4.5150042432096775	-0.877616421037602	-6.5790956827004266	-5.803394423962641	-0.877616421037602	-1.08405338111933	-7.857086887597382	1.1760760425971362	-6.845975453682052	1.453354789434769	3	missed	0.0
66.08450280001853	6.909043699968606	nogo_punish	0.1699727999512106	66.12564470001985	68.52646680001658	71.08634100004588	2.4008220999967307	67.1192698000234	70.0628121000484	72.10352070000977	1.4071969999931753	1.0235288999974728	0.9311676999786869	n/a	1.0	n/a	2	0	11	3	nogo_punish	1	-1	0	0	1	0	0	n/a	n/a	-1	0.1699727999512106	1.0	1622.5634021000003	1688.6890468000202	1689.6826719000237	1691.0898689000169	1692.6262142000487	1693.6497431000462	n/a	n/a	1694.66692280001	1695.5980904999888	2019-12-24 16:43:17.066536	0.85242922141325	0.0	0.0	0.0	0.85242922141325	0.0	-0.85242922141325	0.0	0.0	0.85242922141325	0.0	-10.5958368397718	-9.033162930194518	-4.5150042432096775	-0.877616421037602	-6.5790956827004266	-5.803394423962641	-0.877616421037602	-11.679890220891131	-7.857086887597382	1.1760760425971362	-6.845975453682052	1.453354789434769	3	missed	0.0
73.01852799998596	7.241991100017913	nogo_reward	0.3087841001106426	73.05966989998728	75.48746890004281	78.04722670000069	2.427799000055529	74.0663093000187	77.02745290007465	79.05518880009208	1.4211596000241116	1.0197737999260426	1.2464721999131143	n/a	1.0	n/a	2	0	12	1	nogo_reward	1	0	1	0	1	0	1	n/a	n/a	0	0.3087841001106426	1.0	1622.5634021000003	1695.6230719999876	1696.629711400019	1698.0508710000431	1699.590855000075	1700.610628800001	n/a	n/a	1701.6185909000924	1702.8650631000055	2019-12-24 16:43:17.066536	0.85242922141325	0.0	0.0	0.0	0.85242922141325	0.0	-0.85242922141325	0.0	0.0	0.85242922141325	0.0	0.0	-9.033162930194518	-4.5150042432096775	-0.877616421037602	-6.5790956827004266	-5.803394423962641	-0.877616421037602	-1.08405338111933	-7.857086887597382	1.1760760425971362	-6.845975453682052	1.453354789434769	3	missed	0.0
80.28625620005187	6.658112099976279	nogo_reward	0.2374106999486684	80.32739810005319	82.25200550002069	84.8145783999937	1.924607399967499	81.34662490000505	83.7935295000209	85.8204536000269	0.9053806000156328	1.0210488999728113	1.165056600002572	n/a	1.0	n/a	2	0	13	1	nogo_reward	1	0	1	0	1	0	0	n/a	n/a	0	0.2374106999486684	1.0	1622.5634021000003	1702.8908002000535	1703.9100270000054	1704.815407600021	1706.3569316000212	1707.377980499994	n/a	n/a	1708.3838557000272	1709.5489123000298	2019-12-24 16:43:17.066536	0.85242922141325	0.0	0.0	0.0	0.85242922141325	0.0	-0.85242922141325	0.0	0.0	0.85242922141325	0.0	0.0	-9.033162930194518	-4.5150042432096775	-0.877616421037602	-6.5790956827004266	-5.803394423962641	-0.877616421037602	-1.08405338111933	-7.857086887597382	1.1760760425971362	-6.845975453682052	1.453354789434769	3	missed	0.0
86.99095750006381	6.228545199963264	go_reward	0.2146826999960467	87.03209940006514	88.8837745999922	91.43223330006026	1.8516751999270582	88.0360899000666	90.4091970000884	92.4495370000368	0.847684699925594	1.0230362999718636	0.8111075999916011	n/a	1.0	n/a	2	0	14	2	go_reward	1	1	0	1	1	1	0	n/a	n/a	1	0.2146826999960467	1.0	1622.5634021000003	1709.5955015000654	1710.599492000067	1711.4471766999925	1712.9725991000887	1713.9956354000606	n/a	n/a	1715.012939100037	1715.8240467000287	2019-12-24 16:43:17.066536	18.4387575998817	12.0472962372685	0.0	12.0472962372685	18.4387575998817	0.0	-18.4387575998817	12.0472962372685	0.0	18.4387575998817	0.0	21.419475392955803	8.553165448273933	7.532291994058822	-0.877616421037602	5.468200554568073	11.78293395450581	-0.877616421037602	20.335422011836474	9.729241490871068	1.1760760425971362	5.201320783586447	1.453354789434769	3	missed	0.0
93.24412100005429	6.498992200009525	nogo_reward	0.3136571999639272	93.28526290005561	94.75580759998434	97.3012947000102	1.4705446999287233	94.28757060004887	96.27837499999464	98.31135550001659	0.4682369999354705	1.0229197000155636	1.4728996000485495	n/a	1.0	n/a	2	0	15	1	nogo_reward	0	1	0	0	1	0	1	n/a	n/a	1	0.3136571999639272	1.0	1622.5634021000003	1715.848665000056	1716.8509727000492	1717.3192096999846	1718.841777099995	1719.8646968000105	n/a	n/a	1720.874757600017	1722.3476572000654	2019-12-24 16:43:17.066536	0.85242922141325	0.0	0.0	0.0	0.85242922141325	0.0	-0.85242922141325	0.0	0.0	0.85242922141325	0.0	33.4667716302243	-9.033162930194518	-4.5150042432096775	-0.877616421037602	-6.5790956827004266	-5.803394423962641	-0.877616421037602	32.38271824910497	-7.857086887597382	1.1760760425971362	-6.845975453682052	1.453354789434769	3	missed	0.0
99.78573950007558	6.225244199973531	go_reward	0.258779100026004	99.8268814000769	101.2617041000633	103.79048640001588	1.4348226999863982	100.83604229998332	102.77893070003506	104.80891470005758	0.425661800079979	1.0115556999808177	1.243210899992846	n/a	1.0	n/a	2	0	16	2	go_reward	0	0	1	1	1	1	1	n/a	n/a	0	0.258779100026004	1.0	1622.5634021000003	1722.3902835000772	1723.3994443999836	1723.8251062000636	1725.3423328000354	1726.3538885000162	n/a	n/a	1727.372316800058	1728.6155277000507	2019-12-24 16:43:17.066536	30.4217439613292	20.2498067344571	0.0	20.2498067344571	30.4217439613292	0.0	-30.4217439613292	20.2498067344571	0.0	30.4217439613292	0.0	-20.2498067344571	20.53615180972143	15.734802491247422	-0.877616421037602	13.670711051756673	23.76592031595331	-0.877616421037602	-21.333860115576428	21.712227852318566	1.1760760425971362	13.403831280775048	1.453354789434769	3	missed	0.0
106.03705600008834	5.806585199898109	go_punish	0.1371040000813081	106.07819790008966	107.44529820000776	109.98757510003657	1.3671002999180928	107.08735280006681	108.9665129000789	111.00089740008139	0.3579453999409452	1.0210621999576688	0.8838856999063864	n/a	1.0	n/a	2	0	17	4	go_punish	1	0	-1	1	1	1	0	n/a	n/a	0	0.1371040000813081	1.0	1622.5634021000003	1728.64160000009	1729.650754900067	1730.008700300008	1731.5299150000792	1732.5509772000369	n/a	n/a	1733.5642995000817	1734.448185199988	2019-12-24 16:43:17.066536	0.85242922141325	0.0	0.0	0.0	0.85242922141325	0.0	-0.85242922141325	0.0	0.0	0.85242922141325	0.0	0.0	-9.033162930194518	-4.5150042432096775	-0.877616421037602	-6.5790956827004266	-5.803394423962641	-0.877616421037602	-1.08405338111933	-7.857086887597382	1.1760760425971362	-6.845975453682052	1.453354789434769	3	missed	0.0
111.88537240005098	6.761843099957332	go_reward	0.2066654999507591	111.9265143000523	113.91462010005512	116.45234509999887	1.9881058000028133	112.9355361000637	115.43812569999159	117.45957170007773	0.9790839999914169	1.0142194000072777	1.2287856999319047	n/a	1.0	n/a	2	0	18	2	go_reward	1	1	0	1	1	1	1	n/a	n/a	1	0.2066654999507591	1.0	1622.5634021000003	1734.4899164000526	1735.498938200064	1736.4780222000554	1738.001527799992	1739.0157471999992	n/a	n/a	1740.022973800078	1741.25175950001	2019-12-24 16:43:17.066536	18.5957929744985	12.1738839723626	0.0	12.1738839723626	18.5957929744985	0.0	-18.5957929744985	12.1738839723626	0.0	18.5957929744985	0.0	21.2928876578617	8.710200822890734	7.658879729152922	-0.877616421037602	5.594788289662173	11.93996932912261	-0.877616421037602	20.208834276742373	9.886276865487869	1.1760760425971362	5.327908518680547	1.453354789434769	3	missed	0.0
118.67169139999896	7.440697400015779	nogo_reward	0.2389918999979272	118.71283330000028	121.3372545000168	123.86432250007078	2.6244212000165135	119.72908479999774	122.85329440003284	124.88355200004321	1.6081697000190616	1.0110281000379473	1.269978699972853	n/a	1.0	n/a	2	0	19	1	nogo_reward	1	0	1	0	1	0	0	n/a	n/a	0	0.2389918999979272	1.0	1622.5634021000003	1741.2762354000006	1742.292486899998	1743.900656600017	1745.4166965000331	1746.427724600071	n/a	n/a	1747.4469541000435	1748.7169328000164	2019-12-24 16:43:17.066536	19.6458250021794	12.8493562844876	0.0	12.8493562844876	19.6458250021794	0.0	-19.6458250021794	12.8493562844876	0.0	19.6458250021794	0.0	-12.8493562844876	9.760232850571633	8.334352041277922	-0.877616421037602	6.270260601787173	12.990001356803509	-0.877616421037602	-13.93340966560693	10.936308893168768	1.1760760425971362	6.003380830805548	1.453354789434769	3	missed	0.0
126.1408571000211	7.694831200060435	go_punish	0.2218798000831157	126.18199900002242	129.14853760006395	131.66902540007163	2.966538600041531	127.18875149998371	130.66338490007934	132.6734991000269	1.9597861000802368	1.005640499992296	1.203331100055948	n/a	1.0	n/a	2	0	20	4	go_punish	1	0	-1	1	1	1	0	n/a	n/a	0	0.2218798000831157	1.0	1622.5634021000003	1748.7454011000227	1749.752153599984	1751.7119397000642	1753.2267870000796	1754.232427500072	n/a	n/a	1755.2369012000272	1756.4402323000832	2019-12-24 16:43:17.066536	0.85242922141325	0.0	0.0	0.0	0.85242922141325	0.0	-0.85242922141325	0.0	0.0	0.85242922141325	0.0	0.0	-9.033162930194518	-4.5150042432096775	-0.877616421037602	-6.5790956827004266	-5.803394423962641	-0.877616421037602	-1.08405338111933	-7.857086887597382	1.1760760425971362	-6.845975453682052	1.453354789434769	3	missed	0.0
133.86298900004476	7.404265400022496	nogo_reward	0.9044155000010504	133.90413090004608	136.27597379998792	138.8275220000653	2.3718428999418393	134.9176367000914	137.80745510000293	139.846172800055	1.3583370998965165	1.0200669000623748	1.4622235000135788	n/a	1.0	n/a	2	0	21	1	nogo_reward	1	0	1	0	1	0	1	n/a	n/a	0	0.9044155000010504	1.0	1622.5634021000003	1756.4675330000464	1757.4810388000917	1758.8393758999882	1760.3708572000032	1761.3909241000656	n/a	n/a	1762.4095749000553	1763.8717984000689	2019-12-24 16:43:17.066536	11.8042541660531	7.49594185298796	0.0	7.49594185298796	11.8042541660531	0.0	-11.8042541660531	7.49594185298796	0.0	11.8042541660531	0.0	-7.49594185298796	1.9186620144453332	2.980937609778282	-0.877616421037602	0.916846170287533	5.148430520677209	-0.877616421037602	-8.57999523410729	3.094738057042468	1.1760760425971362	0.6499663993059075	1.453354789434769	3	missed	0.0
141.3105158000253	6.429750500014052	go_reward	0.2521671999711543	141.35165770002664	142.8483060000001	145.39756890002218	1.496648299973458	142.3590781000678	144.37755510001466	146.3974157000198	0.48922789993230253	1.0200138000075185	1.383992500020895	n/a	1.0	n/a	2	0	22	2	go_reward	1	1	0	1	1	1	0	n/a	n/a	1	0.2521671999711543	1.0	1622.5634021000003	1763.915059800027	1764.922480200068	1765.4117081000004	1766.940957200015	1767.9609710000225	n/a	n/a	1768.96081780002	1770.344810300041	2019-12-24 16:43:17.066536	30.6628080640824	20.4289953730737	0.0	20.4289953730737	30.6628080640824	0.0	-30.6628080640824	20.4289953730737	0.0	30.6628080640824	0.0	13.0377762571506	20.777215912474635	15.913991129864023	-0.877616421037602	13.849899690373274	24.00698441870651	-0.877616421037602	11.95372287603127	21.95329195507177	1.1760760425971362	13.58301991939165	1.453354789434769	3	missed	0.0
147.76967740000669	6.366109600058053	nogo_reward	0.328943399945274	147.810819300008	149.13249530002963	151.68766320007876	1.3216760000216254	148.80587749998108	150.66801560006593	152.7010635000188	0.32661780004855245	1.0196476000128314	1.4758654000472688	n/a	1.0	n/a	2	0	23	1	nogo_reward	1	0	1	0	1	0	1	n/a	n/a	0	0.328943399945274	1.0	1622.5634021000003	1770.3742214000083	1771.3692795999814	1771.69589740003	1773.2314177000662	1774.251065300079	n/a	n/a	1775.264465600019	1776.7403310000664	2019-12-24 16:43:17.066536	7.48693265524193	4.55135438428052	0.0	4.55135438428052	7.48693265524193	0.0	-7.48693265524193	4.55135438428052	0.0	7.48693265524193	0.0	-4.55135438428052	-2.3986594963658368	0.03635014107084267	-0.877616421037602	-2.0277412984199064	0.8311090098660392	-0.877616421037602	-5.63540776539985	-1.222583453768702	1.1760760425971362	-2.294621069401532	1.453354789434769	3	missed	0.0
154.1578826000914	7.826448999927379	go_punish	0.3169850000413134	154.19902450009272	157.03838719998043	159.56563420000043	2.8393626998877153	155.2120325000726	158.55471410008658	160.5788130000003	1.8263546999078244	1.0109200999138466	1.4466605000197887	n/a	1.0	n/a	2	0	24	4	go_punish	1	0	-1	1	1	1	0	n/a	n/a	0	0.3169850000413134	1.0	1622.5634021000003	1776.762426600093	1777.775434600073	1779.6017892999807	1781.118116200087	1782.1290363000007	n/a	n/a	1783.1422151000006	1784.5888756000204	2019-12-24 16:43:17.066536	0.85242922141325	0.0	0.0	0.0	0.85242922141325	0.0	-0.85242922141325	0.0	0.0	0.85242922141325	0.0	0.0	-9.033162930194518	-4.5150042432096775	-0.877616421037602	-6.5790956827004266	-5.803394423962641	-0.877616421037602	-1.08405338111933	-7.857086887597382	1.1760760425971362	-6.845975453682052	1.453354789434769	3	missed	0.0
162.02823539997917	6.169047000003047	nogo_punish	1.0	162.0693772999805	163.80012120003857	166.32544070004974	1.730743900058087	163.0760866000785	165.31094710005004	167.33870209998008	0.7240345999600777	1.014493599999696	0.8997222000034526	n/a	1.0	n/a	2	0	25	3	nogo_punish	1	-1	0	0	0	1	0	n/a	n/a	0	1.0	1.0	1622.5634021000003	1784.6327793999808	1785.6394887000788	1786.3635233000389	1787.8743492000503	1788.88884280005	n/a	n/a	1789.9021041999804	1790.8018263999838	2019-12-24 16:43:17.066536	4.51507043285938	-3.71864385494666	0.0	-3.71864385494666	-4.51507043285938	0.0	-4.51507043285938	0.0	-3.71864385494666	0.0	-4.51507043285938	0.0	-5.370521718748387	-8.233648098156337	-0.877616421037602	-10.297739537647086	-11.170894078235271	-0.877616421037602	-1.08405338111933	-8.709516109010632	-3.338994390262244	-6.845975453682052	-2.265289065511891	3	missed	0.0
168.2275224000914	6.190481899888255	nogo_reward	0.1337705999612808	168.26866430009272	169.62258480000332	172.17777060007234	1.3539204999106005	169.2646457999947	171.15473569999472	173.18762470001843	0.3579390000086278	1.0230349000776187	1.271521499962546	n/a	1.0	n/a	2	0	26	1	nogo_reward	0	1	0	0	1	0	0	n/a	n/a	1	0.1337705999612808	1.0	1622.5634021000003	1790.832066400093	1791.828047899995	1792.1859869000036	1793.718137799995	1794.7411727000726	n/a	n/a	1795.7510268000187	1797.0225482999813	2019-12-24 16:43:17.066536	4.99384474673433	2.84909606568904	0.0	2.84909606568904	4.99384474673433	0.0	-4.99384474673433	2.84909606568904	0.0	4.99384474673433	0.0	30.61767556453526	-4.8917474048734375	-1.6659081775206377	-0.877616421037602	-3.7299996170113867	-1.6619788986415616	-0.877616421037602	29.533622183415932	-3.7156713622763027	1.1760760425971362	-3.9968793879930122	1.453354789434769	3	missed	0.0
174.461141900043	6.140243900008272	go_reward	0.4986112000187859	174.50228380004432	176.1647583000597	178.71996910008602	1.662474500015378	175.50963750004325	177.69698600005358	179.7274328999922	0.6551208000164479	1.0229831000324339	0.9150948000603876	n/a	1.0	n/a	2	0	27	2	go_reward	1	1	0	1	1	1	0	n/a	n/a	1	0.4986112000187859	1.0	1622.5634021000003	1797.0656859000446	1798.0730396000436	1798.72816040006	1800.260388100054	1801.2833712000863	n/a	n/a	1802.2908349999925	1803.205929800053	2019-12-24 16:43:17.066536	37.625236810995	25.1954271184261	0.0	25.1954271184261	37.625236810995	0.0	-37.625236810995	25.1954271184261	0.0	37.625236810995	0.0	8.271344511798201	27.73964465938723	20.680422875216422	-0.877616421037602	18.616331435725673	30.96941316561911	-0.877616421037602	7.187291130678871	28.915720701984366	1.1760760425971362	18.34945166474405	1.453354789434769	3	missed	0.0
180.6238882000323	6.74951720004924	go_punish	0.5419349999865517	180.66503010003362	182.510305600008	185.04841450008098	1.8452754999743775	181.6664187000133	184.0382957999832	186.06185350008377	0.8438868999946862	1.0101187000977916	1.3526937999990878	n/a	1.0	n/a	2	0	28	4	go_punish	1	0	-1	1	1	1	0	n/a	n/a	0	0.5419349999865517	1.0	1622.5634021000003	1803.228432200034	1804.2298208000136	1805.0737077000083	1806.6016978999835	1807.6118166000813	n/a	n/a	1808.625255600084	1809.9779494000832	2019-12-24 16:43:17.066536	0.85242922141325	0.0	0.0	0.0	0.85242922141325	0.0	-0.85242922141325	0.0	0.0	0.85242922141325	0.0	0.0	-9.033162930194518	-4.5150042432096775	-0.877616421037602	-6.5790956827004266	-5.803394423962641	-0.877616421037602	-1.08405338111933	-7.857086887597382	1.1760760425971362	-6.845975453682052	1.453354789434769	3	missed	0.0
187.4226574000204	7.474552400060929	nogo_punish	1.0	187.46379930002172	189.89865200000372	192.43439370009605	2.4348526999820024	188.4650484999877	191.41482060006842	193.43772060005017	1.4336035000160336	1.0195731000276282	1.5006311000324786	n/a	1.0	n/a	2	0	29	3	nogo_punish	1	-1	0	0	0	1	0	n/a	n/a	0	1.0	1.0	1622.5634021000003	1810.027201400022	1811.028450599988	1812.462054100004	1813.9782227000687	1814.9977958000964	n/a	n/a	1816.0011227000505	1817.501753800083	2019-12-24 16:43:17.066536	3.87392413510532	-3.71864385494666	0.0	-2.29206418352739	-3.87392413510532	0.0	-3.87392413510532	0.0	-3.71864385494666	0.0	-3.87392413510532	0.0	-6.011668016502448	-8.233648098156337	-0.877616421037602	-8.871159866227817	-10.52974778048121	-0.877616421037602	-1.08405338111933	-8.709516109010632	-2.697848092508184	-6.845975453682052	-2.265289065511891	3	missed	0.0
194.93793770007323	6.542329399962682	nogo_punish	1.0	194.97907960007456	197.0351134000814	199.55150190007407	2.056033800006844	195.98918889998458	198.540599900065	200.5693196000068	1.0459245000968167	1.0109020000090823	0.9520894000304452	n/a	1.0	n/a	2	0	30	3	nogo_punish	1	-1	0	0	0	1	0	n/a	n/a	0	1.0	1.0	1622.5634021000003	1817.5424817000749	1818.552590999985	1819.5985155000817	1821.1040020000653	1822.1149040000744	n/a	n/a	1823.132721700007	1824.0848111000375	2019-12-24 16:43:17.066536	3.50141331417812	-3.71864385494666	0.0	-1.46080897722604	-3.50141331417812	0.0	-3.50141331417812	0.0	-3.71864385494666	0.0	-3.50141331417812	0.0	-6.384178837429648	-8.233648098156337	-0.877616421037602	-8.039904659926467	-10.15723695955401	-0.877616421037602	-1.08405338111933	-8.709516109010632	-2.3253372715809837	-6.845975453682052	-2.265289065511891	3	missed	0.0
201.50417060009204	7.651129799895216	go_punish	0.255528200068511	201.54531250009336	204.2578846000838	206.7946961000564	2.712572099990439	202.5504239000154	205.7749271000505	207.8082130000696	1.7074607000683955	1.0197690000059083	1.3882292999189758	n/a	1.0	n/a	2	0	31	4	go_punish	1	0	-1	1	1	1	0	n/a	n/a	0	0.255528200068511	1.0	1622.5634021000003	1824.1087146000937	1825.1138260000157	1826.821286700084	1828.3383292000508	1829.3580982000567	n/a	n/a	1830.37161510007	1831.7598443999889	2019-12-24 16:43:17.066536	0.85242922141325	0.0	0.0	0.0	0.85242922141325	0.0	-0.85242922141325	0.0	0.0	0.85242922141325	0.0	0.0	-9.033162930194518	-4.5150042432096775	-0.877616421037602	-6.5790956827004266	-5.803394423962641	-0.877616421037602	-1.08405338111933	-7.857086887597382	1.1760760425971362	-6.845975453682052	1.453354789434769	3	missed	0.0
209.1807026000463	7.74665600003209	go_punish	0.2705760999815538	209.2218445000476	211.9969236000909	214.49866899999324	2.7750791000432855	210.23263500002258	213.50224820000608	215.51231530006066	1.764288600068312	0.9964207999871633	1.4561852000190356	n/a	1.0	n/a	2	0	32	4	go_punish	1	0	-1	1	1	1	0	n/a	n/a	0	0.2705760999815538	1.0	1622.5634021000003	1831.785246600048	1832.7960371000229	1834.5603257000912	1836.0656503000064	1837.0620710999935	n/a	n/a	1838.075717400061	1839.53190260008	2019-12-24 16:43:17.066536	0.85242922141325	0.0	0.0	0.0	0.85242922141325	0.0	-0.85242922141325	0.0	0.0	0.85242922141325	0.0	0.0	-9.033162930194518	-4.5150042432096775	-0.877616421037602	-6.5790956827004266	-5.803394423962641	-0.877616421037602	-1.08405338111933	-7.857086887597382	1.1760760425971362	-6.845975453682052	1.453354789434769	3	missed	0.0
216.95412070001476	6.211910500074737	nogo_reward	0.5112241999013349	216.99526260001608	218.44034640002042	220.98194130009574	1.4450838000043404	218.0032319000461	219.96176099998456	221.99519689998124	0.43711449997431373	1.0201803001111784	1.211976200109575	n/a	1.0	n/a	2	0	33	1	nogo_reward	1	0	1	0	1	0	0	n/a	n/a	0	0.5112241999013349	1.0	1622.5634021000003	1839.5586647000164	1840.5666340000464	1841.0037485000207	1842.5251630999849	1843.545343400096	n/a	n/a	1844.5585989999815	1845.7705752000911	2019-12-24 16:43:17.066536	22.2959482853037	14.6782023381731	0.0	14.6782023381731	22.2959482853037	0.0	-22.2959482853037	14.6782023381731	0.0	22.2959482853037	0.0	-14.6782023381731	12.410356133695934	10.163198094963423	-0.877616421037602	8.099106655472674	15.64012463992781	-0.877616421037602	-15.762255719292432	13.58643217629307	1.1760760425971362	7.832226884491049	1.453354789434769	3	missed	0.0
223.19426290004048	7.15850789996307	nogo_reward	0.3957691000541672	223.2354048000418	225.4567825000272	227.99092690006364	2.2213776999853962	224.23757880006474	226.97279460006416	229.0039948000342	1.2192036999624634	1.018132299999479	1.3899178999706692	n/a	1.0	n/a	2	0	34	1	nogo_reward	1	0	1	0	1	0	0	n/a	n/a	0	0.3957691000541672	1.0	1622.5634021000003	1845.798806900042	1846.800980900065	1848.0201846000275	1849.5361967000645	1850.554329000064	n/a	n/a	1851.5673969000345	1852.9573148000052	2019-12-24 16:43:17.066536	13.5366105110031	8.69538050360802	0.0	8.69538050360802	13.5366105110031	0.0	-13.5366105110031	8.69538050360802	0.0	13.5366105110031	0.0	-8.69538050360802	3.6510183593953336	4.180376260398342	-0.877616421037602	2.116284820907593	6.8807868656272095	-0.877616421037602	-9.77943388472735	4.827094401992468	1.1760760425971362	1.8494050499259673	1.453354789434769	3	missed	0.0
230.38113190000877	5.869286900037196	nogo_reward	0.6815155999502167	230.4222738000101	231.71503439999674	234.2527192999844	1.29276059998665	231.4347875000676	233.2393991000722	235.26736930001084	0.280246899929125	1.0133201999121866	1.0241914000364432	n/a	1.0	n/a	2	0	35	1	nogo_reward	1	0	1	0	1	0	1	n/a	n/a	0	0.6815155999502167	1.0	1622.5634021000003	1852.9856759000104	1853.998189600068	1854.278436499997	1855.8028012000725	1856.8161213999847	n/a	n/a	1857.8307714000111	1858.8549628000476	2019-12-24 16:43:17.066536	8.64074764914664	5.35294864892206	0.0	5.35294864892206	8.64074764914664	0.0	-8.64074764914664	5.35294864892206	0.0	8.64074764914664	0.0	-5.35294864892206	-1.2448445024611274	0.8379444057123822	-0.877616421037602	-1.2261470337783669	1.9849240037707485	-0.877616421037602	-6.4370020300413895	-0.0687684598639926	1.1760760425971362	-1.4930268047599924	1.453354789434769	3	missed	0.0
236.27598000003468	6.47715379996248	nogo_reward	0.4796800999902189	236.317121900036	238.0915652000117	240.6522080000725	1.774443299975701	237.32692390005172	239.6291539000813	241.65325670002494	0.7646412999599761	1.0230540999912137	1.1410189999735394	n/a	1.0	n/a	2	0	36	1	nogo_reward	0	1	0	0	1	0	1	n/a	n/a	1	0.4796800999902189	1.0	1622.5634021000003	1858.8805240000363	1859.890326000052	1860.654967300012	1862.1925560000816	1863.2156101000728	n/a	n/a	1864.2166588000252	1865.3576777999988	2019-12-24 16:43:17.066536	5.77526753647024	3.39386249686088	0.0	3.39386249686088	5.77526753647024	0.0	-5.77526753647024	3.39386249686088	0.0	5.77526753647024	0.0	30.07290913336342	-4.110324615137527	-1.1211417463487976	-0.877616421037602	-3.1852331858395466	-0.8805561089056511	-0.877616421037602	28.988855752244092	-2.934248572540392	1.1760760425971362	-3.452112956821172	1.453354789434769	3	missed	0.0
242.77818800008367	6.587527499999851	go_punish	1.0	242.819329900085	244.48199240001873	247.00527720002015	1.662662499933731	243.82004670007177	245.992867000052	248.0165006000318	0.6619456999469548	1.0124101999681443	1.3903568000530413	n/a	1.0	n/a	2	0	37	4	go_punish	1	0	-1	1	0	0	0	n/a	n/a	-1	1.0	1.0	1622.5634021000003	1865.3827320000853	1866.383448800072	1867.045394500019	1868.5562691000523	1869.5686793000204	n/a	n/a	1870.579902700032	1871.9702595000851	2019-12-24 16:43:17.066536	-0.85242922141325	0.0	0.0	0.0	0.85242922141325	0.0	0.85242922141325	0.0	0.0	0.0	0.85242922141325	-10.5958368397718	-10.738021373021017	-4.5150042432096775	-0.877616421037602	-6.5790956827004266	-5.803394423962641	-0.877616421037602	-11.679890220891131	-8.709516109010632	2.028505264010386	-6.845975453682052	1.453354789434769	3	missed	0.0
249.41078780009434	6.571394099970121	nogo_punish	1.0	249.45192970009566	251.01017260004323	253.5366715000714	1.5582428999475724	250.44857710006204	252.52608530002203	254.540549700032	0.5615954999811947	1.0105862000493744	1.4827741000337937	n/a	1.0	n/a	2	0	38	3	nogo_punish	1	-1	0	0	0	1	0	n/a	n/a	0	1.0	1.0	1622.5634021000003	1872.015331800096	1873.0119792000623	1873.5735747000435	1875.0894874000223	1876.1000736000717	n/a	n/a	1877.1039518000323	1878.586725900066	2019-12-24 16:43:17.066536	3.2767194611503	-3.71864385494666	0.0	-0.955689410909073	-3.2767194611503	0.0	-3.2767194611503	0.0	-3.71864385494666	0.0	-3.2767194611503	0.0	-6.608872690457467	-8.233648098156337	-0.877616421037602	-7.5347850936095	-9.932543106526191	-0.877616421037602	-1.08405338111933	-8.709516109010632	-2.100643418553164	-6.845975453682052	-2.265289065511891	3	missed	0.0
256.0090411000424	7.056087599950388	nogo_reward	0.2579056000104174	256.0501830000437	258.54169550002575	261.1035196000014	2.4915124999820364	257.05818430008367	260.0798044999833	262.1129227000056	1.483511199942086	1.0237151000180802	0.993347899988521	n/a	1.0	n/a	2	0	39	1	nogo_reward	0	1	0	0	1	0	0	n/a	n/a	1	0.2579056000104174	1.0	1622.5634021000003	1878.613585100044	1879.621586400084	1881.105097600026	1882.6432065999836	1883.6669217000017	n/a	n/a	1884.676324800006	1885.6696726999944	2019-12-24 16:43:17.066536	22.8332022515349	15.0540601686739	0.0	15.0540601686739	22.8332022515349	0.0	-22.8332022515349	15.0540601686739	0.0	22.8332022515349	0.0	18.4127114615504	12.947610099927132	10.539055925464222	-0.877616421037602	8.474964485973473	16.17737860615901	-0.877616421037602	17.328658080431072	14.123686142524267	1.1760760425971362	8.208084714991848	1.453354789434769	3	missed	0.0
263.10974880005233	7.15241730003595	nogo_punish	1.0	263.15089070005365	265.7079516000813	268.2436713000061	2.5570609000276363	264.15003380004805	267.22348300006774	269.2461126000853	1.5579178000332377	1.0201882999383542	1.0571954000042751	n/a	1.0	n/a	2	0	40	3	nogo_punish	1	-1	0	0	0	1	1	n/a	n/a	0	1.0	1.0	1622.5634021000003	1885.714292800054	1886.7134359000484	1888.2713537000816	1889.786885100068	1890.8070734000064	n/a	n/a	1891.8095147000856	1892.86671010009	2019-12-24 16:43:17.066536	3.13715502040603	-3.71864385494666	0.0	-0.63892745242433	-3.13715502040603	0.0	-3.13715502040603	0.0	-3.71864385494666	0.0	-3.13715502040603	0.0	-6.748437131201737	-8.233648098156337	-0.877616421037602	-7.218023135124756	-9.792978665781922	-0.877616421037602	-1.08405338111933	-8.709516109010632	-1.961078977808894	-6.845975453682052	-2.265289065511891	3	missed	0.0
270.2871509999968	7.445432999986451	go_punish	0.2665311999153346	270.32829289999813	273.0940111000093	275.6575050000106	2.765718200011179	271.3386150000158	274.6379334999949	276.6710255000512	1.7553960999935043	1.0195715000156724	1.1027003999333829	n/a	1.0	n/a	2	0	41	4	go_punish	1	0	-1	1	1	1	0	n/a	n/a	0	0.2665311999153346	1.0	1622.5634021000003	1892.8916949999984	1893.902017100016	1895.6574132000096	1897.2013355999952	1898.220907100011	n/a	n/a	1899.2344276000515	1900.337127999985	2019-12-24 16:43:17.066536	2.92221727703394	0.0	-3.71864385494666	-3.71864385494666	-0.796426577912722	-3.71864385494666	-2.92221727703394	0.0	-3.71864385494666	-0.796426577912722	-3.71864385494666	0.0	-6.963374874573827	-4.5150042432096775	-4.596260275984262	-10.297739537647086	-7.452250223288614	-4.596260275984262	-1.08405338111933	-9.505942686923355	-2.5425678123495237	-6.845975453682052	-2.265289065511891	3	missed	0.0
277.75648460001685	5.834903200040571	go_punish	1.0	277.79762650001817	279.3121537000404	281.8427686000946	1.5145272000222576	278.8086552000607	280.8194386999826	282.85234470001933	0.5034984999797416	1.023329900112003	0.7801850000394097	n/a	1.0	n/a	2	0	42	4	go_punish	1	0	-1	1	0	0	0	n/a	n/a	-1	1.0	1.0	1622.5634021000003	1900.3610286000185	1901.372057300061	1901.8755558000407	1903.382840799983	1904.406170700095	n/a	n/a	1905.4157468000196	1906.195931800059	2019-12-24 16:43:17.066536	-3.563363574788	0.0	-3.71864385494666	-2.29206418352739	-0.15528028015866	-3.71864385494666	3.563363574788	-3.71864385494666	0.0	-3.71864385494666	-0.15528028015866	-6.877192984825141	-13.448955726395766	-4.5150042432096775	-4.596260275984262	-8.871159866227817	-6.811103925534551	-4.596260275984262	-7.961246365944471	-12.428159963957292	1.0207957624384763	-10.564619308628712	1.453354789434769	3	missed	0.0
283.63555830006953	6.413591000018414	nogo_punish	1.0	283.67670020007085	285.0647371000382	287.593604700058	1.3880368999673465	284.67511930002365	286.57346099999245	288.60671960003697	0.38961780001454827	1.020143700065546	1.4835716000523007	n/a	1.0	n/a	2	0	43	3	nogo_punish	1	-1	0	0	0	1	0	n/a	n/a	0	1.0	1.0	1622.5634021000003	1906.2401023000712	1907.238521400024	1907.6281392000385	1909.1368630999928	1910.1570068000583	n/a	n/a	1911.1701217000373	1912.6536933000896	2019-12-24 16:43:17.066536	3.0483414418142	-3.71864385494666	0.0	-0.435172721477864	-3.0483414418142	0.0	-3.0483414418142	0.0	-3.71864385494666	0.0	-3.0483414418142	0.0	-6.837250709793567	-8.233648098156337	-0.877616421037602	-7.01426840417829	-9.704165087190091	-0.877616421037602	-1.08405338111933	-8.709516109010632	-1.872265399217064	-6.845975453682052	-2.265289065511891	3	missed	0.0
290.09463290008716	6.048963599954732	go_reward	0.1058801999315619	290.1357748000885	291.6866142000076	294.22964340006	1.5508393999191412	291.1410888000396	293.2187797999941	295.24915990000613	0.5455253999680281	1.0108636000659317	0.9355785000370815	n/a	1.0	n/a	2	0	44	2	go_reward	0	0	1	1	1	1	0	n/a	n/a	0	0.1058801999315619	1.0	1622.5634021000003	1912.6991769000888	1913.70449090004	1914.250016300008	1915.7821818999944	1916.7930455000603	n/a	n/a	1917.8125620000064	1918.7481405000435	2019-12-24 16:43:17.066536	41.8175144474128	28.071859271255	0.0	28.071859271255	41.8175144474128	0.0	-41.8175144474128	28.071859271255	0.0	41.8175144474128	0.0	-28.071859271255	31.93192229580503	23.556855028045323	-0.877616421037602	21.492763588554574	35.16169080203691	-0.877616421037602	-29.15591265237433	33.10799833840217	1.1760760425971362	21.22588381757295	1.453354789434769	3	missed	0.0
296.18625450006243	7.442613099934306	go_reward	0.3120315000414848	296.22739640006375	298.7415140999949	301.30241190001857	2.5141176999311483	297.23641230003	300.2788833000236	302.3123294999825	1.5051017999649048	1.023528599994961	1.3576800000155345	n/a	1.0	n/a	2	0	45	2	go_reward	1	1	0	1	1	1	0	n/a	n/a	1	0.3120315000414848	1.0	1622.5634021000003	1918.790798500064	1919.7998144000303	1921.3049161999952	1922.842285400024	1923.8658140000189	n/a	n/a	1924.8757315999828	1926.2334115999984	2019-12-24 16:43:17.066536	25.6312062261199	17.0164552152502	0.0	17.0164552152502	25.6312062261199	0.0	-25.6312062261199	17.0164552152502	0.0	25.6312062261199	0.0	16.4503164149741	15.745614074512133	12.501450972040523	-0.877616421037602	10.437359532549774	18.97538258074401	-0.877616421037602	15.36626303385477	16.921690117109268	1.1760760425971362	10.17047976156815	1.453354789434769	3	missed	0.0
303.67208950000327	5.875918300007925	nogo_punish	1.0	303.7132314000046	305.0708431000826	307.60686120006767	1.357611700077996	304.71235090005257	306.5872321000793	308.6202281999872	0.3584922000300139	1.0196290999883786	0.9689215000253171	n/a	1.0	n/a	2	0	46	3	nogo_punish	1	-1	0	0	0	1	0	n/a	n/a	0	1.0	1.0	1622.5634021000003	1926.276633500005	1927.2757530000529	1927.634245200083	1929.1506342000796	1930.170263300068	n/a	n/a	1931.1836302999875	1932.1525518000128	2019-12-24 16:43:17.066536	2.99064002891151	-3.71864385494666	0.0	-0.301271220206818	-2.99064002891151	0.0	-2.99064002891151	0.0	-3.71864385494666	0.0	-2.99064002891151	0.0	-6.894952122696257	-8.233648098156337	-0.877616421037602	-6.8803669029072445	-9.646463674287402	-0.877616421037602	-1.08405338111933	-8.709516109010632	-1.8145639863143739	-6.845975453682052	-2.265289065511891	3	missed	0.0
309.57778779999353	7.085694700013846	nogo_reward	0.2244503999827429	309.61892969999485	311.79891790007264	314.33807689999253	2.179988200077787	310.62869240005966	313.3218269000065	315.3519866000861	1.1702255000129753	1.0162499999860302	1.3526377999226042	n/a	1.0	n/a	2	0	47	1	nogo_reward	1	0	1	0	1	0	0	n/a	n/a	0	0.2244503999827429	1.0	1622.5634021000003	1932.1823317999952	1933.19209450006	1934.362320000073	1935.8852290000068	1936.9014789999928	n/a	n/a	1937.9153887000864	1939.268026500009	2019-12-24 16:43:17.066536	32.7044885127163	21.8076411750071	0.0	21.8076411750071	32.7044885127163	0.0	-32.7044885127163	21.8076411750071	0.0	32.7044885127163	0.0	-21.8076411750071	22.818896361108536	17.29263693179742	-0.877616421037602	15.228545492306672	26.048664867340413	-0.877616421037602	-22.891694556126428	23.99497240370567	1.1760760425971362	14.961665721325048	1.453354789434769	3	missed	0.0
316.6885318000568	6.391901599941548	nogo_reward	0.3122955000726506	316.72967370005813	318.7942853000718	321.3491546000589	2.064611600013677	317.7394520000089	320.33127160009485	322.36260500003164	1.05483330006291	1.0178829999640584	0.7589702999680412	n/a	1.0	n/a	2	0	48	1	nogo_reward	1	0	1	0	1	0	0	n/a	n/a	0	0.3122955000726506	1.0	1622.5634021000003	1939.2930758000584	1940.3028541000092	1941.357687400072	1942.8946737000952	1943.9125567000592	n/a	n/a	1944.926007100032	1945.6849774	2019-12-24 16:43:17.066536	19.856902219719	13.0351119199812	0.0	13.0351119199812	19.856902219719	0.0	-19.856902219719	13.0351119199812	0.0	19.856902219719	0.0	-13.0351119199812	9.971310068111233	8.520107676771522	-0.877616421037602	6.456016237280773	13.201078574343109	-0.877616421037602	-14.11916530110053	11.147386110708368	1.1760760425971362	6.189136466299147	1.453354789434769	3	missed	0.0
323.12378340004943	5.92713089997369	nogo_punish	1.0	323.16492530005075	324.6210505000786	327.1568951000229	1.4561252000278273	324.1630555000156	326.137295200024	328.17056360002607	0.4579950000629651	1.019599899998866	0.9214925999983734	n/a	1.0	n/a	2	0	49	3	nogo_punish	1	-1	0	0	0	1	0	n/a	n/a	0	1.0	1.0	1622.5634021000003	1945.728327400051	1946.726457600016	1947.1844526000789	1948.7006973000243	1949.7202972000232	n/a	n/a	1950.7339657000264	1951.6554583000247	2019-12-24 16:43:17.066536	2.95246494104063	-3.71864385494666	0.0	-0.211625692160981	-2.95246494104063	0.0	-2.95246494104063	0.0	-3.71864385494666	0.0	-2.95246494104063	0.0	-6.933127210567138	-8.233648098156337	-0.877616421037602	-6.790721374861407	-9.60828858641652	-0.877616421037602	-1.08405338111933	-8.709516109010632	-1.7763888984434937	-6.845975453682052	-2.265289065511891	3	missed	0.0
329.07706510007847	5.935028099920601	go_punish	0.411231099977158	329.1182070000798	330.68536750006047	333.2272954999937	1.5671604999806732	330.12309540004935	332.2015108000485	334.2260131000078	0.5622721000111142	1.025784699945234	0.8272219999926165	n/a	1.0	n/a	2	0	50	4	go_punish	0	-1	0	1	1	1	0	n/a	n/a	-1	0.411231099977158	1.0	1622.5634021000003	1951.68160910008	1952.6864975000497	1953.2487696000608	1954.7649129000488	1955.790697599994	n/a	n/a	1956.789415200008	1957.6166372000007	2019-12-24 16:43:17.066536	4.57908277991661	0.0	-6.01070803847405	-5.17945283217269	-1.43162525855743	-6.01070803847405	-4.57908277991661	0.0	-6.01070803847405	-1.43162525855743	-6.01070803847405	-10.5958368397718	-5.306509371691157	-4.5150042432096775	-6.888324459511652	-11.758548514873116	-8.087448903933321	-6.888324459511652	-11.679890220891131	-10.141141367568062	-4.834631995876913	-6.845975453682052	-4.557353249039281	3	missed	0.0
335.0372349000536	6.55713079997804	go_punish	0.3204443999566138	335.0783768000549	336.6501360000118	339.2046344000844	1.5717591999568867	336.08847810002067	338.1817113000436	340.2202592000838	0.5616578999911326	1.0229231000407708	1.4152483999491778	n/a	1.0	n/a	2	0	51	4	go_punish	0	-1	0	1	1	1	0	n/a	n/a	-1	0.3204443999566138	1.0	1622.5634021000003	1957.6417789000552	1958.651880200021	1959.213538100012	1960.745113400044	1961.7680365000847	n/a	n/a	1962.783661300084	1964.1989097000333	2019-12-24 16:43:17.066536	0.0774232764258655	-3.71864385494666	-6.01070803847405	-6.96639744938312	-5.93328476204818	-6.01070803847405	-0.0774232764258655	-3.71864385494666	-6.01070803847405	-5.93328476204818	-6.01070803847405	-6.877192984825141	-9.808168875181902	-8.233648098156337	-6.888324459511652	-13.545493132083546	-12.589108407424071	-6.888324459511652	-7.961246365944471	-14.642800871058812	-4.834631995876913	-10.564619308628712	-4.557353249039281	3	missed	0.0
341.6366605000803	5.7081570998996085	nogo_punish	1.0	341.67780240008165	343.0132043000781	345.5044022999941	1.335401899996441	342.6862233000577	344.5079947999916	346.51747900003124	0.3269810000203961	0.9964075000025332	0.8684804999500102	n/a	1.0	n/a	2	0	52	3	nogo_punish	1	-1	0	0	0	1	0	n/a	n/a	0	1.0	1.0	1622.5634021000003	1964.241204500082	1965.249625400058	1965.5766064000784	1967.071396899992	1968.0678043999944	n/a	n/a	1969.0808811000315	1969.9493615999816	2019-12-24 16:43:17.066536	2.92679651316279	-3.71864385494666	0.0	-0.150615985218977	-2.92679651316279	0.0	-2.92679651316279	0.0	-3.71864385494666	0.0	-2.92679651316279	0.0	-6.958795638444977	-8.233648098156337	-0.877616421037602	-6.729711667919403	-9.582620158538681	-0.877616421037602	-1.08405338111933	-8.709516109010632	-1.7507204705656538	-6.845975453682052	-2.265289065511891	3	missed	0.0
347.3727757000595	6.191726299934544	nogo_reward	0.4529941999353468	347.4139176000608	349.26045649999287	351.81781720009167	1.8465388999320567	348.41781450004805	350.7980168000797	352.831030600006	0.8426419999448171	1.0198004000119454	0.7746132999893689	n/a	1.0	n/a	2	0	53	1	nogo_reward	1	0	1	0	1	0	0	n/a	n/a	0	0.4529941999353468	1.0	1622.5634021000003	1969.9773197000611	1970.9812166000484	1971.8238585999932	1973.36141890008	1974.381219300092	n/a	n/a	1975.3944327000063	1976.1690459999957	2019-12-24 16:43:17.066536	12.5985259110351	8.07865723865937	0.0	8.07865723865937	12.5985259110351	0.0	-12.5985259110351	8.07865723865937	0.0	12.5985259110351	0.0	-8.07865723865937	2.712933759427333	3.563652995449692	-0.877616421037602	1.4995615559589428	5.942702265659209	-0.877616421037602	-9.1627106197787	3.889009802024468	1.1760760425971362	1.2326817849773173	1.453354789434769	3	missed	0.0
353.5897503000451	6.59230639995053	nogo_reward	0.529031699988991	353.63089220004645	355.32351870008324	357.866529299994	1.6926265000367948	354.6373866000213	356.8452671000273	358.8794628999897	0.6861321000619682	1.0212621999667135	1.3437357000073007	n/a	1.0	n/a	2	0	54	1	nogo_reward	1	0	1	0	1	0	0	n/a	n/a	0	0.529031699988991	1.0	1622.5634021000003	1976.1942943000467	1977.2007887000216	1977.8869208000835	1979.4086692000276	1980.4299313999943	n/a	n/a	1981.44286499999	1982.7866006999973	2019-12-24 16:43:17.066536	8.3174663477555	5.15044848199492	0.0	5.15044848199492	8.3174663477555	0.0	-8.3174663477555	5.15044848199492	0.0	8.3174663477555	0.0	-5.15044848199492	-1.5681258038522667	0.6354442387852428	-0.877616421037602	-1.4286472007055062	1.6616427023796092	-0.877616421037602	-6.23450186311425	-0.3920497612551319	1.1760760425971362	-1.6955269716871317	1.453354789434769	3	missed	0.0
360.22786820004717	7.313286099931929	nogo_punish	1.0	360.2690101000485	362.80947860004403	365.32534830004465	2.5404684999955407	361.27363130007893	364.31552830000896	366.3388697000921	1.5358472999650985	1.0098200000356883	1.243426499888301	n/a	1.0	n/a	2	0	55	3	nogo_punish	1	-1	0	0	0	1	0	n/a	n/a	0	1.0	1.0	1622.5634021000003	1982.8324122000488	1983.8370334000792	1985.3728807000443	1986.8789304000093	1987.888750400045	n/a	n/a	1988.9022718000924	1990.1456982999807	2019-12-24 16:43:17.066536	2.90928371326091	-3.71864385494666	0.0	-0.108479888103258	-2.90928371326091	0.0	-2.90928371326091	0.0	-3.71864385494666	0.0	-2.90928371326091	0.0	-6.976308438346857	-8.233648098156337	-0.877616421037602	-6.687575570803684	-9.565107358636801	-0.877616421037602	-1.08405338111933	-8.709516109010632	-1.733207670663774	-6.845975453682052	-2.265289065511891	3	missed	0.0
367.5853603000287	6.717836900032125	nogo_punish	1.0	367.62650220003	369.49557360005565	372.01732830004767	1.869071400025632	368.6329849000324	370.99779550009407	373.0310741000576	0.8625887000232524	1.0195327999535948	1.3132650000045487	n/a	1.0	n/a	2	0	56	3	nogo_punish	1	-1	0	0	0	1	0	n/a	n/a	0	1.0	1.0	1622.5634021000003	1990.1899043000303	1991.1963870000327	1992.058975700056	1993.5611976000944	1994.580730400048	n/a	n/a	1995.594476200058	1996.9077412000624	2019-12-24 16:43:17.066536	2.89717542552049	-3.71864385494666	0.0	-0.07898889909392	-2.89717542552049	0.0	-2.89717542552049	0.0	-3.71864385494666	0.0	-2.89717542552049	0.0	-6.988416726087277	-8.233648098156337	-0.877616421037602	-6.658084581794347	-9.55299907089638	-0.877616421037602	-1.08405338111933	-8.709516109010632	-1.7210993829233536	-6.845975453682052	-2.265289065511891	3	missed	0.0
374.34541629999876	7.736845100065693	go_reward	0.2825800999999046	374.3865582000001	377.1649933999872	379.71762630005855	2.7784351999871433	375.40220290003367	378.7026345999916	380.722241300042	1.762790499953553	1.0149917000669575	1.40116200002376	n/a	1.0	n/a	2	0	57	2	go_reward	1	1	0	1	1	1	0	n/a	n/a	1	0.2825800999999046	1.0	1622.5634021000003	1996.9499603000004	1997.965605000034	1999.7283954999875	2001.266036699992	2002.2810284000589	n/a	n/a	2003.2856434000423	2004.686805400066	2019-12-24 16:43:17.066536	35.1374184255364	23.5190092701966	0.0	23.5190092701966	35.1374184255364	0.0	-35.1374184255364	23.5190092701966	0.0	35.1374184255364	0.0	9.9477623600277	25.251826273928636	19.004005026986924	-0.877616421037602	16.939913587496175	28.481594780160513	-0.877616421037602	8.863708978908369	26.42790231652577	1.1760760425971362	16.67303381651455	1.453354789434769	3	missed	0.0
382.12500530004036	6.755955599946901	go_reward	0.1674953999463468	382.1661472000417	383.9499464000112	386.5123804000907	1.7837991999695078	383.16311520000477	385.48931330000073	387.522521200008	0.7868312000064179	1.0230671000899747	1.3995815999805927	n/a	1.0	n/a	2	0	58	2	go_reward	1	1	0	1	1	1	0	n/a	n/a	1	0.1674953999463468	1.0	1622.5634021000003	2004.729549300042	2005.726517300005	2006.5133485000115	2008.052715400001	2009.075782500091	n/a	n/a	2010.0859233000083	2011.4855048999889	2019-12-24 16:43:17.066536	40.5417797368302	27.2165711436248	0.0	27.2165711436248	40.5417797368302	0.0	-40.5417797368302	27.2165711436248	0.0	40.5417797368302	0.0	6.2502004865995	30.656187585222433	22.701566900415123	-0.877616421037602	20.637475460924374	33.88595609145431	-0.877616421037602	5.16614710548017	31.832263627819568	1.1760760425971362	20.37059568994275	1.453354789434769	3	missed	0.0
388.92983799998206	6.8279443000208175	nogo_punish	1.0	388.9709798999834	391.246584800072	393.7740360000173	2.275604900088638	389.96670570003334	392.753859800054	394.78991080005676	1.27987910003867	1.0201761999633163	1.0090133999474347	n/a	1.0	n/a	2	0	59	3	nogo_punish	1	-1	0	0	0	1	0	n/a	n/a	0	1.0	1.0	1622.5634021000003	2011.5343819999837	2012.5301078000336	2013.8099869000723	2015.3172619000543	2016.3374381000176	n/a	n/a	2017.353312900057	2018.3623263000045	2019-12-24 16:43:17.066536	2.88870111145351	-3.71864385494666	0.0	-0.0580960236812364	-2.88870111145351	0.0	-2.88870111145351	0.0	-3.71864385494666	0.0	-2.88870111145351	0.0	-6.996891040154257	-8.233648098156337	-0.877616421037602	-6.637191706381663	-9.544524756829402	-0.877616421037602	-1.08405338111933	-8.709516109010632	-1.712625068856374	-6.845975453682052	-2.265289065511891	3	missed	0.0
395.7833432999903	6.401353300084111	go_punish	0.3018271999899298	395.8244851999916	397.64581800007727	400.17252260004216	1.8213328000856563	396.83416660001967	399.16178040008526	401.18566379998856	0.811651400057599	1.0107421999568942	1.0401747000871637	n/a	1.0	n/a	2	0	60	4	go_punish	1	0	-1	1	1	1	0	n/a	n/a	0	0.3018271999899298	1.0	1622.5634021000003	2018.387887299992	2019.39756870002	2020.2092201000776	2021.7251825000856	2022.7359247000425	n/a	n/a	2023.7490658999889	2024.789240600076	2019-12-24 16:43:17.066536	-2.71027514700197	-6.01070803847405	-6.01070803847405	-8.11044446812441	-8.72098318547602	-6.01070803847405	2.71027514700197	-6.01070803847405	-6.01070803847405	-8.72098318547602	-6.01070803847405	6.01070803847405	-12.595867298609736	-10.525712281683727	-6.888324459511652	-14.689540150824836	-15.376806830851912	-6.888324459511652	4.92665465735472	-17.43049929448665	-4.834631995876913	-12.856683492156101	-4.557353249039281	3	missed	0.0
