onset	duration	trial_type	response_time	cueOnset	targetOnset	fbOnset	cueRT	firstfixOnset	secondfixOnset	waitOnset	firstfixdur	secondfixdur	waitdur	nback_fbOnset	nback_response_time	nback_targetOnset	block	wm	trial	cue	cond	is_common	outcome_go	outcome_nogo	key_correct	key_pressed	is_correct	key_correct_nback	key_pressed_nback	is_correct_nback	outcome	rt	rt_nback	time_scan	time_onset	time_isi1	time_circle	time_isi2	time_feedback	time_same	time_correct	time_iti	time_done	timestamp_scan	DV	Qgo	Qnogo	SV	Wgo	Wnogo	mDV	Qchosen	Qunchosen	Wchosen	Wunchosen	PE	DVC	QgoC	QnogoC	SVC	WgoC	WnogoC	PEC	WchosenC	WunchosenC	QchosenC	QunchosenC	run	outcome_nback	nback_targetResp
0.0	6.916105600073934	go_punish	0.2763110001105815	0.029430299997329712	2.623115099966526	5.180760799907148	2.5936847999691963	1.0448678999673575	4.160414099926129	6.188252199906856	1.5782471999991685	1.020346699981019	0.7572837001644075	n/a	1.0	n/a	2	0	61	3	go_punish	1	0	-1	1	1	1	0	n/a	n/a	0	0.2763110001105815	1.0	2064.4638988000806	2064.493329100078	2065.508766700048	2067.087013900047	2068.6243129000068	2069.644659599988	n/a	n/a	2070.6521509999875	2071.409434700152	2020-01-10 18:09:09.939080	3.23839047055433	-3.23191580389647	-7.64687031025292	-3.49463865892651	-4.40847983969859	-7.64687031025292	-3.23839047055433	-3.23191580389647	-7.64687031025292	-4.40847983969859	-7.64687031025292	3.23191580389647	0.18891006397077525	-3.9505979691298028	-7.218254372995644	-4.841615603123261	-4.855870059028231	-7.218254372995644	2.99469796239014	-5.942607184026549	-6.131517247997327	-4.8812683055659125	-6.287584036559537	4	missed	0.0
6.95852530002594	6.114423699909821	go_punish	0.3911621998995542	6.98795560002327	8.355210399953648	10.901032899972051	1.3672547999303788	7.99650779995136	9.877244499977678	11.9011433001142	0.3587026000022888	1.0237883999943733	1.2012359998188913	n/a	1.0	n/a	2	0	62	3	go_punish	0	-1	0	1	1	1	0	n/a	n/a	-1	0.3911621998995542	1.0	2064.4638988000806	2071.451854400104	2072.460406600032	2072.8191092000343	2074.3411433000583	2075.3649317000527	n/a	n/a	2076.365042100195	2077.5662781000137	2020-01-10 18:09:09.939080	4.59509899029192	-2.09811652065346	-7.64687031025292	-2.28139737649571	-3.051771319961	-7.64687031025292	-4.59509899029192	-2.09811652065346	-7.64687031025292	-3.051771319961	-7.64687031025292	-11.35049954054514	1.545618583708365	-2.8167986858867926	-7.218254372995644	-3.6283743206924606	-3.4991615392906414	-7.218254372995644	-11.587717382051471	-4.585898664288959	-6.131517247997327	-3.7474690223229024	-6.287584036559537	4	missed	0.0
13.11404910008423	7.703176700044423	go_punish	0.3822657000273466	13.14347940008156	15.892146100057289	18.444797199917957	2.748666699975729	14.14553020009771	17.423207700019702	19.447189700091258	1.746615899959579	1.0215894998982549	1.3994664000347257	n/a	1.0	n/a	2	0	63	3	go_punish	1	0	-1	1	1	1	1	n/a	n/a	0	0.3822657000273466	1.0	2064.4638988000806	2077.607378200162	2078.6094290001784	2080.356044900138	2081.8871065001003	2082.9086959999986	n/a	n/a	2083.911088500172	2085.3105549002066	2020-01-10 18:09:09.939080	-0.0774615883116065	-6.05135049857742	-7.64687031025292	-6.18016943006161	-7.72433189856453	-7.64687031025292	0.0774615883116065	-6.05135049857742	-7.64687031025292	-7.72433189856453	-7.64687031025292	6.05135049857742	-3.1269419948951613	-6.770032663810753	-7.218254372995644	-7.52714637425836	-8.171722117894172	-7.218254372995644	5.814132657071089	-9.258459242892489	-6.131517247997327	-7.700703000246862	-6.287584036559537	4	missed	0.0
20.859861799981445	7.474058700026944	nogo_reward	1.0	20.889292099978775	23.412094000028446	25.946677499916404	2.5228019000496715	21.897356600035437	24.923864000011235	26.959972199983895	1.5147373999930096	1.022813499905169	1.4033786000218242	n/a	1.0	n/a	2	0	64	2	nogo_reward	1	0	1	0	0	1	0	n/a	n/a	1	1.0	1.0	2064.4638988000806	2085.3531909000594	2086.361255400116	2087.875992800109	2089.387762800092	2090.410576299997	n/a	n/a	2091.4238710000645	2092.8272496000864	2020-01-10 18:09:09.939080	6.59791764388769	0.0	6.94203787734785	5.48771713158116	0.344120233460158	6.94203787734785	-6.59791764388769	6.94203787734785	0.0	6.94203787734785	0.344120233460158	4.74756268599565	3.548437237304135	-0.7186821652333327	7.370653814605126	4.140740187384409	-0.10326998586948333	7.370653814605126	4.510344844489319	5.407910533019891	1.859473295715751	5.292685375678408	1.359286273693383	4	missed	0.0
28.359598200070195	7.71490469993978	nogo_punish	1.0	28.389028500067525	31.345487999963098	33.87210169993341	2.9564594998955727	29.402243999997154	32.86180220008828	34.876251399983175	1.9432439999659437	1.0102994998451322	1.2276818000241292	n/a	1.0	n/a	2	0	65	4	nogo_punish	1	-1	0	0	0	1	0	n/a	n/a	0	1.0	1.0	2064.4638988000806	2092.852927300148	2093.866142800078	2095.8093868000437	2097.325701000169	2098.336000500014	n/a	n/a	2099.340150200064	2100.567832000088	2020-01-10 18:09:09.939080	2.88514093967015	-4.89634213184601	-3.12953423583608	-3.23298940286185	-6.01467517550622	-3.12953423583608	-2.88514093967015	-3.12953423583608	-4.89634213184601	-3.12953423583608	-6.01467517550622	3.12953423583608	-0.16433946691340484	-5.615024297079343	-2.700918298578804	-4.579966347058601	-6.462065394835861	-2.700918298578804	2.89231639432975	-4.66366158016404	-4.499322113250627	-4.778886737505522	-3.5370558581526272	4	missed	0.0
36.11985890008509	7.179615299915895	go_punish	0.3243289000820368	36.14928920008242	38.85898180003278	41.416258400073275	2.7096925999503583	37.154658399987966	40.396359300008044	42.42943169991486	1.7043234000448138	1.0198991000652313	0.8994728000834584	n/a	1.0	n/a	2	0	66	3	go_punish	1	0	-1	1	1	1	0	n/a	n/a	0	0.3243289000820368	1.0	2064.4638988000806	2100.613188000163	2101.6185572000686	2103.3228806001134	2104.8602581000887	2105.880157200154	n/a	n/a	2106.8933304999955	2107.792803300079	2020-01-10 18:09:09.939080	2.49111882582061	-3.8928468148893	-7.64687031025292	-3.98402408311609	-5.15575148443232	-7.64687031025292	-2.49111882582061	-3.8928468148893	-7.64687031025292	-5.15575148443232	-7.64687031025292	3.8928468148893	-0.558361580762945	-4.611528980122633	-7.218254372995644	-5.3310010273128405	-5.603141703761961	-7.218254372995644	3.65562897338297	-6.689878828760279	-6.131517247997327	-5.542199316558742	-6.287584036559537	4	missed	0.0
43.34412540006451	5.899724999908358	go_punish	0.3808762000408023	43.37355570006184	44.8194261000026	47.339567200047895	1.445870399940759	44.38040770008229	46.33445390011184	48.35282410006039	0.43901839992031455	1.0051132999360561	0.9204565999098122	n/a	1.0	n/a	2	0	67	3	go_punish	1	0	-1	1	1	1	0	n/a	n/a	0	0.3808762000408023	1.0	2064.4638988000806	2107.8374545001425	2108.844306500163	2109.2833249000832	2110.7983527001925	2111.8034660001285	n/a	n/a	2112.816722900141	2113.737179500051	2020-01-10 18:09:09.939080	4.09868654623273	-2.53850810602303	-7.64687031025292	-2.60346949784554	-3.54818376402019	-7.64687031025292	-4.09868654623273	-2.53850810602303	-7.64687031025292	-3.54818376402019	-7.64687031025292	2.53850810602303	1.0492061396491752	-3.2571902712563627	-7.218254372995644	-3.9504464420422907	-3.9955739833498316	-7.218254372995644	2.3012902645167	-5.08231110834815	-6.131517247997327	-4.187860607692472	-6.287584036559537	4	missed	0.0
49.292605200083926	6.613255299860612	nogo_reward	1.0	49.322035500081256	51.34708629990928	53.87915259995543	2.0250507998280227	50.32002540002577	52.86409349995665	54.8792814000044	1.0270608998835087	1.0150590999987799	1.0560093999374658	n/a	1.0	n/a	2	0	68	2	nogo_reward	1	0	1	0	0	1	0	n/a	n/a	1	1.0	1.0	2064.4638988000806	2113.785934300162	2114.7839242001064	2115.81098509999	2117.3279923000373	2118.343051400036	n/a	n/a	2119.343180200085	2120.3991896000225	2020-01-10 18:09:09.939080	7.9479827182093	0.0	8.65759786208463	7.73183277897737	0.709615143875332	8.65759786208463	-7.9479827182093	8.65759786208463	0.0	8.65759786208463	0.709615143875332	3.03200270125887	4.8985023116257445	-0.7186821652333327	9.086213799341907	6.38485583478062	0.26222492454569063	9.086213799341907	2.7947848597525398	7.123470517756671	2.224968206130925	7.008245360415188	1.359286273693383	4	missed	0.0
55.93179910001345	6.235133199952543	nogo_punish	1.0	55.96122940001078	57.51683100010314	60.05893720011227	1.5556016000923591	56.970483700046316	59.035313199972734	61.06236630002968	0.5463473000568229	1.0236240001395345	1.1339962999336421	n/a	1.0	n/a	2	0	69	4	nogo_punish	1	-1	0	0	0	1	0	n/a	n/a	0	1.0	1.0	2064.4638988000806	2120.4251282000914	2121.434382500127	2121.980729800184	2123.4992120000534	2124.522836000193	n/a	n/a	2125.5262651001103	2126.660261400044	2020-01-10 18:09:09.939080	3.74852007243418	-4.89634213184601	-2.07034745037268	-2.14394316173081	-5.81886752280686	-2.07034745037268	-3.74852007243418	-2.07034745037268	-4.89634213184601	-2.07034745037268	-5.81886752280686	2.07034745037268	0.6990396658506253	-5.615024297079343	-1.641731513115404	-3.4909201059275605	-6.266257742136501	-1.641731513115404	1.8331296088663496	-3.6044747947006393	-4.303514460551267	-3.719699952042122	-3.5370558581526272	4	missed	0.0
62.195998900104314	6.871260599931702	nogo_punish	1.0	62.225429200101644	64.09401739994064	66.62516369996592	1.868588199838996	63.2436118999035	65.60170580004342	67.63487339997664	0.8504055000371409	1.023457899922505	1.4618164000567049	n/a	1.0	n/a	2	0	70	4	nogo_punish	0	0	-1	0	0	1	0	n/a	n/a	-1	1.0	1.0	2064.4638988000806	2126.6893280001823	2127.707510699984	2128.5579162000213	2130.065604600124	2131.0890625000466	n/a	n/a	2132.0987722000573	2133.560588600114	2020-01-10 18:09:09.939080	4.30875470901498	-4.89634213184601	-1.38509917243142	-1.43778266545495	-5.6938538814464	-1.38509917243142	-4.30875470901498	-1.38509917243142	-4.89634213184601	-1.38509917243142	-5.6938538814464	-12.063516888767179	1.2592743024314248	-5.615024297079343	-0.9564832351741439	-2.784759609651701	-6.141244100776041	-0.9564832351741439	-12.30073473027351	-2.9192265167593794	-4.178500819190807	-3.034451674100862	-3.5370558581526272	4	missed	0.0
69.09444379992783	6.4420345001854	nogo_punish	1.0	69.12387409992516	71.12087820004717	73.65775129990652	1.9970041001220125	70.13787740003318	72.63713419996202	74.66649480001115	0.9830008000139969	1.0206170999445021	0.8994138000994099	n/a	1.0	n/a	2	0	71	4	nogo_punish	1	-1	0	0	0	1	1	n/a	n/a	0	1.0	1.0	2064.4638988000806	2133.587772900006	2134.601776200114	2135.584777000128	2137.1010330000427	2138.121650099987	n/a	n/a	2139.130393600092	2140.029807400191	2020-01-10 18:09:09.939080	0.863817818806989	-4.89634213184601	-5.60812988045727	-5.64606684475242	-6.47194769926426	-5.60812988045727	-0.863817818806989	-5.60812988045727	-4.89634213184601	-5.60812988045727	-6.47194769926426	5.60812988045727	-2.185662587776566	-5.615024297079343	-5.179513943199994	-6.993043788949171	-6.919337918593901	-5.179513943199994	5.370912038950939	-7.142257224785229	-4.956594637008667	-7.257482382126712	-3.5370558581526272	4	missed	0.0
75.56475730007514	6.9192959000356495	go_reward	0.2012207000516355	75.59418760007247	78.07520389999263	80.63577529997565	2.4810162999201566	76.60142290010117	79.61262440006249	81.64529919996858	1.47378099989146	1.023150899913162	0.8681843001395464	n/a	1.0	n/a	2	0	72	1	go_reward	1	1	0	1	1	1	0	n/a	n/a	1	0.2012207000516355	1.0	2064.4638988000806	2140.058086400153	2141.065321700182	2142.5391027000733	2144.076523200143	2145.0996741000563	n/a	n/a	2146.109198000049	2146.9773823001888	2020-01-10 18:09:09.939080	8.09055938819364	9.74696489259685	2.65633435250804	9.65604591910002	10.7468937407017	2.65633435250804	-8.09055938819364	9.74696489259685	2.65633435250804	10.7468937407017	2.65633435250804	1.9426356707466503	5.0410789816100845	9.028282727363518	3.084950289765316	8.30906897490327	10.299503521372058	3.084950289765316	1.70541782924032	9.21276639637374	4.171687414763633	8.097612390927408	4.015620626201423	4	missed	0.0
82.53070040000603	5.979148299898952	go_punish	0.4128843999933451	82.56013070000336	84.05355919990689	86.59609499992803	1.4934284999035299	83.56453619990498	85.57531150011346	87.60836190008558	0.48902300000190735	1.02078349981457	0.9309170998167247	n/a	1.0	n/a	2	0	73	3	go_punish	1	0	-1	1	1	1	0	n/a	n/a	0	0.4128843999933451	1.0	2064.4638988000806	2147.024029500084	2148.0284349999856	2148.5174579999875	2150.039210300194	2151.0599938000087	n/a	n/a	2152.072260700166	2153.003177799983	2020-01-10 18:09:09.939080	5.11999492058253	-1.67608093446527	-7.64687031025292	-1.72265221829604	-2.52687538967039	-7.64687031025292	-5.11999492058253	-1.67608093446527	-7.64687031025292	-2.52687538967039	-7.64687031025292	1.67608093446527	2.0705145139989756	-2.394763099698603	-7.218254372995644	-3.0696291624927907	-2.9742656090000317	-7.218254372995644	1.4388630929589397	-4.061002733998349	-6.131517247997327	-3.325433436134712	-6.287584036559537	4	missed	0.0
88.5381765000061	6.073372300015308	nogo_punish	1.0	88.56760680000343	89.89191820006818	92.42825650004715	1.3243114000647438	89.56554040010042	91.40867029991932	93.44148600008339	0.3263777999677586	1.0195862001278329	1.1994930999353528	n/a	1.0	n/a	2	0	74	4	nogo_punish	1	-1	0	0	0	1	0	n/a	n/a	0	1.0	1.0	2064.4638988000806	2153.031505600084	2154.029439200181	2154.355817000149	2155.8725691	2156.892155300128	n/a	n/a	2157.905384800164	2159.1048779000994	2020-01-10 18:09:09.939080	2.48355468593195	-4.89634213184601	-3.61414928998729	-3.64162017081674	-6.09770397591924	-3.61414928998729	-2.48355468593195	-3.61414928998729	-4.89634213184601	-3.61414928998729	-6.09770397591924	3.61414928998729	-0.5659257206516046	-5.615024297079343	-3.185533352730014	-4.988597115013491	-6.545094195248881	-3.185533352730014	3.37693144848096	-5.148276634315249	-4.582350913663647	-5.263501791656732	-3.5370558581526272	4	missed	0.0
94.65518070012331	7.546748299850151	nogo_reward	1.0	94.68461100012064	97.45462560001761	99.97844219999388	2.7700145998969674	95.69181340001523	98.96416319999844	100.98800000012852	1.7628122000023723	1.0142789999954402	1.2433592998422682	n/a	1.0	n/a	2	0	75	2	nogo_reward	1	0	1	0	0	1	0	n/a	n/a	1	1.0	1.0	2064.4638988000806	2159.1485098002013	2160.155712200096	2161.9185244000982	2163.428062000079	2164.4423410000745	n/a	n/a	2165.451898800209	2166.6952581000514	2020-01-10 18:09:09.939080	8.79467824361636	0.0	9.72648731140944	9.12951249092139	0.931809067793075	9.72648731140944	-8.79467824361636	9.72648731140944	0.0	9.72648731140944	0.931809067793075	1.963113251934061	5.745197837032805	-0.7186821652333327	10.155103248666716	7.78253554672464	0.4844188484634337	10.155103248666716	1.7258954104277306	8.19235996708148	2.447162130048668	8.077134809739997	1.359286273693383	4	missed	0.0
102.24406519997865	6.9362584999762475	nogo_reward	1.0	102.27349549997598	104.20899350009859	106.718918700004	1.9354980001226068	103.28220180002972	105.71485439990647	107.73232929990627	0.9267917000688612	1.0040643000975251	1.4774247000459582	n/a	1.0	n/a	2	0	76	2	nogo_reward	0	1	0	0	0	1	0	n/a	n/a	0	1.0	1.0	2064.4638988000806	2166.7373943000566	2167.7461006001104	2168.6728923001792	2170.178753199987	2171.1828175000846	n/a	n/a	2172.196228099987	2173.673652800033	2020-01-10 18:09:09.939080	9.33335090558515	0.0	10.4023807315411	10.0127876365142	1.06902982595597	10.4023807315411	-9.33335090558515	10.4023807315411	0.0	10.4023807315411	1.06902982595597	-10.4023807315411	6.283870499001594	-0.7186821652333327	10.830996668798377	8.66581069231745	0.6216396066263288	10.830996668798377	-10.639598573047431	8.86825338721314	2.5843828882115627	8.753028229871658	1.359286273693383	4	missed	0.0
109.2260650000535	6.267476199893281	go_punish	0.3006780000869185	109.25549530005082	110.67171170003712	113.20766349998348	1.416216399986297	110.25696319993585	112.18799509992823	114.21148600010201	0.4147485001012683	1.0196684000552523	1.3114854998420924	n/a	1.0	n/a	2	0	77	3	go_punish	1	0	-1	1	1	1	0	n/a	n/a	0	0.3006780000869185	1.0	2064.4638988000806	2173.7193941001315	2174.7208620000165	2175.1356105001178	2176.651893900009	2177.671562300064	n/a	n/a	2178.6753848001827	2179.9868703000247	2020-01-10 18:09:09.939080	5.77781574718313	-1.11940671902581	-7.64687031025292	-1.15298980904801	-1.86905456306979	-7.64687031025292	-5.77781574718313	-1.11940671902581	-7.64687031025292	-1.86905456306979	-7.64687031025292	1.11940671902581	2.728335340599575	-1.8380888842591427	-7.218254372995644	-2.4999667532447605	-2.316444782399431	-7.218254372995644	0.8821888775194795	-3.4031819073977494	-6.131517247997327	-2.768759220695252	-6.287584036559537	4	missed	0.0
115.52023550006606	6.58738579996816	go_reward	0.2220666999928653	115.5496658000634	117.29136199993081	119.83726110006683	1.7416961998674196	116.55813589994796	118.82307850010739	120.84671490010805	0.7332260999828577	1.0141825999594403	1.2903366999235004	n/a	1.0	n/a	2	0	78	1	go_reward	1	1	0	1	1	1	0	n/a	n/a	1	0.2220666999928653	1.0	2064.4638988000806	2180.013564600144	2181.0220347000286	2181.7552608000115	2183.286977300188	2184.3011599001475	n/a	n/a	2185.3106137001887	2186.600950400112	2020-01-10 18:09:09.939080	8.9025260805049	10.4418572786608	2.65633435250804	10.3828813263775	11.5588604330129	2.65633435250804	-8.9025260805049	10.4418572786608	2.65633435250804	11.5588604330129	2.65633435250804	1.2477432846827003	5.853045673921345	9.723175113427468	3.084950289765316	9.03590438218075	11.111470213683258	3.084950289765316	1.01052544317637	10.02473308868494	4.171687414763633	8.792504776991358	4.015620626201423	4	missed	0.0
122.14998380001634	7.434576499974355	nogo_reward	1.0	122.17941410001367	124.79376560007222	127.3229853999801	2.6143515000585467	123.18746459996328	126.29874709993601	128.33296860009432	1.6063010001089424	1.0242383000440896	1.28102199989371	n/a	1.0	n/a	2	0	79	2	nogo_reward	1	0	1	0	0	1	0	n/a	n/a	1	1.0	1.0	2064.4638988000806	2186.6433129000943	2187.651363400044	2189.257664400153	2190.7626459000167	2191.7868842000607	n/a	n/a	2192.796867400175	2194.0778894000687	2020-01-10 18:09:09.939080	6.07719791605142	0.0	6.51288243249014	6.2557841583157	0.435684516438718	6.51288243249014	-6.07719791605142	6.51288243249014	0.0	6.51288243249014	0.435684516438718	5.17671813085336	3.0277175094678648	-0.7186821652333327	6.941498369747416	4.90880721411895	-0.011705702890923375	6.941498369747416	4.93950028934703	4.97875508816218	1.9510375786943108	4.863529930820698	1.359286273693383	4	missed	0.0
129.6121731000021	7.249192199902609	nogo_punish	1.0	129.64160339999944	131.92924829991534	134.46122259995946	2.287644899915904	130.6492344001308	133.4453024000395	135.47562759998254	1.2800138997845352	1.0159201999199468	1.415167999919504	n/a	1.0	n/a	2	0	80	4	nogo_punish	1	-1	0	0	0	1	0	n/a	n/a	0	1.0	1.0	2064.4638988000806	2194.10550220008	2195.1131332002115	2196.393147099996	2197.90920120012	2198.92512140004	n/a	n/a	2199.939526400063	2201.3546943999827	2020-01-10 18:09:09.939080	3.50523371430491	-4.89634213184601	-2.36140611195083	-2.38140340824167	-5.86663982625574	-2.36140611195083	-3.50523371430491	-2.36140611195083	-4.89634213184601	-2.36140611195083	-5.86663982625574	2.36140611195083	0.45575330772135514	-5.615024297079343	-1.932790174693554	-3.7283803524384207	-6.3140300455853815	-1.932790174693554	2.1241882704445	-3.8955334562787893	-4.351286764000148	-4.010758613620272	-3.5370558581526272	4	missed	0.0
136.90631580003537	7.783765699947253	go_punish	0.403545199893415	136.9357461000327	139.6657982999459	142.2218871999071	2.730052199913189	137.94155819993512	141.19749940000474	143.22756940010004	1.7242401000107748	1.0243877999023425	1.4919423998799175	n/a	1.0	n/a	2	0	81	3	go_punish	0	-1	0	1	1	1	0	n/a	n/a	-1	0.403545199893415	1.0	2064.4638988000806	2201.3996449001133	2202.4054570000158	2204.1296971000265	2205.6613982000854	2206.6857859999877	n/a	n/a	2207.6914682001807	2209.1834106000606	2020-01-10 18:09:09.939080	6.20690073956447	-0.755579267415107	-7.64687031025292	-0.779930437978881	-1.43996957068845	-7.64687031025292	-6.20690073956447	-0.755579267415107	-7.64687031025292	-1.43996957068845	-7.64687031025292	-12.693036793783492	3.1574203329809154	-1.4742614326484396	-7.218254372995644	-2.1269073821756317	-1.8873597900180914	-7.218254372995644	-12.930254635289822	-2.9740969150164096	-6.131517247997327	-2.4049317690845493	-6.287584036559537	4	missed	0.0
144.71625970001378	6.521321600069314	nogo_punish	1.0	144.7456900000111	146.51441480009817	149.05100489989854	1.7687248000870568	145.7508564000018	148.03158019995317	150.0548606000375	0.7635584000963718	1.0194246999453753	1.2121510000429225	n/a	1.0	n/a	2	0	82	4	nogo_punish	1	-1	0	0	0	1	1	n/a	n/a	0	1.0	1.0	2064.4638988000806	2209.2095888000918	2210.2147552000824	2210.978313600179	2212.495479000034	2213.514903699979	n/a	n/a	2214.518759400118	2215.730910400161	2020-01-10 18:09:09.939080	4.15920799034741	-4.89634213184601	-1.56244369435501	-1.57707338074504	-5.72165168470242	-1.56244369435501	-4.15920799034741	-1.56244369435501	-4.89634213184601	-1.56244369435501	-5.72165168470242	1.56244369435501	1.109727583763855	-5.615024297079343	-1.133827757097734	-2.924050324941791	-6.169041904032061	-1.133827757097734	1.3252258528486796	-3.0965710386829697	-4.206298622446827	-3.2117961960244523	-3.5370558581526272	4	missed	0.0
151.2677498999983	6.886917300056666	go_reward	0.0985696001444011	151.29718019999564	153.26977039990015	155.8216919999104	1.9725901999045163	152.30213629989885	154.7984033001121	156.83151960000396	0.9676341000013053	1.023288699798286	1.3525779000483453	n/a	1.0	n/a	2	0	83	1	go_reward	1	1	0	1	1	1	0	n/a	n/a	1	0.0985696001444011	1.0	2064.4638988000806	2215.7610790000763	2216.7660350999795	2217.733669199981	2219.2623021001928	2220.285590799991	n/a	n/a	2221.2954184000846	2222.647996300133	2020-01-10 18:09:09.939080	9.409662798717	10.877318597754	2.65633435250804	10.8387048606988	12.065997151225	2.65633435250804	-9.409662798717	10.877318597754	2.65633435250804	12.065997151225	2.65633435250804	0.8122819655895004	6.360182392133444	10.158636432520668	3.084950289765316	9.491727916502049	11.618606931895359	3.084950289765316	0.57506412408317	10.53186980689704	4.171687414763633	9.227966096084558	4.015620626201423	4	missed	0.0
158.1798972999677	5.730531000066549	nogo_punish	1.0	158.20932759996504	159.5569639999885	162.08416440011933	1.3476364000234753	159.2101529999636	161.0644817999564	163.09740470000543	0.34681100002489984	1.0196826001629233	0.8424539000261575	n/a	1.0	n/a	2	0	84	4	nogo_punish	1	-1	0	0	0	1	1	n/a	n/a	0	1.0	1.0	2064.4638988000806	2222.6732264000457	2223.6740518000443	2224.020862800069	2225.528380600037	2226.5480632002	n/a	n/a	2227.561303500086	2228.403757400112	2020-01-10 18:09:09.939080	4.58348260588265	-4.89634213184601	-1.04583811078854	-1.05659158823565	-5.62932071667118	-1.04583811078854	-4.58348260588265	-1.04583811078854	-4.89634213184601	-1.04583811078854	-5.62932071667118	1.04583811078854	1.534002199299095	-5.615024297079343	-0.617222173531264	-2.4035685324324008	-6.076710936000821	-0.617222173531264	0.8086202692822095	-2.5799654551164997	-4.113967654415587	-2.6951906124579823	-3.5370558581526272	4	missed	0.0
163.93521149992011	7.368903100024909	nogo_punish	1.0	163.96464179991744	166.74057910009242	169.27714410005137	2.7759373001749736	164.9668197000865	168.25761339999735	170.29180429992311	1.773759400005929	1.0195307000540197	1.0417406000192386	n/a	1.0	n/a	2	0	85	4	nogo_punish	1	-1	0	0	0	1	0	n/a	n/a	0	1.0	1.0	2064.4638988000806	2228.428540599998	2229.430718500167	2231.204477900173	2232.721512200078	2233.741042900132	n/a	n/a	2234.7557031000038	2235.797443700023	2020-01-10 18:09:09.939080	4.86216358129079	-4.89634213184601	-0.707557470274896	-0.715497208368703	-5.56972105156569	-0.707557470274896	-4.86216358129079	-0.707557470274896	-4.89634213184601	-0.707557470274896	-5.56972105156569	0.707557470274896	1.8126831747072356	-5.615024297079343	-0.27894153301762	-2.0624741525654535	-6.017111270895331	-0.27894153301762	0.4703396287685656	-2.2416848146028556	-4.054367989310097	-2.3569099719443383	-3.5370558581526272	4	missed	0.0
171.3302436999511	6.114762900164351	nogo_punish	1.0	171.35967399994843	172.9301438999828	175.4356845000293	1.570469900034368	172.36874509998597	174.4358566000592	176.4498527001124	0.5613987999968231	0.9998278999701142	1.0245842000003904	n/a	1.0	n/a	2	0	86	4	nogo_punish	1	-1	0	0	0	1	1	n/a	n/a	0	1.0	1.0	2064.4638988000806	2235.823572800029	2236.8326439000666	2237.3940427000634	2238.89975540014	2239.89958330011	n/a	n/a	2240.913751500193	2241.9383357001934	2020-01-10 18:09:09.939080	5.04731720978206	-4.89634213184601	-0.483449740918291	-0.489336920181156	-5.53076695070035	-0.483449740918291	-5.04731720978206	-0.483449740918291	-4.89634213184601	-0.483449740918291	-5.53076695070035	0.483449740918291	1.997836803198505	-5.615024297079343	-0.05483380366101498	-1.8363138643779067	-5.978157170029991	-0.05483380366101498	0.24623189941196064	-2.0175770852462507	-4.015413888444757	-2.1328022425877333	-3.5370558581526272	4	missed	0.0
177.46879850002006	6.2208398000802845	nogo_punish	1.0	177.4982288000174	179.40579050011002	181.93504590005614	1.9075617000926286	178.50086329993792	180.91154249990313	182.94434010004625	0.9049272001720965	1.023503400153004	0.7747285000514239	n/a	1.0	n/a	2	0	87	4	nogo_punish	0	0	-1	0	0	1	1	n/a	n/a	-1	1.0	1.0	2064.4638988000806	2241.962127600098	2242.9647621000186	2243.8696893001907	2245.375441299984	2246.398944700137	n/a	n/a	2247.408238900127	2248.1829674001783	2020-01-10 18:09:09.939080	5.17164250593775	-4.89634213184601	-0.333369359180283	-0.337752237497924	-5.50501186511803	-0.333369359180283	-5.17164250593775	-0.333369359180283	-4.89634213184601	-0.333369359180283	-5.50501186511803	-13.115246702018316	2.122162099354195	-5.615024297079343	0.09524657807699305	-1.6847291816946748	-5.952402084447671	0.09524657807699305	-13.352464543524647	-1.8674967035082424	-3.9896588028624373	-1.982721860849725	-3.5370558581526272	4	missed	0.0
183.73560489993542	6.476934100035578	go_punish	0.2672816999256611	183.76503519993275	185.32719260011754	187.8859918001108	1.5621574001847875	184.76480889995582	186.86520710005425	188.89865109999664	0.5623837001617176	1.020784700056538	1.3433181999716908	n/a	1.0	n/a	2	0	88	3	go_punish	1	0	-1	1	1	1	0	n/a	n/a	0	0.2672816999256611	1.0	2064.4638988000806	2248.2289340000134	2249.2287077000365	2249.791091400198	2251.329105900135	2252.3498906001914	n/a	n/a	2253.3625499000773	2254.705868100049	2020-01-10 18:09:09.939080	0.95930746654049	-5.1868389370225	-7.64687031025292	-5.20458833367821	-6.68756284371243	-7.64687031025292	-0.95930746654049	-5.1868389370225	-7.64687031025292	-6.68756284371243	-7.64687031025292	5.1868389370225	-2.0901729400430646	-5.905521102255833	-7.218254372995644	-6.5515652778749605	-7.134953063042071	-7.218254372995644	4.94962109551617	-8.22169018804039	-6.131517247997327	-6.836191438691943	-6.287584036559537	4	missed	0.0
190.2618237999268	6.374081999995269	go_punish	0.3475310001522302	190.29125409992412	192.15797269996256	194.68911690008827	1.866718600038439	191.29266420006752	193.67364459997043	195.70337449992076	0.8653084998950362	1.0154723001178354	0.9619615999986308	n/a	1.0	n/a	2	0	89	3	go_punish	1	0	-1	1	1	1	0	n/a	n/a	0	0.3475310001522302	1.0	2064.4638988000806	2254.7551529000048	2255.756563000148	2256.621871500043	2258.137543400051	2259.153015700169	n/a	n/a	2260.1672733000014	2261.1292349	2020-01-10 18:09:09.939080	3.16625371487816	-3.32935643358036	-7.64687031025292	-3.3423578106626	-4.48061659537476	-7.64687031025292	-3.16625371487816	-3.32935643358036	-7.64687031025292	-4.48061659537476	-7.64687031025292	3.32935643358036	0.1167733082946052	-4.048038598813693	-7.218254372995644	-4.689334754859351	-4.928006814704401	-7.218254372995644	3.0921385920740296	-6.014743939702719	-6.131517247997327	-4.978708935249802	-6.287584036559537	4	missed	0.0
196.67863099998794	6.898965100059286	go_punish	0.3330535998102277	196.70806129998527	198.5594178000465	201.10077559994534	1.8513565000612289	197.71615480002947	200.08105099992827	202.11401759996033	0.843263000017032	1.0197246000170708	1.493008800084226	n/a	1.0	n/a	2	0	90	3	go_punish	1	0	-1	1	1	1	1	n/a	n/a	0	0.3330535998102277	1.0	2064.4638988000806	2261.171960100066	2262.18005360011	2263.023316600127	2264.544949800009	2265.564674400026	n/a	n/a	2266.577916400041	2268.070925200125	2020-01-10 18:09:09.939080	4.54335541037308	-2.16707367561326	-7.64687031025292	-2.17664172301486	-3.10351489987984	-7.64687031025292	-4.54335541037308	-2.16707367561326	-7.64687031025292	-3.10351489987984	-7.64687031025292	2.16707367561326	1.4938750037895256	-2.8857558408465924	-7.218254372995644	-3.5236186672116108	-3.5509051192094816	-7.218254372995644	1.9298558341069294	-4.637642244207799	-6.131517247997327	-3.816426177282702	-6.287584036559537	4	missed	0.0
203.6191938999109	7.010335300117731	go_punish	0.1032980000600218	203.64862419990823	205.86900150007568	208.41245800000615	2.2203773001674563	204.6539807000663	207.40181790012866	209.42537899990566	1.2150208000093699	1.0106400998774916	1.233580500120297	n/a	1.0	n/a	2	0	91	3	go_punish	1	0	-1	1	1	1	1	n/a	n/a	0	0.1032980000600218	1.0	2064.4638988000806	2268.112522999989	2269.117879500147	2270.3329003001563	2271.8657167002093	2272.876356800087	n/a	n/a	2273.8892777999863	2275.1228583001066	2020-01-10 18:09:09.939080	5.4159777512024	-1.42867422659745	-7.64687031025292	-1.43574683590584	-2.23089255905052	-7.64687031025292	-5.4159777512024	-1.42867422659745	-7.64687031025292	-2.23089255905052	-7.64687031025292	1.42867422659745	2.366497344618845	-2.1473563918307828	-7.218254372995644	-2.782723780102591	-2.6782827783801615	-7.218254372995644	1.1914563850911195	-3.7650199033784792	-6.131517247997327	-3.078026728266892	-6.287584036559537	4	missed	0.0
210.65745089994743	5.68657650006935	nogo_punish	1.0	210.68688119994476	212.02136210002936	214.54790739994496	1.3344809000845999	211.69415890006348	213.53764070011675	215.56753350002737	0.3272031999658793	1.0102666998282075	0.8059241999867481	n/a	1.0	n/a	2	0	92	4	nogo_punish	1	-1	0	0	0	1	0	n/a	n/a	0	1.0	1.0	2064.4638988000806	2275.1507800000254	2276.158057700144	2276.48526090011	2278.0015395001974	2279.0118062000256	n/a	n/a	2280.031432300108	2280.8373565000948	2020-01-10 18:09:09.939080	1.44310362605539	-4.89634213184601	-4.90365477590372	-4.9069302642898	-6.34675840195911	-4.90365477590372	-1.44310362605539	-4.90365477590372	-4.89634213184601	-4.90365477590372	-6.34675840195911	4.90365477590372	-1.6063767805281648	-5.615024297079343	-4.475038838646444	-6.253907208486551	-6.794148621288751	-4.475038838646444	4.66643693439739	-6.43778212023168	-4.831405339703517	-6.553007277573163	-3.5370558581526272	4	missed	0.0
216.37153710005805	6.110322899884068	go_reward	0.2847416000440717	216.40096740005538	217.76669370010495	220.3059980000835	1.3657263000495732	217.40840549999848	219.29113560006954	221.31481079990044	0.3582882001064718	1.0148624000139534	1.196479500039004	n/a	1.0	n/a	2	0	93	1	go_reward	1	1	0	1	1	1	0	n/a	n/a	1	0.2847416000440717	1.0	2064.4638988000806	2280.864866200136	2281.872304300079	2282.2305925001856	2283.75503440015	2284.769896800164	n/a	n/a	2285.778709599981	2286.97518910002	2020-01-10 18:09:09.939080	9.7310879872253	11.1541794005936	2.65633435250804	11.1286753814233	12.3874223397333	2.65633435250804	-9.7310879872253	11.1541794005936	2.65633435250804	12.3874223397333	2.65633435250804	0.5354211627499001	6.681607580641744	10.435497235360268	3.084950289765316	9.781698437226549	11.940032120403659	3.084950289765316	0.29820332124356974	10.85329499540534	4.171687414763633	9.504826898924158	4.015620626201423	4	missed	0.0
222.52804369991645	5.666202699998394	nogo_reward	1.0	222.55747399991378	223.95125870010816	226.46221389994025	1.3937847001943737	223.56202740012714	225.45286590000615	227.46457560011186	0.38923129998102013	1.009347999934107	0.7591010998003185	n/a	1.0	n/a	2	0	94	2	nogo_reward	1	0	1	0	0	1	0	n/a	n/a	1	1.0	1.0	2064.4638988000806	2287.0213727999944	2288.025926200208	2288.415157500189	2289.916764700087	2290.926112700021	n/a	n/a	2291.9284744001925	2292.687575499993	2020-01-10 18:09:09.939080	7.68197164626864	0.0	8.46054284812092	8.28911105879389	0.778571201852273	8.46054284812092	-7.68197164626864	8.46054284812092	0.0	8.46054284812092	0.778571201852273	3.229057715222581	4.632491239685086	-0.7186821652333327	8.889158785378196	6.94213411459714	0.3311809825226317	8.889158785378196	2.9918398737162506	6.92641550379296	2.293924264107866	6.811190346451477	1.359286273693383	4	missed	0.0
228.24023839994334	6.191453700186685	nogo_reward	1.0	228.26966869994067	229.74533770000562	232.28563460009173	1.4756690000649542	229.27313930005766	231.2615811000578	233.29611460003116	0.4721983999479562	1.024053500033915	1.1650078000961912	n/a	1.0	n/a	2	0	95	2	nogo_reward	1	0	1	0	0	1	0	n/a	n/a	1	1.0	1.0	2064.4638988000806	2292.7335675000213	2293.7370381001383	2294.2092365000863	2295.7254799001385	2296.7495334001724	n/a	n/a	2297.760013400112	2298.925021200208	2020-01-10 18:09:09.939080	8.66146449058567	0.0	9.64356187747048	9.52813893980049	0.982097386884814	9.64356187747048	-8.66146449058567	9.64356187747048	0.0	9.64356187747048	0.982097386884814	2.04603868587302	5.611984084002115	-0.7186821652333327	10.072177814727757	8.18116199560374	0.5347071675551727	10.072177814727757	1.8088208443666896	8.10943453314252	2.497450449140407	7.994209375801038	1.359286273693383	4	missed	0.0
234.45937649998814	5.990810299990699	go_reward	0.5027413000352681	234.48880679998547	236.15263930009678	238.70220439997547	1.6638325001113117	235.49764439999126	237.68417960009538	239.70371380005963	0.6549949001055211	1.018024799880095	0.7759032999165356	n/a	1.0	n/a	2	0	96	1	go_reward	0	0	1	1	1	1	0	n/a	n/a	0	0.5027413000352681	1.0	2064.4638988000806	2298.952705600066	2299.961543200072	2300.6165381001774	2302.148078400176	2303.166103200056	n/a	n/a	2304.1676126001403	2304.943515900057	2020-01-10 18:09:09.939080	9.93759312202607	11.3325755453415	2.65633435250804	11.3155911813011	12.5939274745341	2.65633435250804	-9.93759312202607	11.3325755453415	2.65633435250804	12.5939274745341	2.65633435250804	-11.3325755453415	6.8881127154425155	10.613893380108168	3.084950289765316	9.96861423710435	12.146537255204459	3.084950289765316	-11.56979338684783	11.05980013020614	4.171687414763633	9.683223043672058	4.015620626201423	4	missed	0.0
240.49413960007905	5.762359699933313	nogo_reward	1.0	240.52356990007638	241.80509310006164	244.31649180012755	1.2815231999852585	241.52334560011514	243.30493850004814	245.32881519990042	0.28174749994650483	1.011553300079413	0.9571144001092762	n/a	1.0	n/a	2	0	97	2	nogo_reward	0	1	0	0	0	1	1	n/a	n/a	0	1.0	1.0	2064.4638988000806	2304.987468700157	2305.987244400196	2306.2689919001423	2307.768837300129	2308.780390600208	n/a	n/a	2309.792713999981	2310.7498284000903	2020-01-10 18:09:09.939080	9.26928372124195	0.0	10.3743605243993	10.2959393094234	1.10507680315739	10.3743605243993	-9.26928372124195	10.3743605243993	0.0	10.3743605243993	1.10507680315739	-10.3743605243993	6.219803314658394	-0.7186821652333327	10.802976461656577	8.948962365226649	0.6576865838277488	10.802976461656577	-10.61157836590563	8.84023318007134	2.6204298654129827	8.725008022729858	1.359286273693383	4	missed	0.0
246.28686710004695	6.490132899954915	nogo_punish	1.0	246.31629740004428	248.31501140003138	250.83277860004455	1.9987139999871033	247.32833419996314	249.81005500000902	251.83970459992997	0.9866772000682431	1.0227236000355333	0.9667257000692189	n/a	1.0	n/a	2	0	98	4	nogo_punish	1	-1	0	0	0	1	0	n/a	n/a	0	1.0	1.0	2064.4638988000806	2310.780196200125	2311.792233000044	2312.778910200112	2314.2739538000897	2315.296677400125	n/a	n/a	2316.3036034000106	2317.27032910008	2020-01-10 18:09:09.939080	2.87623484637955	-4.89634213184601	-3.13760281711164	-3.14005965411209	-6.01383766349119	-3.13760281711164	-2.87623484637955	-3.13760281711164	-4.89634213184601	-3.13760281711164	-6.01383766349119	3.13760281711164	-0.1732455602040046	-5.615024297079343	-2.708986879854364	-4.4870365983088405	-6.461227882820831	-2.708986879854364	2.9003849756053097	-4.6717301614396	-4.498484601235597	-4.786955318781082	-3.5370558581526272	4	missed	0.0
252.80421360000037	6.128642200026661	go_reward	0.2469969000667333	252.8336438999977	254.39551270008042	256.94727619993546	1.5618688000827206	253.84324160008737	255.93245769990608	257.9629089999944	0.5522710999930496	1.014818500029378	0.9993771000299603	n/a	1.0	n/a	2	0	99	1	go_reward	1	1	0	1	1	1	0	n/a	n/a	1	0.2469969000667333	1.0	2064.4638988000806	2317.2975427000783	2318.307140400168	2318.859411500161	2320.3963564999867	2321.411175000016	n/a	n/a	2322.426807800075	2323.426184900105	2020-01-10 18:09:09.939080	5.0298612158299	7.12621199256859	2.65633435250804	7.11481328374258	7.68619556833795	2.65633435250804	-5.0298612158299	7.12621199256859	2.65633435250804	7.68619556833795	2.65633435250804	4.563388570774911	1.9803808092463453	6.4075298273352566	3.084950289765316	5.76783633954583	7.238805349008309	3.084950289765316	4.32617072926858	6.15206822400999	4.171687414763633	5.476859490899147	4.015620626201423	4	missed	0.0
258.9626545000351	6.626364999916859	go_reward	0.2161318999715149	258.99208480003244	260.63537169992924	263.1728688001167	1.6432868998967933	259.99180710013025	262.1579913001042	264.179783700034	0.6435645997989923	1.014877500012517	1.438666099915281	n/a	1.0	n/a	2	0	100	1	go_reward	1	1	0	1	1	1	0	n/a	n/a	1	0.2161318999715149	1.0	2064.4638988000806	2323.455983600113	2324.455705900211	2325.09927050001	2326.621890100185	2327.6367676001973	n/a	n/a	2328.6436825001147	2330.08234860003	2020-01-10 18:09:09.939080	7.07298602828039	8.8694448767689	2.65633435250804	8.86173876408391	9.72932038078843	2.65633435250804	-7.07298602828039	8.8694448767689	2.65633435250804	9.72932038078843	2.65633435250804	2.8201556865745996	4.023505621696835	8.150762711535569	3.084950289765316	7.514761819887159	9.281930161458789	3.084950289765316	2.5829378450682694	8.19519303646047	4.171687414763633	7.220092375099458	4.015620626201423	4	missed	0.0
265.6174979999196	6.9827678999863565	go_reward	0.0323844999074935	265.6469282999169	268.06909040012397	270.6144147000741	2.4221621002070606	266.65098950010724	269.5999992000875	271.6207042001188	1.418100900016725	1.014415499986626	1.0089919997844845	n/a	1.0	n/a	2	0	101	1	go_reward	1	1	0	1	1	1	1	n/a	n/a	1	0.0323844999074935	1.0	2064.4638988000806	2330.1108270999976	2331.114888300188	2332.5329892002046	2334.063898000168	2335.0783135001548	n/a	n/a	2336.0846030001994	2337.093594999984	2020-01-10 18:09:09.939080	8.29853538864228	9.91899370445744	2.65633435250804	9.913747924619	10.9548697411503	2.65633435250804	-8.29853538864228	9.91899370445744	2.65633435250804	10.9548697411503	2.65633435250804	1.77060685888606	5.249054982058725	9.200311539224108	3.084950289765316	8.56677098042225	10.50747952182066	3.084950289765316	1.5333890173797295	9.420742396822341	4.171687414763633	8.269641202787998	4.015620626201423	4	missed	0.0
272.6456850999966	6.592071000020951	nogo_reward	1.0	272.67511539999396	274.33312990004197	276.8583305000793	1.6580145000480115	273.66948970011435	275.84774499991954	277.8715721999761	0.6636401999276131	1.0105855001597774	1.3956142000388354	n/a	1.0	n/a	2	0	102	2	nogo_reward	0	1	0	0	0	1	0	n/a	n/a	0	1.0	1.0	2064.4638988000806	2337.1390142000746	2338.133388500195	2338.7970287001226	2340.3116438	2341.32222930016	n/a	n/a	2342.3354710000567	2343.7310852000955	2020-01-10 18:09:09.939080	6.04880125478925	0.0	6.51009199553214	6.45635519123836	0.461290740742894	6.51009199553214	-6.04880125478925	6.51009199553214	0.0	6.51009199553214	0.461290740742894	-6.51009199553214	2.9993208482056954	-0.7186821652333327	6.938707932789416	5.109378247041609	0.013900521413252653	6.938707932789416	-6.747309837038471	4.975964651204181	1.976643802998487	4.860739493862698	1.359286273693383	4	missed	0.0
279.2649044999853	7.477070900145918	go_reward	0.6938081001862884	279.2943347999826	281.8466213999782	284.3765241999645	2.5522865999955684	280.29901090008207	283.3618878000416	285.37701719999313	1.547610499896109	1.0146363999228925	1.394388500135392	n/a	1.0	n/a	2	0	103	1	go_reward	1	1	0	1	1	1	1	n/a	n/a	1	0.6938081001862884	1.0	2064.4638988000806	2343.7582336000632	2344.7629097001627	2346.310520200059	2347.8257866001222	2348.840423000045	n/a	n/a	2349.840916000074	2351.235304500209	2020-01-10 18:09:09.939080	9.04636405329287	10.5616769430936	2.65633435250804	10.5580826450359	11.7026984058009	2.65633435250804	-9.04636405329287	10.5616769430936	2.65633435250804	11.7026984058009	2.65633435250804	1.1279236202499003	5.996883646709314	9.842994777860268	3.084950289765316	9.21110570083915	11.25530818647126	3.084950289765316	0.8907057787435699	10.16857106147294	4.171687414763633	8.912324441424158	4.015620626201423	4	missed	0.0
286.77210190007463	6.553864999907546	go_reward	0.3626629998907447	286.80153220007196	288.85382910002954	291.38534840010107	2.0522968999575824	287.8079528999515	290.3721092999913	292.3866409000475	1.0458762000780553	1.0132391001097858	0.9687562999320107	n/a	1.0	n/a	2	0	104	1	go_reward	1	1	0	1	1	1	0	n/a	n/a	1	0.3626629998907447	1.0	2064.4638988000806	2351.2654310001526	2352.271851700032	2353.31772790011	2354.836008100072	2355.8492472001817	n/a	n/a	2356.850539700128	2357.81929600006	2020-01-10 18:09:09.939080	9.50993417025527	10.9613807339833	2.65633435250804	10.9589027803519	12.1662685227633	2.65633435250804	-9.50993417025527	10.9613807339833	2.65633435250804	12.1662685227633	2.65633435250804	0.7282198293602011	6.460453763671715	10.242698568749967	3.084950289765316	9.61192583615515	11.718878303433659	3.084950289765316	0.4910019878538707	10.63214117843534	4.171687414763633	9.312028232313857	4.015620626201423	4	missed	0.0
293.35164929996245	6.99913110001944	nogo_punish	1.0	293.3810795999598	295.71798139996827	298.2533462999854	2.3369018000084907	294.38400409999304	297.23370940005407	299.2665901998994	1.3339772999752313	1.0196368999313563	1.1136205000798327	n/a	1.0	n/a	2	0	105	4	nogo_punish	1	-1	0	0	0	1	0	n/a	n/a	0	1.0	1.0	2064.4638988000806	2357.8449784000404	2358.8479029000737	2360.181880200049	2361.6976082001347	2362.717245100066	n/a	n/a	2363.73048899998	2364.84410950006	2020-01-10 18:09:09.939080	3.77383473670122	-4.89634213184601	-2.03607167306813	-2.03792087633441	-5.80990640976935	-2.03607167306813	-3.77383473670122	-2.03607167306813	-4.89634213184601	-2.03607167306813	-5.80990640976935	2.03607167306813	0.7243543301176651	-5.615024297079343	-1.6074557358108539	-3.384897820531161	-6.257296629098991	-1.6074557358108539	1.7988538315617995	-3.5701990173960896	-4.294553347513757	-3.6854241747375722	-3.5370558581526272	4	missed	0.0
300.3760704000015	6.842613100074232	nogo_punish	1.0	300.4055006999988	302.2181599000469	304.7474567000754	1.8126592000480741	301.4162882999517	303.7253014999442	305.76578709995374	0.8018716000951827	1.0221552001312375	1.4823267001193017	n/a	1.0	n/a	2	0	106	4	nogo_punish	1	-1	0	0	0	1	0	n/a	n/a	0	1.0	1.0	2064.4638988000806	2364.8693995000795	2365.8801871000323	2366.6820587001275	2368.189200300025	2369.211355500156	n/a	n/a	2370.2296859000344	2371.7120126001537	2020-01-10 18:09:09.939080	4.3444937908892	-4.89634213184601	-1.33842894687349	-1.33982541250719	-5.68292273776268	-1.33842894687349	-4.3444937908892	-1.33842894687349	-4.89634213184601	-1.33842894687349	-5.68292273776268	1.33842894687349	1.2950133843056455	-5.615024297079343	-0.909813009616214	-2.6868023567039407	-6.130312957092321	-0.909813009616214	1.1012111053671596	-2.8725562912014495	-4.167569675507087	-2.987781448542932	-3.5370558581526272	4	missed	0.0
307.25082239997573	6.079667600104585	go_reward	0.3361663999967277	307.28025269997306	308.842337799957	311.39757009991445	1.5620850999839604	308.27476930012926	310.38106309995055	312.4076412001159	0.5675684998277575	1.0165069999638945	0.9522790999617428	n/a	1.0	n/a	2	0	107	1	go_reward	1	1	0	1	1	1	0	n/a	n/a	1	0.3361663999967277	1.0	2064.4638988000806	2371.7441515000537	2372.73866810021	2373.3062366000377	2374.844961900031	2375.861468899995	n/a	n/a	2376.8715400001965	2377.8238191001583	2020-01-10 18:09:09.939080	9.80150964709255	11.2135591142439	2.65633435250804	11.2118407966676	12.4578439996006	2.65633435250804	-9.80150964709255	11.2135591142439	2.65633435250804	12.4578439996006	2.65633435250804	0.47604144909960056	6.752029240508994	10.494876949010568	3.084950289765316	9.86486385247085	12.010453780270959	3.084950289765316	0.23882360759327018	10.92371665527264	4.171687414763633	9.564206612574457	4.015620626201423	4	missed	0.0
313.3770787999965	7.618575599975884	nogo_reward	1.0	313.40650909999385	316.24437319999515	318.7836237999145	2.8378641000012976	314.4034840001259	317.76071669999556	319.78994300006843	1.8408891998692525	1.022907099918939	1.2351416999013054	n/a	1.0	n/a	2	0	108	2	nogo_reward	1	0	1	0	0	1	0	n/a	n/a	1	1.0	1.0	2064.4638988000806	2377.8704079000745	2378.8673828002065	2380.708272000076	2382.224615500076	2383.247522599995	n/a	n/a	2384.253841800149	2385.4889835000504	2020-01-10 18:09:09.939080	4.06817888787423	0.0	4.14552725202213	4.10840929188316	0.0773483641478999	4.14552725202213	-4.06817888787423	4.14552725202213	0.0	4.14552725202213	0.0773483641478999	7.5440733113213705	1.018698481290675	-0.7186821652333327	4.574143189279406	2.7614323476864095	-0.37004185518174143	4.574143189279406	7.30685546981504	2.61139990769417	1.5927014264034927	2.4961747503526874	1.359286273693383	4	missed	0.0
321.04056499991566	6.508654100122385	go_punish	0.4065087998751551	321.069995299913	322.5440881999675	325.0837095999159	1.4740929000545293	322.0759560998995	324.0809504999779	326.101363300113	0.46813210006803274	1.0027590999379754	1.4772860999223667	n/a	1.0	n/a	2	0	109	3	go_punish	0	-1	0	1	1	1	0	n/a	n/a	-1	0.4065087998751551	1.0	2064.4638988000806	2385.5338940999936	2386.53985489998	2387.007987000048	2388.5448493000586	2389.5476083999965	n/a	n/a	2390.5652621001936	2392.042548200116	2020-01-10 18:09:09.939080	5.97677532171989	-0.953001965421585	-7.64687031025292	-0.95825197252465	-1.67009498853304	-7.64687031025292	-5.97677532171989	-0.953001965421585	-7.64687031025292	-1.67009498853304	-7.64687031025292	-12.495614095777015	2.927294915136335	-1.6716841306549177	-7.218254372995644	-2.3052289167214006	-2.1174852078626816	-7.218254372995644	-12.732831937283345	-3.2042223328609998	-6.131517247997327	-2.6023544670910272	-6.287584036559537	4	missed	0.0
327.5796562999021	6.7532086002174765	go_reward	0.1090854001231491	327.60908659989946	329.44751670002006	332.0005203001201	1.838430100120604	328.6051189999562	330.98095840006135	333.0136762999464	0.8423977000638843	1.0195619000587612	1.3486189001705498	n/a	1.0	n/a	2	0	110	1	go_reward	0	0	1	1	1	1	0	n/a	n/a	0	0.1090854001231491	1.0	2064.4638988000806	2392.07298539998	2393.069017800037	2393.9114155001007	2395.444857200142	2396.4644191002008	n/a	n/a	2397.477575100027	2398.8261940001976	2020-01-10 18:09:09.939080	9.98739709355758	11.3747913609339	2.65633435250804	11.3735932130117	12.6437314460656	2.65633435250804	-9.98739709355758	11.3747913609339	2.65633435250804	12.6437314460656	2.65633435250804	-11.3747913609339	6.937916686974026	10.656109195700568	3.084950289765316	10.02661626881495	12.196341226735958	3.084950289765316	-11.61200920244023	11.10960410173764	4.171687414763633	9.725438859264457	4.015620626201423	4	missed	0.0
334.35958159994334	6.907623900100589	go_reward	0.2626097998581826	334.38901189994067	336.82589139998845	339.3766471000854	2.4368795000477803	335.3895292999223	338.35748169990256	340.3797349999659	1.4363621000661624	1.0191654001828283	0.916900800075382	n/a	1.0	n/a	2	0	111	1	go_reward	1	1	0	1	1	1	0	n/a	n/a	1	0.2626097998581826	1.0	2064.4638988000806	2398.8529107000213	2399.853428100003	2401.289790200069	2402.821380499983	2403.840545900166	n/a	n/a	2404.8436338000465	2405.760534600122	2020-01-10 18:09:09.939080	5.06531560169754	7.15640862433	2.65633435250804	7.15556880002326	7.72164995420558	2.65633435250804	-5.06531560169754	7.15640862433	2.65633435250804	7.72164995420558	2.65633435250804	4.5331919390135	2.015835195113985	6.437726459096667	3.084950289765316	5.808591855826509	7.274259734875939	3.084950289765316	4.29597409750717	6.18752260987762	4.171687414763633	5.507056122660558	4.015620626201423	4	missed	0.0
341.3130459000822	5.901926700025797	go_punish	0.2061683000065386	341.34247620007955	342.6832258000504	345.20822210004553	1.3407495999708772	342.3406652999115	344.2031900999136	346.21714550000615	0.3425605001389158	1.005032000131905	1.027257400099188	n/a	1.0	n/a	2	0	112	3	go_punish	0	-1	0	1	1	1	0	n/a	n/a	-1	0.2061683000065386	1.0	2064.4638988000806	2405.80637500016	2406.804564099992	2407.147124600131	2408.6670888999943	2409.672120900126	n/a	n/a	2410.681044300087	2411.708301700186	2020-01-10 18:09:09.939080	0.811112892535161	-5.31443802519804	-7.64687031025292	-5.31835068574392	-6.83575741771776	-7.64687031025292	-0.811112892535161	-5.31443802519804	-7.64687031025292	-6.83575741771776	-7.64687031025292	-8.13417803600056	-2.238367514048394	-6.033120190431373	-7.218254372995644	-6.665327629940671	-7.283147637047401	-7.218254372995644	-8.37139587750689	-8.36988476204572	-6.131517247997327	-6.9637905268674825	-6.287584036559537	4	missed	0.0
347.2625667001121	6.172763400012627	nogo_reward	1.0	347.2919970001094	348.9874056999106	351.51253210008144	1.6954086998011917	348.31121219997294	350.4990054999944	352.5168413000647	0.6761934999376535	1.0135266000870615	0.9479191000573337	n/a	1.0	n/a	2	0	113	2	nogo_reward	1	0	1	0	0	1	0	n/a	n/a	1	1.0	1.0	2064.4638988000806	2411.75589580019	2412.7751110000536	2413.4513044999912	2414.962904300075	2415.976430900162	n/a	n/a	2416.9807401001453	2417.9286592002027	2020-01-10 18:09:09.939080	6.43456478967076	0.0	6.99838629088184	6.97255381059531	0.56382150121108	6.99838629088184	-6.43456478967076	6.99838629088184	0.0	6.99838629088184	0.56382150121108	4.69121427246166	3.385084383087205	-0.7186821652333327	7.427002228139116	5.62557686639856	0.11643128188143864	7.427002228139116	4.453996430955329	5.464258946553881	2.079174563466673	5.349033789212398	1.359286273693383	4	missed	0.0
353.4638531000819	6.927368700038642	go_reward	0.1226311000064015	353.49328340007924	355.96780580002815	358.52120009995997	2.47452239994891	354.49239020003006	357.4980146999005	359.53066410007887	1.4754155999980867	1.0231854000594467	0.8899880000390112	n/a	1.0	n/a	2	0	114	1	go_reward	1	1	0	1	1	1	0	n/a	n/a	1	0.1226311000064015	1.0	2064.4638988000806	2417.95718220016	2418.9562890001107	2420.431704600109	2421.961913499981	2422.9850989000406	n/a	n/a	2423.9945629001595	2424.8845509001985	2020-01-10 18:09:09.939080	7.09838168463666	8.89116921062183	2.65633435250804	8.89057762225061	9.7547160371447	2.65633435250804	-7.09838168463666	8.89116921062183	2.65633435250804	9.7547160371447	2.65633435250804	2.7984313527216695	4.048901278053105	8.172487045388499	3.084950289765316	7.54360067805386	9.307325817815059	3.084950289765316	2.5612135112153394	8.22058869281674	4.171687414763633	7.241816708952388	4.015620626201423	4	missed	0.0
360.4362196999141	7.2540986000090015	go_punish	0.0301930999848991	360.4656499999114	362.8253184999339	365.3639646000229	2.359668500022508	361.47241970011964	364.34654449997515	366.36579770012713	1.3528987998142838	1.0174201000477296	1.3539508997932899	n/a	1.0	n/a	2	0	115	3	go_punish	1	0	-1	1	1	1	0	n/a	n/a	0	0.0301930999848991	1.0	2064.4638988000806	2424.929548799992	2425.9363185002003	2427.2892173000146	2428.810443300056	2429.8278634001035	n/a	n/a	2430.829696500208	2432.183647400001	2020-01-10 18:09:09.939080	-2.46105595401716	-8.0845896132617	-7.64687031025292	-8.0875166680339	-10.1079262642701	-7.64687031025292	2.46105595401716	-8.0845896132617	-7.64687031025292	-10.1079262642701	-7.64687031025292	8.0845896132617	-5.510536360600715	-8.803271778495033	-7.218254372995644	-9.43449361223065	-10.555316483599741	-7.218254372995644	7.84737177175537	-11.64205360859806	-6.131517247997327	-9.733942114931143	-6.287584036559537	4	missed	0.0
367.7193676000461	7.3441288999747485	nogo_punish	1.0	367.7487979000434	370.1806922000833	372.6982762000994	2.4318943000398576	368.7551905999426	371.67750549991615	373.703091399977	1.4255016001407057	1.0207707001832205	1.3898354000411928	n/a	1.0	n/a	2	0	116	4	nogo_punish	1	-1	0	0	0	1	0	n/a	n/a	0	1.0	1.0	2064.4638988000806	2432.212696700124	2433.219089400023	2434.644591000164	2436.141404299997	2437.16217500018	n/a	n/a	2438.1669902000576	2439.556825600099	2020-01-10 18:09:09.939080	4.7123103791581	-4.89634213184601	-0.890346556066233	-0.89140446166654	-5.60265693522433	-0.890346556066233	-4.7123103791581	-0.890346556066233	-4.89634213184601	-0.890346556066233	-5.60265693522433	0.890346556066233	1.6628299725745452	-5.615024297079343	-0.461730618808957	-2.238381405863291	-6.050047154553971	-0.461730618808957	0.6531287145599026	-2.4244739003941924	-4.087303872968737	-2.539699057735675	-3.5370558581526272	4	missed	0.0
375.10835190000944	6.514355899998918	nogo_reward	1.0	375.13778220000677	376.9049897000659	379.42453780001915	1.7672075000591576	376.1343894000165	378.4104744999204	380.43442069995217	0.7706003000494093	1.014063300098769	1.217717400053516	n/a	1.0	n/a	2	0	117	2	nogo_reward	1	0	1	0	0	1	0	n/a	n/a	1	1.0	1.0	2064.4638988000806	2439.6016810000874	2440.598288200097	2441.3688885001466	2442.874373300001	2443.8884366001	n/a	n/a	2444.898319500033	2446.1160369000863	2020-01-10 18:09:09.939080	7.87620932951571	0.0	8.7276465205973	8.70954020257994	0.85143719108159	8.7276465205973	-7.87620932951571	8.7276465205973	0.0	8.7276465205973	0.85143719108159	2.9619540427462	4.826728922932155	-0.7186821652333327	9.156262457854577	7.36256325838319	0.40404697175194865	9.156262457854577	2.7247362012398697	7.193519176269341	2.3667902533371827	7.078294018927858	1.359286273693383	4	missed	0.0
381.6550402001012	6.305000899825245	go_reward	0.3704977999441325	381.68447050009854	383.18911679997154	385.74012039997615	1.5046462998730021	382.6897964000236	384.7169373000511	386.74126260005914	0.4993203999479192	1.0231830999250633	1.248208799864642	n/a	1.0	n/a	2	0	118	1	go_reward	1	1	0	1	1	1	0	n/a	n/a	1	0.3704977999441325	1.0	2064.4638988000806	2446.148369300179	2447.1536952001043	2447.653015600052	2449.1808361001317	2450.204019200057	n/a	n/a	2451.20516140014	2452.4533702000044	2020-01-10 18:09:09.939080	8.31683244728577	9.93470847454362	2.65633435250804	9.93428978366912	10.9731667997938	2.65633435250804	-8.31683244728577	9.93470847454362	2.65633435250804	10.9731667997938	2.65633435250804	1.7548920887998811	5.267352040702216	9.216026309310287	3.084950289765316	8.58731283947237	10.525776580464159	3.084950289765316	1.5176742472935507	9.43903945546584	4.171687414763633	8.285355972874177	4.015620626201423	4	missed	0.0
388.0066661001183	7.103595399996266	nogo_reward	1.0	388.03609640011564	390.2059553998988	392.7429541999004	2.169858999783173	389.041357900016	391.72310340008744	393.74846019991674	1.1645974998828024	1.0198507998129571	1.3912316001951694	n/a	1.0	n/a	2	0	119	2	nogo_reward	0	1	0	0	0	1	1	n/a	n/a	0	1.0	1.0	2064.4638988000806	2452.4999952001963	2453.5052567000967	2454.6698541999795	2456.187002200168	2457.206852999981	n/a	n/a	2458.2123589999974	2459.6035906001925	2020-01-10 18:09:09.939080	8.76863491378414	0.0	9.79308881355638	9.78031256512681	1.02445389977224	9.79308881355638	-8.76863491378414	9.79308881355638	0.0	9.79308881355638	1.02445389977224	-9.79308881355638	5.719154507200585	-0.7186821652333327	10.221704750813657	8.433335620930059	0.5770636804425988	10.221704750813657	-10.030306655062711	8.25896146922842	2.539806962027833	8.143736311886938	1.359286273693383	4	missed	0.0
395.1371190000791	6.771628399845213	nogo_punish	1.0	395.16654930007644	396.94558169995435	399.47256439994044	1.7790323998779058	396.17480359994806	398.46126669994555	400.4857666001194	0.7707781000062823	1.0112976999948842	1.452411099802248	n/a	1.0	n/a	2	0	120	4	nogo_punish	1	-1	0	0	0	1	0	n/a	n/a	0	1.0	1.0	2064.4638988000806	2459.630448100157	2460.6387024000287	2461.409480500035	2462.925165500026	2463.936463200021	n/a	n/a	2464.9496654002	2466.4020765000023	2020-01-10 18:09:09.939080	4.95240326870667	-4.89634213184601	-0.598813758806844	-0.599617604316341	-5.55121702751351	-0.598813758806844	-4.95240326870667	-0.598813758806844	-4.89634213184601	-0.598813758806844	-5.55121702751351	0.598813758806844	1.902922862123115	-5.615024297079343	-0.17019782154956792	-1.9465945485130918	-5.998607246843151	-0.17019782154956792	0.36159591730051355	-2.1329411031348036	-4.035863965257917	-2.248166260476286	-3.5370558581526272	4	missed	0.0
