onset	duration	trial_type	response_time	cueOnset	targetOnset	fbOnset	cueRT	firstfixOnset	secondfixOnset	waitOnset	firstfixdur	secondfixdur	waitdur	nback_fbOnset	nback_response_time	nback_targetOnset	block	wm	trial	cue	cond	is_common	outcome_go	outcome_nogo	key_correct	key_pressed	is_correct	key_correct_nback	key_pressed_nback	is_correct_nback	outcome	rt	rt_nback	time_scan	time_onset	time_isi1	time_circle	time_isi2	time_feedback	time_same	time_correct	time_iti	time_done	timestamp_scan	DV	Qgo	Qnogo	SV	Wgo	Wnogo	mDV	Qchosen	Qunchosen	Wchosen	Wunchosen	PE	DVC	QgoC	QnogoC	SVC	WgoC	WnogoC	PEC	WchosenC	WunchosenC	QchosenC	QunchosenC	run	outcome_nback	nback_targetResp
0.0	6.706309499999406	go_punish	0.3758196999988286	0.07538410000051954	1.7504814000003535	4.291510400000334	1.675097299999834	1.0937589000004664	3.2704175999988365	5.303356399999757	0.6567224999998871	1.0210928000014974	1.478337200000169	n/a	1.0	n/a	1	0	1	1	go_punish	1	0	-1	1	1	1	0	n/a	n/a	0	0.3758196999988286	1.0	636.3388687999995	636.4142529000001	637.4326277	638.0893501999999	639.6092863999984	640.6303791999999	n/a	n/a	641.6422251999993	643.1205623999995	2020-04-24 16:17:29.779170	0.56327981037941	0.0	0.0	0.0	0.56327981037941	0.0	-0.56327981037941	0.0	0.0	0.56327981037941	0.0	0.0	-7.0133606004910005	-3.861902655886555	-0.44325461782859144	-4.409230467451944	-6.624378969061208	-0.44325461782859144	-0.9054297374497007	-7.040497093690402	-0.02713649319940158	-4.447340505853257	0.1421832321381092	1	missed	0.0
6.766296399999192	6.257649499999388	nogo_punish	0.3473111999992397	6.841680499999711	8.337042299999666	10.878265800000008	1.495361799999955	7.845402900000408	9.858839499998794	11.891906099999687	0.4916393999992579	1.0194263000012143	1.2074238999994122	n/a	1.0	n/a	1	0	2	2	nogo_punish	0	0	-1	0	1	0	0	n/a	n/a	0	0.3473111999992397	1.0	636.3388687999995	643.1805492999993	644.1842717	644.6759110999992	646.1977082999983	647.2171345999996	n/a	n/a	648.2307748999992	649.4381987999986	2020-04-24 16:17:29.779170	0.56327981037941	0.0	0.0	0.0	0.56327981037941	0.0	-0.56327981037941	0.0	0.0	0.56327981037941	0.0	0.0	-7.0133606004910005	-3.861902655886555	-0.44325461782859144	-4.409230467451944	-6.624378969061208	-0.44325461782859144	-0.9054297374497007	-7.040497093690402	-0.02713649319940158	-4.447340505853257	0.1421832321381092	1	missed	0.0
13.085883499999909	7.622145799999998	nogo_reward	0.5091341000006651	13.161267600000429	15.875215300000491	18.42285989999982	2.7139477000000625	14.174186700000064	17.40026880000005	19.436321999999564	1.701028600000427	1.0225910999997723	1.3470914000008634	n/a	1.0	n/a	1	0	3	4	nogo_reward	1	0	1	0	1	0	0	n/a	n/a	0	0.5091341000006651	1.0	636.3388687999995	649.5001364	650.5130554999996	652.2140841	653.7391375999996	654.7617286999994	n/a	n/a	655.7751907999991	657.1222822	2020-04-24 16:17:29.779170	0.56327981037941	0.0	0.0	0.0	0.56327981037941	0.0	-0.56327981037941	0.0	0.0	0.56327981037941	0.0	0.0	-7.0133606004910005	-3.861902655886555	-0.44325461782859144	-4.409230467451944	-6.624378969061208	-0.44325461782859144	-0.9054297374497007	-7.040497093690402	-0.02713649319940158	-4.447340505853257	0.1421832321381092	1	missed	0.0
20.771362699999372	6.1073405999995884	nogo_punish	1.0	20.84674679999989	22.424486199999592	24.94556720000037	1.5777393999997003	21.854680599999483	23.926888599999074	25.956996099999742	0.5698056000001088	1.0186786000012944	0.9970912999997381	n/a	1.0	n/a	1	0	4	2	nogo_punish	1	-1	0	0	0	1	1	n/a	n/a	0	1.0	1.0	636.3388687999995	657.1856155999994	658.193549399999	658.7633549999991	660.2657573999986	661.2844359999999	n/a	n/a	662.2958648999993	663.292956199999	2020-04-24 16:17:29.779170	-0.56327981037941	0.0	0.0	0.0	0.56327981037941	0.0	0.56327981037941	0.0	0.0	0.0	0.56327981037941	0.0	-8.13992022124982	-3.861902655886555	-0.44325461782859144	-4.409230467451944	-6.624378969061208	-0.44325461782859144	-0.9054297374497007	-7.603776904069813	0.5361433171800084	-4.447340505853257	0.1421832321381092	1	missed	0.0
26.914897599999676	5.8745263000000705	go_punish	1.0	26.990281700000196	28.561607800000274	31.08148429999892	1.5713261000000784	27.999946800000544	30.067621500000314	32.090787699999055	0.5616609999997308	1.0138627999986056	0.7740203000012116	n/a	1.0	n/a	1	0	5	1	go_punish	1	0	-1	1	0	0	0	n/a	n/a	-1	1.0	1.0	636.3388687999995	663.3291504999997	664.3388156000001	664.9004765999998	666.4064902999999	667.4203530999985	n/a	n/a	668.4296564999986	669.2036767999998	2020-04-24 16:17:29.779170	-0.56327981037941	0.0	0.0	0.0	0.56327981037941	0.0	0.56327981037941	0.0	0.0	0.0	0.56327981037941	-5.18390065872752	-8.13992022124982	-3.861902655886555	-0.44325461782859144	-4.409230467451944	-6.624378969061208	-0.44325461782859144	-6.089330396177221	-7.603776904069813	0.5361433171800084	-4.447340505853257	0.1421832321381092	1	missed	0.0
32.82670579999831	7.573550300001443	nogo_punish	0.2766328999987308	32.90208989999883	35.46972909999931	38.020196499999656	2.5676392000004853	33.90669530000014	37.01297639999939	39.03322010000011	1.5630337999991752	1.0072201000002678	1.442420100000163	n/a	1.0	n/a	1	0	6	2	nogo_punish	0	0	-1	0	1	0	1	n/a	n/a	0	0.2766328999987308	1.0	636.3388687999995	669.2409586999984	670.2455640999997	671.8085978999989	673.3518451999989	674.3590652999992	n/a	n/a	675.3720888999997	676.8145089999998	2020-04-24 16:17:29.779170	0.56327981037941	0.0	0.0	0.0	0.56327981037941	0.0	-0.56327981037941	0.0	0.0	0.56327981037941	0.0	0.0	-7.0133606004910005	-3.861902655886555	-0.44325461782859144	-4.409230467451944	-6.624378969061208	-0.44325461782859144	-0.9054297374497007	-7.040497093690402	-0.02713649319940158	-4.447340505853257	0.1421832321381092	1	missed	0.0
40.440172299999176	6.253704200000357	go_reward	0.3588068999997631	40.515556399999696	42.25262379999913	44.797900100000334	1.7370673999994324	41.52719989999969	43.78261609999936	45.80729529999917	0.7254238999994413	1.0152840000009746	0.9619653000008839	n/a	1.0	n/a	1	0	7	3	go_reward	0	0	1	1	1	1	0	n/a	n/a	0	0.3588068999997631	1.0	636.3388687999995	676.8544251999992	677.8660686999992	678.5914925999987	680.1214848999989	681.1367688999999	n/a	n/a	682.1461640999987	683.1081293999996	2020-04-24 16:17:29.779170	0.56327981037941	0.0	0.0	0.0	0.56327981037941	0.0	-0.56327981037941	0.0	0.0	0.56327981037941	0.0	0.0	-7.0133606004910005	-3.861902655886555	-0.44325461782859144	-4.409230467451944	-6.624378969061208	-0.44325461782859144	-0.9054297374497007	-7.040497093690402	-0.02713649319940158	-4.447340505853257	0.1421832321381092	1	missed	0.0
46.732821599998715	6.375642200000584	go_punish	0.3230383000009169	46.808205699999235	48.722173699999985	51.266997900000206	1.9139680000007502	47.81390520000059	50.24150749999899	52.27587279999898	0.9082684999993944	1.0254904000012175	0.90797510000084	n/a	1.0	n/a	1	0	8	1	go_punish	0	-1	0	1	1	1	0	n/a	n/a	-1	0.3230383000009169	1.0	636.3388687999995	683.1470744999988	684.1527740000001	685.0610424999995	686.5803762999985	687.6058666999998	n/a	n/a	688.6147415999985	689.5227166999994	2020-04-24 16:17:29.779170	0.596053057054879	0.0	-0.818195282145985	-0.818195282145985	-0.222142225091106	-0.818195282145985	-0.596053057054879	0.0	-0.818195282145985	-0.222142225091106	-0.818195282145985	-5.18390065872752	-6.980587353815531	-3.861902655886555	-1.2614498999745765	-5.227425749597929	-7.409801004531724	-1.2614498999745765	-6.089330396177221	-7.825919129160918	-0.8453317753453866	-4.447340505853257	-0.6760120500078758	1	missed	0.0
53.17266149999887	6.203103800000463	go_punish	1.0	53.24804559999939	55.11588870000014	57.6512416000005	1.867843100000755	54.25790169999891	56.63245689999894	58.64957069999946	0.8579870000012306	1.0187847000015609	0.8015787000003911	n/a	1.0	n/a	1	0	9	1	go_punish	1	0	-1	1	0	0	0	n/a	n/a	-1	1.0	1.0	636.3388687999995	689.5869143999989	690.5967704999985	691.4547574999997	692.9713256999985	693.9901104	n/a	n/a	694.988439499999	695.7900181999994	2020-04-24 16:17:29.779170	0.876125725179445	-0.818195282145985	-0.818195282145985	-1.5009366002915	-1.69432100732543	-0.818195282145985	-0.876125725179445	-0.818195282145985	-0.818195282145985	-0.818195282145985	-1.69432100732543	-4.365705376581535	-6.700514685690965	-4.6800979380325405	-1.2614498999745765	-5.910167067743444	-8.881979786766049	-1.2614498999745765	-5.271135114031235	-8.421972186215797	-1.7214575005248316	-5.265535787999242	-0.6760120500078758	1	missed	0.0
59.41036659999918	6.2834996999990835	go_punish	1.0	59.4857506999997	61.322931299999254	63.84739119999904	1.8371805999995559	60.49390979999953	62.82750259999921	64.85653850000017	0.8290214999997261	1.019888599999831	0.9127118999986124	n/a	1.0	n/a	1	0	10	1	go_punish	1	0	-1	1	0	0	1	n/a	n/a	-1	1.0	1.0	636.3388687999995	695.8246194999992	696.8327785999991	697.6618000999988	699.1663713999988	700.1862599999986	n/a	n/a	701.1954072999997	702.1081191999983	2020-04-24 16:17:29.779170	0.738873853872165	-0.818195282145985	-1.5009366002915	-2.07163351494992	-2.23981045416366	-1.5009366002915	-0.738873853872165	-1.5009366002915	-0.818195282145985	-1.5009366002915	-2.23981045416366	-3.68296405843602	-6.837766556998246	-4.6800979380325405	-1.9441912181200913	-6.480863982401864	-9.427469233604278	-1.9441912181200913	-4.588393795885721	-9.104713504361312	-2.2669469473630612	-5.948277106144756	-0.6760120500078758	1	missed	0.0
65.73071909999999	6.426797899999656	nogo_reward	0.6126399000004312	65.8061032000005	67.16353870000057	69.72572709999986	1.357435500000065	66.82027299999936	68.70493989999886	70.73937470000055	0.34326570000121137	1.0207872000009957	1.4935263999996096	n/a	1.0	n/a	1	0	11	4	nogo_reward	1	0	1	0	1	0	0	n/a	n/a	0	0.6126399000004312	1.0	636.3388687999995	702.144972	703.1591417999989	703.5024075000001	705.0438086999984	706.0645958999994	n/a	n/a	707.0782435000001	708.5717698999997	2020-04-24 16:17:29.779170	0.56327981037941	0.0	0.0	0.0	0.56327981037941	0.0	-0.56327981037941	0.0	0.0	0.56327981037941	0.0	0.0	-7.0133606004910005	-3.861902655886555	-0.44325461782859144	-4.409230467451944	-6.624378969061208	-0.44325461782859144	-0.9054297374497007	-7.040497093690402	-0.02713649319940158	-4.447340505853257	0.1421832321381092	1	missed	0.0
72.19488419999834	6.2561662000007345	nogo_punish	1.0	72.27026829999886	73.95665109999936	76.48738589999994	1.6863828000005014	73.28233220000038	75.47314220000044	77.50655159999951	0.6743188999989798	1.014243699999497	1.0198829000000842	n/a	1.0	n/a	1	0	12	2	nogo_punish	1	-1	0	0	0	1	0	n/a	n/a	0	1.0	1.0	636.3388687999995	708.6091370999984	709.6212009999999	710.2955198999989	711.812011	712.8262546999995	n/a	n/a	713.845420399999	714.8653032999991	2020-04-24 16:17:29.779170	-0.56327981037941	0.0	0.0	0.0	0.56327981037941	0.0	0.56327981037941	0.0	0.0	0.0	0.56327981037941	0.0	-8.13992022124982	-3.861902655886555	-0.44325461782859144	-4.409230467451944	-6.624378969061208	-0.44325461782859144	-0.9054297374497007	-7.603776904069813	0.5361433171800084	-4.447340505853257	0.1421832321381092	1	missed	0.0
78.48534409999957	6.291027100000065	go_punish	0.2592301999993651	78.56072820000009	80.3510927999996	82.88829289999921	1.7903645999995206	79.57198269999935	81.86891939999987	83.89977290000024	0.7791101000002527	1.0193734999993467	0.9519823999999062	n/a	1.0	n/a	1	0	13	1	go_punish	1	0	-1	1	1	1	0	n/a	n/a	0	0.2592301999993651	1.0	636.3388687999995	714.8995969999996	715.9108514999989	716.6899615999992	718.2077881999994	719.2271616999988	n/a	n/a	720.2386416999998	721.1906240999997	2020-04-24 16:17:29.779170	-0.623955596776182	-0.818195282145985	-2.07163351494992	-2.5494895601919	-2.6955891117261	-2.07163351494992	0.623955596776182	-0.818195282145985	-2.07163351494992	-2.6955891117261	-2.07163351494992	0.818195282145985	-8.200596007646594	-4.6800979380325405	-2.5148881327785113	-6.958720027643844	-9.883247891166718	-2.5148881327785113	-0.08723445530371565	-10.299366015795913	-2.0987700081493212	-5.265535787999242	-1.9294502828118107	1	missed	0.0
84.81301769999845	6.47677079999994	nogo_punish	0.4863511999992624	84.88840179999897	86.81185379999988	89.35471700000016	1.923452000000907	85.89020999999957	88.33711369999946	90.37039949999962	0.9216438000003109	1.017603300000701	0.9947730999992928	n/a	1.0	n/a	1	0	14	2	nogo_punish	1	-1	0	0	1	0	1	n/a	n/a	-1	0.4863511999992624	1.0	636.3388687999995	721.2272705999985	722.2290787999991	723.1507225999994	724.675982499999	725.6935857999997	n/a	n/a	726.7092682999992	727.7040413999985	2020-04-24 16:17:29.779170	0.56327981037941	0.0	0.0	0.0	0.56327981037941	0.0	-0.56327981037941	0.0	0.0	0.56327981037941	0.0	-5.18390065872752	-7.0133606004910005	-3.861902655886555	-0.44325461782859144	-4.409230467451944	-6.624378969061208	-0.44325461782859144	-6.089330396177221	-7.040497093690402	-0.02713649319940158	-4.447340505853257	0.1421832321381092	1	missed	0.0
91.33113689999846	6.850180900000851	go_reward	0.3171375999991142	91.40652099999897	93.45927699999993	96.00535879999916	2.0527560000009544	92.41425720000007	94.98607079999965	97.01343400000042	1.0450197999998636	1.0192879999995057	1.2432678999994096	n/a	1.0	n/a	1	0	15	3	go_reward	1	1	0	1	1	1	0	n/a	n/a	1	0.3171375999991142	1.0	636.3388687999995	727.7453897999985	728.7531259999996	729.7981457999995	731.3249395999992	732.3442275999987	n/a	n/a	733.3523028	734.5955706999994	2020-04-24 16:17:29.779170	0.56327981037941	0.0	0.0	0.0	0.56327981037941	0.0	-0.56327981037941	0.0	0.0	0.56327981037941	0.0	21.8488780683767	-7.0133606004910005	-3.861902655886555	-0.44325461782859144	-4.409230467451944	-6.624378969061208	-0.44325461782859144	20.943448330926998	-7.040497093690402	-0.02713649319940158	-4.447340505853257	0.1421832321381092	1	missed	0.0
98.22029669999938	7.372216499999922	nogo_reward	1.0	98.2956807999999	100.71334480000041	103.25370569999905	2.4176640000005136	99.30043279999882	102.22999119999986	104.25724669999909	1.4129120000015973	1.023714499999187	1.4106506000007357	n/a	1.0	n/a	1	0	16	4	nogo_reward	1	0	1	0	0	1	0	n/a	n/a	1	1.0	1.0	636.3388687999995	734.6345495999994	735.6393015999984	737.0522136	738.5688599999994	739.5925744999986	n/a	n/a	740.5961154999986	742.0067660999994	2020-04-24 16:17:29.779170	-0.56327981037941	0.0	0.0	0.0	0.56327981037941	0.0	0.56327981037941	0.0	0.0	0.0	0.56327981037941	21.8488780683767	-8.13992022124982	-3.861902655886555	-0.44325461782859144	-4.409230467451944	-6.624378969061208	-0.44325461782859144	20.943448330926998	-7.603776904069813	0.5361433171800084	-4.447340505853257	0.1421832321381092	1	missed	0.0
105.62623919999896	7.034063900000547	go_punish	1.0	105.70162329999948	107.97089049999886	110.5053597999995	2.2692671999993763	106.69744399999945	109.48190539999996	111.51482489999944	1.2734464999994088	1.0234543999995367	1.22086230000059	n/a	1.0	n/a	1	0	17	1	go_punish	1	0	-1	1	0	0	0	n/a	n/a	-1	1.0	1.0	636.3388687999995	742.040492099999	743.036312799999	744.3097592999984	745.8207741999995	746.844228599999	n/a	n/a	747.853693699999	749.0745559999996	2020-04-24 16:17:29.779170	0.0845508451321876	-0.682741318145515	-2.07163351494992	-2.1320898156251	-2.1561843600821	-2.07163351494992	-0.0845508451321876	-2.07163351494992	-0.682741318145515	-2.07163351494992	-2.1561843600821	-3.1122671437776	-7.492089565738223	-4.54464397403207	-2.5148881327785113	-6.541320283077043	-9.343843139522718	-2.5148881327785113	-4.017696881227301	-9.675410419019732	-2.183320853281501	-6.518974020803176	-0.5405580860074057	1	missed	0.0
112.6972898999993	6.252583400000731	go_punish	0.4496416999991197	112.77267399999982	114.24356710000029	116.79598140000053	1.4708931000004668	113.77487130000009	115.77570889999879	117.80458609999914	0.46869580000020505	1.020272500001738	1.2206713000014133	n/a	1.0	n/a	1	0	18	1	go_punish	1	0	-1	1	1	1	0	n/a	n/a	0	0.4496416999991197	1.0	636.3388687999995	749.1115427999994	750.1137400999996	750.5824358999998	752.1145776999983	753.1348502000001	n/a	n/a	754.1434548999987	755.3641262000001	2020-04-24 16:17:29.779170	-0.0579505682884762	-0.682741318145515	-2.5494895601919	-2.60426837040157	-2.60744012848038	-2.5494895601919	0.0579505682884762	-0.682741318145515	-2.5494895601919	-2.60744012848038	-2.5494895601919	0.682741318145515	-7.634590979158887	-4.54464397403207	-2.9927441780204913	-7.013498837853514	-9.795098907920998	-2.9927441780204913	-0.2226884193041857	-10.211217032550193	-2.5766260533913012	-5.130081823998772	-2.4073063280537905	1	missed	0.0
118.9860037999988	6.770523000001049	nogo_punish	0.5680299000014202	119.06138789999932	120.93129950000002	123.46708310000031	1.8699116000007052	120.08731710000029	122.4488239000002	124.48478339999929	0.8439823999997316	1.0182592000001023	1.3471275000010792	n/a	1.0	n/a	1	0	19	2	nogo_punish	1	-1	0	0	1	0	0	n/a	n/a	-1	0.5680299000014202	1.0	636.3388687999995	755.4002566999989	756.4261858999998	757.2701682999996	758.7876926999998	759.8059518999999	n/a	n/a	760.8236521999988	762.1707796999999	2020-04-24 16:17:29.779170	-1.04033750723709	-0.818195282145985	0.0	-0.818195282145985	-1.04033750723709	0.0	1.04033750723709	-0.818195282145985	0.0	-1.04033750723709	0.0	-4.365705376581535	-8.616977918107501	-4.6800979380325405	-0.44325461782859144	-5.227425749597929	-8.227996286677708	-0.44325461782859144	-5.271135114031235	-8.644114411306903	-0.02713649319940158	-5.265535787999242	0.1421832321381092	1	missed	0.0
125.79254839999885	6.090415500000745	go_reward	0.6250628999987384	125.86793249999937	127.26607209999929	129.81080939999993	1.3981395999999222	126.88365320000048	128.7901834000004	130.824333999999	0.38241889999881096	1.0206259999995382	1.134014000001116	n/a	1.0	n/a	1	0	20	3	go_reward	0	0	1	1	1	1	0	n/a	n/a	0	0.6250628999987384	1.0	636.3388687999995	762.2068012999989	763.222522	763.6049408999988	765.1290521999999	766.1496781999995	n/a	n/a	767.1632027999985	768.2972167999997	2020-04-24 16:17:29.779170	7.43599383827516	3.44311483641515	0.0	3.44311483641515	7.43599383827516	0.0	-7.43599383827516	3.44311483641515	0.0	7.43599383827516	0.0	-3.44311483641515	-0.1406465725952506	-0.418787819471405	-0.44325461782859144	-0.9661156310367938	0.24833505883454166	-0.44325461782859144	-4.348544573864851	-0.1677830657946524	-0.02713649319940158	-1.0042256694381066	0.1421832321381092	1	missed	0.0
131.923042299999	7.313229900000806	go_reward	0.3237616000005801	131.99842639999952	134.35557489999883	136.91477619999932	2.3571484999993118	133.00345799999923	135.88253020000047	137.92525509999905	1.3521168999996007	1.0322459999988496	1.3864012000012735	n/a	1.0	n/a	1	0	21	3	go_reward	1	1	0	1	1	1	0	n/a	n/a	1	0.3237616000005801	1.0	636.3388687999995	768.3372951999991	769.3423267999988	770.6944436999984	772.221399	773.2536449999989	n/a	n/a	774.2641238999986	775.6505250999999	2020-04-24 16:17:29.779170	6.29441592204745	2.87428175309087	0.0	2.87428175309087	6.29441592204745	0.0	-6.29441592204745	2.87428175309087	0.0	6.29441592204745	0.0	18.97459631528583	-1.282224488822961	-0.987620902795685	-0.44325461782859144	-1.5349487143610738	-0.8932428573931688	-0.44325461782859144	18.06916657783613	-1.3093609820223628	-0.02713649319940158	-1.5730587527623867	0.1421832321381092	1	missed	0.0
139.2740617999989	7.372466400000121	nogo_reward	0.3037800999991304	139.3494458999994	141.7005482000004	144.2307294000002	2.3511023000010027	140.36418109999977	143.2172499999997	145.24445149999883	1.3363671000006434	1.0134794000005058	1.4774608000006992	n/a	1.0	n/a	1	0	22	4	nogo_reward	1	0	1	0	1	0	0	n/a	n/a	0	0.3037800999991304	1.0	636.3388687999995	775.688314699999	776.7030498999993	778.039417	779.5561187999992	780.5695981999997	n/a	n/a	781.5833202999984	783.0607810999991	2020-04-24 16:17:29.779170	0.549764165444854	0.0	3.44311483641515	3.44311483641515	3.99287900186001	3.44311483641515	-0.549764165444854	0.0	3.44311483641515	3.99287900186001	3.44311483641515	0.0	-7.026876245425557	-3.861902655886555	2.9998602185865586	-0.9661156310367938	-3.1947797775806084	2.9998602185865586	-0.9054297374497007	-3.6108979022098024	3.4159783432157487	-4.447340505853257	3.5852980685532594	1	missed	0.0
146.6872270999993	6.718782199999623	go_reward	0.3001662000006035	146.7626111999998	148.53114939999978	151.0718896999988	1.7685381999999663	147.76720399999977	150.06164340000032	152.085446699999	0.7639454000000114	1.010246299998471	1.3959467000004224	n/a	1.0	n/a	1	0	23	3	go_reward	0	0	1	1	1	1	1	n/a	n/a	0	0.3001662000006035	1.0	636.3388687999995	783.1014799999994	784.1060727999993	784.8700181999993	786.4005121999999	787.4107584999983	n/a	n/a	788.4243154999986	789.820262199999	2020-04-24 16:17:29.779170	12.2233217202337	5.84661761501409	0.0	5.84661761501409	12.2233217202337	0.0	-12.2233217202337	5.84661761501409	0.0	12.2233217202337	0.0	-5.84661761501409	4.64668130936329	1.9847149591275346	-0.44325461782859144	1.4373871475621458	5.035662940793082	-0.44325461782859144	-6.752047352463791	4.619544816163888	-0.02713649319940158	1.399277109160833	0.1421832321381092	1	missed	0.0
153.4416057999988	6.25334440000006	nogo_reward	0.3089178999998694	153.51698989999932	155.19142309999916	157.74491979999948	1.6744331999998394	154.52008000000023	156.72562199999993	158.7529811000004	0.6713430999989214	1.0192977999995492	1.017353199998979	n/a	1.0	n/a	1	0	24	4	nogo_reward	1	0	1	0	1	0	1	n/a	n/a	0	0.3089178999998694	1.0	636.3388687999995	789.8558586999989	790.8589487999998	791.5302918999987	793.0644907999995	794.083788599999	n/a	n/a	795.0918498999999	796.1092030999989	2020-04-24 16:17:29.779170	-0.0229806674585701	0.0	3.44311483641515	2.87428175309087	3.42013416895658	3.44311483641515	0.0229806674585701	0.0	3.44311483641515	3.42013416895658	3.44311483641515	0.0	-7.599621078328981	-3.861902655886555	2.9998602185865586	-1.5349487143610738	-3.7675246104840387	2.9998602185865586	-0.9054297374497007	-4.183642735113233	3.4159783432157487	-4.447340505853257	3.5852980685532594	1	missed	0.0
159.73501809999834	6.377071800001431	go_reward	0.27935830000024	159.81040219999886	161.38197000000036	163.92431579999902	1.5715678000015032	160.8210808999993	162.90738210000018	164.935196299999	0.5608891000010772	1.0169336999988445	1.2522777000012866	n/a	1.0	n/a	1	0	25	3	go_reward	1	1	0	1	1	1	1	n/a	n/a	1	0.27935830000024	1.0	636.3388687999995	796.1492709999984	797.1599496999988	797.7208387999999	799.2462508999997	800.2631845999986	n/a	n/a	801.2740650999986	802.5263427999998	2020-04-24 16:17:29.779170	10.3001151181222	4.88749599098463	0.0	4.88749599098463	10.3001151181222	0.0	-10.3001151181222	4.88749599098463	0.0	10.3001151181222	0.0	16.96138207739207	2.723474707251789	1.0255933350980748	-0.44325461782859144	0.47826552353268603	3.1124563386815813	-0.44325461782859144	16.05595233994237	2.6963382140523873	-0.02713649319940158	0.44015548513137315	0.1421832321381092	1	missed	0.0
166.14844309999899	5.866969900000186	go_punish	0.7021365000000515	166.2238271999995	167.5970187999992	170.1281366000003	1.3731915999997	167.23955000000024	169.1142994999991	171.14574159999938	0.3574687999989692	1.013837100001183	0.9450555000003078	n/a	1.0	n/a	1	0	26	1	go_punish	0	-1	0	1	1	1	0	n/a	n/a	-1	0.7021365000000515	1.0	636.3388687999995	802.562695999999	803.5784187999998	803.9358875999988	805.4531682999987	806.4670053999998	n/a	n/a	807.4846103999989	808.4296658999992	2020-04-24 16:17:29.779170	0.462446505207075	-0.570696914658415	-2.5494895601919	-2.18148157952765	-2.08704305498482	-2.5494895601919	-0.462446505207075	-0.570696914658415	-2.5494895601919	-2.08704305498482	-2.5494895601919	-4.613203744069105	-7.114193905663336	-4.43259957054497	-2.9927441780204913	-6.5907120469795935	-9.27470183442544	-2.9927441780204913	-5.5186334815188065	-9.690819959054632	-2.5766260533913012	-5.018037420511671	-2.4073063280537905	1	missed	0.0
172.05057689999921	6.233145800000784	nogo_reward	0.4429729000003135	172.12596099999973	173.4162763000004	175.95916079999915	1.2903153000006569	173.13669639999898	174.9394898999999	176.97163869999895	0.27957990000140853	1.0196708999992552	1.3874681000015698	n/a	1.0	n/a	1	0	27	4	nogo_reward	1	0	1	0	1	0	0	n/a	n/a	0	0.4429729000003135	1.0	636.3388687999995	808.4648297999993	809.4755651999985	809.7551450999999	811.2783586999994	812.2980295999987	n/a	n/a	813.3105074999985	814.6979756000001	2020-04-24 16:17:29.779170	-0.496009922676102	0.0	3.44311483641515	2.40350277859894	2.94710491373905	3.44311483641515	0.496009922676102	0.0	3.44311483641515	2.94710491373905	3.44311483641515	0.0	-8.072650333546513	-3.861902655886555	2.9998602185865586	-2.005727688853004	-4.2405538657015684	2.9998602185865586	-0.9054297374497007	-4.6566719903307625	3.4159783432157487	-4.447340505853257	3.5852980685532594	1	missed	0.0
178.32132009999987	5.960796399998799	nogo_reward	0.3059768000002805	178.39670420000039	179.9503098999994	182.5063613000002	1.553605699999025	179.40491829999883	181.4825965	183.5158739999988	0.5453916000005847	1.0237648000002082	0.8416266000003816	n/a	1.0	n/a	1	0	28	4	nogo_reward	0	1	0	0	1	0	0	n/a	n/a	1	0.3059768000002805	1.0	636.3388687999995	814.7355729999999	815.7437870999984	816.289178699999	817.8214652999995	818.8452300999998	n/a	n/a	819.8547427999983	820.6963693999987	2020-04-24 16:17:29.779170	-0.887350067854798	0.0	3.44311483641515	2.01321423789376	2.55576476856035	3.44311483641515	0.887350067854798	0.0	3.44311483641515	2.55576476856035	3.44311483641515	21.8488780683767	-8.46399047872521	-3.861902655886555	2.9998602185865586	-2.396016229558184	-4.631894010880268	2.9998602185865586	20.943448330926998	-5.048012135509463	3.4159783432157487	-4.447340505853257	3.5852980685532594	1	missed	0.0
184.31887239999924	7.332248500000787	nogo_punish	1.0	184.39425649999976	186.8442290999992	189.3668032000005	2.4499725999994553	185.40846769999916	188.36077540000042	190.3729889999995	1.4357614000000467	1.0060278000000835	1.3535160000010364	n/a	1.0	n/a	1	0	29	2	nogo_punish	1	-1	0	0	0	1	0	n/a	n/a	0	1.0	1.0	636.3388687999995	820.7331252999993	821.7473364999987	823.1830978999988	824.6996442	825.705672	n/a	n/a	826.711857799999	828.0653738000001	2020-04-24 16:17:29.779170	2.37706232547095	-1.5009366002915	0.0	-1.5009366002915	-2.37706232547095	0.0	-2.37706232547095	0.0	-1.5009366002915	0.0	-2.37706232547095	0.0	-5.199578085399461	-5.362839256178055	-0.44325461782859144	-5.910167067743444	-9.56472110491157	-0.44325461782859144	-0.9054297374497007	-7.603776904069813	-2.4041988186703516	-4.447340505853257	-1.3587533681533908	1	missed	0.0
191.68745809999928	6.447994000000108	nogo_punish	1.0	191.7628421999998	193.61915489999956	196.14546419999897	1.8563126999997621	192.77721550000024	195.12840639999922	197.15922789999968	0.841939399999319	1.0170577999997477	1.0516083000002254	n/a	1.0	n/a	1	0	30	2	nogo_punish	1	-1	0	0	0	1	0	n/a	n/a	0	1.0	1.0	636.3388687999995	828.1017109999993	829.1160842999998	829.9580236999991	831.4672751999988	832.4843329999985	n/a	n/a	833.4980966999992	834.5497049999994	2020-04-24 16:17:29.779170	2.13712973683866	-1.5009366002915	0.0	-1.25343823280393	-2.13712973683866	0.0	-2.13712973683866	0.0	-1.5009366002915	0.0	-2.13712973683866	0.0	-5.439510674031751	-5.362839256178055	-0.44325461782859144	-5.662668700255874	-9.324788516279279	-0.44325461782859144	-0.9054297374497007	-7.603776904069813	-2.1642662300380615	-4.447340505853257	-1.3587533681533908	1	missed	0.0
198.17079729999932	7.014732999999978	nogo_reward	0.2896937999994406	198.24618139999984	200.2386434	202.79029730000002	1.9924620000001596	199.2546500999997	201.77088079999885	203.8038044999994	0.983993300000293	1.0194165000011708	1.4571099000004324	n/a	1.0	n/a	1	0	31	4	nogo_reward	1	0	1	0	1	0	0	n/a	n/a	0	0.2896937999994406	1.0	636.3388687999995	834.5850501999994	835.5935188999993	836.5775121999995	838.1097495999984	839.1291660999996	n/a	n/a	840.1426732999989	841.5997831999994	2020-04-24 16:17:29.779170	5.66105852791796	3.44311483641515	3.44311483641515	5.13222483740571	9.10417336433311	3.44311483641515	-5.66105852791796	3.44311483641515	3.44311483641515	9.10417336433311	3.44311483641515	-3.44311483641515	-1.9155818829524511	-0.418787819471405	2.9998602185865586	0.7229943699537662	1.916514584892492	2.9998602185865586	-4.348544573864851	1.500396460263298	3.4159783432157487	-1.0042256694381066	3.5852980685532594	1	missed	0.0
205.22089259999848	6.053696099999797	nogo_punish	1.0	205.296276699999	206.80427079999936	209.3285784999989	1.50799410000036	206.30465919999915	208.3209857999991	210.34724280000046	0.49961160000020755	1.0075926999998046	1.002729999998337	n/a	1.0	n/a	1	0	32	2	nogo_punish	1	-1	0	0	0	1	1	n/a	n/a	0	1.0	1.0	636.3388687999995	841.6351454999985	842.6435279999987	843.1431395999989	844.6598545999987	845.6674472999985	n/a	n/a	846.6861116	847.6888415999983	2020-04-24 16:17:29.779170	1.93892489431276	-1.5009366002915	0.0	-1.0485529599004	-1.93892489431276	0.0	-1.93892489431276	0.0	-1.5009366002915	0.0	-1.93892489431276	0.0	-5.637715516557651	-5.362839256178055	-0.44325461782859144	-5.457783427352344	-9.126583673753379	-0.44325461782859144	-0.9054297374497007	-7.603776904069813	-1.9660613875121615	-4.447340505853257	-1.3587533681533908	1	missed	0.0
211.31521109999994	7.502853799998775	go_reward	0.3307899000010366	211.39059520000046	214.15954740000052	216.71459049999976	2.768952200000058	212.39616690000003	215.69520120000016	217.72789550000016	1.763380500000494	1.0193892999996024	1.1655534999990778	n/a	1.0	n/a	1	0	33	3	go_reward	0	0	1	1	1	1	0	n/a	n/a	0	0.3307899000010366	1.0	636.3388687999995	847.729464	848.7350356999996	850.4984162000001	852.0340699999997	853.0534592999993	n/a	n/a	854.0667642999997	855.2323177999988	2020-04-24 16:17:29.779170	15.5806112472823	7.53572761600465	0.0	7.53572761600465	15.5806112472823	0.0	-15.5806112472823	7.53572761600465	0.0	15.5806112472823	0.0	-7.53572761600465	8.00397083641189	3.6738249601180946	-0.44325461782859144	3.1264971485527058	8.392952467841681	-0.44325461782859144	-8.44115735345435	7.976834343212488	-0.02713649319940158	3.088387110151393	0.1421832321381092	1	missed	0.0
218.85758149999856	6.254160899999988	go_reward	0.3334157999997842	218.93296559999908	220.74999509999907	223.29857599999923	1.8170294999999896	219.93907969999964	222.2750830999994	224.3043859999998	0.8109153999994305	1.0234928999998374	0.8827404999992723	n/a	1.0	n/a	1	0	34	3	go_reward	1	1	0	1	1	1	0	n/a	n/a	1	0.3334157999997842	1.0	636.3388687999995	855.2718343999986	856.2779484999992	857.0888638999986	858.6139518999989	859.6374447999988	n/a	n/a	860.6432547999993	861.5259952999986	2020-04-24 16:17:29.779170	13.1186086670241	6.30701380918844	0.0	6.30701380918844	13.1186086670241	0.0	-13.1186086670241	6.30701380918844	0.0	13.1186086670241	0.0	15.541864259188259	5.541968256153689	2.445111153301885	-0.44325461782859144	1.8977833417364964	5.930949887583481	-0.44325461782859144	14.636434521738558	5.514831762954287	-0.02713649319940158	1.8596733033351835	0.1421832321381092	1	missed	0.0
225.15241259999857	6.544517400001496	nogo_punish	1.0	225.2277966999991	227.0223421999999	229.55145400000038	1.7945455000008224	226.23127849999946	228.53901889999906	230.5661667000004	0.7910637000004499	1.012435100001312	1.2061474000001908	n/a	1.0	n/a	1	0	35	2	nogo_punish	1	-1	0	0	0	1	0	n/a	n/a	0	1.0	1.0	636.3388687999995	861.5666654999986	862.570147299999	863.3612109999995	864.8778876999986	865.8903227999999	n/a	n/a	866.9050354999999	868.1111829000001	2020-04-24 16:17:29.779170	1.77490669530151	-1.5009366002915	0.0	-0.878651582821166	-1.77490669530151	0.0	-1.77490669530151	0.0	-1.5009366002915	0.0	-1.77490669530151	0.0	-5.801733715568901	-5.362839256178055	-0.44325461782859144	-5.28788205027311	-8.962565474742128	-0.44325461782859144	-0.9054297374497007	-7.603776904069813	-1.8020431885009116	-4.447340505853257	-1.3587533681533908	1	missed	0.0
231.73859659999835	7.0210005000008096	go_reward	0.3405205999988538	231.81398069999887	234.24080130000038	236.79074939999919	2.42682060000152	232.82114209999963	235.76640690000022	237.79485100000056	1.4196592000007513	1.0243424999989656	1.040130199999112	n/a	1.0	n/a	1	0	36	3	go_reward	1	1	0	1	1	1	1	n/a	n/a	1	0.3405205999988538	1.0	636.3388687999995	868.1528494999984	869.1600108999992	870.5796700999999	872.1052756999998	873.1296181999987	n/a	n/a	874.1337198000001	875.1738499999992	2020-04-24 16:17:29.779170	17.9506501147212	8.73062619573394	0.0	8.73062619573394	17.9506501147212	0.0	-17.9506501147212	8.73062619573394	0.0	17.9506501147212	0.0	13.118251872642759	10.374009703850788	4.868723539847386	-0.44325461782859144	4.321395728281996	10.762991335280581	-0.44325461782859144	12.212822135193058	10.346873210651387	-0.02713649319940158	4.2832856898806835	0.1421832321381092	1	missed	0.0
238.79913699999997	7.674989799999821	go_reward	0.3204396000000997	238.8745211000005	241.60981999999967	244.1503090999995	2.7352988999991794	239.8793129000005	243.12629109999943	245.15450620000047	1.7305070999991585	1.0240180000000692	1.3950046999998449	n/a	1.0	n/a	1	0	37	3	go_reward	1	1	0	1	1	1	0	n/a	n/a	1	0.3204396000000997	1.0	636.3388687999995	875.2133899	876.2181817000001	877.9486887999992	879.465159899999	880.489177899999	n/a	n/a	881.493375	882.8883796999999	2020-04-24 16:17:29.779170	21.9874873616085	10.7575722594223	0.0	10.7575722594223	21.9874873616085	0.0	-21.9874873616085	10.7575722594223	0.0	21.9874873616085	0.0	11.091305808954399	14.41084695073809	6.895669603535746	-0.44325461782859144	6.348341791970356	14.799828582167883	-0.44325461782859144	10.185876071504698	14.383710457538688	-0.02713649319940158	6.3102317535690435	0.1421832321381092	1	missed	0.0
246.51133089999894	5.877945000000182	nogo_punish	1.0	246.58671499999946	248.03639199999998	250.58686469999884	1.44967700000052	247.60061639999913	249.5618754999996	251.59671569999955	0.43577560000085214	1.0249891999992542	0.8679443000000902	n/a	1.0	n/a	1	0	38	2	nogo_punish	0	0	-1	0	0	1	0	n/a	n/a	-1	1.0	1.0	636.3388687999995	882.925583799999	883.9394851999987	884.3752607999995	885.9007442999991	886.9257334999984	n/a	n/a	887.9355844999991	888.8035287999992	2020-04-24 16:17:29.779170	1.63894527075518	-1.5009366002915	0.0	-0.737520128355185	-1.63894527075518	0.0	-1.63894527075518	0.0	-1.5009366002915	0.0	-1.63894527075518	-5.18390065872752	-5.937695140115231	-5.362839256178055	-0.44325461782859144	-5.146750595807129	-8.8266040501958	-0.44325461782859144	-6.089330396177221	-7.603776904069813	-1.6660817639545815	-4.447340505853257	-1.3587533681533908	1	missed	0.0
252.42987809999977	6.498831299999438	go_reward	0.3173101000011229	252.5052622000003	254.51900100000057	257.06408759999977	2.013738800000283	253.52122849999978	256.04546049999954	258.0735821999988	0.9977725000007922	1.0186271000002307	0.9305113000009442	n/a	1.0	n/a	1	0	39	3	go_reward	1	1	0	1	1	1	1	n/a	n/a	1	0.3173101000011229	1.0	636.3388687999995	888.8441309999998	889.8600972999993	890.8578698000001	892.3843292999991	893.4029563999993	n/a	n/a	894.4124509999983	895.3429622999993	2020-04-24 16:17:29.779170	25.3657469354665	12.4556582511599	0.0	12.4556582511599	25.3657469354665	0.0	-25.3657469354665	12.4556582511599	0.0	25.3657469354665	0.0	9.3932198172168	17.78910652459609	8.593755595273345	-0.44325461782859144	8.046427783707955	18.178088156025883	-0.44325461782859144	8.487790079767098	17.761970031396686	-0.02713649319940158	8.008317745306643	0.1421832321381092	1	missed	0.0
258.9631808999984	6.347156400001154	go_punish	1.0	259.0385649999989	260.37597339999957	262.9036200999999	1.3374084000006405	260.04928160000054	261.88502100000005	263.9129570999994	0.32669179999902553	1.0185990999998467	1.4727643000006765	n/a	1.0	n/a	1	0	40	1	go_punish	1	0	-1	1	0	0	0	n/a	n/a	-1	1.0	1.0	636.3388687999995	895.3774337999985	896.3881504000001	896.7148421999991	898.2238897999996	899.2424888999994	n/a	n/a	900.251825899999	901.7245901999996	2020-04-24 16:17:29.779170	0.709972907610841	-1.29605132738797	-2.5494895601919	-2.64862605301464	-3.25946246780274	-2.5494895601919	-0.709972907610841	-2.5494895601919	-1.29605132738797	-2.5494895601919	-3.25946246780274	-2.63441109853562	-6.86666750325957	-5.157953983274525	-2.9927441780204913	-7.057856520466584	-10.44712124724336	-2.9927441780204913	-3.539840835985321	-10.153266464261712	-3.2865989610021416	-6.996830066045156	-1.1538680952498608	1	missed	0.0
265.35312299999896	6.337305299999571	go_reward	0.381942899999558	265.4285070999995	266.79325040000003	269.33707929999946	1.3647433000005549	266.4360180999993	268.3128216999994	270.34836310000003	0.35723230000076	1.0242576000000554	1.4174492999990207	n/a	1.0	n/a	1	0	41	3	go_reward	1	1	0	1	1	1	1	n/a	n/a	1	0.381942899999558	1.0	636.3388687999995	901.767375899999	902.7748868999988	903.1321191999996	904.651690499999	905.675948099999	n/a	n/a	906.6872318999996	908.1046811999986	2020-04-24 16:17:29.779170	28.1976497659139	13.8806353981924	0.0	13.8806353981924	28.1976497659139	0.0	-28.1976497659139	13.8806353981924	0.0	28.1976497659139	0.0	7.968242670184299	20.62100935504349	10.018732742305845	-0.44325461782859144	9.471404930740455	21.009990986473284	-0.44325461782859144	7.062812932734598	20.59387286184409	-0.02713649319940158	9.433294892339143	0.1421832321381092	1	missed	0.0
271.72743719999914	6.787748900000338	nogo_reward	0.3343661999988399	271.80282129999966	274.27772930000003	276.81751110000005	2.4749080000003687	272.81785970000044	275.7981959999996	277.83161710000047	1.4598695999995925	1.0193151000004264	0.7589530999995304	n/a	1.0	n/a	1	0	42	4	nogo_reward	1	0	1	0	1	0	0	n/a	n/a	0	0.3343661999988399	1.0	636.3388687999995	908.1416900999992	909.1567285	910.6165980999996	912.1370647999992	913.1563798999996	n/a	n/a	914.1704859	914.9294389999995	2020-04-24 16:17:29.779170	4.25027681633048	2.87428175309087	3.44311483641515	4.29379957129468	7.69339165274563	3.44311483641515	-4.25027681633048	2.87428175309087	3.44311483641515	7.69339165274563	3.44311483641515	-2.87428175309087	-3.326363594539931	-0.987620902795685	2.9998602185865586	-0.11543089615726387	0.5057328733050115	2.9998602185865586	-3.7797114905405707	0.08961474867581742	3.4159783432157487	-1.5730587527623867	3.5852980685532594	1	missed	0.0
278.55234089999976	7.485554599999773	nogo_punish	1.0	278.6277250000003	281.1162220999995	283.6464096000001	2.488497099999222	279.6413501999997	282.63320380000005	284.6588797000004	1.4748718999998118	1.013205800000037	1.4543998999996575	n/a	1.0	n/a	1	0	43	2	nogo_punish	1	-1	0	0	0	1	0	n/a	n/a	0	1.0	1.0	636.3388687999995	914.9665937999998	915.9802189999992	917.455090899999	918.9720725999996	919.9852783999996	n/a	n/a	920.9977485	922.4521483999996	2020-04-24 16:17:29.779170	1.49327608846468	-1.5009366002915	-0.818195282145985	-1.43828396070696	-2.31147137061066	-0.818195282145985	-1.49327608846468	-0.818195282145985	-1.5009366002915	-0.818195282145985	-2.31147137061066	0.818195282145985	-6.083364322405731	-5.362839256178055	-1.2614498999745765	-5.847514428158904	-9.499130150051279	-1.2614498999745765	-0.08723445530371565	-8.421972186215797	-2.3386078638100614	-5.265535787999242	-1.3587533681533908	1	missed	0.0
286.1019441999997	7.050231100000019	go_punish	1.0	286.1773283000002	288.7148151	291.2557099000005	2.537486799999783	287.1798498999997	290.2314802000001	292.2647144999993	1.5349652000003289	1.0242297000004328	0.9628449000009596	n/a	1.0	n/a	1	0	44	1	go_punish	1	0	-1	1	0	0	0	n/a	n/a	-1	1.0	1.0	636.3388687999995	922.5161970999998	923.5187186999992	925.0536838999996	926.5703489999996	927.5945787	n/a	n/a	928.6035832999988	929.5664281999998	2020-04-24 16:17:29.779170	0.682320774849737	-1.29605132738797	-2.95028509777108	-3.03938453127549	-3.63260587262082	-2.95028509777108	-0.682320774849737	-2.95028509777108	-1.29605132738797	-2.95028509777108	-3.63260587262082	-2.23361556095644	-6.894319636020674	-5.157953983274525	-3.3935397155996716	-7.448614998727434	-10.82026465206144	-3.3935397155996716	-3.1390452984061405	-10.554062001840894	-3.6597423658202213	-7.397625603624337	-1.1538680952498608	1	missed	0.0
293.18969749999997	5.74233109999841	nogo_reward	0.4116013000002567	293.2650816000005	294.6906856000005	297.23571280000044	1.4256040000000212	294.27009670000007	296.2150598999997	298.2482048999992	0.420588900000439	1.020652900000755	0.7592077999996718	n/a	1.0	n/a	1	0	45	4	nogo_reward	1	0	1	0	1	0	0	n/a	n/a	0	0.4116013000002567	1.0	636.3388687999995	929.6039504	930.6089654999996	931.0295544	932.5539286999992	933.5745816	n/a	n/a	934.5870736999988	935.3462814999984	2020-04-24 16:17:29.779170	3.08263314363248	2.40350277859894	3.44311483641515	3.59840135832823	6.52574798004763	3.44311483641515	-3.08263314363248	2.40350277859894	3.44311483641515	6.52574798004763	3.44311483641515	-2.40350277859894	-4.494007267237931	-1.458399877287615	2.9998602185865586	-0.8108291091237136	-0.6619107993929889	2.9998602185865586	-3.3089325160486407	-1.078028924022183	3.4159783432157487	-2.0438377272543167	3.5852980685532594	1	missed	0.0
298.9664445999987	7.53015710000011	go_punish	1.0	299.0418286999992	301.825829899999	304.3752131000001	2.784001199999807	300.06116420000046	303.3426970999989	305.3798594999988	1.7646656999985453	1.0325160000012374	1.1921263000004956	n/a	1.0	n/a	1	0	46	1	go_punish	1	0	-1	1	0	0	1	n/a	n/a	-1	1.0	1.0	636.3388687999995	935.3806974999987	936.400033	938.1646986999986	939.6815658999984	940.7140818999997	n/a	n/a	941.7187282999984	942.9108545999989	2020-04-24 16:17:29.779170	0.657589346554633	-1.29605132738797	-3.28700968854708	-3.3668183558215	-3.94459903510172	-3.28700968854708	-0.657589346554633	-3.28700968854708	-1.29605132738797	-3.28700968854708	-3.94459903510172	-1.89689097018044	-6.919051064315778	-5.157953983274525	-3.7302643063756715	-7.7760488232734435	-11.132257814542339	-3.7302643063756715	-2.8023207076301406	-10.890786592616893	-3.9717355283011213	-7.734350194400337	-1.1538680952498608	1	missed	0.0
306.53632389999996	6.49893789999976	nogo_reward	0.2962236000003031	306.6117080000005	308.66910819999964	311.2166342999989	2.057400199999165	307.6239740000001	310.19198510000024	312.2258201000004	1.045134199999552	1.0246491999986347	0.8848257999998168	n/a	1.0	n/a	1	0	47	4	nogo_reward	0	1	0	0	1	0	1	n/a	n/a	1	0.2962236000003031	1.0	636.3388687999995	942.9505768	943.9628427999996	945.0079769999992	946.5308538999998	947.5555030999984	n/a	n/a	948.5646889	949.4495146999998	2020-04-24 16:17:29.779170	2.11458522290885	2.01321423789376	3.44311483641515	3.02065785171243	5.557700059324	3.44311483641515	-2.11458522290885	2.01321423789376	3.44311483641515	5.557700059324	3.44311483641515	19.83566383048294	-5.46205518796156	-1.8486884179927952	2.9998602185865586	-1.388572615739514	-1.629958720116619	2.9998602185865586	18.93023409303324	-2.046076844745813	3.4159783432157487	-2.434126267959497	3.5852980685532594	1	missed	0.0
313.0718812999985	6.448584700001447	nogo_punish	1.0	313.147265399999	314.81297239999924	317.33900949999963	1.665707000000225	314.1576406999992	316.3221529000002	318.35272970000005	0.6553317000000334	1.0168565999994144	1.2431204000004072	n/a	1.0	n/a	1	0	48	2	nogo_punish	1	-1	0	0	0	1	0	n/a	n/a	0	1.0	1.0	636.3388687999995	949.4861341999986	950.4965094999988	951.1518411999988	952.6610216999998	953.6778782999992	n/a	n/a	954.6915984999996	955.9347189	2020-04-24 16:17:29.779170	1.40338995949726	-1.5009366002915	-0.682741318145515	-1.20495504600057	-2.08613127764277	-0.682741318145515	-1.40338995949726	-0.682741318145515	-1.5009366002915	-0.682741318145515	-2.08613127764277	0.682741318145515	-6.173250451373151	-5.362839256178055	-1.1259959359741063	-5.614185513452513	-9.273790057083389	-1.1259959359741063	-0.2226884193041857	-8.286518222215328	-2.1132677708421714	-5.130081823998772	-1.3587533681533908	1	missed	0.0
319.5559319999993	7.559688600000186	nogo_reward	0.359399899998607	319.6313160999998	322.39274320000004	324.9392212999993	2.761427100000219	320.64100189999965	323.924906799999	325.94683629999963	1.7517413000003899	1.014314500000296	1.244168400000376	n/a	1.0	n/a	1	0	49	4	nogo_reward	1	0	1	0	1	0	1	n/a	n/a	0	0.359399899998607	1.0	636.3388687999995	955.9701848999994	956.9798706999992	958.7316119999996	960.2637755999986	961.2780900999988	n/a	n/a	962.2857050999992	963.5298734999996	2020-04-24 16:17:29.779170	8.18337893565066	5.13222483740571	3.44311483641515	5.98297513974081	11.6264937720658	3.44311483641515	-8.18337893565066	5.13222483740571	3.44311483641515	11.6264937720658	3.44311483641515	-5.13222483740571	0.6067385247802495	1.270322181519155	2.9998602185865586	1.573744672288866	4.438834992625181	2.9998602185865586	-6.037654574855411	4.022716867995987	3.4159783432157487	0.6848843315524533	3.5852980685532594	1	missed	0.0
327.1572340999992	7.7256171999997605	go_reward	0.2915877000014006	327.2326181999997	330.07373589999963	332.62326779999967	2.841117699999927	328.24742539999886	331.6065837999995	333.6342660999999	1.8263105000007727	1.0166840000001685	1.3239692999995896	n/a	1.0	n/a	1	0	50	3	go_reward	0	0	1	1	1	1	0	n/a	n/a	0	0.2915877000014006	1.0	636.3388687999995	963.5714869999993	964.5862941999984	966.4126046999992	967.945452599999	968.9621365999992	n/a	n/a	969.9731348999994	971.297104199999	2020-04-24 16:17:29.779170	30.5755273545525	15.0784208229592	0.0	15.0784208229592	30.5755273545525	0.0	-30.5755273545525	15.0784208229592	0.0	30.5755273545525	0.0	-15.0784208229592	22.998886943682088	11.216518167072646	-0.44325461782859144	10.669190355507258	23.38786857511188	-0.44325461782859144	-15.983850560408902	22.971750450482688	-0.02713649319940158	10.631080317105944	0.1421832321381092	1	missed	0.0
334.91799399999957	6.923622099999193	go_punish	0.2478527000002941	334.9933781000001	336.9634496999988	339.5124123000005	1.9700715999987324	335.9967457999993	338.48851809999906	340.5173885999992	0.9667038999995157	1.0238942000014504	1.3996116000000711	n/a	1.0	n/a	1	0	51	1	go_punish	0	-1	0	1	1	1	0	n/a	n/a	-1	0.2478527000002941	1.0	636.3388687999995	971.3322468999996	972.3356145999988	973.3023184999984	974.8273868999986	975.8512811	n/a	n/a	976.8562573999988	978.2558689999988	2020-04-24 16:17:29.779170	-0.635543781137403	-1.29605132738797	-3.57037377633206	-3.64166351508651	-4.20591755746946	-3.57037377633206	0.635543781137403	-1.29605132738797	-3.57037377633206	-4.20591755746946	-3.57037377633206	-3.88784933133955	-8.212184192007815	-5.157953983274525	-4.013628394160651	-8.050893982538454	-11.39357633691008	-4.013628394160651	-4.793279068789251	-11.809694461539273	-3.5975102695314614	-5.743391833241226	-3.4281905441939506	1	missed	0.0
341.88218679999954	7.591257799998743	go_reward	0.3483885000005102	341.95757090000006	344.48589679999884	347.04256910000004	2.5283258999987765	342.9610195000005	346.01893140000004	348.0518355999992	1.5248772999983657	1.0236376999999948	1.4969930999995995	n/a	1.0	n/a	1	0	52	3	go_reward	1	1	0	1	1	1	1	n/a	n/a	1	0.3483885000005102	1.0	636.3388687999995	978.2964396999996	979.2998883	980.8247655999984	982.3578001999996	983.3814378999996	n/a	n/a	984.3907043999988	985.8876974999984	2020-04-24 16:17:29.779170	25.7027609147186	12.6437809732563	0.0	12.6437809732563	25.7027609147186	0.0	-25.7027609147186	12.6437809732563	0.0	25.7027609147186	0.0	9.205097095120399	18.12612050384819	8.781878317369745	-0.44325461782859144	8.234550505804357	18.51510213527798	-0.44325461782859144	8.299667357670698	18.098984010648785	-0.02713649319940158	8.196440467403043	0.1421832321381092	1	missed	0.0
349.5083976999996	6.206567199998744	go_punish	1.0	349.5837818000001	350.95232589999966	353.4852761000001	1.3685440999995535	350.59438369999964	352.4689478	354.49606309999945	0.35794220000002497	1.0163283000000547	1.2942858999994087	n/a	1.0	n/a	1	0	53	1	go_punish	1	0	-1	1	0	0	1	n/a	n/a	-1	1.0	1.0	636.3388687999995	985.9226505999997	986.9332524999992	987.2911946999992	988.8078165999996	989.8241448999996	n/a	n/a	990.834931899999	992.1292177999984	2020-04-24 16:17:29.779170	1.46047612233007	-1.90173213787068	-3.57037377633206	-3.87276006645321	-5.03084989866212	-3.57037377633206	-1.46047612233007	-3.57037377633206	-1.90173213787068	-3.57037377633206	-5.03084989866212	-1.61352688239546	-6.116164288540341	-5.763634793757235	-4.013628394160651	-8.281990533905153	-12.218508678102738	-4.013628394160651	-2.5189566198451607	-11.174150680401873	-5.0579863918615215	-8.017714282185317	-1.7595489057325708	1	missed	0.0
355.7520188	5.959762599999408	nogo_punish	1.0	355.8274029000005	357.3028486000003	359.84039649999966	1.4754456999997956	356.83576729999925	358.8199482999988	360.85275270000045	0.4670813000010412	1.0204482000008284	0.9344127999994498	n/a	1.0	n/a	1	0	54	2	nogo_punish	1	-1	0	0	0	1	0	n/a	n/a	0	1.0	1.0	636.3388687999995	992.1662717	993.1746360999988	993.6417173999998	995.1588170999984	996.1792652999992	n/a	n/a	997.1916215	998.1260342999994	2020-04-24 16:17:29.779170	1.32870693935483	-1.5009366002915	-0.570696914658415	-1.01120012183944	-1.89940385401324	-0.570696914658415	-1.32870693935483	-0.570696914658415	-1.5009366002915	-0.570696914658415	-1.89940385401324	0.570696914658415	-6.247933471515581	-5.362839256178055	-1.0139515324870065	-5.420430589291383	-9.087062633453858	-1.0139515324870065	-0.3347328227912857	-8.174473818728227	-1.9265403472126417	-5.018037420511671	-1.3587533681533908	1	missed	0.0
361.7481928999987	6.561369099999865	nogo_reward	0.288181900001291	361.8235769999992	364.05514369999946	366.6010834999996	2.2315667000002577	362.8379267	365.58040959999926	367.609981399999	1.2172169999994367	1.0206739000003608	0.774964700000055	n/a	1.0	n/a	1	0	55	4	nogo_reward	1	0	1	0	1	0	0	n/a	n/a	0	0.288181900001291	1.0	636.3388687999995	998.1624457999987	999.1767954999996	1000.394012499999	1001.9192783999988	1002.9399522999992	n/a	n/a	1003.9488501999986	1004.7238148999986	2020-04-24 16:17:29.779170	6.37306879670994	4.29379957129468	3.44311483641515	5.0133599314659	9.81618363312509	3.44311483641515	-6.37306879670994	4.29379957129468	3.44311483641515	9.81618363312509	3.44311483641515	-4.29379957129468	-1.203571614160471	0.4318969154081249	2.9998602185865586	0.6041294640139565	2.628524853684472	2.9998602185865586	-5.19922930874438	2.212406729055278	3.4159783432157487	-0.15354093455857676	3.5852980685532594	1	missed	0.0
368.3461607999998	7.8809851999993725	nogo_reward	0.2791366999990714	368.4215449000003	371.3891874000001	373.9411818999996	2.9676424999997835	369.43576310000026	372.9215069999992	374.9546647999997	1.9534242999998241	1.019674900000382	1.3478652999999667	n/a	1.0	n/a	1	0	56	4	nogo_reward	1	0	1	0	1	0	0	n/a	n/a	0	0.2791366999990714	1.0	636.3388687999995	1004.7604136999998	1005.7746318999998	1007.7280561999996	1009.2603757999988	1010.2800506999992	n/a	n/a	1011.2935335999993	1012.6413988999992	2020-04-24 16:17:29.779170	4.87206461246761	3.59840135832823	3.44311483641515	4.20794969223376	8.31517944888276	3.44311483641515	-4.87206461246761	3.59840135832823	3.44311483641515	8.31517944888276	3.44311483641515	-3.59840135832823	-2.704575798402801	-0.26350129755832485	2.9998602185865586	-0.20128077521818355	1.1275206694421422	2.9998602185865586	-4.503831095777931	0.7114025448129482	3.4159783432157487	-0.8489391475250265	3.5852980685532594	1	missed	0.0
376.26316289999875	5.813435300000606	go_punish	0.7764526999999362	376.33854699999927	377.67970179999963	380.22880859999884	1.3411548000003677	377.3534872	379.20936280000024	381.2369053000002	0.32621459999961644	1.019445799998607	0.9150769999996555	n/a	1.0	n/a	1	0	57	1	go_punish	1	0	-1	1	1	1	0	n/a	n/a	0	0.7764526999999362	1.0	636.3388687999995	1012.6774157999988	1013.6923559999996	1014.0185705999992	1015.5482315999998	1016.5676773999984	n/a	n/a	1017.5757740999998	1018.4908510999994	2020-04-24 16:17:29.779170	-1.40589613760857	-1.90173213787068	-3.80922341640214	-4.06739956762725	-5.21511955401072	-3.80922341640214	1.40589613760857	-1.90173213787068	-3.80922341640214	-5.21511955401072	-3.80922341640214	1.90173213787068	-8.982536548478981	-5.763634793757235	-4.252478034230732	-8.476630035079193	-12.402778333451337	-4.252478034230732	0.9963024004209793	-12.818896458080532	-3.8363599096015415	-6.349072643723937	-3.6670401842640308	1	missed	0.0
382.11929119999877	7.387892700000521	go_reward	0.2383637999992061	382.1946752999993	384.8099500999997	387.35575529999926	2.6152748000004067	383.2030211	386.3301647999997	388.37299670000016	1.6069289999996954	1.0255904999995664	1.2095712999996522	n/a	1.0	n/a	1	0	58	3	go_reward	1	1	0	1	1	1	0	n/a	n/a	1	0.2383637999992061	1.0	636.3388687999995	1018.5335440999988	1019.5418898999995	1021.1488188999992	1022.6690335999992	1023.6946240999988	n/a	n/a	1024.7118654999997	1025.9214367999994	2020-04-24 16:17:29.779170	28.5291754012494	14.0630825212569	0.0	14.0630825212569	28.5291754012494	0.0	-28.5291754012494	14.0630825212569	0.0	28.5291754012494	0.0	7.785795547119799	20.95253499037899	10.201179865370346	-0.44325461782859144	9.653852053804957	21.341516621808783	-0.44325461782859144	6.8803658096700975	20.925398497179586	-0.02713649319940158	9.615742015403644	0.1421832321381092	1	missed	0.0
389.5446564999984	6.2132411000004595	nogo_punish	1.0	389.6200405999989	391.18416369999954	393.7177907000005	1.5641231000006428	390.62144929999886	392.70044079999934	394.72081799999955	0.5627144000006865	1.0173499000011361	1.1124636999998074	n/a	1.0	n/a	1	0	59	2	nogo_punish	0	0	-1	0	0	1	0	n/a	n/a	-1	1.0	1.0	636.3388687999995	1025.9589093999984	1026.9603180999984	1027.523032499999	1029.039309599999	1030.0566595	n/a	n/a	1031.059686799999	1032.172150499999	2020-04-24 16:17:29.779170	1.26654970245927	-1.5009366002915	-0.477856045241984	-0.850031620679328	-1.74440574770126	-0.477856045241984	-1.26654970245927	-0.477856045241984	-1.5009366002915	-0.477856045241984	-1.74440574770126	-4.7060446134855365	-6.310090708411141	-5.362839256178055	-0.9211106630705754	-5.259262088131272	-8.932064527141879	-0.9211106630705754	-5.611474350935238	-8.081632949311796	-1.7715422409006616	-4.92519655109524	-1.3587533681533908	1	missed	0.0
395.7935899999993	7.01045349999913	nogo_punish	0.3494300999991537	395.86897409999983	398.0529227999996	400.59319159999905	2.183948699999746	396.88552139999956	399.56985129999885	401.61200660000054	1.167401400000017	1.0233403000002	1.2674209999984214	n/a	1.0	n/a	1	0	60	2	nogo_punish	1	-1	0	0	1	0	0	n/a	n/a	-1	0.3494300999991537	1.0	636.3388687999995	1032.2078428999994	1033.224390199999	1034.3917915999991	1035.9087200999984	1036.9320603999986	n/a	n/a	1037.9508754	1039.2182963999985	2020-04-24 16:17:29.779170	-1.1819568037068	-1.5009366002915	-1.21899081972517	-1.53393697666275	-2.40094762343196	-1.21899081972517	1.1819568037068	-1.5009366002915	-1.21899081972517	-2.40094762343196	-1.21899081972517	-3.68296405843602	-8.758597214577211	-5.362839256178055	-1.6622454375537614	-5.943167444114694	-9.588606402872578	-1.6622454375537614	-4.588393795885721	-10.004724527501773	-1.2461273129245716	-5.948277106144756	-1.0768075875870609	1	missed	0.0
