onset	duration	trial_type	response_time	cueOnset	targetOnset	fbOnset	cueRT	firstfixOnset	secondfixOnset	waitOnset	firstfixdur	secondfixdur	waitdur	nback_fbOnset	nback_response_time	nback_targetOnset	block	wm	trial	cue	cond	is_common	outcome_go	outcome_nogo	key_correct	key_pressed	is_correct	key_correct_nback	key_pressed_nback	is_correct_nback	outcome	rt	rt_nback	time_scan	time_onset	time_isi1	time_circle	time_isi2	time_feedback	time_same	time_correct	time_iti	time_done	timestamp_scan	DV	Qgo	Qnogo	SV	Wgo	Wnogo	mDV	Qchosen	Qunchosen	Wchosen	Wunchosen	PE	DVC	QgoC	QnogoC	SVC	WgoC	WnogoC	PEC	WchosenC	WunchosenC	QchosenC	QunchosenC	run	outcome_nback	nback_targetResp
0.0	8.93414940009825	go_punish	0.3250108999200165	0.07737119984813035	2.488344799960032	5.033934999955875	2.4109736001119018	1.0818192998412997	4.0204289997927845	8.07974229985848	1.4065255001187325	1.0135060001630904	0.931778300087899	7.061015099985525	1.0	6.053457499947399	1	1	1	3	go_punish	0	-1	0	1	1	1	0	n/a	0.0	0	0.3250108999200165	1.0	359.0006362001877	359.07800740003586	360.082455500029	361.48898100014776	363.0210651999805	364.0345712001436	365.0540937001351	366.06165130017325	367.0803785000462	368.0121568001341	2020-06-02 10:21:19.280729	-0.643057239426247	0.0	0.0	0.0	-0.643057239426247	0.0	0.643057239426247	0.0	0.0	-0.643057239426247	0.0	-5.8077021486331	-7.126773012548828	-2.724826384714672	-2.1832734293741165	-5.554004331077278	-2.967254955929018	-2.1832734293741165	-6.625156430067263	-6.13865069892598	0.9881223136228464	-5.637353257529363	0.7292534434405747	1	missed	0.0
9.00544450012967	9.343113399809283	nogo_reward	0.2298425999470055	9.0828156999778	11.820295399986207	14.356095899827778	2.7374797000084072	10.09203049982898	13.340366299962682	17.400584999937564	1.7282649001572281	1.0157295998650966	1.0253440998495194	16.39164839987643	0.5057725000660866	15.37355659995228	1	1	2	2	nogo_reward	1	0	1	0	1	0	0	0.0	1.0	0	0.2298425999470055	0.5057725000660866	359.0006362001877	368.0834519001655	369.0926667000167	370.82093160017394	372.3410025001504	373.3567321000155	374.37419280014	375.39228460006416	376.4012212001253	377.4265652999748	2020-06-02 10:21:19.280729	-0.643057239426247	0.0	0.0	0.0	-0.643057239426247	0.0	0.643057239426247	0.0	0.0	-0.643057239426247	0.0	0.0	-7.126773012548828	-2.724826384714672	-2.1832734293741165	-5.554004331077278	-2.967254955929018	-2.1832734293741165	-0.8174542814341625	-6.13865069892598	0.9881223136228464	-5.637353257529363	0.7292534434405747	1	correct	1.0
18.41426290012896	9.861559099983367	nogo_punish	0.3229038000572473	18.49163409997709	21.314406699966696	23.830170099856332	2.822772599989605	19.492334499955177	22.824746599886566	26.88535759993829	1.8220722000115188	1.0054234999697655	1.4678356000221697	25.87943179998547	0.9995418998878448	24.848776099970564	1	1	3	4	nogo_punish	0	0	-1	0	1	0	0	0.0	1.0	0	0.3229038000572473	0.9995418998878448	359.0006362001877	377.4922703001648	378.4929707001429	380.3150429001544	381.8253828000743	382.83080630004406	383.8494123001583	384.8800680001732	385.885993800126	387.3538294001482	2020-06-02 10:21:19.280729	-0.643057239426247	0.0	0.0	0.0	-0.643057239426247	0.0	0.643057239426247	0.0	0.0	-0.643057239426247	0.0	0.0	-7.126773012548828	-2.724826384714672	-2.1832734293741165	-5.554004331077278	-2.967254955929018	-2.1832734293741165	-0.8174542814341625	-6.13865069892598	0.9881223136228464	-5.637353257529363	0.7292534434405747	1	correct	1.0
28.30964550003415	8.144110700115505	nogo_reward	1.0	28.38701669988228	29.729268399998546	32.25587989995256	1.3422517001162646	29.403162200003862	31.231201899936423	35.31311269989237	0.32610619999468327	1.024678000016138	1.2180147001054138	34.30308989994228	0.6852164000738412	33.26713899988681	1	1	4	2	nogo_reward	1	0	1	0	0	1	1	0.0	0.0	1	1.0	0.6852164000738412	359.0006362001877	387.38765290007	388.4037984001916	388.7299046001863	390.23183810012415	391.2565161001403	392.26777520007454	393.30372610013	394.3137489000801	395.5317636001855	2020-06-02 10:21:19.280729	0.643057239426247	0.0	0.0	0.0	-0.643057239426247	0.0	-0.643057239426247	0.0	0.0	0.0	-0.643057239426247	18.3854282358397	-5.840658533696335	-2.724826384714672	-2.1832734293741165	-5.554004331077278	-2.967254955929018	-2.1832734293741165	17.567973954405538	-5.495593459499733	0.3450650741965994	-5.637353257529363	0.7292534434405747	1	wrong	1.0
36.489628199953586	8.496159100206569	nogo_reward	1.0	36.566999399801716	38.34120839997195	40.87188869994134	1.7742090001702309	37.57167749991635	39.85774479992688	43.93200079980306	0.7695309000555994	1.01414390001446	1.1311577002052218	42.91811839980073	0.8087164000608027	41.896596099948454	1	1	5	2	nogo_reward	1	0	1	0	0	1	0	0.0	1.0	1	1.0	0.8087164000608027	359.0006362001877	395.56763559998944	396.5723137001041	397.3418446001597	398.8583810001146	399.87252490012906	400.8972323001362	401.91875459998846	402.9326369999908	404.063794700196	2020-06-02 10:21:19.280729	2.98498035444035	0.0	3.91430252314609	3.91430252314609	0.929322168705748	3.91430252314609	-2.98498035444035	3.91430252314609	0.0	3.91430252314609	0.929322168705748	14.47112571269361	-3.498735418682231	-2.724826384714672	1.7310290937719737	-1.6397018079311882	-1.3948755477970227	1.7310290937719737	13.653671431259447	-1.5812909363536427	1.9174444823285945	-1.723050734383273	0.7292534434405747	1	correct	1.0
45.0201077000238	9.684031000128016	nogo_punish	1.0	45.09747889987193	47.81566899991594	50.34742120001465	2.718190100044012	46.114081199979466	49.32389879995026	53.39029789995402	1.7015877999364761	1.0235224000643939	1.3912120000459254	52.38291599997319	0.9304178999736904	51.36092889984138	1	1	6	4	nogo_punish	0	0	-1	0	0	1	0	0.0	1.0	-1	1.0	0.9304178999736904	359.0006362001877	404.09811510005966	405.1147174001672	406.81630520010367	408.324535000138	409.3480574002024	410.3615651000291	411.3835522001609	412.39093410014175	413.7821461001877	2020-06-02 10:21:19.280729	0.643057239426247	0.0	0.0	0.0	-0.643057239426247	0.0	-0.643057239426247	0.0	0.0	0.0	-0.643057239426247	-5.8077021486331	-5.840658533696335	-2.724826384714672	-2.1832734293741165	-5.554004331077278	-2.967254955929018	-2.1832734293741165	-6.625156430067263	-5.495593459499733	0.3450650741965994	-5.637353257529363	0.7292534434405747	1	correct	1.0
54.76982140005566	8.941453699953854	go_reward	0.337228300049901	54.84719259990379	56.69793729996309	59.22988599981181	1.8507447000592947	55.856387299951166	58.2235648999922	62.323394199833274	0.8415500000119209	1.0063210998196155	1.4652521000243723	61.3082723999396	0.5468290999997407	60.2465116998647	1	1	7	1	go_reward	0	0	1	1	1	1	0	0.0	1.0	0	0.337228300049901	0.5468290999997407	359.0006362001877	413.8478288000915	414.8570235001389	415.6985735001508	417.2242011001799	418.23052219999954	419.2471479000524	420.3089086001273	421.324030400021	422.7892825000454	2020-06-02 10:21:19.280729	-0.643057239426247	0.0	0.0	0.0	-0.643057239426247	0.0	0.643057239426247	0.0	0.0	-0.643057239426247	0.0	0.0	-7.126773012548828	-2.724826384714672	-2.1832734293741165	-5.554004331077278	-2.967254955929018	-2.1832734293741165	-0.8174542814341625	-6.13865069892598	0.9881223136228464	-5.637353257529363	0.7292534434405747	1	correct	1.0
63.750222600065115	8.867100500036088	go_punish	0.5889417000580579	63.827593799913245	66.18831359990872	68.72023879992776	2.360719799995479	64.83125659986399	67.71137719997205	71.76225609984249	1.3570570000447333	1.0088615999557078	0.9324382001068443	70.7468531997875	1.0	69.73802589997649	1	1	8	3	go_punish	1	0	-1	1	1	1	0	n/a	0.0	-1	0.5889417000580579	1.0	359.0006362001877	422.828230000101	423.8318928000517	425.18894980009645	426.7120134001598	427.7208750001155	428.7386621001642	429.7474893999752	430.7628923000302	431.69533050013706	2020-06-02 10:21:19.280729	-0.643057239426247	0.0	0.0	0.0	-0.643057239426247	0.0	0.643057239426247	0.0	0.0	-0.643057239426247	0.0	0.0	-7.126773012548828	-2.724826384714672	-2.1832734293741165	-5.554004331077278	-2.967254955929018	-2.1832734293741165	-0.8174542814341625	-6.13865069892598	0.9881223136228464	-5.637353257529363	0.7292534434405747	1	missed	0.0
72.65368880005553	9.41893439996062	nogo_punish	1.0	72.73105999990366	75.16004509991035	77.69284379994497	2.4289851000066847	73.73988989996724	76.6732663998846	80.7343487998005	1.4201551999431103	1.0195774000603706	1.4156456000637831	79.73346029990353	0.619811600074172	78.70852719992399	1	1	9	4	nogo_punish	1	-1	0	0	0	1	0	0.0	1.0	0	1.0	0.619811600074172	359.0006362001877	431.7316962000914	432.74052610015497	434.1606813000981	435.6739026000723	436.6934800001327	437.7091634001117	438.73409650009125	439.7349849999882	441.150630600052	2020-06-02 10:21:19.280729	-0.0771903090757076	0.0	-1.14951393821883	-1.14951393821883	-1.07232362914312	-1.14951393821883	0.0771903090757076	-1.14951393821883	0.0	-1.14951393821883	-1.07232362914312	1.14951393821883	-6.560906082198289	-2.724826384714672	-3.3327873675929465	-6.703518269296108	-3.3965213456458905	-3.3327873675929465	0.3320596567846674	-6.645107397718563	-0.08420131552027355	-6.786867195748194	0.7292534434405747	1	correct	1.0
82.11003470001742	8.289280400145799	nogo_reward	0.3204081000294536	82.18740589986555	83.56897999998188	86.11843309993856	1.3815741001163246	83.20927009987645	85.09794529993087	89.13121789996518	0.3597099001054289	1.020487800007686	1.3454684000461725	88.13363489997573	0.6626393999904394	87.119775199797	1	1	10	2	nogo_reward	1	0	1	0	1	0	0	0.0	1.0	0	0.3204081000294536	0.6626393999904394	359.0006362001877	441.1880421000533	442.2099063000642	442.5696162001696	444.0985815001186	445.1190693001263	446.12041139998473	447.13427110016346	448.1318541001529	449.4773225001991	2020-06-02 10:21:19.280729	-4.72978797539224	0.0	6.80389151156225	6.80389151156225	2.07410353617001	6.80389151156225	4.72978797539224	0.0	6.80389151156225	2.07410353617001	6.80389151156225	0.0	-11.213503748514821	-2.724826384714672	4.620618082188133	1.2498871804849712	-0.25009418033276054	4.620618082188133	-0.8174542814341625	-3.4214899233297227	7.792013825185096	-5.637353257529363	7.533144955002824	1	correct	1.0
90.43484480003826	9.515190199948847	nogo_punish	1.0	90.5122159998864	92.98844269989058	95.51771970000118	2.47622670000419	91.52882409980515	94.49789859983139	98.55699489987455	1.4596186000854345	1.0198211001697928	1.4704112999606878	97.55690709990449	0.9689070999156684	96.53507589991204	1	1	11	4	nogo_punish	1	-1	0	0	0	1	1	0.0	0.0	0	1.0	0.9689070999156684	359.0006362001877	449.5128522000741	450.5294602999929	451.9890789000783	453.4985348000191	454.5183559001889	455.5357121000998	456.5575433000922	457.5576311000623	459.02804240002297	2020-06-02 10:21:19.280729	0.092343245587498	0.0	-0.869427270681461	-0.869427270681461	-0.961770516268959	-0.869427270681461	-0.092343245587498	-0.869427270681461	0.0	-0.869427270681461	-0.961770516268959	0.869427270681461	-6.391372527535083	-2.724826384714672	-3.0527007000555777	-6.42343160175874	-3.28596823277173	-3.0527007000555777	0.05197298924729843	-6.365020730181194	0.026351797353887374	-6.506780528210824	0.7292534434405747	1	wrong	1.0
99.99092310015112	8.735113399801833	nogo_reward	1.0	100.06829429999925	101.74792329990305	104.28209809982218	1.679628999903798	101.08339789998718	103.26457979995757	107.31572659988888	0.664525399915874	1.017518299864605	1.4876810999122085	106.30871909996495	0.6959979999810457	105.29628509981558	1	1	12	2	nogo_reward	1	0	1	0	0	1	1	0.0	0.0	1	1.0	0.6959979999810457	359.0006362001877	459.068930500187	460.0840341001749	460.7485595000908	462.2652160001453	463.2827343000099	464.2969213000033	465.3093553001527	466.3163628000766	467.8040438999888	2020-06-02 10:21:19.280729	5.45612357489685	0.0	6.80389151156225	5.05829112423962	1.3477679366654	6.80389151156225	-5.45612357489685	6.80389151156225	0.0	6.80389151156225	1.3477679366654	11.581536724277452	-1.0275921982257312	-2.724826384714672	4.620618082188133	-0.4957132068376584	-0.9764297798373707	4.620618082188133	10.76408244284329	1.3082980520625167	2.3358902502882466	1.1665382540328864	0.7292534434405747	1	wrong	1.0
108.76136520016007	8.530869799898937	nogo_punish	1.0	108.8387364000082	110.54158199997619	113.07733049988747	1.7028455999679863	109.85428979992867	112.05686339992099	116.12995360000059	0.6872922000475228	1.0204670999664813	1.2396525999065489	115.12370649981312	0.5364107999484986	114.0950546998065	1	1	13	4	nogo_punish	1	-1	0	0	0	1	1	1.0	1.0	0	1.0	0.5364107999484986	359.0006362001877	467.83937260019593	468.8549260001164	469.5422182001639	471.0574996001087	472.0779667000752	473.0956908999942	474.12434270000085	475.1305898001883	476.37024240009487	2020-06-02 10:21:19.280729	0.215272195911184	0.0	-0.667911147298686	-0.667911147298686	-0.883183343209869	-0.667911147298686	-0.215272195911184	-0.667911147298686	0.0	-0.667911147298686	-0.883183343209869	0.667911147298686	-6.268443577211397	-2.724826384714672	-2.8511845766728023	-6.221915478375965	-3.20738105971264	-2.8511845766728023	-0.1495431341354766	-6.163504606798419	0.1049389704129774	-6.3052644048280495	0.7292534434405747	1	correct	1.0
117.32834720006213	8.016938799992204	nogo_reward	0.3350406000390649	117.40571839991026	118.87525139981881	121.41795009979978	1.4695329999085516	118.4136065999046	120.39762279996648	124.4520281997975	0.46164479991421103	1.0203272998332977	0.9706290001049638	123.44051909982227	1.0	122.4320682999678	1	1	14	2	nogo_reward	1	0	1	0	1	0	1	n/a	0.0	1	0.3350406000390649	1.0	359.0006362001877	476.406354600098	477.4142428000923	477.87588760000654	479.3982590001542	480.4185862999875	481.4327045001555	482.44115530001	483.4526643999852	484.4232934000902	2020-06-02 10:21:19.280729	-6.563695633217	0.0	8.97259364738572	7.73467384165332	2.40889801416872	8.97259364738572	6.563695633217	0.0	8.97259364738572	2.40889801416872	8.97259364738572	0.0	-13.047411406339581	-2.724826384714672	6.7893202180116035	2.180669510576042	0.08470029766594944	6.7893202180116035	-0.8174542814341625	-3.0866954453310127	9.960715961008566	-5.637353257529363	9.701847090826295	1	missed	0.0
125.38113979995256	8.223134600091669	go_reward	1.0	125.4585109998007	127.33101909980178	129.85979709983803	1.8725081000010846	126.47299049980938	128.84060359979048	132.92033969983459	0.8580285999923944	1.0191935000475496	0.7613059000577778	131.90092529985122	0.8602793999016285	130.87809129990637	1	1	15	1	go_reward	1	1	0	1	0	0	0	0.0	1.0	0	1.0	0.8602793999016285	359.0006362001877	484.4591471999884	485.4736266999971	486.3316552999895	487.8412397999782	488.86043330002576	489.8787275000941	490.90156150003895	491.9209759000223	492.6822818000801	2020-06-02 10:21:19.280729	0.643057239426247	0.0	0.0	0.0	-0.643057239426247	0.0	-0.643057239426247	0.0	0.0	0.0	-0.643057239426247	0.0	-5.840658533696335	-2.724826384714672	-2.1832734293741165	-5.554004331077278	-2.967254955929018	-2.1832734293741165	-0.8174542814341625	-5.495593459499733	0.3450650741965994	-5.637353257529363	0.7292534434405747	1	correct	1.0
133.6591938000638	9.078724399907514	nogo_punish	1.0	133.73656499991193	136.3181386999786	138.84734619990923	2.581573700066656	134.74772299989127	137.83499479992315	141.89817029982805	1.5704157000873238	1.0123513999860734	0.9171190999913961	140.89516809978522	0.3729526000097394	139.8663392998278	1	1	16	4	nogo_punish	1	-1	0	0	0	1	0	0.0	1.0	0	1.0	0.3729526000097394	359.0006362001877	492.73720120009966	493.748359200079	495.3187749001663	496.8356310001109	497.84798240009695	498.86697550001554	499.89580429997295	500.8988065000158	501.8159256000072	2020-06-02 10:21:19.280729	0.306173191722137	0.0	-0.520093936602357	-0.520093936602357	-0.826267128324493	-0.520093936602357	-0.306173191722137	-0.520093936602357	0.0	-0.520093936602357	-0.826267128324493	0.520093936602357	-6.177542581400444	-2.724826384714672	-2.7033673659764736	-6.074098267679635	-3.1504648448272636	-2.7033673659764736	-0.2973603448318055	-6.01568739610209	0.1618551852983534	-6.15744719413172	0.7292534434405747	1	correct	1.0
142.77436379995197	9.541641300078481	go_reward	0.2482131998986005	142.8517349998001	145.40890449984	147.96108639985323	2.5571695000398904	143.86075249989517	146.9403531998396	151.0088201998733	1.548151999944821	1.0207332000136375	1.384556100005284	149.99561599991284	0.4356712999287992	148.968694599811	1	1	17	1	go_reward	1	1	0	1	1	1	1	1.0	1.0	1	0.2482131998986005	0.4356712999287992	359.0006362001877	501.85237119998783	502.8613887000829	504.4095407000277	505.9409894000273	506.96172260004096	507.9693307999987	508.99625220010057	510.009456400061	511.3940125000663	2020-06-02 10:21:19.280729	-0.643057239426247	0.0	0.0	0.0	-0.643057239426247	0.0	0.643057239426247	0.0	0.0	-0.643057239426247	0.0	18.3854282358397	-7.126773012548828	-2.724826384714672	-2.1832734293741165	-5.554004331077278	-2.967254955929018	-2.1832734293741165	17.567973954405538	-6.13865069892598	0.9881223136228464	-5.637353257529363	0.7292534434405747	1	correct	1.0
152.35378280002624	9.155927200103179	nogo_reward	0.6574305999092758	152.43115399987437	154.76791149983183	157.31369729992002	2.336757499957457	153.43870890000835	156.28925409982912	160.3453385999892	1.3292025998234749	1.0244432000909	1.2417425999883562	159.33496449980885	1.0	158.3263522000052	1	1	18	2	nogo_reward	0	1	0	0	1	0	0	n/a	0.0	0	0.6574305999092758	1.0	359.0006362001877	511.4317902000621	512.4393451001961	513.7685477000196	515.2898903000169	516.3143335001078	517.3269884001929	518.3356006999966	519.3459748001769	520.5877174001653	2020-06-02 10:21:19.280729	-1.87063773892529	3.91430252314609	8.97259364738572	9.73023476089552	7.10195590846043	8.97259364738572	1.87063773892529	3.91430252314609	8.97259364738572	7.10195590846043	8.97259364738572	14.47112571269361	-8.35435351204787	1.1894761384314183	6.7893202180116035	4.176230429818242	4.777758191957659	6.7893202180116035	13.653671431259447	1.606362448960697	9.960715961008566	-1.723050734383273	9.701847090826295	1	missed	0.0
161.54931180016138	8.99683989980258	go_punish	0.815599599853158	161.6266830000095	164.25551139982417	166.8083501998335	2.6288283998146653	162.64232859993353	165.7877913999837	169.8621091998648	1.6131827998906374	1.0205587998498231	0.7614136999472976	168.8548575998284	0.7839987000916153	167.82629999984056	1	1	19	3	go_punish	1	0	-1	1	1	1	0	0.0	1.0	0	0.815599599853158	0.7839987000916153	359.0006362001877	520.6273192001972	521.6429648001213	523.2561476000119	524.7884276001714	525.8089864000212	526.8269362000283	527.8554938000161	528.8627454000525	529.6241590999998	2020-06-02 10:21:19.280729	-2.22183756736194	-1.14951393821883	0.0	-1.14951393821883	-2.22183756736194	0.0	2.22183756736194	-1.14951393821883	0.0	-2.22183756736194	0.0	1.14951393821883	-8.70555334048452	-3.874340322933502	-2.1832734293741165	-6.703518269296108	-4.546035283864711	-2.1832734293741165	0.3320596567846674	-7.717431026861673	0.9881223136228464	-6.786867195748194	0.7292534434405747	1	correct	1.0
170.58275940013118	9.455256699817255	nogo_reward	1.0	170.6601305999793	173.15867559984326	175.67519899993204	2.4985449998639524	171.6746565999929	174.65565510001034	178.7115296998527	1.4840189998503774	1.0195438999217004	1.4038575999438763	177.70009539998136	0.4935832000337541	176.6913640999701	1	1	20	2	nogo_reward	0	1	0	0	0	1	1	0.0	0.0	0	1.0	0.4935832000337541	359.0006362001877	529.660766800167	530.6752928001806	532.159311800031	533.6562913001981	534.6758352001198	535.6920003001578	536.7007316001691	537.7121659000404	539.1160234999843	2020-06-02 10:21:19.280729	3.88759828527946	2.88958898841615	8.97259364738572	7.328740132986	5.08499536210626	8.97259364738572	-3.88759828527946	8.97259364738572	2.88958898841615	8.97259364738572	5.08499536210626	-8.97259364738572	-2.596117487843121	0.16476260370147822	6.7893202180116035	1.7747358019087214	2.760797645603489	6.7893202180116035	-9.790047928819883	3.477000187885987	6.073117675729106	3.3352403898563567	3.618842431856725	1	wrong	1.0
180.07599140005186	8.972294599981979	nogo_reward	1.0	180.1533625999	182.6028490997851	185.13041969994083	2.449486499885097	181.16569880000316	184.10493959998712	188.17014629999176	1.4371502997819334	1.025480099953711	0.9555108998902142	187.15650209994055	0.3689288001041859	186.1434080998879	1	1	21	2	nogo_reward	1	0	1	0	0	1	0	0.0	1.0	1	1.0	0.3689288001041859	359.0006362001877	539.1539988000877	540.1663350001909	541.6034852999728	543.1055758001748	544.1310559001286	545.1440443000756	546.1571383001283	547.1707825001795	548.1262934000697	2020-06-02 10:21:19.280729	2.33189837511851	2.88958898841615	6.70996030692338	5.60289800520193	4.37806193180487	6.70996030692338	-2.33189837511851	6.70996030692338	2.88958898841615	6.70996030692338	4.37806193180487	11.675467928916321	-4.151817398004072	0.16476260370147822	4.526686877549263	0.04889367412465173	2.0538642153020996	4.526686877549263	10.858013647482158	1.2143668474236469	5.366184245427717	1.0726070493940165	3.618842431856725	1	correct	1.0
189.08314130012877	9.107076699845493	nogo_punish	1.0	189.1605124999769	191.68085130001418	194.21439499990083	2.5203388000372797	190.165308999829	193.1964937997982	197.2562520999927	1.5155423001851887	1.0179012001026422	1.0113370998296887	196.24163569998927	0.7588256001472473	195.2286873999983	1	1	22	4	nogo_punish	0	0	-1	0	0	1	0	0.0	1.0	-1	1.0	0.7588256001472473	359.0006362001877	548.1611487001646	549.1659452000167	550.6814875002019	552.1971299999859	553.2150312000886	554.229323600186	555.242271900177	556.2568883001804	557.2682254000101	2020-06-02 10:21:19.280729	0.374499458819605	0.0	-0.409903456880606	-0.409903456880606	-0.784402915700211	-0.409903456880606	-0.374499458819605	-0.409903456880606	0.0	-0.409903456880606	-0.784402915700211	-5.397798691752494	-6.1092163143029765	-2.724826384714672	-2.5931768862547226	-5.963907787957885	-3.1086006322029816	-2.5931768862547226	-6.215252973186657	-5.905496916380339	0.20371939792263538	-6.047256714409969	0.7292534434405747	1	correct	1.0
198.22655449993908	8.819865600205958	nogo_reward	1.0	198.30392569978721	200.08124179998413	202.60399799980223	1.7773161001969129	199.31118469987996	201.58583639981225	205.64524769992568	0.7700571001041681	1.0181615999899805	1.4785436000674963	204.63422749983147	0.6568223999347538	203.61324069998227	1	1	23	2	nogo_reward	1	0	1	0	0	1	1	0.0	0.0	1	1.0	0.6568223999347538	359.0006362001877	557.3045618999749	558.3118209000677	559.0818780001719	560.5864726	561.60463419999	562.61387690017	563.6348637000192	564.6458839001134	566.1244275001809	2020-06-02 10:21:19.280729	3.5706103224035	2.88958898841615	9.00934790830284	8.2556373082309	5.43873758589934	9.00934790830284	-3.5706103224035	9.00934790830284	2.88958898841615	9.00934790830284	5.43873758589934	9.376080327536862	-2.913105450719081	0.16476260370147822	6.826074478928723	2.701632977153622	3.1145398693965696	6.826074478928723	8.558626046102699	3.5137544488031063	6.426859899522187	3.371994650773476	3.618842431856725	1	wrong	1.0
207.08700800011866	8.39503200002946	go_punish	0.3522867998108268	207.1643791999668	208.4539442998357	211.01694739982486	1.2895650998689234	208.17411339981481	209.99685429991223	214.0695654998999	0.2798309000208974	1.0200930999126285	1.489845700096339	213.06359939998947	0.5455081998370588	212.02677869983017	1	1	24	3	go_punish	1	0	-1	1	1	1	0	0.0	1.0	0	0.3522867998108268	0.5455081998370588	359.0006362001877	566.1650154001545	567.1747496000025	567.4545805000234	568.9974905001	570.0175836000126	571.0274149000179	572.0642356001772	573.0702017000876	574.560047400184	2020-06-02 10:21:19.280729	-1.83119778695042	-0.869427270681461	0.0	-0.869427270681461	-1.83119778695042	0.0	1.83119778695042	-0.869427270681461	0.0	-1.83119778695042	0.0	0.869427270681461	-8.314913560073002	-3.594253655396133	-2.1832734293741165	-6.42343160175874	-4.155395503453191	-2.1832734293741165	0.05197298924729843	-7.326791246450153	0.9881223136228464	-6.506780528210824	0.7292534434405747	1	correct	1.0
215.51745330006815	8.61956449993886	go_reward	0.2754084998741746	215.59482449991629	217.65982539998367	220.20498989988118	2.065000900067389	216.60956289991736	219.1932224999182	223.25854850001633	1.0502625000663102	1.0117673999629915	0.9558404998388141	222.2425793998409	0.4359728000126779	221.2172322999686	1	1	25	1	go_reward	1	1	0	1	1	1	0	0.0	1.0	1	0.2754084998741746	0.4359728000126779	359.0006362001877	574.595460700104	575.6101991001051	576.6604616001714	578.1938587001059	579.2056261000689	580.2178685001563	581.2432156000286	582.2591847002041	583.2150252000429	2020-06-02 10:21:19.280729	4.84362469185184	3.91430252314609	0.0	3.91430252314609	4.84362469185184	0.0	-4.84362469185184	3.91430252314609	0.0	4.84362469185184	0.0	14.47112571269361	-1.6400910812707412	1.1894761384314183	-2.1832734293741165	-1.6397018079311882	2.5194269753490692	-2.1832734293741165	13.653671431259447	-0.6519687676478929	0.9881223136228464	-1.723050734383273	0.7292534434405747	1	correct	1.0
224.17298740008846	8.854516000021249	go_reward	0.3492299001663923	224.2503585999366	226.52993059996516	229.0685178998392	2.2795720000285655	225.25696739996783	228.04572089994326	232.0991668999195	1.2729631999973208	1.0227969998959452	1.0057077000383288	231.09978259983473	0.4392687999643385	230.07594769983552	1	1	26	1	go_reward	1	1	0	1	1	1	0	0.0	1.0	1	0.3492299001663923	0.4392687999643385	359.0006362001877	583.2509948001243	584.2576036001556	585.5305668001529	587.046357100131	588.0691541000269	589.0765839000233	590.1004188000225	591.0998031001072	592.1055108001456	2020-06-02 10:21:19.280729	8.87799504773226	6.80389151156225	0.0	6.80389151156225	8.87799504773226	0.0	-8.87799504773226	6.80389151156225	0.0	8.87799504773226	0.0	11.581536724277452	2.394279274609678	4.079065126847578	-2.1832734293741165	1.2498871804849712	6.553797331229489	-2.1832734293741165	10.76408244284329	3.3824015882325265	0.9881223136228464	1.1665382540328864	0.7292534434405747	1	correct	1.0
233.06312369997613	8.728249000152573	nogo_punish	1.0	233.14049489982426	234.9390214998275	237.47666539996862	1.7985266000032425	234.14957389980555	236.4554904999677	240.51360749988817	0.7894476000219584	1.021174900000915	1.3551364000886679	239.50679009989835	0.6383663001470268	238.4848658000119	1	1	27	4	nogo_punish	1	-1	0	0	0	1	0	0.0	1.0	0	1.0	0.6383663001470268	359.0006362001877	592.141131100012	593.1502100999933	593.9396577000152	595.4561267001554	596.4773016001564	597.4855020001996	598.5074263000861	599.5142437000759	600.8693801001646	2020-06-02 10:21:19.280729	-0.29366036475699	0.0	-1.47612438238261	-1.47612438238261	-1.18246401762562	-1.47612438238261	0.29366036475699	-1.47612438238261	0.0	-1.47612438238261	-1.18246401762562	1.47612438238261	-6.777376137879571	-2.724826384714672	-3.6593978117567265	-7.030128713459888	-3.5066617341283908	-3.6593978117567265	0.6586701009484475	-6.971717841882343	-0.19434170400277362	-7.113477639911974	0.7292534434405747	1	correct	1.0
241.82755229994655	9.571788300061598	nogo_punish	1.0	241.90492349979468	244.6955701999832	247.21764369984157	2.7906467001885176	242.91969709983096	246.1978686999064	250.2643112000078	1.7758731001522392	1.01977499993518	1.212400599848479	249.25742279994301	0.4532616999931633	248.23495239997283	1	1	28	4	nogo_punish	1	-1	0	0	0	1	0	0.0	1.0	0	1.0	0.4532616999931633	359.0006362001877	600.9055596999824	601.9203333000187	603.6962064001709	605.1985049000941	606.2182799000293	607.2355886001606	608.2580590001307	609.2649474001955	610.477348000044	2020-06-02 10:21:19.280729	-0.0839205840746579	0.0	-1.13229742912227	-1.13229742912227	-1.04837684504762	-1.13229742912227	0.0839205840746579	-1.13229742912227	0.0	-1.13229742912227	-1.04837684504762	1.13229742912227	-6.567636357197239	-2.724826384714672	-3.3155708584963866	-6.686301760199548	-3.372574561550391	-3.3155708584963866	0.3148431476881075	-6.627890888622003	-0.06025453142477366	-6.769650686651634	0.7292534434405747	1	correct	1.0
251.43624740000814	8.556938500143588	nogo_reward	1.0	251.51361859985627	253.4508804997895	255.98361129988916	1.937261899933219	252.52907989989035	254.96003949991427	259.02020609984174	0.921800599899143	1.0235717999748886	1.0503510001581162	258.01875289995223	0.8056204000022262	256.9976390998345	1	1	29	2	nogo_reward	1	0	1	0	0	1	0	0.0	1.0	1	1.0	0.8056204000022262	359.0006362001877	610.514254800044	611.5297161000781	612.4515166999772	613.960675700102	614.9842475000769	615.9982753000222	617.01938910014	618.0208423000295	619.0711933001876	2020-06-02 10:21:19.280729	4.51799828864973	2.88958898841615	10.7260097029924	10.2093039443856	6.20801141434265	10.7260097029924	-4.51799828864973	10.7260097029924	2.88958898841615	10.7260097029924	6.20801141434265	7.659418532847301	-1.9657174844728509	0.16476260370147822	8.542736273618283	4.655299613308321	3.883813697839879	8.542736273618283	6.841964251413138	5.230416243492667	7.196133727965496	5.0886564454630365	3.618842431856725	1	correct	1.0
260.0298059999477	8.789238800061867	nogo_punish	1.0	260.10717719979584	262.12837719987147	264.65772379981354	2.0212000000756234	261.12139369989745	263.64472409989685	267.69774739979766	1.0069834999740124	1.0129996999166906	1.1986686000600457	266.6836494000163	0.3524688999168575	265.670695199864	1	1	30	4	nogo_punish	1	-1	0	0	0	1	1	0.0	0.0	0	1.0	0.3524688999168575	359.0006362001877	619.1078133999836	620.1220299000852	621.1290134000592	622.6453603000846	623.6583600000013	624.6713314000517	625.684285600204	626.6983835999854	627.8970522000454	2020-06-02 10:21:19.280729	0.0703923872343086	0.0	-0.881461841103324	-0.881461841103324	-0.951854228337633	-0.881461841103324	-0.0703923872343086	-0.881461841103324	0.0	-0.881461841103324	-0.951854228337633	0.881461841103324	-6.4133233858882726	-2.724826384714672	-3.0647352704774407	-6.435466172180602	-3.276051944840404	-3.0647352704774407	0.0640075596691615	-6.377055300603057	0.036268085285213414	-6.518815098632687	0.7292534434405747	1	wrong	1.0
268.8570904000662	8.515940699959174	go_reward	0.3623047000728547	268.93446159991436	270.3778894999996	272.93453429988585	1.4434279000852257	269.94330169982277	271.91308849980123	275.9886417000089	0.4345878001768142	1.0214458000846207	1.4617605998646468	274.9698469999712	0.8027524000499398	273.9483260998968	1	1	31	1	go_reward	1	1	0	1	1	1	0	0.0	1.0	1	0.3623047000728547	0.8027524000499398	359.0006362001877	627.9350978001021	628.9439379000105	629.3785257001873	630.913724699989	631.9351705000736	632.9489623000845	633.9704832001589	634.9892779001966	636.4510385000613	2020-06-02 10:21:19.280729	11.8927409921831	8.97259364738572	0.0	8.97259364738572	11.8927409921831	0.0	-11.8927409921831	8.97259364738572	0.0	11.8927409921831	0.0	9.41283458845398	5.409025219060519	6.247767262671048	-2.1832734293741165	3.4185893163084415	9.56854327568033	-2.1832734293741165	8.595380307019818	6.397147532683367	0.9881223136228464	3.3352403898563567	0.7292534434405747	1	correct	1.0
277.408033200074	8.72892739996314	go_reward	0.3634001999162137	277.4854043999221	279.7178234998137	282.2689101998694	2.2324190998915583	278.50112399994396	281.24412079993635	285.3147628000006	1.2166994998697191	1.02478939993307	0.8995689998846501	284.306159599917	0.5625509000383317	283.27754689985886	1	1	32	1	go_reward	1	1	0	1	1	1	0	0.0	1.0	1	0.3634001999162137	0.5625509000383317	359.0006362001877	636.4860406001098	637.5017602001317	638.7184597000014	640.2447570001241	641.2695464000572	642.2781831000466	643.3067958001047	644.3153990001883	645.214968000073	2020-06-02 10:21:19.280729	14.1779422117025	10.6242628300695	0.0	10.6242628300695	14.1779422117025	0.0	-14.1779422117025	10.6242628300695	0.0	14.1779422117025	0.0	7.7611654057702015	7.6942264385799195	7.899436445354827	-2.1832734293741165	5.070258498992221	11.85374449519973	-2.1832734293741165	6.943711124336039	8.682348752202767	0.9881223136228464	4.986909572540136	0.7292534434405747	1	correct	1.0
286.1729695999529	7.728977099992335	nogo_punish	1.0	286.25034079980105	287.58317459980026	290.1144876999315	1.3328337999992073	287.2571672999766	289.1005092000123	293.16768989991397	0.3260072998236865	1.013978499919176	0.8116279998794198	292.15415369998664	0.4193319000769406	291.13273109984584	1	1	33	4	nogo_punish	1	-1	0	0	0	1	0	1.0	0.0	0	1.0	0.4193319000769406	359.0006362001877	645.2509769999888	646.2578035001643	646.583810799988	648.1011454002	649.1151239001192	650.1333673000336	651.1547899001744	652.1683261001017	652.9799540999811	2020-06-02 10:21:19.280729	0.186041471059163	0.0	-0.695097608871955	-0.695097608871955	-0.881139079931119	-0.695097608871955	-0.186041471059163	-0.695097608871955	0.0	-0.695097608871955	-0.881139079931119	0.695097608871955	-6.2976743020634185	-2.724826384714672	-2.8783710382460717	-6.249101939949234	-3.2053367964338895	-2.8783710382460717	-0.1223566725622075	-6.190691068371688	0.10698323369172746	-6.332450866401318	0.7292534434405747	1	wrong	1.0
293.93954379996285	8.274353600107133	nogo_reward	1.0	294.016914999811	295.3909524998162	297.93757409998216	1.3740375000052154	295.03241489990614	296.9084102998022	300.9700058000162	0.35853759991005063	1.0291638001799583	1.3212627999018878	299.9642711998895	0.7570092000532895	298.9422557998914	1	1	34	2	nogo_reward	1	0	1	0	0	1	0	0.0	1.0	1	1.0	0.7570092000532895	359.0006362001877	653.0175511999987	654.0330511000939	654.3915887000039	655.9090464999899	656.9382103001699	657.9428920000792	658.9649074000772	659.970642000204	661.2919048001058	2020-06-02 10:21:19.280729	5.25467461894146	2.88958898841615	12.0297944007299	11.674472255101	6.77511978178849	12.0297944007299	-5.25467461894146	12.0297944007299	2.88958898841615	12.0297944007299	6.77511978178849	6.355633835109801	-1.2290411541811208	0.16476260370147822	9.846520971355783	6.120467924023721	4.450922065285719	9.846520971355783	5.538179553675638	6.534200941230167	7.763242095411337	6.392441143200537	3.618842431856725	1	correct	1.0
302.25366839999333	8.810462600085884	go_punish	1.0	302.33103959984146	304.38727539987303	306.91711869998835	2.0562358000315726	303.3422821999993	305.89642649982125	309.98206179984845	1.0449931998737156	1.0206922001671046	1.1594404000788927	308.96806009998545	0.7679433000739664	307.9393412999343	1	1	35	3	go_punish	0	-1	0	1	0	0	0	0.0	1.0	0	1.0	0.7679433000739664	359.0006362001877	661.3316758000292	662.342918400187	663.3879116000608	664.897062700009	665.9177549001761	666.939977500122	667.9686963001732	668.9826980000362	670.1421384001151	2020-06-02 10:21:19.280729	1.55109449050855	-0.667911147298686	0.0	-0.667911147298686	-1.55109449050855	0.0	-1.55109449050855	0.0	-0.667911147298686	0.0	-1.55109449050855	0.0	-4.932621282614031	-3.3927375320133577	-2.1832734293741165	-6.221915478375965	-3.875292207011321	-2.1832734293741165	-0.8174542814341625	-5.495593459499733	-0.5629721768857036	-5.637353257529363	0.0613422961418888	1	correct	1.0
311.1036782001611	8.073395899962634	go_punish	0.267342499922961	311.1810494000092	312.68085339991376	315.24358679982834	1.4998039999045432	312.1823040000163	314.2223645998165	318.29199429997243	0.49854939989745617	1.0212222000118345	0.9624509999994189	317.2749392997939	0.8823889000341296	316.2517591000069	1	1	36	3	go_punish	1	0	-1	1	1	1	0	1.0	0.0	0	0.267342499922961	0.8823889000341296	359.0006362001877	670.1816856001969	671.182940200204	671.6814896001015	673.2230008000042	674.2442230000161	675.2523953001946	676.2755754999816	677.2926305001602	678.2550815001596	2020-06-02 10:21:19.280729	-1.49417827562318	-0.667911147298686	0.0	-0.520093936602357	-1.49417827562318	0.0	1.49417827562318	-0.667911147298686	0.0	-1.49417827562318	0.0	0.667911147298686	-7.977894048745761	-3.3927375320133577	-2.1832734293741165	-6.074098267679635	-3.818375992125951	-2.1832734293741165	-0.1495431341354766	-6.989771735122913	0.9881223136228464	-6.3052644048280495	0.7292534434405747	1	wrong	1.0
319.21843730006367	8.345735999988392	go_punish	1.0	319.2958084999118	320.95666919997893	323.4932707999833	1.6608607000671327	320.30214609997347	322.47313059982844	326.53241079999134	0.6545231000054628	1.0201402001548558	1.1091336999088526	325.5270616998896	0.4153605999890715	324.5049500998575	1	1	37	3	go_punish	0	-1	0	1	0	0	1	1.0	1.0	0	1.0	0.4153605999890715	359.0006362001877	678.2964447000995	679.3027823001612	679.9573054001667	681.4737668000162	682.493907000171	683.5055863000453	684.5276979000773	685.5330470001791	686.6421807000879	2020-06-02 10:21:19.280729	1.30449685230257	-0.520093936602357	0.0	-0.409903456880606	-1.30449685230257	0.0	-1.30449685230257	0.0	-0.520093936602357	0.0	-1.30449685230257	0.0	-5.179218920820011	-3.244920321317029	-2.1832734293741165	-5.963907787957885	-3.628694568805341	-2.1832734293741165	-0.8174542814341625	-5.495593459499733	-0.31637453867972354	-5.637353257529363	0.2091595068382177	1	correct	1.0
327.60327950003557	8.949617099948227	go_punish	1.0	327.6806506998837	329.86274289991707	332.3862431999296	2.1820922000333667	328.6922030998394	331.37174139986746	335.4353928999044	1.1705398000776768	1.0145018000621349	1.1948748999275267	334.4270629999228	0.3795895001385361	333.40568999992684	1	1	38	3	go_punish	0	-1	0	1	0	0	1	1.0	1.0	0	1.0	0.3795895001385361	359.0006362001877	686.6812869000714	687.6928393000271	688.8633791001048	690.3723776000552	691.3868794001173	692.4063262001146	693.4276992001105	694.4360291000921	695.6309040000197	2020-06-02 10:21:19.280729	1.2732915645111	-0.520093936602357	0.0	-0.326610444163782	-1.2732915645111	0.0	-1.2732915645111	0.0	-0.520093936602357	0.0	-1.2732915645111	0.0	-5.210424208611482	-3.244920321317029	-2.1832734293741165	-5.88061477524106	-3.5974892810138708	-2.1832734293741165	-0.8174542814341625	-5.495593459499733	-0.2851692508882536	-5.637353257529363	0.2091595068382177	1	correct	1.0
336.5925511000678	8.14099429990165	go_punish	1.0	336.6699222999159	338.2363291999791	340.7706498999614	1.566406900063157	337.6757493999321	339.75348600000143	343.82857559993863	0.5605798000469804	1.0171638999599963	0.982340999878943	342.82419919990934	0.6270612999796867	341.79513209988363	1	1	39	3	go_punish	1	0	-1	1	0	0	1	1.0	1.0	-1	1.0	0.6270612999796867	359.0006362001877	695.6705585001037	696.6763856001198	697.2369654001668	698.7541222001892	699.7712861001492	700.7957683000714	701.8248354000971	702.8292118001264	703.8115528000053	2020-06-02 10:21:19.280729	1.24975750480726	-0.520093936602357	0.0	-0.262870158440812	-1.24975750480726	0.0	-1.24975750480726	0.0	-0.520093936602357	0.0	-1.24975750480726	-5.8077021486331	-5.233958268315321	-3.244920321317029	-2.1832734293741165	-5.81687448951809	-3.5739552213100305	-2.1832734293741165	-6.625156430067263	-5.495593459499733	-0.2616351911844136	-5.637353257529363	0.2091595068382177	1	correct	1.0
344.77403740002774	8.7819606999401	go_punish	1.0	344.85140859987587	346.8163226998877	349.342228599824	1.9649141000118107	345.85719659994356	348.3185476998333	352.39522109995596	0.9591260999441147	1.0236808999907225	1.2381481998600066	351.38688879995607	0.3095284001901746	350.35862059984356	1	1	40	3	go_punish	1	0	-1	1	0	0	1	1.0	1.0	-1	1.0	0.3095284001901746	359.0006362001877	703.8520448000636	704.8578328001313	705.8169589000754	707.319183900021	708.3428648000117	709.3592568000313	710.3875250001438	711.3958573001437	712.6340055000037	2020-06-02 10:21:19.280729	0.511574512654413	-0.520093936602357	-1.14951393821883	-1.36306463202346	-1.66108845087324	-1.14951393821883	-0.511574512654413	-1.14951393821883	-0.520093936602357	-1.14951393821883	-1.66108845087324	-4.65818821041427	-5.9721412604681685	-3.244920321317029	-3.3327873675929465	-6.917068963100738	-3.9852861673760107	-3.3327873675929465	-5.475642491848433	-6.645107397718563	-0.6729661372503936	-6.786867195748194	0.2091595068382177	1	correct	1.0
353.5933175000828	8.922450799960643	nogo_reward	1.0	353.6706886999309	355.6569858000148	358.18769549997523	1.9862971000839025	354.68313929997385	357.17459459998645	361.24598519993015	0.9738465000409633	1.0131008999887854	1.347154299961403	360.22723999992013	0.8154370998963714	359.20460109994747	1	1	41	2	nogo_reward	0	1	0	0	0	1	0	0.0	1.0	0	1.0	0.8154370998963714	359.0006362001877	712.6713249001186	713.6837755001616	714.6576220002025	716.1752308001742	717.188331700163	718.2052373001352	719.2278762001079	720.2466214001179	721.5937757000793	2020-06-02 10:21:19.280729	5.8358630389248	2.88958898841615	13.0350293079179	12.7909618287641	7.19916626899305	13.0350293079179	-5.8358630389248	13.0350293079179	2.88958898841615	13.0350293079179	7.19916626899305	-13.0350293079179	-0.6478527341977811	0.16476260370147822	10.851755878543784	7.236957497686822	4.874968552490279	10.851755878543784	-13.852483589352063	7.539435848418168	8.187288582615896	7.3976760503885375	3.618842431856725	1	correct	1.0
362.553132600151	9.737613699864596	nogo_reward	1.0	362.63050379999913	365.4015855998732	367.93360959994607	2.771081799874082	363.6441283999011	366.91875229985453	370.96797239989974	1.757457199972123	1.0148573000915349	1.4001450999639928	369.9585335999727	0.4694433999247849	368.93665279983543	1	1	42	2	nogo_reward	1	0	1	0	0	1	0	0.0	1.0	1	1.0	0.4694433999247849	359.0006362001877	721.6311400001869	722.6447646000888	724.4022218000609	725.9193885000423	726.9342458001338	727.9372890000232	728.9591698001605	729.9686086000875	731.3687537000515	2020-06-02 10:21:19.280729	3.95845639844343	2.88958898841615	9.90634954224776	9.73975747727696	5.94789314380433	9.90634954224776	-3.95845639844343	9.90634954224776	2.88958898841615	9.90634954224776	5.94789314380433	8.47907869359194	-2.5252593746791514	0.16476260370147822	7.723076112873644	4.185753146199682	3.623695427301559	7.723076112873644	7.661624412157778	4.410756082748027	6.936015457427176	4.268996284718397	3.618842431856725	1	correct	1.0
372.33192429994233	8.524704300099984	go_punish	1.0	372.40929549979046	373.917454399867	376.45151859987527	1.5081589000765234	373.4193660998717	375.42654529982246	379.49334179982543	0.49808829999528825	1.0249733000528067	1.4406580000650138	378.4750413999427	1.0	377.4664159999229	1	1	43	3	go_punish	1	0	-1	1	0	0	0	n/a	0.0	-1	1.0	1.0	359.0006362001877	731.4099316999782	732.4200023000594	732.9180906000547	734.4271815000102	735.452154800063	736.4670522001106	737.4756776001304	738.4939780000132	739.9346360000782	2020-06-02 10:21:19.280729	-0.0529384147054741	-0.520093936602357	-2.01894120890029	-2.19394488116989	-1.96600279419481	-2.01894120890029	0.0529384147054741	-2.01894120890029	-0.520093936602357	-2.01894120890029	-1.96600279419481	-3.7887609397328106	-6.536654187828055	-3.244920321317029	-4.202214638274406	-7.7479492122471685	-4.290200510697581	-4.202214638274406	-4.606215221166973	-7.514534668400023	-0.9778804805719635	-7.656294466429653	0.2091595068382177	1	missed	0.0
380.895881799981	8.307733100140467	go_punish	0.2883381999563426	380.9732529998291	382.8268292997964	385.3639825999271	1.8535762999672443	381.9851351999678	384.343665599823	388.41293739993125	0.8416940998286009	1.0203170001041144	0.8680487000383437	387.3945782999508	1.0	386.385499099968	1	1	44	3	go_punish	1	0	-1	1	1	1	0	n/a	0.0	-1	0.2883381999563426	1.0	359.0006362001877	739.9738892000169	740.9857714001555	741.8274654999841	743.3443018000107	744.3646188001148	745.3861353001557	746.3952145001385	747.413573600119	748.2816223001573	2020-06-02 10:21:19.280729	0.491432399816369	-0.520093936602357	-2.68685235619897	-2.8314485431142	-2.1954199563826	-2.68685235619897	-0.491432399816369	-0.520093936602357	-2.68685235619897	-2.1954199563826	-2.68685235619897	0.520093936602357	-5.992283373306212	-3.244920321317029	-4.870125785573086	-8.385452874191479	-4.519617672885371	-4.870125785573086	-0.2973603448318055	-7.691013415882333	-1.6987300425761234	-6.15744719413172	-1.957598912758395	1	missed	0.0
389.2423028999474	8.45524900010787	nogo_reward	1.0	389.3196740997955	391.1435128999874	393.6831678999588	1.8238388001918793	390.33436759980395	392.65980059979483	396.7344341999851	0.8091453001834452	1.0233673001639545	1.040488899918273	395.72208349988796	0.969464500201866	394.69963459996507	1	1	45	2	nogo_reward	1	0	1	0	0	1	0	0.0	1.0	1	1.0	0.969464500201866	359.0006362001877	748.3203102999832	749.3350037999917	750.1441491001751	751.6604367999826	752.6838041001465	753.7002708001528	754.7227197000757	755.7350704001728	756.7755593000911	2020-06-02 10:21:19.280729	4.93126856754384	2.88958898841615	11.5527145625739	11.4405167743829	6.62144599503009	11.5527145625739	-4.93126856754384	11.5527145625739	2.88958898841615	11.5527145625739	6.62144599503009	6.8327136732658005	-1.5524472055787415	0.16476260370147822	9.369441133199784	5.886512443305621	4.297248278527319	9.369441133199784	6.015259391831638	6.057121103074167	7.609568308652936	5.915361305044537	3.618842431856725	1	correct	1.0
397.73786949994974	9.89887350006029	nogo_reward	1.0	397.81524069979787	400.7821529000066	403.31246389984153	2.9669122002087533	398.8184829999227	402.2952382999938	406.35847759991884	1.9636699000839144	1.017225599847734	1.3556365999393165	405.3500653998926	0.2347595000173896	404.32136949989945	1	1	46	2	nogo_reward	1	0	1	0	0	1	0	0.0	1.0	1	1.0	0.2347595000173896	359.0006362001877	756.8158768999856	757.8191192001104	759.7827891001943	761.2958745001815	762.3131001000293	763.3220057000872	764.3507016000804	765.3591138001066	766.7147504000459	2020-06-02 10:21:19.280729	5.66062819725102	2.88958898841615	12.7711925434566	12.6974277889827	7.1105643462056	12.7711925434566	-5.66062819725102	12.7711925434566	2.88958898841615	12.7711925434566	7.1105643462056	5.614235692383101	-0.8230875758715612	0.16476260370147822	10.587919114082483	7.143423457905422	4.78636662970283	10.587919114082483	4.796781410948938	7.275599083956867	8.098686659828447	7.133839285927237	3.618842431856725	1	correct	1.0
407.67345500015654	8.843080399790779	nogo_reward	1.0	407.75082620000467	409.5998951999936	412.1296370998025	1.8490689999889582	408.7574285999872	411.1088533999864	415.18430169997737	0.8424666000064462	1.0207836998160928	1.4096048998180777	414.1712386999279	0.3700427999719977	413.1377093999181	1	1	47	2	nogo_reward	0	1	0	0	0	1	1	1.0	1.0	0	1.0	0.3700427999719977	359.0006362001877	766.7514624001924	767.7580648001749	768.6005314001814	770.1094896001741	771.1302732999902	772.1383456001058	773.1718749001157	774.1849379001651	775.5945427999832	2020-06-02 10:21:19.280729	6.21894066323969	2.88958898841615	13.6908221596079	13.6443376653206	7.4718814963682	13.6908221596079	-6.21894066323969	13.6908221596079	2.88958898841615	13.6908221596079	7.4718814963682	-13.6908221596079	-0.26477510988289144	0.16476260370147822	11.507548730233783	8.090333334243322	5.147683779865429	11.507548730233783	-14.508276441042062	8.195228700108167	8.460003809991045	8.053468902078535	3.618842431856725	1	correct	1.0
416.5514301999938	8.00465920008719	go_reward	0.3784787999466061	416.6288013998419	418.11367979994975	420.6641512999777	1.4848784001078457	417.6448325999081	419.64007269986905	423.7187605998479	0.4688472000416368	1.0240786001086235	0.9147000000812113	422.705286399927	0.4716882000211626	421.676481799921	1	1	48	1	go_reward	1	1	0	1	1	1	0	0.0	1.0	1	0.3784787999466061	0.4716882000211626	359.0006362001877	775.6294376000296	776.6454688000958	777.1143160001375	778.6407089000568	779.6647875001654	780.6771180001087	781.7059226001147	782.7193968000356	783.6340968001168	2020-06-02 10:21:19.280729	15.9326340906607	11.898936896719	0.0	11.898936896719	15.9326340906607	0.0	-15.9326340906607	11.898936896719	0.0	15.9326340906607	0.0	6.4864913391207	9.44891831753812	9.17411051200433	-2.1832734293741165	6.344932565641722	13.608436374157929	-2.1832734293741165	5.669037057686538	10.437040631160968	0.9881223136228464	6.261583639189637	0.7292534434405747	1	correct	1.0
424.595491199987	7.905419199960306	go_reward	0.2907487000338733	424.67286239983514	426.2273962998297	428.76454949984327	1.554533899994567	425.67457199981436	427.7411278998479	431.8007127000019	0.5528243000153452	1.0234215999953449	0.7775688997935504	430.8076098000165	0.4839317000005394	429.7781853999477	1	1	49	1	go_reward	1	1	0	1	1	1	0	0.0	1.0	1	0.2907487000338733	0.4839317000005394	359.0006362001877	783.6734986000229	784.6752082000021	785.2280325000174	786.7417641000357	787.765185700031	788.7788216001354	789.8082460002042	790.8013489001896	791.5789177999832	2020-06-02 10:21:19.280729	17.2960296574735	12.8947118388158	0.0	12.8947118388158	17.2960296574735	0.0	-17.2960296574735	12.8947118388158	0.0	17.2960296574735	0.0	5.490716397023901	10.81231388435092	10.169885454101127	-2.1832734293741165	7.3407075077385215	14.97183194097073	-2.1832734293741165	4.673262115589738	11.800436197973767	0.9881223136228464	7.257358581286437	0.7292534434405747	1	correct	1.0
432.53570979996584	8.418310699984431	nogo_punish	1.0	432.613080999814	434.1658595998306	436.6806437999476	1.5527786000166088	433.6294875999447	435.67779219988734	439.7487582999747	0.5363719998858869	1.0028516000602394	1.2826333998236805	438.734271899797	0.4405747000128031	437.6985185998492	1	1	50	4	nogo_punish	1	-1	0	0	0	1	0	0.0	1.0	0	1.0	0.4405747000128031	359.0006362001877	791.6137172000017	792.6301238001324	793.1664958000183	794.6784284000751	795.6812800001353	796.6991548000369	797.7349080999848	798.7493945001625	800.0320278999861	2020-06-02 10:21:19.280729	0.274066281915173	0.0	-0.554499643795832	-0.554499643795832	-0.828565925711005	-0.554499643795832	-0.274066281915173	-0.554499643795832	0.0	-0.554499643795832	-0.828565925711005	0.554499643795832	-6.209649491207408	-2.724826384714672	-2.7377730731699486	-6.108503974873111	-3.1527636422137757	-2.7377730731699486	-0.2629546376383305	-6.0500931032955645	0.15955638791184146	-6.191852901325195	0.7292534434405747	1	correct	1.0
440.99037860007957	7.753956399857998	nogo_punish	1.0	441.0677497999277	442.46675139991567	444.9996055997908	1.3990015999879688	442.0786005000118	443.9840132999234	448.0465504999738	0.38815089990384877	1.0155922998674214	0.7751556998118758	447.04491139994934	0.4553604000248015	446.0147921999451	1	1	51	4	nogo_punish	1	-1	0	0	0	1	0	0.0	1.0	0	1.0	0.4553604000248015	359.0006362001877	800.0683860001154	801.0792367001995	801.4673876001034	802.9846495001111	804.0002417999785	805.0154284001328	806.0455476001371	807.0471867001615	807.8223423999734	2020-06-02 10:21:19.280729	0.341969683023179	0.0	-0.447013291742241	-0.447013291742241	-0.78898297476542	-0.447013291742241	-0.341969683023179	-0.447013291742241	0.0	-0.447013291742241	-0.78898297476542	0.447013291742241	-6.141746090099402	-2.724826384714672	-2.6302867211163576	-6.00101762281952	-3.113180691268191	-2.6302867211163576	-0.3704409896919215	-5.942606751241974	0.1991393388574264	-6.084366549271604	0.7292534434405747	1	correct	1.0
448.78587960009463	8.546770900022238	go_punish	0.2464270000346005	448.86325079994276	450.43375089997426	452.9817475997843	1.570500100031495	449.87287049996667	451.9608843999449	456.03270099987276	0.5608804000075907	1.0208631998393685	1.3773207000922412	455.01878309994936	0.3160359999164939	453.99316219985485	1	1	52	3	go_punish	1	0	-1	1	1	1	0	0.0	1.0	0	0.2464270000346005	0.3160359999164939	359.0006362001877	807.8638870001305	808.8735067001544	809.434387100162	810.9615206001326	811.982383799972	812.9937984000426	814.0194193001371	815.0333372000605	816.4106579001527	2020-06-02 10:21:19.280729	-0.722723284424834	-1.55941739509943	-2.68685235619897	-3.32734914037979	-3.40957564062381	-2.68685235619897	0.722723284424834	-1.55941739509943	-2.68685235619897	-3.40957564062381	-2.68685235619897	1.55941739509943	-7.206439057547415	-4.284243779814101	-4.870125785573086	-8.881353471457068	-5.73377335712658	-4.870125785573086	0.7419631136652673	-8.905169100123542	-1.6987300425761234	-7.196770652628793	-1.957598912758395	1	correct	1.0
457.36876380001195	7.846505100140348	go_reward	1.0	457.4461349998601	458.8019703999162	461.3297825998161	1.355835400056094	458.4606945000123	460.3122836998664	464.3928580998909	0.34127589990384877	1.0174988999497145	0.8997820001095533	463.3795645998325	0.5113563998602331	462.350704499986	1	1	53	1	go_reward	1	1	0	1	0	0	0	0.0	1.0	0	1.0	0.5113563998602331	359.0006362001877	816.4467712000478	817.4613307002	817.8026066001039	819.3129199000541	820.3304188000038	821.3513407001738	822.3802008000202	823.3934943000786	824.2932763001882	2020-06-02 10:21:19.280729	-18.3671151147074	13.6814635834137	0.0	13.6814635834137	18.3671151147074	0.0	18.3671151147074	0.0	13.6814635834137	0.0	18.3671151147074	0.0	-24.85083088782998	10.956637198699028	-2.1832734293741165	8.127459252336422	16.04291739820463	-2.1832734293741165	-0.8174542814341625	-5.495593459499733	19.355237428330245	-5.637353257529363	14.410717026854275	1	correct	1.0
465.25560669996776	7.851601300062612	go_punish	0.709189800079912	465.3329778998159	466.7578763999045	469.28748780000024	1.4248985000886023	466.3368515998591	468.2668953000102	472.3478458998725	0.42102480004541576	1.0205924999900162	0.8367333000060171	471.33076539984904	0.2910078000277281	470.2980006998405	1	1	54	3	go_punish	1	0	-1	1	1	1	1	1.0	1.0	0	0.709189800079912	0.2910078000277281	359.0006362001877	824.3336141000036	825.3374878000468	825.7585126000922	827.267531500198	828.288124000188	829.2986369000282	830.3314016000368	831.3484821000602	832.1852154000662	2020-06-02 10:21:19.280729	-0.0648201106251328	-1.19603771484524	-2.68685235619897	-2.56833469615068	-2.75167246682411	-2.68685235619897	0.0648201106251328	-1.19603771484524	-2.68685235619897	-2.75167246682411	-2.68685235619897	1.19603771484524	-6.548535883747714	-3.9208640995599118	-4.870125785573086	-8.122339027227959	-5.075870183326881	-4.870125785573086	0.37858343341107736	-8.247265926323843	-1.6987300425761234	-6.833390972374604	-1.957598912758395	1	correct	1.0
473.14670370006934	8.478290499886498	go_punish	0.2869949999731034	473.22407489991747	474.89015809982084	477.4281666998286	1.666083199903369	474.2354235998355	476.41525059984997	480.47999899997376	0.6547344999853522	1.0129160999786109	1.2223663998302072	479.4793506998103	0.3031860999763012	478.446665099822	1	1	55	3	go_punish	1	0	-1	1	1	1	0	0.0	1.0	0	0.2869949999731034	0.3031860999763012	359.0006362001877	832.2247111001052	833.2360598000232	833.8907943000086	835.4158868000377	836.4288029000163	837.4473013000097	838.479986899998	839.4806352001615	840.7030015999917	2020-06-02 10:21:19.280729	0.414249359473346	-0.930781305739497	-2.68685235619897	-2.00983760917328	-2.27260299672563	-2.68685235619897	-0.414249359473346	-0.930781305739497	-2.68685235619897	-2.27260299672563	-2.68685235619897	0.930781305739497	-6.069466413649235	-3.655607690454169	-4.870125785573086	-7.563841940250558	-4.596800713228401	-4.870125785573086	0.11332702430533448	-7.768196456225363	-1.6987300425761234	-6.568134563268861	-1.957598912758395	1	correct	1.0
481.6650739000179	8.19084469997324	go_punish	0.5155772999860346	481.742445099866	483.11056920001283	485.6495052999817	1.3681241001468152	482.75354619999416	484.63834109995514	488.69854449993	0.35702300001867115	1.011164200026542	1.2347452999092638	487.69126559980214	0.3304538000375032	486.6626420998946	1	1	56	3	go_punish	1	0	-1	1	1	1	1	0.0	0.0	0	0.5155772999860346	0.3304538000375032	359.0006362001877	840.7430813000537	841.7541824001819	842.1112054002006	843.6389773001429	844.6501415001694	845.6632783000823	846.6919017999899	847.6991807001177	848.933926000027	2020-06-02 10:21:19.280729	0.769091762694626	-0.733644630406995	-2.68685235619897	-1.5920351373819	-1.91776059350435	-2.68685235619897	-0.769091762694626	-0.733644630406995	-2.68685235619897	-1.91776059350435	-2.68685235619897	0.733644630406995	-5.714624010427955	-3.458471015121667	-4.870125785573086	-7.146039468459178	-4.241958310007121	-4.870125785573086	-0.08380965102716753	-7.413354053004083	-1.6987300425761234	-6.370997887936358	-1.957598912758395	1	wrong	1.0
489.8919554001186	8.78373679984361	nogo_punish	1.0	489.96932659996673	491.8832897997927	494.4198092999868	1.9139631998259574	490.9846196998842	493.40051979990676	497.4751220999751	0.898670099908486	1.019289500080049	1.27794129983522	496.47108899988234	0.543155400082469	495.43799629993737	1	1	57	4	nogo_punish	1	-1	0	0	0	1	0	0.0	1.0	0	1.0	0.543155400082469	359.0006362001877	848.9699628001545	849.9852559000719	850.8839259999804	852.4011560000945	853.4204455001745	854.4386325001251	855.4717252000701	856.4757583001629	857.7536995999981	2020-06-02 10:21:19.280729	0.394977091830585	0.0	-0.363869043128387	-0.363869043128387	-0.758846134958972	-0.363869043128387	-0.394977091830585	-0.363869043128387	0.0	-0.363869043128387	-0.758846134958972	0.363869043128387	-6.088738681291996	-2.724826384714672	-2.5471424725025034	-5.917873374205666	-3.083043851461743	-2.5471424725025034	-0.4535852383057755	-5.85946250262812	0.2292761786638744	-6.0012223006577505	0.7292534434405747	1	correct	1.0
498.7168481000699	8.304918400011957	go_punish	0.2469256999902427	498.79421929991804	500.51011659996584	503.04015129990876	1.7158973000478	499.79312249994837	502.03684859978966	506.07294979994185	0.7169941000174731	1.003302700119093	1.0261878999881446	505.05884579988196	0.2396913000848144	504.04526429995894	1	1	58	3	go_punish	1	0	-1	1	1	1	1	0.0	0.0	0	0.2469256999902427	0.2396913000848144	359.0006362001877	857.7948555001058	858.7937587001361	859.5107528001536	861.0374847999774	862.0407875000965	863.0459005001467	864.0594820000697	865.0735860001296	866.0997739001177	2020-06-02 10:21:19.280729	1.0357326933701	-0.584907129150205	-2.68685235619897	-1.27503570892977	-1.65111966282887	-2.68685235619897	-1.0357326933701	-0.584907129150205	-2.68685235619897	-1.65111966282887	-2.68685235619897	0.584907129150205	-5.447983079752481	-3.309733513864877	-4.870125785573086	-6.829040040007048	-3.9753173793316408	-4.870125785573086	-0.2325471522839575	-7.1467131223286025	-1.6987300425761234	-6.222260386679569	-1.957598912758395	1	wrong	1.0
507.05962780001573	9.22984250006266	nogo_reward	1.0	507.13699899986386	509.9119431998115	512.4324744998012	2.7749441999476403	508.1460425998084	511.4293699997943	515.4828339999076	1.7659006000030786	1.0031045000068843	0.8840075000189245	514.4752776999958	0.4839423999655992	513.4469886999577	1	1	59	2	nogo_reward	1	0	1	0	0	1	0	0.0	1.0	1	1.0	0.4839423999655992	359.0006362001877	866.1376352000516	867.1466787999962	868.9125793999992	870.430006199982	871.4331106999889	872.4476249001455	873.4759139001835	874.4834702000953	875.3674777001143	2020-06-02 10:21:19.280729	4.3121832028168	2.88958898841615	10.4825715955036	10.4555039887942	6.17038839268678	10.4825715955036	-4.3121832028168	10.4825715955036	2.88958898841615	10.4825715955036	6.17038839268678	7.9028566403361005	-2.1715325703057813	0.16476260370147822	8.299298166129484	4.901499657716922	3.8461906761840092	8.299298166129484	7.085402358901938	4.986978136003867	7.1585107063096265	4.845218337974237	3.618842431856725	1	correct	1.0
516.3276935000904	8.356707399943843	nogo_punish	1.0	516.4050646999385	517.96628589998	520.4909479999915	1.561221200041473	517.4061152997892	519.4760980999563	523.5481908998918	0.5601706001907587	1.0148499000351876	1.2135811999905854	522.5322283999994	0.9094535999465734	521.5054168999195	1	1	60	4	nogo_punish	1	-1	0	0	0	1	0	0.0	1.0	0	1.0	0.9094535999465734	359.0006362001877	875.4057009001262	876.406751499977	876.9669221001677	878.476734300144	879.4915842001792	880.5060531001072	881.5328646001872	882.5488271000795	883.7624083000701	2020-06-02 10:21:19.280729	0.436801200643069	0.0	-0.298869318032491	-0.298869318032491	-0.73567051867556	-0.298869318032491	-0.436801200643069	-0.298869318032491	0.0	-0.298869318032491	-0.73567051867556	0.298869318032491	-6.046914572479512	-2.724826384714672	-2.4821427474066073	-5.852873649109769	-3.059868235178331	-2.4821427474066073	-0.5185849634016715	-5.794462777532224	0.2524517949472864	-5.936222575561854	0.7292534434405747	1	correct	1.0
