onset	duration	trial_type	response_time	cueOnset	targetOnset	fbOnset	cueRT	firstfixOnset	secondfixOnset	waitOnset	firstfixdur	secondfixdur	waitdur	nback_fbOnset	nback_response_time	nback_targetOnset	block	wm	trial	cue	cond	is_common	outcome_go	outcome_nogo	key_correct	key_pressed	is_correct	key_correct_nback	key_pressed_nback	is_correct_nback	outcome	rt	rt_nback	time_scan	time_onset	time_isi1	time_circle	time_isi2	time_feedback	time_same	time_correct	time_iti	time_done	timestamp_scan	DV	Qgo	Qnogo	SV	Wgo	Wnogo	mDV	Qchosen	Qunchosen	Wchosen	Wunchosen	PE	DVC	QgoC	QnogoC	SVC	WgoC	WnogoC	PEC	WchosenC	WunchosenC	QchosenC	QunchosenC	run	outcome_nback	nback_targetResp
0.0	9.519380500016268	nogo_reward	0.2670238999999128	0.13240579998819157	2.627285499998834	5.258655299956445	2.4948797000106424	1.1397321000113152	4.219239500002004	8.298686499998439	1.4875533999875188	1.0394157999544404	1.3530998000060208	7.2874875999987125	1.0	6.280016299977433	1	1	1	2	nogo_reward	0	1	0	0	1	0	0	n/a	0.0	0	0.2670238999999128	1.0	548.4746269999887	548.6070327999769	549.6143591	551.1019124999875	552.6938664999907	553.7332822999451	554.7546432999661	555.7621145999874	556.7733134999871	558.1264132999931	2020-06-16 09:29:18.266494	-0.0048856563327547	0.0	0.0	0.0	-0.0048856563327547	0.0	0.0048856563327547	0.0	0.0	-0.0048856563327547	0.0	19.7802749857062	-7.396084625357529	-2.2156074479917858	-1.8392491937638942	-5.466461890008042	-3.28744210192549	-1.8392491937638942	19.073407902548215	-6.26138796052346	1.1346966648340713	-5.595535741531283	1.5406790997756075	1	missed	0.0
9.587366699997801	8.837672900001053	go_reward	0.5626773999538273	9.719772499985993	11.574475599976722	14.108670599991456	1.8547030999907292	10.732531499990728	13.0997332999832	17.149412299972028	0.8419440999859944	1.008937300008256	1.4080331000150181	16.13906269997824	1.0	15.130888499959838	1	1	2	1	go_reward	1	1	0	1	1	1	0	n/a	0.0	0	0.5626773999538273	1.0	548.4746269999887	558.1943994999747	559.2071584999794	560.0491025999654	561.5743602999719	562.5832975999801	563.6055154999485	564.6136896999669	565.6240392999607	567.0320723999757	2020-06-16 09:29:18.266494	-0.0048856563327547	0.0	0.0	0.0	-0.0048856563327547	0.0	0.0048856563327547	0.0	0.0	-0.0048856563327547	0.0	19.7802749857062	-7.396084625357529	-2.2156074479917858	-1.8392491937638942	-5.466461890008042	-3.28744210192549	-1.8392491937638942	19.073407902548215	-6.26138796052346	1.1346966648340713	-5.595535741531283	1.5406790997756075	1	missed	0.0
18.501386800024193	8.01951759995427	nogo_punish	0.5243187000160106	18.633792600012384	20.185883199970704	22.734938999987207	1.5520905999583192	19.648109300003853	21.710903299972415	25.784271399956197	0.5377738999668509	1.0240357000147924	0.8690388000104576	24.78176969999913	0.5907253000186756	23.748579999955837	1	1	3	4	nogo_punish	1	-1	0	0	1	0	0	0.0	1.0	-1	0.5243187000160106	0.5907253000186756	548.4746269999887	567.1084196000011	568.1227362999925	568.6605101999594	570.1855302999611	571.2095659999759	572.2232069999445	573.2563966999878	574.2588983999449	575.1279371999553	2020-06-16 09:29:18.266494	-0.0048856563327547	0.0	0.0	0.0	-0.0048856563327547	0.0	0.0048856563327547	0.0	0.0	-0.0048856563327547	0.0	-6.70845649460942	-7.396084625357529	-2.2156074479917858	-1.8392491937638942	-5.466461890008042	-3.28744210192549	-1.8392491937638942	-7.4153235777674045	-6.26138796052346	1.1346966648340713	-5.595535741531283	1.5406790997756075	1	correct	1.0
26.58476579998387	9.277793299988844	go_reward	0.3046922000357881	26.717171599972062	29.157500999979675	31.70833319996018	2.440329400007613	27.724062699999195	30.698409500007983	34.755849799956195	1.4334382999804802	1.0099236999521963	1.2391151000047103	33.7459560999996	0.856465200020466	32.72187909996137	1	1	4	1	go_reward	1	1	0	1	1	1	1	0.0	0.0	1	0.3046922000357881	0.856465200020466	548.4746269999887	575.1917985999607	576.1986896999879	577.6321279999684	579.1730364999967	580.1829601999489	581.19650609995	582.2205830999883	583.2304767999449	584.4695918999496	2020-06-16 09:29:18.266494	-0.0048856563327547	0.0	0.0	0.0	-0.0048856563327547	0.0	0.0048856563327547	0.0	0.0	-0.0048856563327547	0.0	19.7802749857062	-7.396084625357529	-2.2156074479917858	-1.8392491937638942	-5.466461890008042	-3.28744210192549	-1.8392491937638942	19.073407902548215	-6.26138796052346	1.1346966648340713	-5.595535741531283	1.5406790997756075	1	wrong	1.0
35.987597099971026	8.238411600003019	go_punish	0.4445778999943286	36.12000289995922	37.78961400000844	40.32624829997076	1.6696111000492238	37.13530029996764	39.306788599991705	43.38016979995882	0.6543137000408024	1.019459699979052	0.9782447000034153	42.368381100008264	0.5122330999583937	41.338017000001855	1	1	5	3	go_punish	1	0	-1	1	1	1	0	0.0	1.0	0	0.4445778999943286	0.5122330999583937	548.4746269999887	584.5946298999479	585.6099272999563	586.2642409999971	587.7814155999804	588.8008752999594	589.8126439999905	590.843008099997	591.8547967999475	592.8330414999509	2020-06-16 09:29:18.266494	-0.0048856563327547	0.0	0.0	0.0	-0.0048856563327547	0.0	0.0048856563327547	0.0	0.0	-0.0048856563327547	0.0	0.0	-7.396084625357529	-2.2156074479917858	-1.8392491937638942	-5.466461890008042	-3.28744210192549	-1.8392491937638942	-0.7068670831579849	-6.26138796052346	1.1346966648340713	-5.595535741531283	1.5406790997756075	1	correct	1.0
44.290148000000045	8.999418499995954	nogo_punish	0.047139500034973	44.422553799988236	46.590196900011506	49.14205009996658	2.1676431000232697	45.42444339999929	48.12193419999676	52.18415320001077	1.1657535000122152	1.0201158999698237	1.2378190999734215	51.16972299996996	0.5307179000228643	50.154587399971206	1	1	6	4	nogo_punish	1	-1	0	0	1	0	0	0.0	1.0	-1	0.047139500034973	0.5307179000228643	548.4746269999887	592.8971807999769	593.899070399988	595.0648239000002	596.5965611999854	597.6166770999553	598.6292143999599	599.6443499999586	600.6587801999995	601.8965992999729	2020-06-16 09:29:18.266494	-2.81886111683129	-2.80086968893497	0.0	-2.80086968893497	-2.81886111683129	0.0	2.81886111683129	-2.80086968893497	0.0	-2.81886111683129	0.0	-3.90758680567445	-10.210060085856064	-5.016477136926756	-1.8392491937638942	-8.267331578943011	-6.101417562424025	-1.8392491937638942	-4.6144538888324345	-9.075363421021995	1.1346966648340713	-8.396405430466253	1.5406790997756075	1	correct	1.0
53.33249810000416	9.079260299971793	go_punish	0.3141726999892853	53.46490389999235	55.98496299999533	58.531730699993204	2.5200591000029817	54.4673450999544	57.51694050000515	61.591800199996214	1.517617900040932	1.014790199988056	0.952363999967929	60.55932949995622	0.5060797000187449	59.53898069995921	1	1	7	3	go_punish	1	0	-1	1	1	1	1	0.0	0.0	0	0.3141726999892853	0.5060797000187449	548.4746269999887	601.939530899981	602.9419720999431	604.459589999984	605.9915674999938	607.0063576999819	608.0136076999479	609.0339564999449	610.0664271999849	611.0187911999528	2020-06-16 09:29:18.266494	-0.0048856563327547	0.0	0.0	0.0	-0.0048856563327547	0.0	0.0048856563327547	0.0	0.0	-0.0048856563327547	0.0	0.0	-7.396084625357529	-2.2156074479917858	-1.8392491937638942	-5.466461890008042	-3.28744210192549	-1.8392491937638942	-0.7068670831579849	-6.26138796052346	1.1346966648340713	-5.595535741531283	1.5406790997756075	1	wrong	1.0
62.44888959999662	9.20009990001563	nogo_reward	0.2705310000455938	62.58129539998481	64.92155999998795	67.46848699997645	2.340264600003138	63.59515700000338	66.44018639996648	70.5293018000084	1.3264029999845661	1.0283006000099704	1.2520934999920428	69.51603339996655	0.5188200999982655	68.48716680001235	1	1	8	2	nogo_reward	1	0	1	0	1	0	0	0.0	1.0	0	0.2705310000455938	0.5188200999982655	548.4746269999887	611.0559223999735	612.0697839999921	613.3961869999766	614.9148133999552	615.9431139999651	616.961793800001	617.9906603999552	619.0039287999971	620.2560222999891	2020-06-16 09:29:18.266494	-0.0048856563327547	0.0	0.0	0.0	-0.0048856563327547	0.0	0.0048856563327547	0.0	0.0	-0.0048856563327547	0.0	0.0	-7.396084625357529	-2.2156074479917858	-1.8392491937638942	-5.466461890008042	-3.28744210192549	-1.8392491937638942	-0.7068670831579849	-6.26138796052346	1.1346966648340713	-5.595535741531283	1.5406790997756075	1	correct	1.0
71.69240860000718	8.107395099999849	go_reward	1.0	71.82481439999538	73.33406069997	75.86277119995793	1.5092462999746203	72.84050940000452	74.85090769996168	78.90742219996173	0.49355129996547475	1.0118634999962524	1.0247873000334948	77.8946086000069	0.4752674999763258	76.88187069998821	1	1	9	1	go_reward	1	1	0	1	0	0	0	0.0	1.0	0	1.0	0.4752674999763258	548.4746269999887	620.2994413999841	621.3151363999932	621.8086876999587	623.3255346999504	624.3373981999466	625.3564976999769	626.3692355999956	627.3820491999504	628.4068364999839	2020-06-16 09:29:18.266494	-8.91493453521219	8.73271519534471	0.0	8.73271519534471	8.91493453521219	0.0	8.91493453521219	0.0	8.73271519534471	0.0	8.91493453521219	0.0	-16.306133504236964	6.517107747352924	-1.8392491937638942	3.266253305336668	5.632378089619454	-1.8392491937638942	-0.7068670831579849	-6.256502304190705	10.04963120004626	-5.595535741531283	10.273394295120317	1	correct	1.0
79.84501839999575	8.975649799976964	go_punish	0.276524499990046	79.97742419998394	81.89757849997841	84.44409060000908	1.920154299994465	80.97605249995831	83.43009779998101	87.49121659999946	0.9215260000200942	1.0139928000280634	1.4618573999614455	86.47746239998378	0.4002019999898039	85.45698239997728	1	1	10	3	go_punish	1	0	-1	1	1	1	0	1.0	0.0	0	0.276524499990046	0.4002019999898039	548.4746269999887	628.4520511999726	629.450679499947	630.3722054999671	631.9047247999697	632.9187175999978	633.931609399966	634.9520893999725	635.9658435999881	637.4277009999496	2020-06-16 09:29:18.266494	-0.0048856563327547	0.0	0.0	0.0	-0.0048856563327547	0.0	0.0048856563327547	0.0	0.0	-0.0048856563327547	0.0	0.0	-7.396084625357529	-2.2156074479917858	-1.8392491937638942	-5.466461890008042	-3.28744210192549	-1.8392491937638942	-0.7068670831579849	-6.26138796052346	1.1346966648340713	-5.595535741531283	1.5406790997756075	1	wrong	1.0
88.86026769998716	9.523959800018929	go_reward	0.2387670999742113	88.99267349997535	91.57438209996326	94.11461769999005	2.5817085999879055	90.00438719999511	93.09092449996388	97.16448539996054	1.569994899968151	1.0236932000261731	1.3521479000337422	96.14885170001071	0.585635099967476	95.1284759999835	1	1	11	1	go_reward	1	1	0	1	1	1	1	0.0	0.0	1	0.2387670999742113	0.585635099967476	548.4746269999887	637.467300499964	638.4790141999838	640.049009099952	641.5655514999526	642.5892446999787	643.6031029999722	644.6234786999994	645.6391123999492	646.991260299983	2020-06-16 09:29:18.266494	8.82855057805606	8.73271519534471	0.0	4.60072954481092	8.82855057805606	0.0	-8.82855057805606	8.73271519534471	0.0	8.82855057805606	0.0	11.04755979036149	1.4373516090312854	6.517107747352924	-1.8392491937638942	-0.8657323451971219	5.545994132463324	-1.8392491937638942	10.340692707203505	2.572048273865355	1.1346966648340713	3.1371794538134266	1.5406790997756075	1	wrong	1.0
98.4408139999723	9.390795500017703	nogo_punish	1.0	98.5732197999605	101.00560669996776	103.51544940000167	2.432386900007259	99.58333069999935	102.50799199996982	106.54796160000842	1.4222759999684058	1.0074574000318535	1.4160536999697797	105.54693089995999	0.4135465999715961	104.5335334999836	1	1	12	4	nogo_punish	1	-1	0	0	0	1	0	0.0	1.0	0	1.0	0.4135465999715961	548.4746269999887	647.0478467999492	648.057957699988	649.4802336999564	650.9826189999585	651.9900763999904	653.0081604999723	654.0215578999487	655.0225885999971	656.4386422999669	2020-06-16 09:29:18.266494	4.36435242487091	-4.33900697159517	0.0	-4.33900697159517	-4.36435242487091	0.0	-4.36435242487091	0.0	-4.33900697159517	0.0	-4.36435242487091	0.0	-3.026846544153864	-6.554614419586956	-1.8392491937638942	-9.805468861603213	-7.646908870463646	-1.8392491937638942	-0.7068670831579849	-6.256502304190705	-3.229655760036839	-5.595535741531283	-2.7983278718195628	1	correct	1.0
107.87830589996884	9.072980099997949	go_punish	0.030199300032109	108.01071169995703	110.29484069999307	112.84157519997098	2.284129000036046	109.01500199997099	111.82103369996184	115.88471339998068	1.2798387000220828	1.0205415000091307	1.198978399974294	114.87204829999246	0.6636651000007987	113.85849549999693	1	1	13	3	go_punish	1	0	-1	1	1	1	0	0.0	1.0	0	0.030199300032109	0.6636651000007987	548.4746269999887	656.4853386999457	657.4896289999597	658.7694676999818	660.2956606999505	661.3162021999597	662.3331224999856	663.3466752999811	664.3593403999694	665.5583187999437	2020-06-16 09:29:18.266494	-0.0048856563327547	0.0	0.0	0.0	-0.0048856563327547	0.0	0.0048856563327547	0.0	0.0	-0.0048856563327547	0.0	0.0	-7.396084625357529	-2.2156074479917858	-1.8392491937638942	-5.466461890008042	-3.28744210192549	-1.8392491937638942	-0.7068670831579849	-6.26138796052346	1.1346966648340713	-5.595535741531283	1.5406790997756075	1	correct	1.0
116.9907966000028	9.093525399977807	go_reward	0.2809544000192545	117.12320239999099	119.86084589996608	122.42608389997622	2.7376434999750927	118.12853929999983	121.40117809997173	125.46572799998103	1.7323065999662504	1.0249058000044897	0.7509997999877669	124.45287219999591	0.5710542000015266	123.43895089998841	1	1	14	1	go_reward	1	1	0	1	1	1	0	0.0	1.0	1	0.2809544000192545	0.5710542000015266	548.4746269999887	665.5978293999797	666.6031662999885	668.3354728999548	669.8758050999604	670.9007108999649	671.9135778999771	672.9274991999846	673.9403549999697	674.6913547999575	2020-06-16 09:29:18.266494	13.5721151649753	13.3334447401556	0.0	11.282467492545	13.5721151649753	0.0	-13.5721151649753	13.3334447401556	0.0	13.5721151649753	0.0	6.446830245550599	6.180916195950525	11.117837292163815	-1.8392491937638942	5.816005602536959	10.289558719382564	-1.8392491937638942	5.739963162392614	7.3156128607845945	1.1346966648340713	7.7379089986243175	1.5406790997756075	1	correct	1.0
126.1287659999798	8.365512299991678	go_punish	0.3930645000073127	126.261171799968	127.82994470000267	130.38325660000555	1.5687729000346735	127.26875190000283	129.3624251000001	133.41493450000416	0.5611927999998443	1.0208315000054426	1.2117495999555103	132.40700149995973	0.3654316999600269	131.39352859999053	1	1	15	3	go_punish	1	0	-1	1	1	1	1	0.0	0.0	0	0.3930645000073127	0.3654316999600269	548.4746269999887	674.7357987999567	675.7433788999915	676.3045716999914	677.8370520999888	678.8578835999942	679.8681555999792	680.8816284999484	681.8895614999929	683.1013110999484	2020-06-16 09:29:18.266494	-0.0048856563327547	0.0	0.0	0.0	-0.0048856563327547	0.0	0.0048856563327547	0.0	0.0	-0.0048856563327547	0.0	0.0	-7.396084625357529	-2.2156074479917858	-1.8392491937638942	-5.466461890008042	-3.28744210192549	-1.8392491937638942	-0.7068670831579849	-6.26138796052346	1.1346966648340713	-5.595535741531283	1.5406790997756075	1	wrong	1.0
134.53492840001127	9.496198199980427	go_reward	0.4680180000141263	134.66733419999946	137.1380657000118	139.6976685000118	2.4707315000123344	135.669821199961	138.67389499995625	142.76977359998273	1.4682445000507869	1.0237735000555404	1.3937587999971583	141.75675259996206	0.4546085000038147	140.71928049996495	1	1	16	1	go_reward	1	1	0	1	1	1	1	0.0	0.0	1	0.4680180000141263	0.4546085000038147	548.4746269999887	683.1419611999881	684.1444481999497	685.6126927000005	687.1485219999449	688.1722955000005	689.1939074999536	690.2313795999507	691.2444005999714	692.6381593999686	2020-06-16 09:29:18.266494	16.198883934447	15.8831970373559	0.0	14.805234549569	16.198883934447	0.0	-16.198883934447	15.8831970373559	0.0	16.198883934447	0.0	3.897077948350299	8.807684965422226	13.667589589364114	-1.8392491937638942	9.33877265956096	12.916327488854265	-1.8392491937638942	3.1902108651923142	9.942381630256296	1.1346966648340713	10.287661295824616	1.5406790997756075	1	wrong	1.0
144.07243409997318	8.274762800021563	nogo_punish	1.0	144.20483989996137	145.99466229998507	148.52454479999142	1.789822400023695	145.21495379996486	147.5037999000051	151.5645120999543	0.779708500020206	1.0207448999863118	0.9150906000286341	150.56320119998418	0.4536462999531068	149.53523270000005	1	1	17	4	nogo_punish	1	-1	0	0	0	1	0	0.0	1.0	0	1.0	0.4536462999531068	548.4746269999887	692.6794668999501	693.6895807999535	694.4692892999738	695.9784268999938	696.9991717999801	698.0098596999887	699.0378281999729	700.039139099943	700.9542296999716	2020-06-16 09:29:18.266494	4.35552676020871	-4.33900697159517	0.0	-2.42415061344118	-4.35552676020871	0.0	-4.35552676020871	0.0	-4.33900697159517	0.0	-4.35552676020871	0.0	-3.035672208816064	-6.554614419586956	-1.8392491937638942	-7.890612503449223	-7.638083205801445	-1.8392491937638942	-0.7068670831579849	-6.256502304190705	-3.220830095374639	-5.595535741531283	-2.7983278718195628	1	correct	1.0
152.38663809996797	10.05513280001469	go_reward	0.289802499988582	152.51904389995616	155.49702640000032	158.06336839997675	2.9779825000441633	153.53056240000296	157.03916939999908	161.10311259998707	1.9664639999973588	1.0241989999776706	1.4710640999837779	160.09054820000893	0.5838068000157364	159.07706019998295	1	1	18	1	go_reward	1	1	0	1	1	1	1	0.0	0.0	1	0.289802499988582	0.5838068000157364	548.4746269999887	700.9936708999448	702.0051893999917	703.971653399989	705.5137963999878	706.5379953999654	707.5516871999716	708.5651751999976	709.5777395999758	711.0488036999595	2020-06-16 09:29:18.266494	17.7139187665536	17.3549868467692	0.0	16.7617203596063	17.7139187665536	0.0	-17.7139187665536	17.3549868467692	0.0	17.7139187665536	0.0	2.425288138936999	10.322719797528826	15.139379398777415	-1.8392491937638942	11.29525846959826	14.431362320960865	-1.8392491937638942	1.718421055779014	11.457416462362897	1.1346966648340713	11.759451105237918	1.5406790997756075	1	wrong	1.0
162.482863000012	8.073947799974121	nogo_reward	0.3968093000003136	162.6152688000002	164.1860277999658	166.72403310000664	1.5707589999656193	163.62517640000442	165.69575379998423	169.77128950000042	0.5608513999613933	1.0282793000224046	0.9179270999738947	168.75829540000996	0.5674326000153087	167.73745109996526	1	1	19	2	nogo_reward	1	0	1	0	1	0	0	0.0	1.0	0	0.3968093000003136	0.5674326000153087	548.4746269999887	711.0898957999889	712.0998033999931	712.6606547999545	714.1703807999729	715.1986600999953	716.2120780999539	717.2329223999986	718.2459164999891	719.163843599963	2020-06-16 09:29:18.266494	-0.0048856563327547	0.0	0.0	0.0	-0.0048856563327547	0.0	0.0048856563327547	0.0	0.0	-0.0048856563327547	0.0	0.0	-7.396084625357529	-2.2156074479917858	-1.8392491937638942	-5.466461890008042	-3.28744210192549	-1.8392491937638942	-0.7068670831579849	-6.26138796052346	1.1346966648340713	-5.595535741531283	1.5406790997756075	1	correct	1.0
170.60399600001983	9.126427499984857	go_punish	1.0	170.73640180000803	173.4361088000005	175.97193729999708	2.699706999992486	171.73411349998787	174.95258979999926	179.02608409995446	1.7019953000126407	1.0193474999978207	0.8367452000384219	178.01281839999137	0.5432086000218987	176.98381479998352	1	1	20	3	go_punish	0	-1	0	1	0	0	0	0.0	1.0	0	1.0	0.5432086000218987	548.4746269999887	719.2110287999967	720.2087404999766	721.9107357999892	723.427216799988	724.4465642999858	725.4584417999722	726.4874453999801	727.5007110999431	728.3374562999816	2020-06-16 09:29:18.266494	0.0048856563327547	0.0	0.0	0.0	-0.0048856563327547	0.0	-0.0048856563327547	0.0	0.0	0.0	-0.0048856563327547	0.0	-7.386313312692019	-2.2156074479917858	-1.8392491937638942	-5.466461890008042	-3.28744210192549	-1.8392491937638942	-0.7068670831579849	-6.256502304190705	1.1298110085013167	-5.595535741531283	1.5406790997756075	1	correct	1.0
179.76807380001992	8.950276999967173	nogo_reward	1.0	179.9004796000081	181.8747236999916	184.40139559999807	1.9742440999834798	180.91326090000803	183.37646840000525	187.45159690000582	0.9614627999835648	1.024927199992817	1.3991596999694593	186.4372635000036	0.5447149999672547	185.41511000000173	1	1	21	2	nogo_reward	1	0	1	0	0	1	1	0.0	0.0	1	1.0	0.5447149999672547	548.4746269999887	728.3751065999968	729.3878878999967	730.3493506999803	731.8510953999939	732.8760225999868	733.8897369999904	734.9118904999923	735.9262238999945	737.325383599964	2020-06-16 09:29:18.266494	0.0048856563327547	0.0	0.0	0.0	-0.0048856563327547	0.0	-0.0048856563327547	0.0	0.0	0.0	-0.0048856563327547	19.7802749857062	-7.386313312692019	-2.2156074479917858	-1.8392491937638942	-5.466461890008042	-3.28744210192549	-1.8392491937638942	19.073407902548215	-6.256502304190705	1.1298110085013167	-5.595535741531283	1.5406790997756075	1	wrong	1.0
188.76032639999175	9.42542709998088	nogo_reward	1.0	188.89273219997995	191.4506943000015	193.9820655999938	2.557962100021541	189.90525819995673	192.95942869997816	197.02812719997019	1.5454361000447534	1.022636900015641	1.2900320999906398	196.02104809996672	0.4083124999888241	194.9954216000042	1	1	22	2	nogo_reward	1	0	1	0	0	1	0	1.0	0.0	1	1.0	0.4083124999888241	548.4746269999887	737.3673591999686	738.3798851999454	739.9253212999902	741.4340556999668	742.4566925999825	743.4700485999929	744.4956750999554	745.5027541999589	746.7927862999495	2020-06-16 09:29:18.266494	8.55049585547722	0.0	8.73271519534471	8.73271519534471	0.182219339867482	8.73271519534471	-8.55049585547722	8.73271519534471	0.0	8.73271519534471	0.182219339867482	11.04755979036149	1.159296886452445	-2.2156074479917858	6.893466001580816	3.266253305336668	-3.100337105725253	6.893466001580816	10.340692707203505	2.476212891154005	1.3169160047015533	3.1371794538134266	1.5406790997756075	1	wrong	1.0
198.22822049999377	8.86818749998929	nogo_reward	1.0	198.36062629998196	200.24648400000297	202.7797997999587	1.8858577000210062	199.3775667999871	201.75615269999253	205.83614209998632	0.8689172000158578	1.0236470999661833	1.3926716999849305	204.82222589995945	0.4378638999769464	203.79390759998932	1	1	23	2	nogo_reward	1	0	1	0	0	1	1	1.0	1.0	1	1.0	0.4378638999769464	548.4746269999887	746.8352532999706	747.8521937999758	748.7211109999917	750.2307796999812	751.2544267999474	752.268534599978	753.2968528999481	754.310769099975	755.7034407999599	2020-06-16 09:29:18.266494	13.050504361244	0.0	13.3334447401556	13.3334447401556	0.282940378911593	13.3334447401556	-13.050504361244	13.3334447401556	0.0	13.3334447401556	0.282940378911593	6.446830245550599	5.659305392219226	-2.2156074479917858	11.494195546391706	7.866982850147559	-2.999616066681142	11.494195546391706	5.739963162392614	7.076942435964896	1.4176370437456642	7.7379089986243175	1.5406790997756075	1	correct	1.0
207.13855550001608	8.771057299978565	nogo_reward	1.0	207.27096130000427	209.04404439998325	211.5894900999847	1.773083099978976	208.2800572999986	210.56062879995443	214.64989199995762	0.7639870999846607	1.0288613000302576	1.3921266000252217	213.63766509998823	0.7243211999884807	212.6074606999755	1	1	24	2	nogo_reward	0	1	0	0	0	1	1	1.0	1.0	0	1.0	0.7243211999884807	548.4746269999887	755.745588299993	756.7546842999873	757.5186713999719	759.0352557999431	760.0641170999734	761.0820876999642	762.1122920999769	763.1245189999463	764.5166455999715	2020-06-16 09:29:18.266494	15.5438055734921	0.0	15.8831970373559	15.8831970373559	0.339391463863798	15.8831970373559	-15.5438055734921	15.8831970373559	0.0	15.8831970373559	0.339391463863798	-15.8831970373559	8.152606604467326	-2.2156074479917858	14.043947843592006	10.416735147347858	-2.943164981728937	14.043947843592006	-16.590064120513887	9.626694733165195	1.4740881286978693	10.287661295824616	1.5406790997756075	1	correct	1.0
215.96003989997553	8.059106800006703	go_punish	1.0	216.09244569996372	217.60127679997822	220.13737319997745	1.508831100014504	217.10248890001094	219.11783909995575	223.1892896000063	0.498787899967283	1.0195341000217013	0.9622628999641165	222.17682409996632	0.431862799974624	221.1548882999923	1	1	25	3	go_punish	0	-1	0	1	0	0	0	0.0	1.0	0	1.0	0.431862799974624	548.4746269999887	764.5670726999524	765.5771158999996	766.0759037999669	767.5924660999444	768.6120001999661	769.629515299981	770.651451099955	771.663916599995	772.6261794999591	2020-06-16 09:29:18.266494	0.0048856563327547	0.0	0.0	0.0	-0.0048856563327547	0.0	-0.0048856563327547	0.0	0.0	0.0	-0.0048856563327547	0.0	-7.386313312692019	-2.2156074479917858	-1.8392491937638942	-5.466461890008042	-3.28744210192549	-1.8392491937638942	-0.7068670831579849	-6.256502304190705	1.1298110085013167	-5.595535741531283	1.5406790997756075	1	correct	1.0
224.0588451999938	7.957164700026624	nogo_punish	1.0	224.191250999982	225.66986059996998	228.19819669995923	1.4786095999879763	225.20219159999397	227.1785767999827	231.25347279995913	0.46766899997601286	1.019619899976533	0.8949429000495002	230.24818019999657	0.7272773999720812	229.21640199999092	1	1	26	4	nogo_punish	1	-1	0	0	0	1	0	0.0	1.0	0	1.0	0.7272773999720812	548.4746269999887	772.6658779999707	773.6768185999827	774.1444875999587	775.6532037999714	776.6728236999479	777.6910289999796	778.7228071999853	779.7280997999478	780.6230426999973	2020-06-16 09:29:18.266494	4.35074618931908	-4.33900697159517	0.0	-1.41607078944641	-4.35074618931908	0.0	-4.35074618931908	0.0	-4.33900697159517	0.0	-4.35074618931908	0.0	-3.040452779705694	-6.554614419586956	-1.8392491937638942	-6.882532679454452	-7.633302634911816	-1.8392491937638942	-0.7068670831579849	-6.256502304190705	-3.216049524485009	-5.595535741531283	-2.7983278718195628	1	correct	1.0
232.0622531999834	7.951968599983957	nogo_reward	1.0	232.19465899997158	233.62450360000366	236.1661084999796	1.4298446000320837	233.2040294999606	235.14172759995563	239.21584570000414	0.42047410004306585	1.0243809000239708	0.9307818999513984	238.20289439999033	0.3681497999932617	237.17405539995525	1	1	27	2	nogo_reward	1	0	1	0	0	1	0	0.0	1.0	1	1.0	0.3681497999932617	548.4746269999887	780.6692859999603	781.6786564999493	782.0991305999923	783.6163545999443	784.6407354999683	785.6486823999439	786.677521399979	787.6904726999928	788.6212545999442	2020-06-16 09:29:18.266494	8.43723866558148	0.0	8.62227165142452	8.62227165142452	0.185032985843039	8.62227165142452	-8.43723866558148	8.62227165142452	0.0	8.62227165142452	0.185032985843039	11.15800333428168	1.046039696556706	-2.2156074479917858	6.783022457660625	3.155809761416477	-3.0975234597496963	6.783022457660625	10.451136251123696	2.3657693472338144	1.3197296506771103	3.026735909893236	1.5406790997756075	1	correct	1.0
240.05695689999266	8.40261069999542	go_punish	1.0	240.18936269998085	241.66478759999154	244.19678339996608	1.4754249000106938	241.19742829998722	243.1734878999996	247.24721100000897	0.46735930000431836	1.0232954999664798	1.3447623999672942	246.24044249998406	0.5024447999894619	245.21119860000908	1	1	28	3	go_punish	1	0	-1	1	0	0	0	0.0	1.0	-1	1.0	0.5024447999894619	548.4746269999887	788.6639896999695	789.6720552999759	790.1394145999802	791.6481148999883	792.6714103999548	793.6858255999978	794.7150694999727	795.7218379999977	797.066600399965	2020-06-16 09:29:18.266494	0.0048856563327547	0.0	0.0	0.0	-0.0048856563327547	0.0	-0.0048856563327547	0.0	0.0	0.0	-0.0048856563327547	-6.70845649460942	-7.386313312692019	-2.2156074479917858	-1.8392491937638942	-5.466461890008042	-3.28744210192549	-1.8392491937638942	-7.4153235777674045	-6.256502304190705	1.1298110085013167	-5.595535741531283	1.5406790997756075	1	correct	1.0
248.49849879997782	9.113667400029954	nogo_reward	1.0	248.63090459996602	251.39523259998532	253.9210424000048	2.7643280000193045	249.63572839996777	252.90239790000487	256.9688487999956	1.7595042000175454	1.0186444999999367	0.7757232000003569	255.96386069996515	0.5628488999791443	254.93473119998816	1	1	29	2	nogo_reward	1	0	1	0	0	1	1	0.0	0.0	1	1.0	0.5628488999791443	548.4746269999887	797.1055315999547	798.1103553999565	799.869859599974	801.3770248999936	802.3956693999935	803.4093581999769	804.4384876999538	805.4434757999843	806.2191989999847	2020-06-16 09:29:18.266494	13.341823225289	0.0	13.6327806242087	13.6327806242087	0.29095739891972	13.6327806242087	-13.341823225289	13.6327806242087	0.0	13.6327806242087	0.29095739891972	6.1474943614975	5.950624256264225	-2.2156074479917858	11.793531430444805	8.166318734200658	-2.991599046673015	11.793531430444805	5.440627278339516	7.376278320017994	1.4256540637537913	8.037244882677417	1.5406790997756075	1	wrong	1.0
257.6522503999877	8.758833400032017	nogo_punish	1.0	257.78465619997587	259.7005834999727	262.22467440000037	1.915927299996838	258.7964980999823	261.2096146999975	265.26796269998886	0.9040853999904357	1.0150597000028938	1.275526900019031	264.261292799958	0.417884900001809	263.2387388999923	1	1	30	4	nogo_punish	1	-1	0	0	0	1	0	0.0	1.0	0	1.0	0.417884900001809	548.4746269999887	806.2592831999646	807.271125099971	808.1752104999614	809.6842416999862	810.699301399989	811.713365899981	812.7359197999467	813.7425896999775	815.0181165999966	2020-06-16 09:29:18.266494	4.34805188575407	-4.33900697159517	0.0	-0.857098993476364	-4.34805188575407	0.0	-4.34805188575407	0.0	-4.33900697159517	0.0	-4.34805188575407	0.0	-3.0431470832707044	-6.554614419586956	-1.8392491937638942	-6.323560883484406	-7.630608331346805	-1.8392491937638942	-0.7068670831579849	-6.256502304190705	-3.2133552209199987	-5.595535741531283	-2.7983278718195628	1	correct	1.0
266.4559456999996	9.176390199980233	go_punish	0.2165772999869659	266.58835149998777	268.63398649997544	271.2367616999545	2.0456349999876693	267.58867159998044	270.2130836999859	274.2713502999977	1.0453148999949917	1.0236779999686405	1.4933913999702781	273.2667347000097	0.962273399985861	272.24523619998945	1	1	31	3	go_punish	0	-1	0	1	1	1	0	0.0	1.0	-1	0.2165772999869659	0.962273399985861	548.4746269999887	815.0629784999765	816.0632985999691	817.1086134999641	818.6877106999746	819.7113886999432	820.7198631999781	821.7413616999984	822.7459772999864	824.2393686999567	2020-06-16 09:29:18.266494	2.78287826103864	0.0	-2.80086968893497	-2.80086968893497	-0.0179914278963222	-2.80086968893497	-2.78287826103864	0.0	-2.80086968893497	-0.0179914278963222	-2.80086968893497	-6.70845649460942	-4.608320707986135	-2.2156074479917858	-4.640118882698864	-8.267331578943011	-3.3005478734890574	-4.640118882698864	-7.4153235777674045	-6.274493732087027	-1.6661730241008987	-5.595535741531283	-1.2601905891593626	1	correct	1.0
275.67705200001365	8.464326399960555	nogo_punish	1.0	275.80945780000184	277.7844258999685	280.31257750000805	1.9749680999666452	276.82446879998315	279.3010310999816	283.37411319999956	0.9599570999853313	1.0115464000264183	0.8996709999628365	282.36095519998344	0.5560128000215627	281.3314620999736	1	1	32	4	nogo_punish	1	-1	0	0	0	1	1	0.0	0.0	0	1.0	0.5560128000215627	548.4746269999887	824.2840847999905	825.2990957999718	826.2590528999572	827.7756580999703	828.7872044999967	829.8060890999623	830.8355821999721	831.8487401999882	832.7484111999511	2020-06-16 09:29:18.266494	4.34647257236559	-4.33900697159517	0.0	-0.534082403943876	-4.34647257236559	0.0	-4.34647257236559	0.0	-4.33900697159517	0.0	-4.34647257236559	0.0	-3.0447263966591844	-6.554614419586956	-1.8392491937638942	-6.0005442939519185	-7.6290290179583256	-1.8392491937638942	-0.7068670831579849	-6.256502304190705	-3.2117759075315186	-5.595535741531283	-2.7983278718195628	1	wrong	1.0
284.182117999997	8.373258400009945	nogo_reward	1.0	284.3145237999852	286.13503949996084	288.67627269995864	1.8205156999756582	285.3246983999852	287.6526461999747	291.73208069999237	0.8103410999756306	1.0236264999839477	0.9557015000027604	290.719022699981	0.4666138000320643	289.68991720001213	1	1	33	2	nogo_reward	1	0	1	0	0	1	0	0.0	1.0	1	1.0	0.4666138000320643	548.4746269999887	832.7891507999739	833.7993253999739	834.6096664999495	836.1272731999634	837.1508996999473	838.1645442000008	839.1936496999697	840.206707699981	841.1624091999838	2020-06-16 09:29:18.266494	15.8759730294916	0.0	16.2231343693575	16.2231343693575	0.347161339865822	16.2231343693575	-15.8759730294916	16.2231343693575	0.0	16.2231343693575	0.347161339865822	3.5571406163487005	8.484774060466826	-2.2156074479917858	14.383885175593605	10.756672479349458	-2.935395105726913	14.383885175593605	2.8502735331907156	9.966632065166795	1.4818580046998933	10.627598627826217	1.5406790997756075	1	correct	1.0
292.5947606000118	8.122484199993778	go_reward	0.2788318999810144	292.7271664	294.2956361999968	296.8428281999659	1.5684697999968193	293.7388731999672	295.8282077999902	299.90330659999745	0.5567630000296049	1.0146203999756835	0.9463439999963157	298.88990429998375	0.6667416000273079	297.87558279995574	1	1	34	1	go_reward	0	0	1	1	1	1	0	0.0	1.0	0	0.2788318999810144	0.6667416000273079	548.4746269999887	841.2017933999887	842.2135001999559	842.7702631999855	844.3028347999789	845.3174551999546	846.3502097999444	847.3645312999724	848.3779335999861	849.3242775999825	2020-06-16 09:29:18.266494	18.6175821379171	18.2335101690196	0.0	17.8943633443073	18.6175821379171	0.0	-18.6175821379171	18.2335101690196	0.0	18.6175821379171	0.0	-18.2335101690196	11.226383168892326	16.017902721027813	-1.8392491937638942	12.42790145429926	15.335025692324365	-1.8392491937638942	-18.940377252177584	12.361079833726397	1.1346966648340713	12.637974427488317	1.5406790997756075	1	correct	1.0
300.757926899998	8.520847400010098	nogo_punish	1.0	300.8903326999862	302.3285681999987	304.8701348999748	1.4382355000125244	301.9001996999723	303.8461871999898	307.9180051999865	0.4283685000264086	1.0239476999850012	1.4931749000097625	306.91162649996113	0.5499388999887742	305.88450469996314	1	1	35	4	nogo_punish	0	0	-1	0	0	1	0	0.0	1.0	-1	1.0	0.5499388999887742	548.4746269999887	849.3649596999749	850.374826699961	850.8031951999874	852.3208141999785	853.3447618999635	854.3591316999518	855.3862534999498	856.3926321999752	857.885807099985	2020-06-16 09:29:18.266494	4.34551699869322	-4.33900697159517	0.0	-0.341010561137288	-4.34551699869322	0.0	-4.34551699869322	0.0	-4.33900697159517	0.0	-4.34551699869322	-6.70845649460942	-3.0456819703315547	-6.554614419586956	-1.8392491937638942	-5.80747245114533	-7.628073444285954	-1.8392491937638942	-7.4153235777674045	-6.256502304190705	-3.2108203338591483	-5.595535741531283	-2.7983278718195628	1	correct	1.0
309.32456380000804	9.620347999967635	go_punish	0.5727540000225417	309.4569695999962	312.2966821999871	314.8466702000005	2.8397125999908894	310.46159659995465	313.82317290001083	317.8814843999571	1.8350856000324711	1.0234972999896854	1.1958332000067458	316.8731925999746	0.5510171999922022	315.8604001000058	1	1	36	3	go_punish	0	-1	0	1	1	1	0	0.0	1.0	-1	0.5727540000225417	0.5510171999922022	548.4746269999887	857.9315965999849	858.9362235999433	860.7713091999758	862.2977998999995	863.3212971999892	864.3350270999945	865.3478195999633	866.3561113999458	867.5519445999525	2020-06-16 09:29:18.266494	-0.0253454532757426	-2.80086968893497	-2.80086968893497	-4.33900697159517	-2.82621514221071	-2.80086968893497	0.0253454532757426	-2.80086968893497	-2.80086968893497	-2.82621514221071	-2.80086968893497	-3.90758680567445	-7.416544422300517	-5.016477136926756	-4.640118882698864	-9.805468861603213	-6.108771587803445	-4.640118882698864	-4.6144538888324345	-9.082717446401414	-1.6661730241008987	-8.396405430466253	-1.2601905891593626	1	correct	1.0
318.98736859997734	9.159601900028065	nogo_punish	1.0	319.11977439996554	321.4854960999801	324.0143537999829	2.3657217000145465	320.12838559999363	322.994780500012	327.05856309999945	1.3571104999864474	1.0195732999709435	1.2208131999941543	326.045210399956	0.3962842000182718	325.0321687000105	1	1	37	4	nogo_punish	1	-1	0	0	0	1	1	0.0	0.0	0	1.0	0.3962842000182718	548.4746269999887	867.5944013999542	868.6030125999823	869.9601230999688	871.4694075000007	872.4889807999716	873.5067956999992	874.5198373999447	875.5331900999881	876.7540032999823	2020-06-16 09:29:18.266494	1.55716096325186	-4.33900697159517	-2.80086968893497	-3.02317992856698	-4.35803065218682	-2.80086968893497	-1.55716096325186	-2.80086968893497	-4.33900697159517	-2.80086968893497	-4.35803065218682	2.80086968893497	-5.834038005772914	-6.554614419586956	-4.640118882698864	-8.489641818575022	-7.640587097779555	-4.640118882698864	2.094002605776985	-9.057371993125674	-3.223333987352749	-8.396405430466253	-2.7983278718195628	1	wrong	1.0
328.1899436999811	8.102957500028424	go_reward	0.3271470000036061	328.3223494999693	329.6810586999636	332.2355801999802	1.3587091999943368	329.3221954999608	331.21408109995537	335.29880140000023	0.3588632000028156	1.021499100024812	1.126505599997472	334.27984729997115	0.8904987000278197	333.25684290000936	1	1	38	1	go_reward	1	1	0	1	1	1	0	1.0	0.0	1	0.3271470000036061	0.8904987000278197	548.4746269999887	876.796976499958	877.7968224999495	878.1556856999523	879.688708099944	880.7102071999689	881.731469899998	882.7544742999598	883.7734283999889	884.8999339999864	2020-06-16 09:29:18.266494	10.2521747324968	10.040171471213	0.0	9.84001037788735	10.2521747324968	0.0	-10.2521747324968	10.040171471213	0.0	10.2521747324968	0.0	9.7401035144932	2.860975763472025	7.824564023221214	-1.8392491937638942	4.373548487879307	6.969618286904064	-1.8392491937638942	9.033236431335215	3.9956724283060945	1.1346966648340713	4.444635729681717	1.5406790997756075	1	wrong	1.0
336.3296693000011	8.457175999996252	nogo_punish	1.0	336.4620750999893	338.14625170000363	340.6684925999725	1.6841766000143252	337.476087499992	339.649083199969	343.72318420000374	0.6701642000116408	1.0194094000034966	1.1960668999818154	342.70960339996964	0.378602199954912	341.68665980000515	1	1	39	4	nogo_punish	1	-1	0	0	0	1	1	0.0	0.0	0	1.0	0.378602199954912	548.4746269999887	884.936702099978	885.9507144999807	886.6208786999923	888.1237101999577	889.1431195999612	890.1612867999938	891.1842303999583	892.1978111999924	893.3938780999742	2020-06-16 09:29:18.266494	2.81376829748242	-4.33900697159517	-1.5381372826602	-1.68570167252307	-4.35190558014263	-1.5381372826602	-2.81376829748242	-1.5381372826602	-4.33900697159517	-1.5381372826602	-4.35190558014263	1.5381372826602	-4.577430671542354	-6.554614419586956	-3.3773864764240944	-7.152163562531112	-7.634462025735365	-3.3773864764240944	0.8312701995022151	-7.794639586850905	-3.217208915308559	-7.133673024191483	-2.7983278718195628	1	wrong	1.0
344.82557200000156	8.328664899978321	go_reward	0.3303623999818228	344.95797779998975	346.52593899995554	349.0728776999749	1.5679611999657936	345.9646684000036	348.05175729998155	352.12830380001105	0.5612705999519676	1.0211203999933787	1.158338899957016	351.11452459997963	0.3776070000021718	350.085704099969	1	1	40	1	go_reward	1	1	0	1	1	1	1	0.0	0.0	1	0.3303623999818228	0.3776070000021718	548.4746269999887	893.4326047999784	894.4392953999923	895.0005659999442	896.5263842999702	897.5475046999636	898.5603310999577	899.5891515999683	900.6029307999997	901.7612696999568	2020-06-16 09:29:18.266494	14.8189642608182	14.5113725259592	0.0	14.3899798663695	14.8189642608182	0.0	-14.8189642608182	14.5113725259592	0.0	14.8189642608182	0.0	5.268902459747	7.427765291793426	12.295765077967413	-1.8392491937638942	8.92351797636146	11.536407815225465	-1.8392491937638942	4.562035376589016	8.562461956627494	1.1346966648340713	8.915836784427917	1.5406790997756075	1	wrong	1.0
353.19563319999713	8.573199399980012	go_punish	1.0	353.3280389999853	354.9931968000019	357.5255538999917	1.6651578000165728	354.33779109996976	356.50910580001073	360.5800733999931	0.6554057000321336	1.0164480999809484	1.3211649999722113	359.56696580001153	0.5492971999919973	358.5410266999969	1	1	41	3	go_punish	1	0	-1	1	0	0	0	0.0	1.0	-1	1.0	0.5492971999919973	548.4746269999887	901.802665999974	902.8124180999584	903.4678237999906	904.9837327999994	906.0001808999804	907.0156536999856	908.0415928000002	909.0547003999818	910.375865399954	2020-06-16 09:29:18.266494	1.56776284283731	-4.33900697159517	-2.80086968893497	-5.22502030237615	-4.36863253177228	-2.80086968893497	-1.56776284283731	-2.80086968893497	-4.33900697159517	-2.80086968893497	-4.36863253177228	-3.90758680567445	-5.823436126187464	-6.554614419586956	-4.640118882698864	-10.691482192384193	-7.651188977365015	-4.640118882698864	-4.6144538888324345	-9.057371993125674	-3.233935866938209	-8.396405430466253	-2.7983278718195628	1	correct	1.0
361.80968469998334	9.232201700040605	nogo_reward	1.0	361.9420904999715	364.7132985999925	367.25383549998514	2.771208100020999	362.95632599998487	366.2305403999635	370.2883388999617	1.756972600007657	1.0232951000216417	0.8859533000504598	369.2833210999961	0.6293914999696426	368.2758275999805	1	1	42	2	nogo_reward	1	0	1	0	0	1	0	0.0	1.0	1	1.0	0.6293914999696426	548.4746269999887	910.4167174999602	911.4309529999736	913.1879255999812	914.7051673999522	915.7284624999738	916.7504545999692	917.7579480999848	918.7629658999504	919.6489192000008	2020-06-16 09:29:18.266494	17.2620165351981	0.0	17.6403122613568	17.6403122613568	0.37829572615872	17.6403122613568	-17.2620165351981	17.6403122613568	0.0	17.6403122613568	0.37829572615872	2.139962724349399	9.870817566173326	-2.2156074479917858	15.801063067592906	12.17385037134876	-2.9042607194340153	15.801063067592906	1.433095641191414	11.383809957166097	1.5129923909927911	12.044776519825518	1.5406790997756075	1	correct	1.0
371.0851908000187	9.270904999982804	go_punish	0.3325616000220179	371.2175966000069	373.4396731999585	375.9710422999925	2.222076599951606	372.2243388000061	374.9559603999951	379.0161873999749	1.2153343999524395	1.0150818999974263	1.4723142000148073	378.0090266999905	0.5162036000401713	376.9881452000117	1	1	43	3	go_punish	1	0	-1	1	1	1	1	0.0	0.0	0	0.3325616000220179	0.5162036000401713	548.4746269999887	919.6922235999956	920.6989657999948	921.9143001999472	923.4305873999838	924.4456692999812	925.4627722000004	926.4836536999792	927.4908143999636	928.9631285999784	2020-06-16 09:29:18.266494	-0.032199014666896	-4.33900697159517	-4.33900697159517	-5.75507776104158	-4.37120598626207	-4.33900697159517	0.032199014666896	-4.33900697159517	-4.33900697159517	-4.37120598626207	-4.33900697159517	4.33900697159517	-7.42339798369167	-6.554614419586956	-6.178256165359064	-11.221539651049621	-7.653762431854805	-6.178256165359064	3.632139888437185	-10.627708290452775	-3.2043103067610987	-9.934542713126454	-2.7983278718195628	1	wrong	1.0
380.4001646999967	8.259349200001566	go_punish	0.4161481999908574	380.5325704999849	382.21896839997487	384.76368440000806	1.68639789998997	381.5330635999561	383.74408340000093	387.8061328000041	0.6859048000187613	1.0196010000071283	0.9857868999823722	386.79877960000897	0.6294836000306532	385.7767493999563	1	1	44	3	go_punish	1	0	-1	1	1	1	0	0.0	1.0	0	0.4161481999908574	0.6294836000306532	548.4746269999887	929.0071974999736	930.0076905999448	930.6935953999636	932.2187103999896	933.2383113999967	934.251376399945	935.2734065999977	936.2807597999928	937.2665466999752	2020-06-16 09:29:18.266494	1.89417731171431	-2.42415061344118	-4.33900697159517	-3.28124960691754	-2.44482965988087	-4.33900697159517	-1.89417731171431	-2.42415061344118	-4.33900697159517	-2.44482965988087	-4.33900697159517	2.42415061344118	-5.497021657310464	-4.639758061432966	-6.178256165359064	-8.747711496925582	-5.727386105473605	-6.178256165359064	1.7172835302831952	-8.701331964071574	-3.2043103067610987	-8.019686354972464	-2.7983278718195628	1	correct	1.0
388.69671459996607	8.471657300018705	nogo_punish	1.0	388.82912039995426	390.6912975999877	393.2077946999925	1.8621772000334431	389.8492471000063	392.19439979997696	396.2607574999565	0.8420504999813829	1.0133949000155553	1.0400202000164427	395.24758029996894	0.4111505000037141	394.2258992999559	1	1	45	4	nogo_punish	1	-1	0	0	0	1	0	0.0	1.0	0	1.0	0.4111505000037141	548.4746269999887	937.303747399943	938.323874099995	939.1659245999764	940.6690267999656	941.6824216999812	942.7005262999446	943.7222072999576	944.7353844999452	945.7754046999617	2020-06-16 09:29:18.266494	3.46258001464805	-4.33900697159517	-0.886013330780976	-0.985527257389463	-4.34859334542902	-0.886013330780976	-3.46258001464805	-0.886013330780976	-4.33900697159517	-0.886013330780976	-4.34859334542902	0.886013330780976	-3.9286189543767245	-6.554614419586956	-2.72526252454487	-6.451989147397505	-7.631149791021755	-2.72526252454487	0.17914624762299114	-7.142515634971681	-3.2138966805949485	-6.4815490723122595	-2.7983278718195628	1	correct	1.0
397.20985340001073	7.720199999981446	nogo_punish	1.0	397.3422591999989	398.7011440999921	401.2325527999783	1.3588848999931997	398.3593725999817	400.2186392999721	404.28768899996066	0.34177150001039536	1.013913500006197	0.7747702000197023	403.27401049999753	0.3422338999807834	402.24417540000286	1	1	46	4	nogo_punish	1	-1	0	0	0	1	0	1.0	0.0	0	1.0	0.3422338999807834	548.4746269999887	945.8168861999876	946.8339995999704	947.1757710999808	948.6932662999608	949.707179799967	950.7188023999915	951.7486374999862	952.7623159999494	953.537086199969	2020-06-16 09:29:18.266494	3.81667578994108	-4.33900697159517	-0.53005745866543	-0.598119054109654	-4.34673324860651	-0.53005745866543	-3.81667578994108	-0.53005745866543	-4.33900697159517	-0.53005745866543	-4.34673324860651	0.53005745866543	-3.574523179083694	-6.554614419586956	-2.3693066524293243	-6.064580944117696	-7.629289694199246	-2.3693066524293243	-0.17680962449255488	-6.786559762856135	-3.2120365837724387	-6.125593200196714	-2.7983278718195628	1	wrong	1.0
404.97560559998954	7.9531981000327505	nogo_reward	1.0	405.1080113999777	406.5148826999939	409.04728439997416	1.4068713000161779	406.1252023999697	408.02420729998255	412.0956993000001	0.3896803000242244	1.0230770999916103	0.9655102000103852	411.0838300999603	0.8156492999987677	410.0613905999925	1	1	47	2	nogo_reward	1	0	1	0	0	1	0	0.0	1.0	1	1.0	0.8156492999987677	548.4746269999887	953.5826383999664	954.5998293999584	954.9895096999826	956.4988342999712	957.5219113999628	958.5360175999812	959.558457099949	960.5703262999888	961.5358364999992	2020-06-16 09:29:18.266494	18.0551993556398	0.0	18.4514014931425	18.4514014931425	0.3962021375027	18.4514014931425	-18.0551993556398	18.4514014931425	0.0	18.4514014931425	0.3962021375027	1.328873492563698	10.664000386615026	-2.2156074479917858	16.612152299378607	12.98493960313446	-2.886354308090035	16.612152299378607	0.6220064094057132	12.194899188951798	1.5308988023367713	12.85586575161122	1.5406790997756075	1	correct	1.0
412.9700424000039	8.125379999983238	go_reward	0.2886250000447035	413.10244819999207	414.89644419995614	417.43398510001134	1.7939959999640678	414.1169010999729	416.4221377999637	420.4691429999657	0.7795430999832433	1.0118473000476342	0.7586852000096087	419.45533619995695	0.7566948000458069	418.44243200001074	1	1	48	1	go_reward	1	1	0	1	1	1	0	0.0	1.0	1	0.2886250000447035	0.7566948000458069	548.4746269999887	961.5770751999808	962.5915280999616	963.3710711999448	964.8967647999524	965.9086121	966.9170589999994	967.9299631999456	968.9437699999544	969.702455199964	2020-06-16 09:29:18.266494	17.1377775254696	16.7801725181927	0.0	16.7047978940942	17.1377775254696	0.0	-17.1377775254696	16.7801725181927	0.0	17.1377775254696	0.0	3.0001024675135	9.746578556444824	14.564565070200914	-1.8392491937638942	11.238336004086158	13.855221079876863	-1.8392491937638942	2.293235384355515	10.881275221278894	1.1346966648340713	11.184636776661417	1.5406790997756075	1	correct	1.0
421.13601850002317	7.988072299980331	go_reward	0.7761332999798469	421.26842430001136	422.54996169998776	425.1000243999879	1.2815373999764006	422.2784942999715	424.07436560001213	428.14353369997116	0.2714674000162631	1.0256587999757585	1.112962900020534	427.1404709999915	0.4018897999776527	426.11314370000036	1	1	49	1	go_reward	1	1	0	1	1	1	0	1.0	0.0	1	0.7761332999798469	0.4018897999776527	548.4746269999887	969.7430513	970.7531212999602	971.0245886999764	972.5489926000008	973.5746513999766	974.587770699989	975.6150979999802	976.6181606999598	977.7311235999804	2020-06-16 09:29:18.266494	18.3855336325583	18.0005831265039	0.0	17.9528087713591	18.3855336325583	0.0	-18.3855336325583	18.0005831265039	0.0	18.3855336325583	0.0	1.7796918592022983	10.994334663533525	15.784975678512115	-1.8392491937638942	12.486346881351057	15.102977186965564	-1.8392491937638942	1.0728247760443135	12.129031328367596	1.1346966648340713	12.405047384972619	1.5406790997756075	1	wrong	1.0
429.16615619999357	9.186114299984183	go_reward	0.2750312000280246	429.29856199998176	432.07094860001234	434.6308062999741	2.772386600030586	430.3061653999613	433.61256049998326	437.6861599999829	1.7647832000510562	1.0182457999908365	0.7985162999830209	436.67310789995827	0.4334327999968081	435.6445738999755	1	1	50	1	go_reward	1	1	0	1	1	1	1	1.0	1.0	1	0.2750312000280246	0.4334327999968081	548.4746269999887	977.7731889999704	978.78079239995	980.545575600001	982.087187499972	983.1054332999628	984.1192008999642	985.147734899947	986.1607869999716	986.9593032999546	2020-06-16 09:29:18.266494	19.0890188224688	18.6885233790464	0.0	18.657687379751	19.0890188224688	0.0	-19.0890188224688	18.6885233790464	0.0	19.0890188224688	0.0	1.0917516066597983	11.697819853444027	16.472915931054615	-1.8392491937638942	13.191225489742958	15.806462376876066	-1.8392491937638942	0.38488452350181346	12.832516518278098	1.1346966648340713	13.092987637515119	1.5406790997756075	1	correct	1.0
438.4047377000097	8.427824999962581	nogo_punish	1.0	438.5371434999979	439.90855170000566	442.44547949999094	1.3714082000077497	439.5509292999633	441.42559529998107	445.48664289998135	0.35762240004237356	1.0198842000098693	1.4783255999791436	444.47828370000934	0.3896979999844916	443.4573712999701	1	1	51	4	nogo_punish	1	-1	0	0	0	1	0	0.0	1.0	0	1.0	0.3896979999844916	548.4746269999887	987.0117704999866	988.025556299952	988.3831786999943	989.9002222999698	990.9201064999796	991.9319982999588	992.952910699998	993.96126989997	995.4395954999492	2020-06-16 09:29:18.266494	4.01860472309571	-4.33900697159517	-0.327041534810934	-0.374184060022241	-4.34564625790665	-0.327041534810934	-4.01860472309571	-0.327041534810934	-4.33900697159517	-0.327041534810934	-4.34564625790665	0.327041534810934	-3.372594245929064	-6.554614419586956	-2.166290728574828	-5.840645950030283	-7.628202703499385	-2.166290728574828	-0.37982554834705085	-6.5835438390016385	-3.210949593072579	-5.922577276342217	-2.7983278718195628	1	correct	1.0
446.87558039999556	9.239842600014754	nogo_punish	1.0	447.00798619998375	449.6168194999917	452.15370759996574	2.608833300007973	448.00839400000416	451.1341886000009	455.1922540999949	1.6084254999875611	1.0195189999648164	1.0555747000036035	454.1793770999649	0.4907824999536387	453.1661338999985	1	1	52	4	nogo_punish	1	-1	0	0	0	1	0	1.0	0.0	0	1.0	0.4907824999536387	548.4746269999887	995.4826131999724	996.4830209999928	998.0914464999804	999.6088155999896	1000.6283345999544	1001.6407608999872	1002.6540040999536	1003.6668810999836	1004.7224557999872	2020-06-16 09:29:18.266494	4.13794924652535	-4.33900697159517	-0.207040869132942	-0.240070287017976	-4.34499011565829	-0.207040869132942	-4.13794924652535	-0.207040869132942	-4.33900697159517	-0.207040869132942	-4.34499011565829	0.207040869132942	-3.253249722499424	-6.554614419586956	-2.046290062896836	-5.706532177026018	-7.627546561251025	-2.046290062896836	-0.49982621402504285	-6.463543173323647	-3.210293450824219	-5.802576610664225	-2.7983278718195628	1	wrong	1.0
456.15644799999427	8.346113800012859	nogo_punish	1.0	456.28885379998246	457.6570496999775	460.1819231999689	1.3681958999950439	457.29895709996333	459.1665945999557	463.2416176999685	0.3580926000141744	1.015328600013163	1.3933499000268057	462.2342290999949	0.5006931999814697	461.19722849997936	1	1	53	4	nogo_punish	0	0	-1	0	0	1	1	1.0	1.0	-1	1.0	0.5006931999814697	548.4746269999887	1004.7634807999711	1005.773584099952	1006.1316766999662	1007.6412215999444	1008.6565501999576	1009.671855499968	1010.7088560999836	1011.7162446999572	1013.109594599984	2020-06-16 09:29:18.266494	4.21061467375733	-4.33900697159517	-0.133969692004346	-0.15735462536732	-4.34458436576167	-0.133969692004346	-4.21061467375733	-0.133969692004346	-4.33900697159517	-0.133969692004346	-4.34458436576167	-6.574486802605074	-3.180584295267445	-6.554614419586956	-1.9732188857682402	-5.6238165153753625	-7.627140811354405	-1.9732188857682402	-7.281353885763059	-6.390471996195051	-3.209887700927599	-5.729505433535629	-2.7983278718195628	1	correct	1.0
464.5435410999927	8.622871799976451	nogo_reward	1.0	464.6759468999809	466.71854649996374	469.2512418999685	2.04259959998285	465.6783231999725	468.2305750999949	472.2965469000045	1.0402232999912258	1.0206667999735828	1.0022717999528368	471.2831039999729	0.647515399963595	470.2682996999937	1	1	54	2	nogo_reward	0	1	0	0	0	1	0	0.0	1.0	0	1.0	0.647515399963595	548.4746269999887	1013.1505738999696	1014.1529501999612	1015.1931734999524	1016.7052020999836	1017.7258688999572	1018.7429266999824	1019.7577309999616	1020.7711738999932	1021.773445699946	2020-06-16 09:29:18.266494	18.5261739839191	0.0	18.9329964383792	18.9329964383792	0.406822454460032	18.9329964383792	-18.5261739839191	18.9329964383792	0.0	18.9329964383792	0.406822454460032	-18.9329964383792	11.134975014894327	-2.2156074479917858	17.093747244615304	13.466534548371158	-2.8757339911327033	17.093747244615304	-19.639863521537183	12.676494134188495	1.5415191192941033	13.337460696847916	1.5406790997756075	1	correct	1.0
473.20714499999315	8.353004699980488	nogo_reward	1.0	473.33955079998134	475.0818699999945	477.6166661999887	1.7423192000131849	474.3496684999553	476.59216130001005	480.66819419997046	0.7322015000391957	1.0245048999786377	1.0243612999913694	479.6549008999716	0.5766735999495722	478.6264069000026	1	1	55	2	nogo_reward	1	0	1	0	0	1	0	1.0	0.0	1	1.0	0.5766735999495722	548.4746269999887	1021.81417779997	1022.824295499944	1023.5564969999832	1025.0667882999987	1026.0912931999774	1027.1010338999913	1028.1295278999603	1029.1428211999591	1030.1671824999505	2020-06-16 09:29:18.266494	10.2689400453352	0.0	10.4951161017396	10.4951161017396	0.226176056404406	10.4951161017396	-10.2689400453352	10.4951161017396	0.0	10.4951161017396	0.226176056404406	9.2851588839666	2.877741076310425	-2.2156074479917858	8.655866907975705	5.028654211731557	-3.056380389188329	8.655866907975705	8.578291800808616	4.2386137975488944	1.3608727212384772	4.899580360208316	1.5406790997756075	1	wrong	1.0
481.601531399996	8.36149350000801	nogo_reward	1.0	481.7339371999842	483.0654626999749	485.5982034999761	1.3315254999906756	482.7387213999755	484.5745246000006	488.6493108999566	0.32674129999941215	1.0236788999754936	1.4461198000356035	487.6414119999972	0.6024299999698997	486.61247880000155	1	1	56	2	nogo_reward	1	0	1	0	0	1	1	1.0	1.0	1	1.0	0.6024299999698997	548.4746269999887	1030.208564199973	1031.2133483999642	1031.5400896999636	1033.0491515999893	1034.0728304999648	1035.0871057999902	1036.116038999986	1037.1239378999453	1038.570057699981	2020-06-16 09:29:18.266494	14.4957632359228	0.0	14.8123321779472	14.8123321779472	0.316568942024391	14.8123321779472	-14.4957632359228	14.8123321779472	0.0	14.8123321779472	0.316568942024391	4.967942807759	7.104564266898025	-2.2156074479917858	12.973082984183305	9.345870287939157	-2.965987503568344	12.973082984183305	4.261075724601016	8.555829873756494	1.4512656068584624	9.216796436415915	1.5406790997756075	1	correct	1.0
489.99905909999507	8.27979519998189	nogo_punish	1.0	490.13146489998326	491.4719935999601	494.00453969999216	1.3405286999768578	491.1461187999814	492.9825704999964	497.0644624999841	0.32587479997869195	1.0219691999957377	1.3467975999810733	496.05143359996123	0.3649187000119127	495.02195669995854	1	1	57	4	nogo_punish	1	-1	0	0	0	1	0	0.0	1.0	0	1.0	0.3649187000119127	548.4746269999887	1038.606091899972	1039.62074579997	1039.9466205999488	1041.457197499985	1042.4791666999809	1043.4965836999472	1044.52606059995	1045.5390894999728	1046.8858870999538	2020-06-16 09:29:18.266494	1.46822464930245	-4.33900697159517	-2.88921023656263	-2.9059271330767	-4.35743488586508	-2.88921023656263	-1.46822464930245	-2.88921023656263	-4.33900697159517	-2.88921023656263	-4.35743488586508	2.88921023656263	-5.922974319722324	-6.554614419586956	-4.728459430326525	-8.372389023084743	-7.639991331457816	-4.728459430326525	2.1823431534046454	-9.145712540753335	-3.222738221031009	-8.484745978093914	-2.7983278718195628	1	correct	1.0
498.3217277000076	8.921984799962956	nogo_reward	1.0	498.4541334999958	500.30413810000755	502.84074630000396	1.8500046000117436	499.46260249998886	501.82134239998413	505.8990361999604	0.8415356000186875	1.0194039000198245	1.4770820999983698	504.88163459999487	0.5256574000231922	503.8541785999548	1	1	58	2	nogo_reward	0	1	0	0	0	1	1	0.0	0.0	0	1.0	0.5256574000231922	548.4746269999887	1046.9287604999845	1047.9372294999775	1048.7787650999962	1050.2959693999728	1051.3153732999926	1052.3288055999435	1053.3562615999836	1054.373663199949	1055.8507452999474	2020-06-16 09:29:18.266494	16.6189241341444	0.0	16.9822936891189	16.9822936891189	0.363369554974539	16.9822936891189	-16.6189241341444	16.9822936891189	0.0	16.9822936891189	0.363369554974539	-16.9822936891189	9.227725165119626	-2.2156074479917858	15.143044495355007	11.51583179911086	-2.9191868906181964	15.143044495355007	-17.689160772276885	10.725791384928197	1.4980662198086103	11.386757947587618	1.5406790997756075	1	wrong	1.0
507.2889547999948	8.809161800018046	go_punish	0.3009246999863535	507.421360599983	509.4278615000078	511.9743291999914	2.0065009000247755	508.4221194999991	510.9467615999747	515.018588499981	1.005742000008695	1.0275676000167095	1.2119339000200853	514.005506699963	0.379033499979414	512.9838372999802	1	1	59	3	go_punish	1	0	-1	1	1	1	0	0.0	1.0	0	0.3009246999863535	0.379033499979414	548.4746269999887	1055.8959875999717	1056.8967464999878	1057.9024884999965	1059.4213885999634	1060.44895619998	1061.458464299969	1062.4801336999517	1063.4932154999697	1064.7051493999898	2020-06-16 09:29:18.266494	2.9086170199872	-1.41607078944641	-4.33900697159517	-1.95015319339028	-1.43038995160797	-4.33900697159517	-2.9086170199872	-1.41607078944641	-4.33900697159517	-1.43038995160797	-4.33900697159517	1.41607078944641	-4.4825819490375745	-3.6316782374381957	-6.178256165359064	-7.416615083398322	-4.712946397200705	-6.178256165359064	0.7092037062884251	-7.686892255798675	-3.2043103067610987	-7.011606530977693	-2.7983278718195628	1	correct	1.0
516.141675300023	9.352522199973464	go_punish	0.2724849000223912	516.2740811000112	518.770198299957	521.321760199964	2.4961171999457292	517.2940665999777	520.3020674999568	524.3753632999724	1.4761316999793053	1.0196927000072264	1.2512400000123307	523.3610090999864	0.4271017000428401	522.3397307000123	1	1	60	3	go_punish	1	0	-1	1	1	1	0	1.0	0.0	0	0.2724849000223912	0.4271017000428401	548.4746269999887	1064.7487081	1065.7686935999664	1067.2448252999457	1068.7766944999455	1069.7963871999527	1070.814357700001	1071.835636099975	1072.849990299961	1074.1012302999734	2020-06-16 09:29:18.266494	3.47123869319461	-0.857098993476364	-4.33900697159517	-1.19810955461365	-0.867768278400561	-4.33900697159517	-3.47123869319461	-0.857098993476364	-4.33900697159517	-0.867768278400561	-4.33900697159517	0.857098993476364	-3.919960275830164	-3.0727064414681498	-6.178256165359064	-6.664571444621692	-4.150324723993296	-6.178256165359064	0.15023191031837912	-7.124270582591266	-3.2043103067610987	-6.452634735007647	-2.7983278718195628	1	wrong	1.0
