onset	duration	trial_type	response_time	cueOnset	targetOnset	fbOnset	cueRT	firstfixOnset	secondfixOnset	waitOnset	firstfixdur	secondfixdur	waitdur	nback_fbOnset	nback_response_time	nback_targetOnset	block	wm	trial	cue	cond	is_common	outcome_go	outcome_nogo	key_correct	key_pressed	is_correct	key_correct_nback	key_pressed_nback	is_correct_nback	outcome	rt	rt_nback	time_scan	time_onset	time_isi1	time_circle	time_isi2	time_feedback	time_same	time_correct	time_iti	time_done	timestamp_scan	DV	Qgo	Qnogo	SV	Wgo	Wnogo	mDV	Qchosen	Qunchosen	Wchosen	Wunchosen	PE	DVC	QgoC	QnogoC	SVC	WgoC	WnogoC	PEC	WchosenC	WunchosenC	QchosenC	QunchosenC	run	outcome_nback	nback_targetResp
0.0	6.234445499954745	nogo_punish	1.0	0.009882000042125583	1.7987723000114784	4.324044500011951	1.7888902999693528	1.023239600006491	3.3086620999965817	5.327397499990184	0.7755327000049874	1.015382400015369	0.9169300000066869	n/a	1.0	n/a	2	0	61	4	nogo_punish	0	0	-1	0	0	1	0	n/a	n/a	-1	1.0	1.0	2239.930629999959	2239.940512000001	2240.9538695999654	2241.7294022999704	2243.2392920999555	2244.254674499971	n/a	n/a	2245.258027499949	2246.174957499956	2020-06-16 09:57:29.718367	5.20889643757631	-5.20472551870347	-0.002726658149492	-0.0052993791115829	-5.2116230957258	-0.002726658149492	-5.20889643757631	-0.002726658149492	-5.20472551870347	-0.002726658149492	-5.2116230957258	-6.705729836459928	-2.1823025314484648	-7.4203329666952555	-1.8419758519133862	-5.471761269119625	-8.494179541318536	-1.8419758519133862	-7.412596919617913	-6.259228962340197	-4.076926430891729	-5.598262399680776	-3.664046418927863	4	missed	0.0
6.263261499989312	6.541082000010647	nogo_punish	1.0	6.273143500031438	7.838957100001153	10.353967200033367	1.5658135999697151	7.279157900018163	9.341401099984068	11.36729289998766	0.5597991999829901	1.0125661000492983	1.4469326000544243	n/a	1.0	n/a	2	0	62	4	nogo_punish	1	-1	0	0	0	1	0	n/a	n/a	0	1.0	1.0	2239.930629999959	2246.2037734999903	2247.209787899977	2247.76958709996	2249.272031099943	2250.2845971999923	n/a	n/a	2251.2979228999466	2252.744855500001	2020-06-16 09:57:29.718367	2.95502142497779	-5.20472551870347	-3.59728555259648	-3.5988348289748	-6.55230697757427	-3.59728555259648	-2.95502142497779	-3.59728555259648	-5.20472551870347	-3.59728555259648	-6.55230697757427	3.59728555259648	-4.436177544046984	-7.4203329666952555	-5.436534746360374	-9.065296718982843	-9.834863423167006	-5.436534746360374	2.890418469438495	-9.853787856787186	-5.417610312740199	-9.192821294127764	-3.664046418927863	4	missed	0.0
12.851393999997526	6.578166299965233	nogo_reward	1.0	12.861276000039652	14.42484550003428	16.95474680000916	1.5635694999946281	13.864963500003796	15.935232000018004	17.9679349000221	0.559882000030484	1.019514799991157	1.4715073999827837	n/a	1.0	n/a	2	0	63	2	nogo_reward	0	1	0	0	0	1	0	n/a	n/a	0	1.0	1.0	2239.930629999959	2252.7919059999986	2253.7955934999627	2254.355475499993	2255.865861999977	2256.885376799968	n/a	n/a	2257.898564899981	2259.370072299964	2020-06-16 09:57:29.718367	4.30526635680516	0.871541382286069	8.10066608527308	8.12251131164615	3.79539972846792	8.10066608527308	-4.30526635680516	8.10066608527308	0.871541382286069	8.10066608527308	3.79539972846792	-8.10066608527308	-3.0859326122196142	-1.3440660657057166	6.261416891509185	2.656049421638108	0.5128432828751848	6.261416891509185	-8.807533168431064	1.8441637810823748	4.930096393301991	2.505130343741796	2.4122204820616764	4	missed	0.0
19.463940599991474	7.561265999975603	go_reward	0.2764852000400424	19.4738226000336	22.059747399995103	24.612505600031	2.5859247999615036	20.48299930000212	23.59300659998553	25.62080870004138	1.576748099992983	1.019499000045471	1.4142798999678234	n/a	1.0	n/a	2	0	64	1	go_reward	0	0	1	1	1	1	0	n/a	n/a	0	0.2764852000400424	1.0	2239.930629999959	2259.4044525999925	2260.413629299961	2261.990377399954	2263.5236365999444	2264.54313559999	n/a	n/a	2265.5514387000003	2266.965718599968	2020-06-16 09:57:29.718367	23.629516963014	19.767909248103	3.14539492744943	19.767669759691	26.7749118904635	3.14539492744943	-23.629516963014	19.767909248103	3.14539492744943	26.7749118904635	3.14539492744943	-19.767909248103	16.238317993989227	17.552301800111213	1.306145733685536	14.301207869682958	23.492355444870764	1.306145733685536	-20.474776331260983	20.518409586272796	4.280091592283501	14.172373506571716	4.686074027225038	4	missed	0.0
27.081627199950162	7.153626200044982	nogo_reward	1.0	27.091509199992288	29.865219500032254	32.397897400020156	2.7737103000399657	28.102005299995653	31.37534219998588	33.408144899993204	1.7632142000366002	1.022555200034276	0.8369905000440667	n/a	1.0	n/a	2	0	65	2	nogo_reward	1	0	1	0	0	1	1	n/a	n/a	1	1.0	1.0	2239.930629999959	2267.022139199951	2268.0326352999546	2269.795849499991	2271.305972199945	2272.328527399979	n/a	n/a	2273.338774899952	2274.175765399996	2020-06-16 09:57:29.718367	1.52169845427434	0.871541382286069	3.76804337131333	3.7806726009082	2.24634491703899	3.76804337131333	-1.52169845427434	3.76804337131333	0.871541382286069	3.76804337131333	2.24634491703899	16.01223161439287	-5.869500514750435	-1.3440660657057166	1.9287941775494357	-1.685789289099842	-1.036211528553745	1.9287941775494357	15.305364531234886	-2.488458932877375	3.3810415818730615	-1.8274923702179535	2.4122204820616764	4	missed	0.0
34.32339719997253	6.4707444999949075	go_punish	0.3368265999597497	34.33327920001466	35.89720250002574	38.44436329999007	1.5639233000110835	35.33506820001685	37.42414190003183	39.45693680003751	0.5621343000088928	1.0202213999582455	1.347086899972055	n/a	1.0	n/a	2	0	66	3	go_punish	1	0	-1	1	1	1	0	n/a	n/a	0	0.3368265999597497	1.0	2239.930629999959	2274.2639091999736	2275.2656981999758	2275.8278324999847	2277.3547718999907	2278.374993299949	n/a	n/a	2279.3875667999964	2280.7346536999685	2020-06-16 09:57:29.718367	0.145579566782136	-4.39738580954029	-6.67400846087337	-5.65232724109308	-6.52842889409123	-6.67400846087337	-0.145579566782136	-4.39738580954029	-6.67400846087337	-6.52842889409123	-6.67400846087337	4.39738580954029	-7.245619402242639	-6.612993257532075	-8.513257654637265	-11.118789131101122	-9.810985339683965	-8.513257654637265	3.690518726382305	-12.784931198281935	-5.539311796039299	-9.992921551071573	-5.133329361097763	4	missed	0.0
40.900189899955876	7.199041299987584	nogo_reward	1.0	40.910071899998	43.680988600011915	46.21588219999103	2.770916700013913	41.91709460003767	45.19781209999928	47.22578610002529	1.7638939999742433	1.0180700999917462	0.8833270999602973	n/a	1.0	n/a	2	0	67	2	nogo_reward	1	0	1	0	0	1	1	n/a	n/a	1	1.0	1.0	2239.930629999959	2280.840701899957	2281.8477245999966	2283.611618599971	2285.128442099958	2286.14651219995	n/a	n/a	2287.156416099984	2288.0397431999445	2020-06-16 09:57:29.718367	7.37603657203313	0.871541382286069	12.7243151718207	12.7317319857854	5.34827859978754	12.7243151718207	-7.37603657203313	12.7243151718207	0.871541382286069	12.7243151718207	5.34827859978754	7.055959813885499	-0.015162396991644123	-1.3440660657057166	10.885065978056806	7.265270095777358	2.065722154194805	10.885065978056806	6.349092730727515	6.467812867629996	6.4829752646216114	7.128779430289417	2.4122204820616764	4	missed	0.0
48.13081629999215	6.120737699966867	nogo_punish	1.0	48.14069830003427	49.799411999993026	52.3229228000273	1.6587136999587528	49.14484329998959	51.309111100039445	53.33101309998892	0.6545687000034377	1.0138116999878548	0.9304229000122177	n/a	1.0	n/a	2	0	68	4	nogo_punish	1	-1	0	0	0	1	0	n/a	n/a	0	1.0	1.0	2239.930629999959	2288.071328299993	2289.0754732999485	2289.730041999952	2291.2397410999984	2292.253552799986	n/a	n/a	2293.261643099948	2294.19206599996	2020-06-16 09:57:29.718367	4.2116396256401	-5.20472551870347	-1.61001268706907	-1.61095871493417	-5.82165231270918	-1.61001268706907	-4.2116396256401	-1.61001268706907	-5.20472551870347	-1.61001268706907	-5.82165231270918	1.61001268706907	-3.1795593433846747	-7.4203329666952555	-3.4492618808329643	-7.077420604942212	-9.104208758301915	-3.4492618808329643	0.9031456039110852	-7.866514991259775	-4.686955647875108	-7.205548428600354	-3.664046418927863	4	missed	0.0
54.30328099994267	6.306989100004557	go_punish	0.3084342000074684	54.3131629999848	56.28667840000708	58.839649900036875	1.9735154000222792	55.32756960002007	57.82028939999873	59.853137199999765	0.9591087999870069	1.0193605000381467	0.76701489998959	n/a	1.0	n/a	2	0	69	3	go_punish	1	0	-1	1	1	1	0	n/a	n/a	0	0.3084342000074684	1.0	2239.930629999959	2294.2437929999437	2295.258199599979	2296.217308399966	2297.7509193999576	2298.770279899996	n/a	n/a	2299.7837671999587	2300.5507820999483	2020-06-16 09:57:29.718367	3.67963308159589	-2.00040634877283	-6.67400846087337	-2.58955854286079	-2.99437537927748	-6.67400846087337	-3.67963308159589	-2.00040634877283	-6.67400846087337	-2.99437537927748	-6.67400846087337	2.00040634877283	-3.7115658874288844	-4.216013796764615	-8.513257654637265	-8.056020432868833	-6.276931824870215	-8.513257654637265	1.2935392656148452	-9.250877683468184	-5.539311796039299	-7.5959420903041135	-5.133329361097763	4	missed	0.0
60.65688009996711	6.714712799991958	go_punish	0.5396856999723241	60.66676210000924	62.50927500001808	65.04924980003807	1.8425129000088418	61.67193000001134	64.02634620002937	66.05924720002804	0.8373450000067351	1.0229036000087035	1.3222276999731548	n/a	1.0	n/a	2	0	70	3	go_punish	0	-1	0	1	1	1	0	n/a	n/a	-1	0.5396856999723241	1.0	2239.930629999959	2300.597392099968	2301.6025599999703	2302.439904999977	2303.9569761999883	2304.979879799997	n/a	n/a	2305.989877199987	2307.31210489996	2020-06-16 09:57:29.718367	5.24295278647373	-0.949367641927079	-6.67400846087337	-1.23661603139609	-1.43105567439963	-6.67400846087337	-5.24295278647373	-0.949367641927079	-6.67400846087337	-1.43105567439963	-6.67400846087337	-5.759088852682341	-2.148246182551044	-3.164975089918865	-8.513257654637265	-6.703077921404132	-4.713612119992366	-8.513257654637265	-6.465955935840325	-7.687557978590335	-5.539311796039299	-6.5449033834583625	-5.133329361097763	4	missed	0.0
67.40193109994289	7.204370400053449	nogo_punish	1.0	67.41181309998501	69.83122649998404	72.35885740001731	2.41941339999903	68.40990870003588	71.33936610003002	73.37198699999135	1.4213177999481559	1.019491299987294	1.24419650004711	n/a	1.0	n/a	2	0	71	4	nogo_punish	1	-1	0	0	0	1	0	n/a	n/a	0	1.0	1.0	2239.930629999959	2307.342443099944	2308.340538699995	2309.761856499943	2311.269996099989	2312.289487399976	n/a	n/a	2313.3026169999503	2314.5468134999974	2020-06-16 09:57:29.718367	4.74632892414048	-5.20472551870347	-0.752870162392222	-0.753455468423409	-5.49919908653271	-0.752870162392222	-4.74632892414048	-0.752870162392222	-5.20472551870347	-0.752870162392222	-5.49919908653271	0.752870162392222	-2.6448700448842946	-7.4203329666952555	-2.5921193561561164	-6.219917358431451	-8.781755532125445	-2.5921193561561164	0.04600307923423719	-7.009372466582927	-4.364502421698639	-6.3484059039235055	-3.664046418927863	4	missed	0.0
74.65310629998567	7.476869400009036	nogo_reward	1.0	74.66298830002779	77.18872720003128	79.71745370002463	2.525738900003489	75.65910729998723	78.69810750003717	80.72372130001895	1.5296199000440538	1.0193461999874671	1.4161364000178764	n/a	1.0	n/a	2	0	72	2	nogo_reward	0	1	0	0	0	1	0	n/a	n/a	0	1.0	1.0	2239.930629999959	2314.5936182999867	2315.589737299946	2317.11935719999	2318.628737499996	2319.6480836999835	n/a	n/a	2320.654351299978	2322.0704876999957	2020-06-16 09:57:29.718367	9.82212208978316	0.871541382286069	16.5186135425826	16.5230343920452	6.69649145279948	16.5186135425826	-9.82212208978316	16.5186135425826	0.871541382286069	16.5186135425826	6.69649145279948	-16.5186135425826	2.4309231207583863	-1.3440660657057166	14.679364348818705	11.05657250203716	3.4139350072067445	14.679364348818705	-17.225480625740584	10.262111238391896	7.831188117633551	10.923077801051317	2.4122204820616764	4	missed	0.0
82.17930139997043	5.96712759998627	nogo_reward	1.0	82.18918340001255	83.65723880002088	86.18429870001319	1.4680554000083248	83.19109740003478	85.1668032000307	87.19468359998427	0.4661413999860997	1.0174954999824877	0.9616274000145495	n/a	1.0	n/a	2	0	73	2	nogo_reward	1	0	1	0	0	1	0	n/a	n/a	1	1.0	1.0	2239.930629999959	2322.1198133999715	2323.1217273999937	2323.58786879998	2325.0974331999896	2326.114928699972	n/a	n/a	2327.125313599943	2328.0869409999577	2020-06-16 09:57:29.718367	3.80987519322032	0.871541382286069	7.3084966496132	7.31116909448596	3.49862145639287	7.3084966496132	-3.80987519322032	7.3084966496132	0.871541382286069	7.3084966496132	3.49862145639287	12.471778336093	-3.5813237758044543	-1.3440660657057166	5.469247455849305	1.8447072044779178	0.21606501080013496	5.469247455849305	11.764911252935015	1.0519943454224947	4.633318121226941	1.7129609080819161	2.4122204820616764	4	missed	0.0
88.19365769997239	7.760213900008239	nogo_reward	1.0	88.20353970001452	90.96188840002287	93.4843913000077	2.758348700008355	89.20740090002118	92.46405529999174	94.49690140003804	1.7544875000016873	1.0203360000159591	1.4668521999847144	n/a	1.0	n/a	2	0	74	2	nogo_reward	0	1	0	0	0	1	1	n/a	n/a	0	1.0	1.0	2239.930629999959	2328.1341696999734	2329.13803089998	2330.892518399982	2332.3946852999507	2333.4150212999666	n/a	n/a	2334.427531399997	2335.8943835999817	2020-06-16 09:57:29.718367	8.3814878700541	0.871541382286069	14.2945602932253	14.2961975734571	5.91307242317117	14.2945602932253	-8.3814878700541	14.2945602932253	0.871541382286069	14.2945602932253	5.91307242317117	-14.2945602932253	0.9902889010293254	-1.3440660657057166	12.455311099461406	8.829735683449059	2.6305159775784346	12.455311099461406	-15.001427376383285	8.038057989034595	7.047769088005241	8.699024551694016	2.4122204820616764	4	missed	0.0
95.98606809997	6.601043800008483	nogo_punish	1.0	95.99595010001212	97.85559789999388	100.37763470003847	1.859647799981758	96.99885139998514	99.3580220000008	101.3852183999843	0.8567465000087395	1.0196127000376691	1.2117755000363104	n/a	1.0	n/a	2	0	75	4	nogo_punish	1	-1	0	0	0	1	0	n/a	n/a	0	1.0	1.0	2239.930629999959	2335.926580099971	2336.929481399944	2337.786227899953	2339.2886519999597	2340.3082646999974	n/a	n/a	2341.315848399943	2342.5276238999795	2020-06-16 09:57:29.718367	4.98600148178187	-5.20472551870347	-0.365080503920881	-0.365447151297541	-5.35108198570275	-0.365080503920881	-4.98600148178187	-0.365080503920881	-5.20472551870347	-0.365080503920881	-5.35108198570275	0.365080503920881	-2.405197487242904	-7.4203329666952555	-2.2043296976847753	-5.831909041305583	-8.633638431295486	-2.2043296976847753	-0.34178657923710387	-6.621582808111586	-4.216385320868679	-5.960616245452164	-3.664046418927863	4	missed	0.0
102.61852599994745	6.305625400040299	nogo_punish	1.0	102.62840799998958	103.9893145000101	106.52110519999405	1.3609065000205192	103.63236650003819	105.50700179999694	107.53454459999921	0.35694799997190785	1.0141033999971114	1.3994888000306673	n/a	1.0	n/a	2	0	76	4	nogo_punish	1	-1	0	0	0	1	0	n/a	n/a	0	1.0	1.0	2239.930629999959	2342.5590379999485	2343.562996499997	2343.919944499969	2345.437631799956	2346.451735199953	n/a	n/a	2347.465174599958	2348.864663399989	2020-06-16 09:57:29.718367	5.09804116033265	-5.20472551870347	-0.182651229483189	-0.182883609028267	-5.28069238981584	-0.182651229483189	-5.09804116033265	-0.182651229483189	-5.20472551870347	-0.182651229483189	-5.28069238981584	0.182651229483189	-2.2931578086921247	-7.4203329666952555	-2.021900423247083	-5.6493454990363094	-8.563248835408576	-2.021900423247083	-0.5242158536747958	-6.439153533673894	-4.145995724981769	-5.778186971014472	-3.664046418927863	4	missed	0.0
108.960551999975	6.552731000003405	go_reward	0.3768947999924421	108.97043400001712	110.48708059999626	113.0516369999973	1.5166465999791399	109.98980730003723	112.02846310002496	114.06225080002332	0.49727329995903347	1.0231738999723348	1.4609141999972053	n/a	1.0	n/a	2	0	77	1	go_reward	1	1	0	1	1	1	0	n/a	n/a	1	0.3768947999924421	1.0	2239.930629999959	2348.901063999976	2349.920437299996	2350.417710599955	2351.959093099984	2352.982266999956	n/a	n/a	2353.9928807999822	2355.4537949999794	2020-06-16 09:57:29.718367	8.92284670302838	8.86914585337612	3.14539492744943	8.86906057452381	12.0682416304778	3.14539492744943	-8.92284670302838	8.86914585337612	3.14539492744943	12.0682416304778	3.14539492744943	10.91112913233008	1.5316477340036059	6.653538405384333	1.306145733685536	3.402598684515767	8.785685184885065	1.306145733685536	10.204262049172096	5.811739326287095	4.280091592283501	3.273610111844836	4.686074027225038	4	missed	0.0
115.59677149995696	5.998013200005516	go_punish	0.3000227999873459	115.60665349999908	117.14996660000179	119.70071499998448	1.543313100002706	116.61363550001988	118.67975519999163	120.71302720002132	0.5363310999819078	1.020959799992852	0.8916394999832846	n/a	1.0	n/a	2	0	78	3	go_punish	1	0	-1	1	1	1	0	n/a	n/a	0	0.3000227999873459	1.0	2239.930629999959	2355.537283499958	2356.544265499979	2357.0805965999607	2358.6103851999505	2359.6313449999434	n/a	n/a	2360.64365719998	2361.5352966999635	2020-06-16 09:57:29.718367	1.02818256664955	-4.06240739012399	-6.67400846087337	-4.20708058368664	-5.64582589422382	-6.67400846087337	-1.02818256664955	-4.06240739012399	-6.67400846087337	-5.64582589422382	-6.67400846087337	4.06240739012399	-6.363016402375225	-6.2780148381157765	-8.513257654637265	-9.673542473694681	-8.928382339816554	-8.513257654637265	3.3555403069660055	-11.902328198414525	-5.539311796039299	-9.657943131655273	-5.133329361097763	4	missed	0.0
121.62776899995515	6.794846500037238	nogo_punish	1.0	121.63765099999728	123.92953690001741	126.46064170001773	2.2918859000201337	122.6504434000235	125.4437723000301	127.47065480001038	1.2790934999939054	1.0168693999876268	0.9618427000241354	n/a	1.0	n/a	2	0	79	4	nogo_punish	0	0	-1	0	0	1	0	n/a	n/a	-1	1.0	1.0	2239.930629999959	2361.568280999956	2362.5810733999824	2363.8601668999763	2365.374402299989	2366.3912716999766	n/a	n/a	2367.4012847999693	2368.3631274999934	2020-06-16 09:57:29.718367	5.15230360949292	-5.20472551870347	-0.0939317204537127	-0.0940806364615542	-5.24623532994664	-0.0939317204537127	-5.15230360949292	-0.0939317204537127	-5.20472551870347	-0.0939317204537127	-5.24623532994664	-6.614524774155707	-2.2388953595318544	-7.4203329666952555	-1.9331809142176068	-5.560542526469597	-8.528791775539375	-1.9331809142176068	-7.321391857313692	-6.350434024644418	-4.111538665112569	-5.6894674619849965	-3.664046418927863	4	missed	0.0
128.47338329994818	6.856569099996705	go_punish	0.0457847999641671	128.4832652999903	130.54315779998433	133.12355479999724	2.059892499994021	129.49920840002596	132.10307360003935	134.131908499985	1.0439493999583647	1.020481199957885	1.2079259000020102	n/a	1.0	n/a	2	0	80	3	go_punish	1	0	-1	1	1	1	1	n/a	n/a	0	0.0457847999641671	1.0	2239.930629999959	2368.413895299949	2369.429838399985	2370.4737877999432	2372.0337035999983	2373.054184799956	n/a	n/a	2374.062538499944	2375.270464399946	2020-06-16 09:57:29.718367	4.09112428968537	-1.84559469606286	-6.67400846087337	-1.92057334331054	-2.582884171188	-6.67400846087337	-4.09112428968537	-1.84559469606286	-6.67400846087337	-2.582884171188	-6.67400846087337	1.84559469606286	-3.3000746793394047	-4.061202144054645	-8.513257654637265	-7.387035233318582	-5.865440616780735	-8.513257654637265	1.1387276129048751	-8.839386475378705	-5.539311796039299	-7.441130437594143	-5.133329361097763	4	missed	0.0
135.36170929996297	7.483566000009887	nogo_punish	1.0	135.3715913000051	137.8251380000147	140.3544971999945	2.4535467000096105	136.37830929999473	139.33526000002212	141.36309480003547	1.446828700019978	1.0192371999723946	1.492062499979511	n/a	1.0	n/a	2	0	81	4	nogo_punish	1	-1	0	0	0	1	1	n/a	n/a	0	1.0	1.0	2239.930629999959	2375.302221299964	2376.3089392999536	2377.7557679999736	2379.265889999981	2380.2851271999534	n/a	n/a	2381.2937247999944	2382.785787299974	2020-06-16 09:57:29.718367	2.92523172792347	-5.20472551870347	-3.64519169090733	-3.64528811861532	-6.5704234188308	-3.64519169090733	-2.92523172792347	-3.64519169090733	-5.20472551870347	-3.64519169090733	-6.5704234188308	3.64519169090733	-4.465967241101304	-7.4203329666952555	-5.4844408846712245	-9.111750008623362	-9.852979864423535	-5.4844408846712245	2.9383246077493452	-9.901693995098036	-5.435726753996729	-9.240727432438614	-3.664046418927863	4	missed	0.0
142.89952119998634	6.439612299960572	nogo_reward	1.0	142.90940320002846	144.8438557999907	147.37715050001816	1.934452599962242	143.9247885000077	146.3543803000357	148.38727390003623	0.9190672999829985	1.0227701999824603	0.9617415999528021	n/a	1.0	n/a	2	0	82	2	nogo_reward	1	0	1	0	0	1	0	n/a	n/a	1	1.0	1.0	2239.930629999959	2382.8400331999874	2383.8554184999666	2384.7744857999496	2386.2850102999946	2387.307780499977	n/a	n/a	2388.317903899995	2389.279645499948	2020-06-16 09:57:29.718367	3.19092640980619	0.871541382286069	6.3419236582235	6.34293959624479	3.15099724841731	6.3419236582235	-3.19092640980619	6.3419236582235	0.871541382286069	6.3419236582235	3.15099724841731	13.4383513274827	-4.200272559218584	-1.3440660657057166	4.502674464459606	0.8764777062367477	-0.13155919717542508	4.502674464459606	12.731484244324715	0.08542135403279527	4.285693913251381	0.7463879166922167	2.4122204820616764	4	missed	0.0
149.3904994999757	5.746163900010288	go_punish	0.3405263999593444	149.40038150001783	150.8293461999856	153.3777174000279	1.4289646999677643	150.40980910003418	152.3548710999894	154.38829289999558	0.41953709995141253	1.022846300038509	0.7582525000325404	n/a	1.0	n/a	2	0	83	3	go_punish	0	-1	0	1	1	1	0	n/a	n/a	-1	0.3405263999593444	1.0	2239.930629999959	2389.3310114999767	2390.340439099993	2390.7599761999445	2392.2855010999483	2393.308347399987	n/a	n/a	2394.3189228999545	2395.077175399987	2020-06-16 09:57:29.718367	5.44115201207556	-0.875438600386404	-6.67400846087337	-0.915307656903017	-1.23285644879781	-6.67400846087337	-5.44115201207556	-0.875438600386404	-6.67400846087337	-1.23285644879781	-6.67400846087337	-5.833017894223016	-1.9500469569492145	-3.09104604837819	-8.513257654637265	-6.381769546911059	-4.515412894390545	-8.513257654637265	-6.539884977381002	-7.489358752988515	-5.539311796039299	-6.470974341917687	-5.133329361097763	4	missed	0.0
155.21598569996422	6.95277899998473	nogo_reward	1.0	155.22586770000635	157.39252300001726	159.93249670002888	2.166655300010916	156.22142950003035	158.9099775000359	160.942967400013	1.1710934999869096	1.0225191999929848	1.2356792999780737	n/a	1.0	n/a	2	0	84	2	nogo_reward	1	0	1	0	0	1	1	n/a	n/a	1	1.0	1.0	2239.930629999959	2395.1564976999653	2396.1520594999893	2397.323152999976	2398.840607499995	2399.863126699988	n/a	n/a	2400.873597399972	2402.10927669995	2020-06-16 09:57:29.718367	8.10223218927228	0.871541382286069	13.8549635789061	13.8556016607385	5.75273138963381	13.8549635789061	-8.10223218927228	13.8549635789061	0.871541382286069	13.8549635789061	5.75273138963381	5.9253114068001	0.711033220247506	-1.3440660657057166	12.015714385142205	8.38913977073046	2.470174944041075	12.015714385142205	5.218444323642116	7.598461274715395	6.887428054467882	8.259427837374815	2.4122204820616764	4	missed	0.0
162.2005014999886	7.556068299978506	nogo_punish	1.0	162.21038350003073	165.03961390000768	167.5584802000085	2.82923039997695	163.21420480002416	166.54843399999663	168.5738475000253	1.825409099983517	1.0100462000118569	1.192604299983941	n/a	1.0	n/a	2	0	85	4	nogo_punish	1	-1	0	0	0	1	0	n/a	n/a	0	1.0	1.0	2239.930629999959	2402.1410134999896	2403.144834799983	2404.9702438999666	2406.4790639999555	2407.4891101999674	n/a	n/a	2408.504477499984	2409.697081799968	2020-06-16 09:57:29.718367	4.19558732394033	-5.20472551870347	-1.63574474496563	-1.63580779916371	-5.83133206890596	-1.63574474496563	-4.19558732394033	-1.63574474496563	-5.20472551870347	-1.63574474496563	-5.83133206890596	1.63574474496563	-3.195611645084444	-7.4203329666952555	-3.474993938729524	-7.102269689171752	-9.113888514498695	-3.474993938729524	0.9288776618076451	-7.892247049156335	-4.6966354040718885	-7.231280486496914	-3.664046418927863	4	missed	0.0
169.78917989996307	6.58906500000694	go_reward	0.2595066000358201	169.7990619000052	171.58430149999913	174.139736000041	1.785239599993929	170.79525319999084	173.1169076000224	175.15019900002517	0.7890483000082895	1.022828400018625	1.2379278999869712	n/a	1.0	n/a	2	0	86	1	go_reward	1	1	0	1	1	1	0	n/a	n/a	1	0.2595066000358201	1.0	2239.930629999959	2409.729691899964	2410.7258831999497	2411.514931499958	2413.0475375999813	2414.070366	n/a	n/a	2415.080828999984	2416.318756899971	2020-06-16 09:57:29.718367	17.2506681640791	15.0694417347101	3.14539492744943	15.0694237557254	20.3960630915285	3.14539492744943	-17.2506681640791	15.0694417347101	3.14539492744943	20.3960630915285	3.14539492744943	4.7108332509960995	9.859469195054327	12.853834286718314	1.306145733685536	9.602961865717358	17.113506645935765	1.306145733685536	4.003966167838115	14.139560787337796	4.280091592283501	9.473905993178818	4.686074027225038	4	missed	0.0
176.42478449997725	6.5494796999846585	go_punish	0.306935699947644	176.43466650001938	178.27976480004145	180.81800299999304	1.845098300022073	177.43853390001414	179.79739429999609	181.82382610003697	0.8412309000273126	1.0206086999969557	1.1603200999670662	n/a	1.0	n/a	2	0	87	3	go_punish	1	0	-1	1	1	1	0	n/a	n/a	0	0.306935699947644	1.0	2239.930629999959	2416.3652964999783	2417.369163899973	2418.2103948000004	2419.728024299955	2420.748632999952	n/a	n/a	2421.754456099996	2422.914776199963	2020-06-16 09:57:29.718367	1.12640304881243	-4.02608667956726	-6.67400846087337	-4.0477881146229	-5.54760541206094	-6.67400846087337	-1.12640304881243	-4.02608667956726	-6.67400846087337	-5.54760541206094	-6.67400846087337	4.02608667956726	-6.264795920212345	-6.241694127559045	-8.513257654637265	-9.514250004630942	-8.830161857653675	-8.513257654637265	3.3192195964092748	-11.804107716251645	-5.539311796039299	-9.621622421098543	-5.133329361097763	4	missed	0.0
183.02316059998702	6.140590399968914	go_punish	0.4920206000097096	183.03304260002915	184.35470620001388	186.88593240000728	1.3216635999847313	184.0271916000056	185.87217540002894	187.89942159998463	0.3275146000082714	1.013756999978341	1.274211400013428	n/a	1.0	n/a	2	0	88	3	go_punish	1	0	-1	1	1	1	0	n/a	n/a	0	0.4920206000097096	1.0	2239.930629999959	2422.963672599988	2423.9578215999645	2424.285336199973	2425.802805399988	2426.816562399966	n/a	n/a	2427.8300515999435	2429.104262999957	2020-06-16 09:57:29.718367	4.14104820750713	-1.82729748837531	-6.67400846087337	-1.83936700214805	-2.53296025336623	-6.67400846087337	-4.14104820750713	-1.82729748837531	-6.67400846087337	-2.53296025336623	-6.67400846087337	1.82729748837531	-3.250150761517644	-4.042904936367096	-8.513257654637265	-7.305828892156092	-5.815516698958965	-8.513257654637265	1.120430405217325	-8.789462557556934	-5.539311796039299	-7.422833229906593	-5.133329361097763	4	missed	0.0
189.23863719997507	6.098170300013862	nogo_reward	1.0	189.2485192000172	190.81681019999087	193.34916380001232	1.5682909999736694	190.256123500003	192.32622819999233	194.3592643000302	0.5606866999878548	1.0229356000199914	0.987425200000871	n/a	1.0	n/a	2	0	89	2	nogo_reward	1	0	1	0	0	1	0	n/a	n/a	1	1.0	1.0	2239.930629999959	2429.179149199976	2430.186753499962	2430.74744019995	2432.2568581999512	2433.2797937999712	n/a	n/a	2434.289894299989	2435.27731949999	2020-06-16 09:57:29.718367	10.1537266175679	0.871541382286069	17.0380501780509	17.0384555908982	6.88432356048306	17.0380501780509	-10.1537266175679	17.0380501780509	0.871541382286069	17.0380501780509	6.88432356048306	2.742224807655301	2.7625276485431254	-1.3440660657057166	15.198800984287004	11.571993700890157	3.601767114890325	15.198800984287004	2.0353577244973162	10.781547873860195	8.019020225317131	11.442514436519616	2.4122204820616764	4	missed	0.0
195.36887589999196	6.256143199978851	nogo_punish	1.0	195.3787579000341	197.34425259998488	199.87438620004104	1.9654946999507956	196.37627479998628	198.86101829999825	200.88221920002206	0.9679777999986072	1.0133679000427946	0.7526818999908755	n/a	1.0	n/a	2	0	90	4	nogo_punish	1	-1	0	0	0	1	0	n/a	n/a	0	1.0	1.0	2239.930629999959	2435.309387899993	2436.306904799945	2437.274882599944	2438.791648299957	2439.8050162	n/a	n/a	2440.812849199981	2441.565531099972	2020-06-16 09:57:29.718367	4.73749142717512	-5.20472551870347	-0.766979246069393	-0.767020858624434	-5.50447067324451	-0.766979246069393	-4.73749142717512	-0.766979246069393	-5.20472551870347	-0.766979246069393	-5.50447067324451	0.766979246069393	-2.6537075418496547	-7.4203329666952555	-2.6062284398332873	-6.233482748632476	-8.787027118837246	-2.6062284398332873	0.060112162911408196	-7.023481550260098	-4.369774008410439	-6.362514987600677	-3.664046418927863	4	missed	0.0
201.67690579994814	7.095583999995142	go_punish	0.2361150999786332	201.68678779999027	203.74545660003787	206.29819770000177	2.058668800047599	202.701048500021	205.27892419998534	207.30510440003127	1.0444081000168808	1.0192735000164248	1.477267399954144	n/a	1.0	n/a	2	0	91	3	go_punish	1	0	-1	1	1	1	0	n/a	n/a	0	0.2361150999786332	1.0	2239.930629999959	2441.617417799949	2442.63167849998	2443.676086599997	2445.2095541999443	2446.2288276999607	n/a	n/a	2447.23573439999	2448.7130017999443	2020-06-16 09:57:29.718367	5.46711578600046	-0.866011353485153	-6.67400846087337	-0.872859402926298	-1.20689267487291	-6.67400846087337	-5.46711578600046	-0.866011353485153	-6.67400846087337	-1.20689267487291	-6.67400846087337	0.866011353485153	-1.9240831830243144	-3.081618801476939	-8.513257654637265	-6.33932129293434	-4.489449120465645	-8.513257654637265	0.15914427032716816	-7.463394979063615	-5.539311796039299	-6.461547095016437	-5.133329361097763	4	missed	0.0
208.82427089998964	7.163150799985033	nogo_reward	1.0	208.83415290003177	211.46352039999329	213.98962930002017	2.6293674999615178	209.8485597000108	212.96677390002924	214.99261600000318	1.6149606999824755	1.022855399990931	1.0046877000136192	n/a	1.0	n/a	2	0	92	2	nogo_reward	1	0	1	0	0	1	0	n/a	n/a	1	1.0	1.0	2239.930629999959	2448.7647828999907	2449.7791896999697	2451.394150399952	2452.897403899988	2453.920259299979	n/a	n/a	2454.923245999962	2455.9279336999757	2020-06-16 09:57:29.718367	11.061507392574	0.871541382286069	18.4600387416017	18.4602991688213	7.39853134902766	18.4600387416017	-11.061507392574	18.4600387416017	0.871541382286069	18.4600387416017	7.39853134902766	1.3202362441044997	3.6703084235492263	-1.3440660657057166	16.620789547837806	12.99383727881326	4.115974903434925	16.620789547837806	0.6133691609465148	12.203536437410996	8.53322801386173	12.864503000070417	2.4122204820616764	4	missed	0.0
216.03496589994757	8.004335700010415	go_punish	0.0350881000049412	216.0448478999897	219.02854730002582	221.55787950003287	2.98369940003613	217.06142179999688	220.5445716000395	222.5715593000059	1.967125500028942	1.0133078999933787	1.4776242999942042	n/a	1.0	n/a	2	0	93	3	go_punish	1	0	-1	1	1	1	1	n/a	n/a	0	0.0350881000049412	1.0	2239.930629999959	2455.9754778999486	2456.992051799956	2458.9591772999847	2460.4752015999984	2461.488509499992	n/a	n/a	2462.502189299965	2463.979813599959	2020-06-16 09:57:29.718367	6.0773743195179	-0.425452672730456	-6.67400846087337	-0.429411260807732	-0.596634141355465	-6.67400846087337	-6.0773743195179	-0.425452672730456	-6.67400846087337	-0.596634141355465	-6.67400846087337	0.425452672730456	-1.3138246495068744	-2.641060120722242	-8.513257654637265	-5.895873150815774	-3.8791905869482	-8.513257654637265	-0.28141441042752885	-6.85313644554617	-5.539311796039299	-6.02098841426174	-5.133329361097763	4	missed	0.0
224.07363029994303	6.933938000001945	go_reward	0.2720656000310555	224.08351229998516	226.09759409999288	228.64631899999222	2.014081800007716	225.09976960002678	227.62359179998748	229.66486760001817	0.9978244999661001	1.0227272000047378	1.3525826999689343	n/a	1.0	n/a	2	0	94	1	go_reward	1	1	0	1	1	1	0	n/a	n/a	1	0.2720656000310555	1.0	2239.930629999959	2464.014142299944	2465.0303995999857	2466.028224099952	2467.5542217999464	2468.576948999951	n/a	n/a	2469.595497599977	2470.948080299946	2020-06-16 09:57:29.718367	20.7314005542958	17.6417120477792	3.14539492744943	17.6417209208801	23.8767954817453	3.14539492744943	-20.7314005542958	17.6417120477792	3.14539492744943	23.8767954817453	3.14539492744943	2.1385629379269986	13.340201585271025	15.426104599787415	1.306145733685536	12.17525903087206	20.594239036152565	1.306145733685536	1.4316958547690137	17.620293177554597	4.280091592283501	12.046176306247919	4.686074027225038	4	missed	0.0
231.03708329994697	6.497314400040068	nogo_punish	1.0	231.0469652999891	232.51421900000423	235.04233840003144	1.467253700015135	232.04682809999213	234.0228405999951	236.05642400000943	0.4673909000121057	1.0194978000363335	1.487855700019736	n/a	1.0	n/a	2	0	95	4	nogo_punish	1	-1	0	0	0	1	0	n/a	n/a	0	1.0	1.0	2239.930629999959	2470.977595299948	2471.977458099951	2472.444848999963	2473.953470599954	2474.9729683999904	n/a	n/a	2475.9870539999683	2477.474909699988	2020-06-16 09:57:29.718367	4.98103847235986	-5.20472551870347	-0.372965946319186	-0.372993647050789	-5.35400441867905	-0.372965946319186	-4.98103847235986	-0.372965946319186	-5.20472551870347	-0.372965946319186	-5.35400441867905	0.372965946319186	-2.410160496664914	-7.4203329666952555	-2.2122151400830803	-5.839455537058831	-8.636560864271786	-2.2122151400830803	-0.33390113683879885	-6.629468250509891	-4.219307753844979	-5.96850168785047	-3.664046418927863	4	missed	0.0
237.56494529999327	7.059279399982188	nogo_punish	1.0	237.5748273000354	239.99923920002766	242.51886250003008	2.424411899992265	238.5794876000141	241.5163994000177	243.5322354999953	1.4197516000135693	1.0024631000123918	1.1018712000222877	n/a	1.0	n/a	2	0	96	4	nogo_punish	1	-1	0	0	0	1	0	n/a	n/a	0	1.0	1.0	2239.930629999959	2477.5054572999943	2478.510117599973	2479.9298691999866	2481.4470293999766	2482.449492499989	n/a	n/a	2483.462865499954	2484.5647366999765	2020-06-16 09:57:29.718367	5.09520196997891	-5.20472551870347	-0.187137793203613	-0.1871563834281	-5.28233976318252	-0.187137793203613	-5.09520196997891	-0.187137793203613	-5.20472551870347	-0.187137793203613	-5.28233976318252	0.187137793203613	-2.2959969990458644	-7.4203329666952555	-2.0263869869675073	-5.653618273436142	-8.564896208775256	-2.0263869869675073	-0.5197292899543718	-6.443640097394318	-4.147643098348449	-5.782673534734896	-3.664046418927863	4	missed	0.0
244.6741354999831	5.915180700016208	nogo_reward	1.0	244.68401750002522	246.01600730000064	248.54547459998912	1.3319897999754176	245.6903711000341	247.5252443000213	249.54361370002152	0.3256361999665387	1.0202302999678068	1.0555845000199042	n/a	1.0	n/a	2	0	97	2	nogo_reward	1	0	1	0	0	1	0	n/a	n/a	1	1.0	1.0	2239.930629999959	2484.614647499984	2485.621001099993	2485.9466372999595	2487.45587429998	2488.476104599948	n/a	n/a	2489.4742436999804	2490.5298282000003	2020-06-16 09:57:29.718367	11.4821221018332	0.871541382286069	19.1230335936032	19.1232026397986	7.64091149177003	19.1230335936032	-11.4821221018332	19.1230335936032	0.871541382286069	19.1230335936032	7.64091149177003	0.6572413921029998	4.090923132808426	-1.3440660657057166	17.283784399839305	13.656740749790558	4.358355046177294	17.283784399839305	-0.049625691054985044	12.866531289412496	8.7756081566041	13.527497852071917	2.4122204820616764	4	missed	0.0
250.64037309994455	7.091897800040897	nogo_reward	1.0	250.65025509998668	253.17345230001956	255.71391970000695	2.5231972000328824	251.6593863000162	254.69113390002167	256.7165811000159	1.5140660000033677	1.0227857999852858	1.0255718000116758	n/a	1.0	n/a	2	0	98	2	nogo_reward	1	0	1	0	0	1	0	n/a	n/a	1	1.0	1.0	2239.930629999959	2490.5808850999456	2491.590016299975	2493.1040822999785	2494.6217638999806	2495.644549699966	n/a	n/a	2496.647211099975	2497.6727828999865	2020-06-16 09:57:29.718367	11.6846072539312	0.871541382286069	19.4434284199352	19.4435392410105	7.75882116600399	19.4434284199352	-11.6846072539312	19.4434284199352	0.871541382286069	19.4434284199352	7.75882116600399	0.33684656577100114	4.293408284906425	-1.3440660657057166	17.604179226171304	13.97707735100246	4.476264720411255	17.604179226171304	-0.3700205173869837	13.186926115744495	8.89351783083806	13.847892678403916	2.4122204820616764	4	missed	0.0
257.77974409994204	6.672316500043962	nogo_reward	1.0	257.78962609998416	259.6343493000022	262.16650910000317	1.844723200018052	258.79344929999206	261.15221239998937	263.1791731000412	0.8409000000101514	1.0142967000138015	1.2827694999868982	n/a	1.0	n/a	2	0	99	2	nogo_reward	0	1	0	0	0	1	1	n/a	n/a	0	1.0	1.0	2239.930629999959	2497.720256099943	2498.724079299951	2499.564979299961	2501.0828423999483	2502.097139099962	n/a	n/a	2503.1098031	2504.392572599987	2020-06-16 09:57:29.718367	11.7853261271992	0.871541382286069	19.6031191623781	19.603192497123	7.81779303517894	19.6031191623781	-11.7853261271992	19.6031191623781	0.871541382286069	19.6031191623781	7.81779303517894	-19.6031191623781	4.394127158174426	-1.3440660657057166	17.763869968614205	14.13673060711496	4.535236589586205	17.763869968614205	-20.309986245536084	13.346616858187396	8.952489700013011	14.007583420846817	2.4122204820616764	4	missed	0.0
264.4877378999954	7.46390039997641	nogo_punish	1.0	264.49761990003753	267.2110675000008	269.7420300000231	2.713447599963274	265.5142261000001	268.7222519000061	270.7554184999899	1.6968414000007215	1.0197781000169925	1.2061018000240438	n/a	1.0	n/a	2	0	100	4	nogo_punish	1	-1	0	0	0	1	0	n/a	n/a	0	1.0	1.0	2239.930629999959	2504.4282498999964	2505.444856099959	2507.1416974999597	2508.652881899965	2509.672659999982	n/a	n/a	2510.686048499949	2511.892150299973	2020-06-16 09:57:29.718367	5.15065102250325	-5.20472551870347	-0.0965276297326238	-0.0965402012133434	-5.24717865223588	-0.0965276297326238	-5.15065102250325	-0.0965276297326238	-5.20472551870347	-0.0965276297326238	-5.24717865223588	0.0965276297326238	-2.2405479465215246	-7.4203329666952555	-1.935776823496518	-5.563002091221386	-8.529735097828615	-1.935776823496518	-0.610339453425361	-6.353029933923328	-4.112481987401809	-5.692063371263907	-3.664046418927863	4	missed	0.0
272.003751599987	6.472798399976	go_punish	0.2486108000157401	272.01363360002915	273.9318654999952	276.4845908000134	1.918231899966031	273.02800260001095	275.46506640000734	277.49331360001815	0.9038628999842331	1.0195244000060484	0.9931183999869972	n/a	1.0	n/a	2	0	101	3	go_punish	1	0	-1	1	1	1	0	n/a	n/a	0	0.2486108000157401	1.0	2239.930629999959	2511.944263599988	2512.95863259997	2513.862495499954	2515.3956963999663	2516.4152207999723	n/a	n/a	2517.423943599977	2518.417061999964	2020-06-16 09:57:29.718367	6.36889086194673	-0.21559238087578	-6.67400846087337	-0.217920994929473	-0.305117598926639	-6.67400846087337	-6.36889086194673	-0.21559238087578	-6.67400846087337	-0.305117598926639	-6.67400846087337	0.21559238087578	-1.022308107078044	-2.4311998288675656	-8.513257654637265	-5.6843828849375155	-3.587674044519374	-8.513257654637265	-0.4912747022822048	-6.561619903117344	-5.539311796039299	-5.811128122407063	-5.133329361097763	4	missed	0.0
278.5045675999718	6.997054399980243	nogo_punish	1.0	278.5144496000139	280.7306833000039	283.2583695999929	2.2162336999899708	279.5216375000309	282.23406849999446	284.26854409999214	1.2090457999729551	1.0243010999984108	1.2429599000020062	n/a	1.0	n/a	2	0	102	4	nogo_punish	0	0	-1	0	0	1	1	n/a	n/a	-1	1.0	1.0	2239.930629999959	2518.445079599973	2519.45226749999	2520.661313299963	2522.1646984999534	2523.188999599952	n/a	n/a	2524.199174099951	2525.442133999953	2020-06-16 09:57:29.718367	5.17842505612116	-5.20472551870347	-0.0510410204531318	-0.0510495827500688	-5.22946607657429	-0.0510410204531318	-5.17842505612116	-0.0510410204531318	-5.20472551870347	-0.0510410204531318	-5.22946607657429	-6.657415474156288	-2.2127739129036144	-7.4203329666952555	-1.890290214217026	-5.517511472758111	-8.512022522167026	-1.890290214217026	-7.364282557314272	-6.307543324643837	-4.094769411740219	-5.646576761984416	-3.664046418927863	4	missed	0.0
285.53598579997197	5.817739600024652	go_reward	0.6199344999622554	285.5458678000141	286.99044100003084	289.547845699999	1.4445732000167482	286.56225870002527	288.525072599994	290.55802960001165	0.4281823000055738	1.022773100004997	0.8055778000270948	n/a	1.0	n/a	2	0	103	1	go_reward	1	1	0	1	1	1	0	n/a	n/a	1	0.6199344999622554	1.0	2239.930629999959	2525.476497799973	2526.492888699984	2526.9210709999898	2528.455702599953	2529.478475699958	n/a	n/a	2530.4886595999706	2531.2942373999977	2020-06-16 09:57:29.718367	22.2645249421479	18.7690119681688	3.14539492744943	18.7690294040913	25.4099198695974	3.14539492744943	-22.2645249421479	18.7690119681688	3.14539492744943	25.4099198695974	3.14539492744943	1.0112630175373987	14.873325973123126	16.553404520177015	1.306145733685536	13.302567514083258	22.127363424004663	1.306145733685536	0.3043959343794138	19.153417565406695	4.280091592283501	13.173476226637518	4.686074027225038	4	missed	0.0
291.38681119994726	6.902684100030456	nogo_punish	1.0	291.3966931999894	293.87061059998814	296.39233030000514	2.4739173999987543	292.40348330000415	295.37288760003867	297.3994783000089	1.4671272999839857	1.0194426999664756	0.8998990000109188	n/a	1.0	n/a	2	0	104	4	nogo_punish	1	-1	0	0	0	1	1	n/a	n/a	0	1.0	1.0	2239.930629999959	2531.3273231999483	2532.334113299963	2533.801240599947	2535.3035175999976	2536.322960299964	n/a	n/a	2537.330108299968	2538.2300072999788	2020-06-16 09:57:29.718367	2.9385507452332	-5.20472551870347	-3.62328286445167	-3.62328873530886	-6.56183360968487	-3.62328286445167	-2.9385507452332	-3.62328286445167	-5.20472551870347	-3.62328286445167	-6.56183360968487	3.62328286445167	-4.4526482237915745	-7.4203329666952555	-5.462532058215564	-9.089750625316903	-9.844390055277605	-5.462532058215564	2.916415781293685	-9.879785168642375	-5.4271369448507985	-9.218818605982953	-3.664046418927863	4	missed	0.0
298.3359506999841	6.409831199969631	go_punish	0.2388940000091679	298.3458327000262	299.9994785999879	302.5346195999882	1.6536458999617025	299.3523240000359	301.5180996999843	303.5480943000289	0.6471545999520458	1.0165199000039138	1.2075695999669733	n/a	1.0	n/a	2	0	105	3	go_punish	1	0	-1	1	1	1	0	n/a	n/a	0	0.2388940000091679	1.0	2239.930629999959	2538.276462699985	2539.282953999995	2539.930108599947	2541.448729699943	2542.465249599947	n/a	n/a	2543.478724299988	2544.6862938999548	2020-06-16 09:57:29.718367	6.51267099965071	-0.112278699911658	-6.67400846087337	-0.113671133625599	-0.161337461222656	-6.67400846087337	-6.51267099965071	-0.112278699911658	-6.67400846087337	-0.161337461222656	-6.67400846087337	0.112278699911658	-0.8785279693740646	-2.3278861479034436	-8.513257654637265	-5.580133023633641	-3.4438939068153913	-8.513257654637265	-0.5945883832463269	-6.417839765413361	-5.539311796039299	-5.707814441442942	-5.133329361097763	4	missed	0.0
304.7824092999799	6.2510934000019915	go_reward	0.5018255000468343	304.79229130002204	306.08056209998904	308.63120070000923	1.2882707999669947	305.8016871000291	307.60802119999425	309.64813929999946	0.27887499995995313	1.023179500014976	1.395245400024578	n/a	1.0	n/a	2	0	106	1	go_reward	1	1	0	1	1	1	0	n/a	n/a	1	0.5018255000468343	1.0	2239.930629999959	2544.722921299981	2545.732317099988	2546.011192099948	2547.538651199953	2548.561830699968	n/a	n/a	2549.5787692999584	2550.974014699983	2020-06-16 09:57:29.718367	22.9690909101825	19.2853351089251	3.14539492744943	19.285353297758	26.114485837632	3.14539492744943	-22.9690909101825	19.2853351089251	3.14539492744943	26.114485837632	3.14539492744943	0.49493987678109974	15.577891941157727	17.069727660933314	1.306145733685536	13.818891407749959	22.831929392039264	1.306145733685536	-0.2119272063768851	19.857983533441296	4.280091592283501	13.689799367393817	4.686074027225038	4	missed	0.0
311.08604469994316	5.771911000018008	nogo_reward	1.0	311.0959266999853	312.4619325000094	314.9883113999972	1.3660058000241406	312.1034540000255	313.9715917999856	315.9999178000144	0.358478499983903	1.0167196000115837	0.8679198999889195	n/a	1.0	n/a	2	0	107	2	nogo_reward	1	0	1	0	0	1	0	n/a	n/a	1	1.0	1.0	2239.930629999959	2551.026556699944	2552.0340839999844	2552.3925624999683	2553.9022217999445	2554.918941399956	n/a	n/a	2555.9305477999733	2556.798467699962	2020-06-16 09:57:29.718367	4.74289633749788	0.871541382286069	8.78114666711452	8.78119562751051	4.03825032961663	8.78114666711452	-4.74289633749788	8.78114666711452	0.871541382286069	8.78114666711452	4.03825032961663	10.99912831859168	-2.648302631526894	-1.3440660657057166	6.941897473350625	3.3147337375024675	0.7556938840238945	6.941897473350625	10.292261235433696	2.524644362923815	5.172946994450701	3.1856109255832363	2.4122204820616764	4	missed	0.0
316.896356799989	6.18768639996415	go_reward	0.2484645000076852	316.90623880003113	318.58692159998463	321.14317490003305	1.6806827999535017	317.91790980001724	320.12047730002087	322.1459041000344	0.669011799967393	1.0226976000121795	0.9480210999608971	n/a	1.0	n/a	2	0	108	1	go_reward	1	1	0	1	1	1	1	n/a	n/a	1	0.2484645000076852	1.0	2239.930629999959	2556.83686879999	2557.848539799976	2558.5175515999435	2560.05110729998	2561.073804899992	n/a	n/a	2562.0765340999933	2563.024555199954	2020-06-16 09:57:29.718367	23.3046418151293	19.5307006774358	3.14539492744943	19.5307166699065	26.4500367425787	3.14539492744943	-23.3046418151293	19.5307006774358	3.14539492744943	26.4500367425787	3.14539492744943	0.24957430827040028	15.913442846104527	17.315093229444013	1.306145733685536	14.064254779898459	23.167480296985964	1.306145733685536	-0.4572927748875846	20.193534438387996	4.280091592283501	13.935164935904517	4.686074027225038	4	missed	0.0
323.118149499991	5.880270499968901	go_reward	0.2802934999926947	323.1280315000331	324.5330274000298	327.08185750001576	1.4049958999967203	324.14460390002887	326.06650280003714	328.0933575000381	0.38842350000095394	1.0153546999786158	0.9149444999638945	n/a	1.0	n/a	2	0	109	1	go_reward	1	1	0	1	1	1	0	n/a	n/a	1	0.2802934999926947	1.0	2239.930629999959	2563.058661499992	2564.075233899988	2564.4636573999887	2565.997132799996	2567.0124874999747	n/a	n/a	2568.023987499997	2568.938931999961	2020-06-16 09:57:29.718367	23.4694490095356	19.6510579403889	3.14539492744943	19.6510709573707	26.614843936985	3.14539492744943	-23.4694490095356	19.6510579403889	3.14539492744943	26.614843936985	3.14539492744943	0.12921704531730072	16.078250040510827	17.435450492397113	1.306145733685536	14.184609067362658	23.332287491392265	1.306145733685536	-0.5776500378406841	20.358341632794296	4.280091592283501	14.055522198857616	4.686074027225038	4	missed	0.0
329.03267599997343	6.184909600007813	go_reward	0.317175899981521	329.04255800001556	330.5511523000314	333.08477780001704	1.5085943000158295	330.0534165999852	332.0612869000179	334.09405439998955	0.49773570004617795	1.0234908999991603	1.1334132000338286	n/a	1.0	n/a	2	0	110	1	go_reward	1	1	0	1	1	1	1	n/a	n/a	1	0.317175899981521	1.0	2239.930629999959	2568.9731879999745	2569.984046599944	2570.4817822999903	2571.991916899977	2573.015407799976	n/a	n/a	2574.0246843999485	2575.1580975999823	2020-06-16 09:57:29.718367	23.5526246571544	19.7117638340625	3.14539492744943	19.7117739948026	26.6980195846039	3.14539492744943	-23.5526246571544	19.7117638340625	3.14539492744943	26.6980195846039	3.14539492744943	0.06851115164370114	16.161425688129626	17.496156386070712	1.306145733685536	14.245312104794557	23.415463139011166	1.306145733685536	-0.6383559315142837	20.441517280413198	4.280091592283501	14.116228092531216	4.686074027225038	4	missed	0.0
335.27293669997016	5.85755880002398	go_punish	1.0	335.2828187000123	336.63560660002986	339.164874900016	1.3527879000175744	336.29385920002824	338.1456848999951	340.1787970000296	0.34174740000162274	1.0191900000208989	0.9615805000066757	n/a	1.0	n/a	2	0	111	3	go_punish	0	-1	0	1	0	0	0	n/a	n/a	0	1.0	1.0	2239.930629999959	2575.213448699971	2576.224489199987	2576.5662365999888	2578.076314899954	2579.095504899975	n/a	n/a	2580.1094269999885	2581.071007499995	2020-06-16 09:57:29.718367	-6.58560636712645	-0.0599305157154907	-6.67400846087337	-0.060776073645279	-0.088402093746922	-6.67400846087337	6.58560636712645	-6.67400846087337	-0.0599305157154907	-6.67400846087337	-0.088402093746922	6.67400846087337	-13.976805336151225	-2.2755379637072766	-8.513257654637265	-5.527237963653321	-3.3709585393396573	-8.513257654637265	5.967141377715386	-12.930510765064074	1.0462945710871492	-12.269544202404653	1.4807485840601167	4	missed	0.0
341.1877816999913	6.746333299961407	nogo_reward	1.0	341.19766370003344	343.01163379999343	345.5512763999868	1.8139700999599881	342.1999020000221	344.52858189999824	346.55644960002974	0.8117317999713123	1.0226944999885745	1.387547399965115	n/a	1.0	n/a	2	0	112	2	nogo_reward	1	0	1	0	0	1	0	n/a	n/a	1	1.0	1.0	2239.930629999959	2581.1282936999924	2582.130531999981	2582.9422637999523	2584.459211899957	2585.4819063999457	n/a	n/a	2586.4870795999886	2587.8746269999538	2020-06-16 09:57:29.718367	8.84090057773418	0.871541382286069	15.0214558387514	15.0214888004861	6.18055526101727	15.0214558387514	-8.84090057773418	15.0214558387514	0.871541382286069	15.0214558387514	6.18055526101727	4.758819146954799	1.4497016087094057	-1.3440660657057166	13.182206644987506	9.555026910478059	2.897998815424535	13.182206644987506	4.051952063796815	8.764953534560696	7.315251925851341	9.425920097220118	2.4122204820616764	4	missed	0.0
347.97065729997075	6.6533830999983365	go_reward	0.8821983999805525	347.9805393000129	349.72096180001927	352.2698176000267	1.7404225000063889	348.9878535000021	351.25436349998927	353.2813342000013	0.733108300017193	1.0154541000374593	1.3525882000099045	n/a	1.0	n/a	2	0	113	1	go_reward	1	1	0	1	1	1	0	n/a	n/a	1	0.8821983999805525	1.0	2239.930629999959	2587.911169299972	2588.918483499961	2589.651591799978	2591.184993499948	2592.2004475999856	n/a	n/a	2593.21196419996	2594.56455239997	2020-06-16 09:57:29.718367	23.5956373641101	19.7431549386184	3.14539492744943	19.7431626750131	26.7410322915595	3.14539492744943	-23.5956373641101	19.7431549386184	3.14539492744943	26.7410322915595	3.14539492744943	0.037120047087800145	16.204438395085326	17.527547490626613	1.306145733685536	14.276700785005058	23.458475845966763	1.306145733685536	-0.6697470360701847	20.484529987368795	4.280091592283501	14.147619197087117	4.686074027225038	4	missed	0.0
354.6649775999831	6.4907698999741115	go_reward	0.3769703999860212	354.67485960002523	356.37720340001397	358.9279251000262	1.7023437999887392	355.69185420003487	357.90523850003956	359.9382902000216	0.6853491999791004	1.0226865999866277	1.227339299977757	n/a	1.0	n/a	2	0	114	1	go_reward	1	1	0	1	1	1	0	n/a	n/a	1	0.3769703999860212	1.0	2239.930629999959	2594.605489599984	2595.622484199994	2596.307833399973	2597.8358684999985	2598.858555099985	n/a	n/a	2599.8689201999805	2601.0962594999583	2020-06-16 09:57:29.718367	23.6183781865419	19.7597578474572	3.14539492744943	19.7597636473328	26.7637731139914	3.14539492744943	-23.6183781865419	19.7597578474572	3.14539492744943	26.7637731139914	3.14539492744943	0.020517138248997924	16.227179217517126	17.544150399465416	1.306145733685536	14.293301757324759	23.481216668398666	1.306145733685536	-0.6863499449089869	20.507270809800698	4.280091592283501	14.16422210592592	4.686074027225038	4	missed	0.0
361.20568439998897	7.282609799993224	nogo_reward	1.0	361.2155664000311	363.5632366000209	366.1035930000362	2.347670199989807	362.2259514000034	365.0808579000295	367.122431900003	1.3372852000175044	1.0227351000066847	1.3757443000213243	n/a	1.0	n/a	2	0	115	2	nogo_reward	1	0	1	0	0	1	0	n/a	n/a	1	1.0	1.0	2239.930629999959	2601.14619639999	2602.1565813999623	2603.49386659998	2605.0114878999884	2606.034222999995	n/a	n/a	2607.053061899962	2608.4288061999832	2020-06-16 09:57:29.718367	10.5181595922309	0.871541382286069	17.6150364340004	17.615058800248	7.09687684176952	17.6150364340004	-10.5181595922309	17.6150364340004	0.871541382286069	17.6150364340004	7.09687684176952	2.165238551705798	3.1269606232061253	-1.3440660657057166	15.775787240236507	12.14859691023996	3.8143203961767846	15.775787240236507	1.458371468547813	11.358534129809698	8.231573506603592	12.01950069246912	2.4122204820616764	4	missed	0.0
368.5232209999813	6.113705599971581	go_reward	0.2454782000277191	368.5331030000234	370.31255279999414	372.861930700019	1.7794497999707346	369.54934030002914	371.84543029998895	373.8724092000052	0.7632124999649932	1.0165004000300542	0.7743993999897612	n/a	1.0	n/a	2	0	116	1	go_reward	1	1	0	1	1	1	1	n/a	n/a	1	0.2454782000277191	1.0	2239.930629999959	2608.4637329999823	2609.479970299988	2610.243182799953	2611.776060299948	2612.792560699978	n/a	n/a	2613.803039199964	2614.577438599954	2020-06-16 09:57:29.718367	23.6306479056011	19.7687226729507	3.14539492744943	19.7687269783322	26.7760428330506	3.14539492744943	-23.6306479056011	19.7687226729507	3.14539492744943	26.7760428330506	3.14539492744943	0.011552312755497951	16.239448936576327	17.553115224958916	1.306145733685536	14.302265088324159	23.493486387457864	1.306145733685536	-0.6953147704024869	20.519540528859896	4.280091592283501	14.17318693141942	4.686074027225038	4	missed	0.0
374.6875116999727	7.299095300026238	go_punish	0.2557027000002563	374.6973937000148	377.05945230001817	379.6001289000269	2.3620586000033654	375.70271500002127	378.58518320001895	380.613348999992	1.3567372999968939	1.0149457000079565	1.3831400000490248	n/a	1.0	n/a	2	0	117	3	go_punish	1	0	-1	1	1	1	0	n/a	n/a	0	0.2557027000002563	1.0	2239.930629999959	2614.6280236999737	2615.63334499998	2616.990082299977	2618.515813199978	2619.530758899986	n/a	n/a	2620.543978999951	2621.927119	2020-06-16 09:57:29.718367	3.01531156695733	-0.0599305157154907	-3.09298843121554	-0.0332358088347502	-0.0776768642582139	-3.09298843121554	-3.01531156695733	-0.0599305157154907	-3.09298843121554	-0.0776768642582139	-3.09298843121554	0.0599305157154907	-4.375887402067445	-2.2755379637072766	-4.932237624979434	-5.499697698842793	-3.360233309850949	-4.932237624979434	-0.6469365674424942	-6.334179168448919	-1.9582917663814685	-5.655466257246774	-1.5523093314399323	4	missed	0.0
382.0376950999489	7.076708100038104	nogo_reward	1.0	382.04757709999103	384.53954490000615	387.08057180000515	2.491967800015118	383.0576709000161	386.0571888000122	388.084062799986	1.4818739999900572	1.0233829999929185	1.0402224000431488	n/a	1.0	n/a	2	0	118	2	nogo_reward	1	0	1	0	0	1	0	n/a	n/a	1	1.0	1.0	2239.930629999959	2621.97820709995	2622.988300899975	2624.470174899965	2625.987818799971	2627.011201799964	n/a	n/a	2628.014692799945	2629.054915199988	2020-06-16 09:57:29.718367	11.2469550071366	0.871541382286069	18.7539152847926	18.7539305741221	7.50696027765597	18.7539152847926	-11.2469550071366	18.7539152847926	0.871541382286069	18.7539152847926	7.50696027765597	1.0263597009135985	3.855756038111826	-1.3440660657057166	16.914666091028707	13.28746868411406	4.224403832063235	16.914666091028707	0.31949261775561366	12.497412980601897	8.641656942490041	13.158379543261319	2.4122204820616764	4	missed	0.0
389.1499848999665	5.931698700005654	nogo_punish	1.0	389.15986690000864	390.5303339000093	393.0609234999861	1.3704670000006445	390.17223810002906	392.0467555000214	394.07469730003504	0.35809579998021945	1.014167999964684	1.0168682999792509	n/a	1.0	n/a	2	0	119	4	nogo_punish	1	-1	0	0	0	1	0	n/a	n/a	0	1.0	1.0	2239.930629999959	2629.0904968999675	2630.102868099988	2630.460963899968	2631.9773854999803	2632.991553499945	n/a	n/a	2634.005327299994	2635.022195599973	2020-06-16 09:57:29.718367	4.2025424049963	-5.20472551870347	-1.62429448317111	-1.62429853393529	-5.82683688816741	-1.62429448317111	-4.2025424049963	-1.62429448317111	-5.20472551870347	-1.62429448317111	-5.82683688816741	1.62429448317111	-3.1886565640284745	-7.4203329666952555	-3.463543676935004	-7.090760423943332	-9.109393333760146	-3.463543676935004	0.9174274000131251	-7.880796787361815	-4.692140223333339	-7.2198302247023936	-3.664046418927863	4	missed	0.0
395.1319848999847	7.667645299981814	go_punish	0.2359599000192247	395.1418669000268	397.8901518000057	400.4499543000129	2.7482848999788985	396.1528183000046	399.43048270000145	401.4633005000069	1.7373335000011139	1.0194716000114568	1.3462117000017315	n/a	1.0	n/a	2	0	120	3	go_punish	1	0	-1	1	1	1	0	n/a	n/a	0	0.2359599000192247	1.0	2239.930629999959	2635.0724968999857	2636.0834482999635	2637.8207817999646	2639.3611126999604	2640.380584299972	n/a	n/a	2641.393930499966	2642.7401421999675	2020-06-16 09:57:29.718367	3.04823749262854	-0.032714849876061	-3.09298843121554	-0.0185569392919185	-0.0447509385869997	-3.09298843121554	-3.04823749262854	-0.032714849876061	-3.09298843121554	-0.0447509385869997	-3.09298843121554	0.032714849876061	-4.342961476396234	-2.2483222978678468	-4.932237624979434	-5.48501882929996	-3.327307384179735	-4.932237624979434	-0.6741522332819239	-6.301253242777705	-1.9582917663814685	-5.628250591407345	-1.5523093314399323	4	missed	0.0
