onset	duration	trial_type	response_time	cueOnset	targetOnset	fbOnset	cueRT	firstfixOnset	secondfixOnset	waitOnset	firstfixdur	secondfixdur	waitdur	nback_fbOnset	nback_response_time	nback_targetOnset	block	wm	trial	cue	cond	is_common	outcome_go	outcome_nogo	key_correct	key_pressed	is_correct	key_correct_nback	key_pressed_nback	is_correct_nback	outcome	rt	rt_nback	time_scan	time_onset	time_isi1	time_circle	time_isi2	time_feedback	time_same	time_correct	time_iti	time_done	timestamp_scan	DV	Qgo	Qnogo	SV	Wgo	Wnogo	mDV	Qchosen	Qunchosen	Wchosen	Wunchosen	PE	DVC	QgoC	QnogoC	SVC	WgoC	WnogoC	PEC	WchosenC	WunchosenC	QchosenC	QunchosenC	run	outcome_nback	nback_targetResp
0.0	9.046497900038958	go_punish	0.2755828999797813	0.026679599948693067	2.0188261999865063	4.565253799955826	1.9921466000378132	1.0344646999728866	3.5412807999530287	7.6019043999840505	0.9843615000136197	1.0239730000027976	1.4712731000036001	6.59868529997766	1.0	5.5885800999822095	1	1	61	3	go_punish	1	0	-1	1	1	1	1	n/a	0.0	-1	0.2755828999797813	1.0	1137.271878200001	1137.2985577999498	1138.306342899974	1139.2907043999876	1140.813158999954	1141.837131999957	1142.8604582999833	1143.8705634999787	1144.8737825999851	1146.3450556999887	2020-06-16 09:39:07.055523	3.79642671418555	-0.534082403943876	-4.33900697159517	-0.756392643575886	-0.54258025740962	-4.33900697159517	-3.79642671418555	-0.534082403943876	-4.33900697159517	-0.54258025740962	-4.33900697159517	0.534082403943876	-3.5947722548392242	-2.7496898519356616	-6.178256165359064	-6.222854533583928	-3.825136703002355	-6.178256165359064	-0.1727846792141089	-6.799082561600325	-3.2043103067610987	-6.12961814547516	-2.7983278718195628	2	missed	0.0
9.140241600049194	9.440155099960975	go_reward	0.2589614000171423	9.166921199997887	11.78233779995935	14.305373899987899	2.6154165999614634	10.171970599971246	13.296200999990106	17.356011099996977	1.6103671999881044	1.0091728999977931	1.2510651999618858	16.35213419998763	0.4508502999669872	15.319515899987891	1	1	62	1	go_reward	1	1	0	1	1	1	0	0.0	1.0	1	0.2589614000171423	0.4508502999669872	1137.271878200001	1146.438799399999	1147.4438487999723	1149.0542159999604	1150.5680791999912	1151.577252099989	1152.591394099989	1153.6240123999887	1154.627889299998	1155.87895449996	2020-06-16 09:39:07.055523	19.5011290127776	19.0915079698428	0.0	19.0712798432213	19.5011290127776	0.0	-19.5011290127776	19.0915079698428	0.0	19.5011290127776	0.0	0.6887670158633981	12.109930043752826	16.875900521851015	-1.8392491937638942	13.60481795321326	16.218572567184864	-1.8392491937638942	-0.018100067294586797	13.244626708586896	1.1346966648340713	13.495972228311519	1.5406790997756075	2	correct	1.0
18.620539500028826	8.484066999983042	go_reward	0.4415850000223145	18.64721909997752	20.478714299970306	23.01988869998604	1.831495199992787	19.659647599968594	22.002365199965425	26.082501799974125	0.8190667000017129	1.0175235000206158	1.048784299986437	25.071568899962585	0.4839409000123851	24.030320499965228	1	1	63	1	go_reward	0	0	1	1	1	1	0	1.0	0.0	0	0.4415850000223145	0.4839409000123851	1137.271878200001	1155.9190972999786	1156.9315257999697	1157.7505924999714	1159.2742433999665	1160.2917668999871	1161.3021986999663	1162.3434470999637	1163.3543799999752	1164.4031642999616	2020-06-16 09:39:07.055523	19.7503996773777	19.3352787026311	0.0	19.3218147424377	19.7503996773777	0.0	-19.7503996773777	19.3352787026311	0.0	19.7503996773777	0.0	-19.3352787026311	12.359200708352926	17.119671254639314	-1.8392491937638942	13.855352852429657	16.467843231784965	-1.8392491937638942	-20.042145785789085	13.493897373186996	1.1346966648340713	13.739742961099818	1.5406790997756075	2	wrong	1.0
27.163507600023877	8.475836400000844	go_punish	0.4328295000013895	27.19018719997257	28.696390099998098	31.233904999971855	1.506202900025528	28.198962799971923	30.214186599943787	34.27241579996189	0.49742730002617463	1.0197184000280686	1.393607800011523	33.25923539994983	0.3489742000238038	32.2443462999654	1	1	64	3	go_punish	1	0	-1	1	1	1	0	0.0	1.0	0	0.4328295000013895	0.3489742000238038	1137.271878200001	1164.4620653999737	1165.470840999973	1165.9682682999992	1167.4860647999449	1168.505783199973	1169.5162244999665	1170.531113599951	1171.544293999963	1172.9379017999745	2020-06-16 09:39:07.055523	1.17685199602602	-3.14188025007226	-4.33900697159517	-3.28944463993512	-3.16215497556915	-4.33900697159517	-1.17685199602602	-3.14188025007226	-4.33900697159517	-3.16215497556915	-4.33900697159517	3.14188025007226	-6.214346972998754	-5.357487698064046	-6.178256165359064	-8.755906529943163	-6.444711421161886	-6.178256165359064	2.435013166914275	-9.418657279759856	-3.2043103067610987	-8.737415991603543	-2.7983278718195628	2	correct	1.0
35.68313360004686	7.978808699990623	go_reward	0.3771017999970354	35.70981319999555	37.18600859999401	39.73420029995032	1.4761953999984598	36.71125829999801	38.714842799992766	42.77343129995302	0.4747502999960034	1.0193574999575503	0.9151906000331564	41.76506059995154	0.5540459000039846	40.75227989995619	1	1	65	1	go_reward	0	0	1	1	1	1	1	0.0	0.0	0	0.3771017999970354	0.5540459000039846	1137.271878200001	1172.9816913999966	1173.983136499999	1174.457886799995	1175.9867209999938	1177.0060784999514	1178.0241580999573	1179.0369387999526	1180.045309499954	1180.9605000999873	2020-06-16 09:39:07.055523	10.9855048859664	10.7541018461453	0.0	10.7450213669745	10.9855048859664	0.0	-10.9855048859664	10.7541018461453	0.0	10.9855048859664	0.0	-10.7541018461453	3.594305916941625	8.538494398153514	-1.8392491937638942	5.278559476966458	7.702948440373664	-1.8392491937638942	-11.460968929303284	4.729002581775695	1.1346966648340713	5.1585661046140165	1.5406790997756075	2	wrong	1.0
43.70972390001407	8.953614800004061	nogo_reward	1.0	43.73640349996276	45.9040815999615	48.44037489994662	2.1676780999987386	44.73967799998354	47.41637169994647	51.47370599996043	1.164403599977959	1.024003200000152	1.2163123000063933	50.46724929998163	0.6466402999940328	49.45451819995651	1	1	66	2	nogo_reward	1	0	1	0	0	1	0	0.0	1.0	1	1.0	0.6466402999940328	1137.271878200001	1181.0082816999638	1182.0115561999846	1183.1759597999626	1184.6882498999476	1185.7122530999477	1186.7263963999576	1187.7391274999827	1188.7455841999615	1189.961896499968	2020-06-16 09:39:07.055523	9.20387200923462	0.0	9.40546101597522	9.40546101597522	0.201589006740601	9.40546101597522	-9.20387200923462	9.40546101597522	0.0	9.40546101597522	0.201589006740601	10.37481396973098	1.8126730402098463	-2.2156074479917858	7.566211822211326	3.938999125967178	-3.080967438852134	7.566211822211326	9.667946886572995	3.1489587117845153	1.3362856715746723	3.8099252744439367	1.5406790997756075	2	correct	1.0
52.70584010001039	9.673573300009593	go_reward	0.2168653000262566	52.732519699959084	55.31217539997283	57.86282429995481	2.5796557000137454	53.741890399949625	56.84524729999248	60.92017879994819	1.5702850000232047	1.0175769999623299	1.4859142000204884	59.90683589997934	0.5182817000313662	58.87686559994472	1	1	67	1	go_reward	1	1	0	1	1	1	1	0.0	0.0	1	0.2168653000262566	0.5182817000313662	1137.271878200001	1190.0043978999602	1191.0137685999507	1192.584053599974	1194.1171254999936	1195.134702499956	1196.1487437999458	1197.1787140999804	1198.1920569999493	1199.6779711999698	2020-06-16 09:39:07.055523	6.38261744720543	6.24981212553121	0.0	6.24361408749313	6.38261744720543	0.0	-6.38261744720543	6.24981212553121	0.0	6.38261744720543	0.0	13.530462860174989	-1.0085815218193446	4.0342046775394245	-1.8392491937638942	0.7771521974850879	3.1000610016126946	-1.8392491937638942	12.823595777017005	0.12611514301472493	1.1346966648340713	0.6542763839999264	1.5406790997756075	2	wrong	1.0
62.41918480000459	9.066378000017721	go_reward	0.0265665999613702	62.44586439995328	64.87783539999509	67.42704339994816	2.4319710000418127	63.458741099981125	66.41091959999176	70.4879052999895	1.4190943000139669	1.0161237999564037	1.0243370999814942	69.4746302999556	0.6287809999776073	68.43829899997218	1	1	68	1	go_reward	1	1	0	1	1	1	0	0.0	1.0	1	0.0265665999613702	0.6287809999776073	1137.271878200001	1199.7177425999544	1200.7306192999822	1202.1497135999962	1203.6827977999928	1204.6989215999492	1205.7101771999733	1206.7465084999567	1207.7597834999906	1208.784120599972	2020-06-16 09:39:07.055523	12.7602266097226	12.4954165408809	0.0	12.4911391994226	12.7602266097226	0.0	-12.7602266097226	12.4954165408809	0.0	12.7602266097226	0.0	7.2848584448253	5.369027640697826	10.279809092889113	-1.8392491937638942	7.024677309414558	9.477670164129865	-1.8392491937638942	6.577991361667316	6.503724305531896	1.1346966648340713	6.899880799349616	1.5406790997756075	2	correct	1.0
71.53450780001003	9.366085799993016	go_punish	0.3636280999635346	71.56118739995873	74.31938639999134	76.86796009994578	2.7581990000326186	72.5560377999791	75.84461249999003	79.9187749999694	1.7633486000122502	1.0233475999557413	1.0084981999823412	78.90552819997538	0.5632640999974683	77.87683479994303	1	1	69	3	go_punish	0	-1	0	1	1	1	0	0.0	1.0	-1	0.3636280999635346	0.5632640999974683	1137.271878200001	1208.8330655999598	1209.8279159999802	1211.5912645999924	1213.1164906999911	1214.1398382999469	1215.148712999944	1216.1774063999765	1217.1906531999705	1218.1991513999528	2020-06-16 09:39:07.055523	2.56486690429572	-1.76044752229221	-4.33900697159517	-1.8599614489007	-1.77414006729946	-4.33900697159517	-2.56486690429572	-1.76044752229221	-4.33900697159517	-1.77414006729946	-4.33900697159517	-4.94800897231721	-4.826332064729055	-3.976054970283996	-6.178256165359064	-7.326423338908742	-5.056696512892195	-6.178256165359064	-5.654876055475194	-8.030642371490165	-3.2043103067610987	-7.355983263823493	-2.7983278718195628	2	correct	1.0
80.9422567000147	8.15555820002919	go_reward	0.3395093000144698	80.96893629996339	82.44854209996993	84.9720489999745	1.4796058000065386	81.97414319997188	83.96767669997644	88.02206189994467	0.4743988999980502	1.0043722999980673	1.102432600047905	87.013394299953	0.3989421000005677	85.98612839996349	1	1	70	1	go_reward	1	1	0	1	1	1	1	0.0	0.0	1	0.3395093000144698	0.3989421000005677	1137.271878200001	1218.2408144999645	1219.246021399973	1219.720420299971	1221.2395548999775	1222.2439271999756	1223.2580065999646	1224.285272499954	1225.2939400999458	1226.3963726999937	2020-06-16 09:39:07.055523	15.9994365990456	15.6657820961759	0.0	15.662800197632	15.9994365990456	0.0	-15.9994365990456	15.6657820961759	0.0	15.9994365990456	0.0	4.1144928895303	8.608237630020826	13.450174648184113	-1.8392491937638942	10.196338307623957	12.716880153452864	-1.8392491937638942	3.4076258063723155	9.742934294854894	1.1346966648340713	10.070246354644617	1.5406790997756075	2	wrong	1.0
89.14346809999552	8.472510300052818	nogo_punish	1.0	89.17014769994421	90.67300339997723	93.20449759997427	1.5028557000330238	90.17557909997413	92.19080059998669	96.24963239999488	0.4974243000031038	1.0136969999875873	1.3930256000021473	95.23675589996856	0.4097030999837443	94.22432589996606	1	1	71	4	nogo_punish	1	-1	0	0	0	1	0	0.0	1.0	0	1.0	0.4097030999837443	1137.271878200001	1226.4420258999453	1227.4474572999752	1227.9448815999783	1229.4626787999878	1230.4763757999754	1231.4962040999671	1232.5086340999696	1233.521510599996	1234.914536199998	2020-06-16 09:39:07.055523	2.75415955570674	-4.33900697159517	-1.59736112489541	-1.60941844560669	-4.35152068060215	-1.59736112489541	-2.75415955570674	-1.59736112489541	-4.33900697159517	-1.59736112489541	-4.35152068060215	1.59736112489541	-4.637039413318034	-6.554614419586956	-3.436610318659304	-7.075880335614732	-7.634077126194885	-3.436610318659304	0.8904940417374252	-7.853863429086115	-3.2168240157680783	-7.192896866426693	-2.7983278718195628	2	correct	1.0
97.65709280001465	8.58727970003406	nogo_punish	1.0	97.68377239996335	99.45816919999197	101.99046699999599	1.7743968000286259	98.69505189999472	100.9678547999938	105.04363789997296	0.7631172999972478	1.022612200002186	1.227414200024441	104.03089619998354	0.4757775999605655	103.0001133999906	1	1	72	4	nogo_punish	0	0	-1	0	0	1	0	1.0	0.0	-1	1.0	0.4757775999605655	1137.271878200001	1234.9556505999644	1235.9669300999958	1236.730047399993	1238.2397329999949	1239.262345199997	1240.2719915999917	1241.3027743999846	1242.315516099974	1243.5429302999985	2020-06-16 09:39:07.055523	3.4220391901728	-4.33900697159517	-0.926303415154262	-0.935072555530263	-4.34834260532707	-0.926303415154262	-3.4220391901728	-0.926303415154262	-4.33900697159517	-0.926303415154262	-4.34834260532707	-5.782153079455158	-3.9691597788519744	-6.554614419586956	-2.7655526089181564	-6.401534445538305	-7.630899050919805	-2.7655526089181564	-6.4890201626131425	-7.182805719344967	-3.2136459404929987	-6.521839156685545	-2.7983278718195628	2	wrong	1.0
106.28570100001525	8.929333599982783	nogo_reward	1.0	106.31238059996394	108.15687449998222	110.69387899996923	1.8444939000182785	107.32190799998352	109.6735165999853	113.74867709999671	0.8349664999986999	1.0203623999839238	1.4930370999500155	112.73458349995781	0.4453284000046551	111.71073339995928	1	1	73	2	nogo_reward	0	1	0	0	0	1	0	0.0	1.0	0	1.0	0.4453284000046551	1137.271878200001	1243.584258799965	1244.5937861999846	1245.4287526999833	1246.9453947999864	1247.9657571999703	1248.9826115999604	1250.006461699959	1251.0205552999978	1252.5135923999478	2020-06-16 09:39:07.055523	13.8803864568395	0.0	14.1826143530657	14.1826143530657	0.302227896226187	14.1826143530657	-13.8803864568395	14.1826143530657	0.0	14.1826143530657	0.302227896226187	-14.1826143530657	6.489187487814725	-2.2156074479917858	12.343365159301806	8.716152463057657	-2.9803285493665483	12.343365159301806	-14.889481436223685	7.926112048874995	1.4369245610602583	8.587078611534416	1.5406790997756075	2	correct	1.0
115.26139420003165	8.291203400003724	nogo_reward	1.0	115.28807379998034	116.57399699999951	119.11320839996915	1.2859232000191696	116.2933994999621	118.09015479998197	122.1700294999755	0.2805975000374019	1.023053599987179	1.4092477000085637	121.15751789999194	0.526803300017491	120.1271799999522	1	1	74	2	nogo_reward	1	0	1	0	0	1	0	1.0	0.0	1	1.0	0.526803300017491	1137.271878200001	1252.5599519999814	1253.5652776999632	1253.8458752000006	1255.362032999983	1256.3850865999702	1257.3990581999533	1258.429396099993	1259.4419076999766	1260.8511553999851	2020-06-16 09:39:07.055523	7.70743364229837	0.0	7.87511851872581	7.87511851872581	0.167684876427436	7.87511851872581	-7.70743364229837	7.87511851872581	0.0	7.87511851872581	0.167684876427436	11.90515646698039	0.31623467327359567	-2.2156074479917858	6.035869324961916	2.408656628717768	-3.1148715691652993	6.035869324961916	11.198289383822406	1.6186162145351055	1.3023815412615072	2.279582777194527	1.5406790997756075	2	wrong	1.0
123.59902360005071	8.664903400000412	go_punish	0.5548095999984071	123.6257031999994	125.48709819995565	128.03464639995923	1.8613949999562465	124.6303632999768	127.01997319998941	131.09431949997088	0.8567348999788464	1.0146731999698204	1.1962871000289397	130.08144789998187	0.3745953000034205	129.05245579994516	1	1	75	3	go_punish	1	0	-1	1	1	1	0	0.0	1.0	0	0.5548095999984071	0.3745953000034205	1137.271878200001	1260.8975814000005	1261.902241499978	1262.7589763999567	1264.2918513999905	1265.3065245999603	1266.3243339999462	1267.353326099983	1268.366197699972	1269.562484800001	2020-06-16 09:39:07.055523	0.4813619341946	-3.83444740957881	-4.33900697159517	-3.90250900502303	-3.85764503740057	-4.33900697159517	-0.4813619341946	-3.83444740957881	-4.33900697159517	-3.85764503740057	-4.33900697159517	3.83444740957881	-6.909837034830175	-6.050054857570595	-6.178256165359064	-9.368970895031072	-7.140201482993305	-6.178256165359064	3.127580326420825	-10.114147341591275	-3.2043103067610987	-9.429983151110093	-2.7983278718195628	2	correct	1.0
132.3070360000131	8.156213800015166	go_reward	0.2793887000298127	132.3337155999618	134.01370149996364	136.5628572999849	1.6799859000018387	133.34418369998457	135.53986009996152	139.62188669998432	0.6695177999790758	1.022997200023383	0.8680426999926567	138.60883229994215	0.7527735999901779	137.57112019998021	1	1	76	1	go_reward	1	1	0	1	1	1	0	0.0	1.0	1	0.2793887000298127	0.7527735999901779	1137.271878200001	1269.605593799963	1270.6160618999857	1271.2855796999647	1272.8117382999626	1273.834735499986	1274.8429983999813	1275.8807104999432	1276.8937648999854	1277.761807599978	2020-06-16 09:39:07.055523	17.7359780774852	17.3648471198055	0.0	17.3627487318024	17.7359780774852	0.0	-17.7359780774852	17.3648471198055	0.0	17.7359780774852	0.0	2.4154278659007	10.344779108460425	15.149239671813714	-1.8392491937638942	11.89628684179436	14.453421631892464	-1.8392491937638942	1.708560782742715	11.479475773294496	1.1346966648340713	11.769311378274217	1.5406790997756075	2	correct	1.0
140.51432990003377	8.88751470000716	go_reward	0.1093760000076145	140.54100949998247	142.54456889996072	145.10348839999642	2.0035593999782577	141.54603649995988	144.08535309997387	148.1387789999717	0.9985324000008404	1.01813530002255	1.2897452000179328	147.13063239998883	0.5864797999965958	146.117572499963	1	1	77	1	go_reward	1	1	0	1	1	1	0	1.0	0.0	1	0.1093760000076145	0.5864797999965958	1137.271878200001	1277.8128876999835	1278.817914699961	1279.8164470999618	1281.357231299975	1282.3753665999975	1283.389450699964	1284.40251059999	1285.4106571999728	1286.7004023999907	2020-06-16 09:39:07.055523	18.7085484116845	18.3162339259293	0.0	18.3147443292029	18.7085484116845	0.0	-18.7085484116845	18.3162339259293	0.0	18.7085484116845	0.0	1.4640410597768998	11.317349442659726	16.100626477937514	-1.8392491937638942	12.848282439194858	15.425991966091765	-1.8392491937638942	0.757173976618915	12.452046107493796	1.1346966648340713	12.720698184398017	1.5406790997756075	2	wrong	1.0
149.44956180005101	8.706294899981003	go_punish	1.0	149.4762413999997	151.8225232999539	154.35626399994362	2.3462818999541923	150.486949299986	153.33984519995283	157.41370139998617	1.3355739999678917	1.016418799990788	0.7688348999945447	156.39485879999143	0.9085349999950268	155.3722729999572	1	1	78	3	go_punish	1	0	-1	1	0	0	0	1.0	0.0	-1	1.0	0.9085349999950268	1137.271878200001	1286.7481196000008	1287.758827499987	1289.094401499955	1290.611723399954	1291.6281421999447	1292.6441511999583	1293.6667369999925	1294.6855795999872	1295.4544144999818	2020-06-16 09:39:07.055523	-2.15589673021699	-2.16770866793412	-4.33900697159517	-2.21485119314543	-2.18311024137819	-4.33900697159517	2.15589673021699	-4.33900697159517	-2.16770866793412	-4.33900697159517	-2.18311024137819	-2.36944952301425	-9.547095699241764	-4.383316115925906	-6.178256165359064	-7.681313083153473	-5.465666686970925	-6.178256165359064	-3.076316606172235	-10.595509275785876	-1.0484135765441187	-9.934542713126454	-0.6270295681585127	2	wrong	1.0
158.19761790003372	9.129216399975348	nogo_reward	1.0	158.2242974999824	160.51302909996593	163.04295209998963	2.288731599983521	159.23359469999582	162.02474489994347	166.0791821999594	1.279434399970114	1.018207200046163	1.2743316999983563	165.0806208999711	0.8691155000124127	164.05877219996182	1	1	79	2	nogo_reward	1	0	1	0	0	1	0	0.0	1.0	1	1.0	0.8691155000124127	1137.271878200001	1295.4961756999835	1296.505472899997	1297.784907299967	1299.2966230999446	1300.3148302999907	1301.330650399963	1302.3524990999722	1303.3510603999605	1304.6253920999588	2020-06-16 09:39:07.055523	13.0265524954973	0.0	13.3092815311677	13.3092815311677	0.282729035670373	13.3092815311677	-13.0265524954973	13.3092815311677	0.0	13.3092815311677	0.282729035670373	6.470993454538499	5.635353526472526	-2.2156074479917858	11.470032337403806	7.842819641159658	-2.999827409922362	11.470032337403806	5.764126371380515	7.0527792269769956	1.4174257005044444	7.713745789636417	1.5406790997756075	2	correct	1.0
167.3789456000086	8.382651399995666	nogo_punish	1.0	167.40562519995729	168.96068169997284	171.4979912999554	1.555056500015553	168.41497359995242	170.47681589995045	174.54537349997554	0.5457081000204198	1.0211754000049496	1.2429030999774113	173.53250519995322	0.5242091999971308	172.50964879995445	1	1	80	4	nogo_punish	1	-1	0	0	0	1	0	0.0	1.0	0	1.0	0.5242091999971308	1137.271878200001	1304.6775033999584	1305.6868517999535	1306.232559899974	1307.7486940999515	1308.7698694999565	1309.7815269999555	1310.8043833999543	1311.8172516999766	1313.060154799954	2020-06-16 09:39:07.055523	1.00097605270088	-4.33900697159517	-3.35869865867134	-3.36512621522566	-4.35967471137222	-3.35869865867134	-1.00097605270088	-3.35869865867134	-4.33900697159517	-3.35869865867134	-4.35967471137222	3.35869865867134	-6.390222916323895	-6.554614419586956	-5.1979478524352345	-8.831588105233703	-7.6422311569649555	-5.1979478524352345	2.6518315755133552	-9.615200962862044	-3.2249780465381486	-8.954234400202623	-2.7983278718195628	2	correct	1.0
175.80781440000283	8.27686290000588	go_punish	0.2540889999945648	175.83449399995152	177.6807518999558	180.2261989999679	1.8462579000042751	176.83920279995073	179.20606519997818	183.27482859999873	0.8415491000050679	1.0201337999897078	0.8365282999586725	182.26544459996512	0.4742584000341594	181.24345179996453	1	1	81	3	go_punish	1	0	-1	1	1	1	0	0.0	1.0	0	0.2540889999945648	0.4742584000341594	1137.271878200001	1313.1063721999526	1314.1110809999518	1314.9526300999569	1316.4779433999793	1317.498077199969	1318.5153299999656	1319.5373227999662	1320.5467067999998	1321.3832350999585	2020-06-16 09:39:07.055523	3.03308378349013	-2.16770866793412	-5.22502030237615	-4.11501556785614	-2.19193651888602	-5.22502030237615	-3.03308378349013	-2.16770866793412	-5.22502030237615	-2.19193651888602	-5.22502030237615	2.16770866793412	-4.358115185534644	-4.383316115925906	-7.064269496140044	-9.581477457864182	-5.474492964478755	-7.064269496140044	1.4608415847761353	-8.448438823076724	-4.090323637542078	-7.763244409465404	-3.6843412026005424	2	correct	1.0
184.1265252000303	8.824871799966786	nogo_reward	1.0	184.153204799979	186.59739269997203	189.13174819998676	2.4441878999930395	185.16247579996707	188.10746799997287	192.17371199995978	1.4349169000049642	1.0242802000138909	0.8043645999860018	191.15920789999655	0.3962275999947451	190.14642039994942	1	1	82	2	nogo_reward	1	0	1	0	0	1	0	0.0	1.0	1	1.0	0.3962275999947451	1137.271878200001	1321.42508299998	1322.4343539999682	1323.8692708999731	1325.379346199974	1326.4036263999878	1327.4182985999505	1328.4310860999976	1329.4455901999609	1330.2499547999469	2020-06-16 09:39:07.055523	15.7483727755474	0.0	16.0916063267601	16.0916063267601	0.343233551212677	16.0916063267601	-15.7483727755474	16.0916063267601	0.0	16.0916063267601	0.343233551212677	3.6886686589460993	8.357173806522626	-2.2156074479917858	14.252357132996206	10.625144436752059	-2.9393228943800582	14.252357132996206	2.9818015757881144	9.835104022569396	1.4779302160467482	10.496070585228818	1.5406790997756075	2	correct	1.0
192.99268830002984	8.446507800021209	nogo_punish	1.0	193.01936789997853	194.69161299994448	197.23190719995182	1.6722450999659486	194.03754449996632	196.2092813999625	200.26992309995694	0.6540684999781661	1.0226257999893278	1.1959526000428014	199.2624032999738	0.3552175000077113	198.23958509997442	1	1	83	4	nogo_punish	0	0	-1	0	0	1	0	0.0	1.0	-1	1.0	0.3552175000077113	1137.271878200001	1330.2912460999796	1331.3094226999674	1331.9634911999456	1333.4811595999636	1334.503785399953	1335.5114632999755	1336.534281499975	1337.541801299958	1338.7377539000008	2020-06-16 09:39:07.055523	2.46834237451467	-4.33900697159517	-1.88454983161151	-1.88929573753622	-4.35289220612618	-1.88454983161151	-2.46834237451467	-1.88454983161151	-4.33900697159517	-1.88454983161151	-4.35289220612618	-4.82390666299791	-4.922856594510105	-6.554614419586956	-3.723799025375404	-7.355757627544262	-7.6354486517189155	-3.723799025375404	-5.530773746155894	-8.141052135802214	-3.2181955412921086	-7.4800855731427935	-2.7983278718195628	2	correct	1.0
201.48115060001146	9.536909200018272	nogo_punish	1.0	201.50783019996015	204.47765219997382	207.01539949997095	2.9698220000136644	202.516749399947	205.995099199994	210.06729109998582	1.9609028000268154	1.0203002999769524	0.9774482999926022	209.0543037999887	0.3717024999787099	208.0320424999809	1	1	84	4	nogo_punish	1	-1	0	0	0	1	0	1.0	0.0	0	1.0	0.3717024999787099	1137.271878200001	1338.7797083999612	1339.788627599948	1341.749530399975	1343.266977399995	1344.287277699972	1345.303920699982	1346.3261819999898	1347.339169299987	1348.3166175999795	2020-06-16 09:39:07.055523	0.454722493298206	-4.33900697159517	-3.90758229259355	-3.91111090084424	-4.36230478589176	-3.90758229259355	-0.454722493298206	-3.90758229259355	-4.33900697159517	-3.90758229259355	-4.36230478589176	3.90758229259355	-6.936476475726568	-6.554614419586956	-5.746831486357444	-9.377572790852282	-7.644861231484494	-5.746831486357444	3.200715209435565	-10.164084596784255	-3.2276081210576884	-9.503118034124833	-2.7983278718195628	2	wrong	1.0
211.06392320001032	8.415744900004938	go_punish	0.348978399997577	211.09060279995902	212.45270939997863	215.00972279999405	1.3621066000196151	212.095440999954	213.98079169995617	218.05121349997353	0.3572684000246227	1.0289311000378802	1.4551341999904253	217.03828739997698	0.6633380000130273	216.0243186999578	1	1	85	3	go_punish	0	-1	0	1	1	1	0	0.0	1.0	-1	0.348978399997577	0.6633380000130273	1137.271878200001	1348.36248099996	1349.367319199955	1349.7245875999797	1351.2526698999573	1352.2816009999951	1353.2961968999589	1354.310165599978	1355.3230916999746	1356.778225899965	2020-06-16 09:39:07.055523	3.92786722922463	-1.28111646103613	-5.22502030237615	-2.34576306903286	-1.29715307315152	-5.22502030237615	-3.92786722922463	-1.28111646103613	-5.22502030237615	-1.29715307315152	-5.22502030237615	-5.42734003357329	-3.4633317398001444	-3.496723909027916	-7.064269496140044	-7.812224959040902	-4.579709518744255	-7.064269496140044	-6.134207116731275	-7.553655377342225	-4.090323637542078	-6.8766522025674135	-3.6843412026005424	2	correct	1.0
219.52443869999843	8.619193900027312	nogo_reward	1.0	219.55111829994712	221.11697579995962	223.6360630999552	1.5658575000124983	220.55727409996325	222.61951029999182	226.67768509994494	0.5597016999963671	1.0165527999633923	1.4926271000294946	225.66431739996187	0.4433987999800592	224.6512098999808	1	1	86	2	nogo_reward	1	0	1	0	0	1	0	0.0	1.0	1	1.0	0.4433987999800592	1137.271878200001	1356.8229964999482	1357.8291522999643	1358.3888539999607	1359.891388499993	1360.9079412999563	1361.923088099982	1362.936195599963	1363.949563299946	1365.4421903999755	2020-06-16 09:39:07.055523	17.2193678898785	0.0	17.5957978354509	17.5957978354509	0.376429945572447	17.5957978354509	-17.2193678898785	17.5957978354509	0.0	17.5957978354509	0.376429945572447	2.184477150255301	9.828168920853727	-2.2156074479917858	15.756548641687004	12.129335945442858	-2.9061265000202883	15.756548641687004	1.477610067097316	11.339295531260195	1.5111266104065182	12.000262093919616	1.5406790997756075	2	correct	1.0
228.18511590000708	8.313174100010656	nogo_punish	1.0	228.21179549995577	229.79007339995587	232.30695169995283	1.5782779000001028	229.23016499995742	231.2852340999525	235.35982009995496	0.5599083999984487	1.0217176000003292	1.1651495000114664	234.34706129995175	0.3901637999806553	233.3164796999772	1	1	87	4	nogo_punish	1	-1	0	0	0	1	0	0.0	1.0	0	1.0	0.3901637999806553	1137.271878200001	1365.4836736999569	1366.5020431999585	1367.061951599957	1368.5571122999536	1369.578829899954	1370.5883578999783	1371.6189394999528	1372.631698299956	1373.7968477999675	2020-06-16 09:39:07.055523	2.14257399566676	-4.33900697159517	-2.21189096294829	-2.21453183134191	-4.35446495861505	-2.21189096294829	-2.14257399566676	-2.21189096294829	-4.33900697159517	-2.21189096294829	-4.35446495861505	2.21189096294829	-5.248624973358014	-6.554614419586956	-4.051140156712184	-7.680993721349952	-7.637021404207784	-4.051140156712184	1.505023879790305	-8.468393267138994	-3.2197682937809784	-7.807426704479573	-2.7983278718195628	2	correct	1.0
236.5383627000267	8.856076099967822	go_reward	0.3623662000172771	236.5650422999754	238.61028039996722	241.15961969998898	2.0452380999918205	237.56855309999082	240.14186769997468	244.20961439999542	1.041727299976401	1.0177520000142977	1.2115039999478086	243.2026364999474	0.5596391999861225	242.1739364999812	1	1	88	1	go_reward	1	1	0	1	1	1	0	0.0	1.0	1	0.3623662000172771	0.5596391999861225	1137.271878200001	1373.8369204999765	1374.840431299992	1375.8821585999683	1377.4137458999758	1378.43149789999	1379.4458146999823	1380.4745146999485	1381.4814925999965	1382.6929965999443	2020-06-16 09:39:07.055523	19.2733121416248	18.8686422604668	0.0	18.8675761746831	19.2733121416248	0.0	-19.2733121416248	18.8686422604668	0.0	19.2733121416248	0.0	0.9116327252394001	11.882113172600025	16.653034812475013	-1.8392491937638942	13.40111428467506	15.990755696032064	-1.8392491937638942	0.20476564208141523	13.016809837434096	1.1346966648340713	13.273106518935517	1.5406790997756075	2	correct	1.0
245.43904990004376	7.910336499975529	go_punish	1.0	245.46572949999245	246.79681559995515	249.31745809997642	1.3310860999627039	246.47073599998862	248.30675799999153	252.35809439996956	0.32607959996653335	1.0107000999848879	1.0179715999984182	251.3541639999603	0.8982963000307791	250.3315680999658	1	1	89	3	go_punish	1	0	-1	1	0	0	0	0.0	1.0	-1	1.0	0.8982963000307791	1137.271878200001	1382.7376076999935	1383.7426141999897	1384.0686937999562	1385.5786361999926	1386.5893362999775	1387.603446299967	1388.6260421999614	1389.6299725999706	1390.647944199969	2020-06-16 09:39:07.055523	-1.61528438266216	-3.58511054194465	-5.22502030237615	-4.19764056093032	-3.60973591971399	-5.22502030237615	1.61528438266216	-5.22502030237615	-3.58511054194465	-5.22502030237615	-3.60973591971399	-1.4834361922332704	-9.006483351686935	-5.800717989936436	-7.064269496140044	-9.664102450938362	-6.892292365306725	-7.064269496140044	-2.1903032753912552	-11.481522606566855	-2.4750392548799187	-10.820556043907434	-2.044431442169042	2	correct	1.0
253.39158420002786	9.810222800006159	nogo_punish	1.0	253.41826379997656	256.2534523999784	258.78596979996655	2.8351886000018567	254.4281133999466	257.77075899997726	261.830555499997	1.8253390000318177	1.0152107999892905	1.3979310999857262	260.8163079999506	0.4135501999990083	259.8032100999844	1	1	90	4	nogo_punish	1	-1	0	0	0	1	0	0.0	1.0	0	1.0	0.4135501999990083	1137.271878200001	1390.6901419999776	1391.6999915999477	1393.5253305999795	1395.0426371999783	1396.0578479999676	1397.0750882999855	1398.0881861999517	1399.102433699998	1400.5003647999838	2020-06-16 09:39:07.055523	3.04177847525959	-4.33900697159517	-1.30838578011533	-1.31037468869755	-4.35016425537492	-1.30838578011533	-3.04177847525959	-1.30838578011533	-4.33900697159517	-1.30838578011533	-4.35016425537492	1.30838578011533	-4.349420493765184	-6.554614419586956	-3.1476349738792244	-6.776836578705592	-7.6327207009676545	-3.1476349738792244	0.6015186969573452	-7.564888084306035	-3.2154675905408485	-6.903921521646613	-2.7983278718195628	2	correct	1.0
263.23852040001657	9.601574600034155	go_reward	0.2803192000137642	263.26519999996526	265.79519749997417	268.3486986999633	2.5299975000089034	264.2806608999963	267.3280832999735	271.420889299945	1.5145365999778733	1.0206153999897651	1.4458853000544423	270.4074118999997	0.3523450000211596	269.37417009996716	1	1	91	1	go_reward	0	0	1	1	1	1	0	0.0	1.0	0	0.2803192000137642	0.3523450000211596	1137.271878200001	1400.5370781999663	1401.5525390999974	1403.0670756999752	1404.5999614999746	1405.6205768999644	1406.6460482999682	1407.6792901000008	1408.692767499946	1410.1386528000005	2020-06-16 09:39:07.055523	19.6114136032348	19.1993479029653	0.0	19.198579063198	19.6114136032348	0.0	-19.6114136032348	19.1993479029653	0.0	19.6114136032348	0.0	-19.1993479029653	12.220214634210027	16.983740454973514	-1.8392491937638942	13.732117173189959	16.328857157642066	-1.8392491937638942	-19.906214986123285	13.354911299044097	1.1346966648340713	13.603812161434018	1.5406790997756075	2	correct	1.0
272.8839881000458	9.679691999976058	nogo_punish	1.0	272.9106676999945	275.61307799996575	278.1491198999572	2.702410299971234	273.9116655999678	277.129681899969	281.18044589995407	1.7014123999979347	1.019437999988213	1.4099138000165112	280.1742793999729	0.444939200009685	279.16190069995355	1	1	92	4	nogo_punish	1	-1	0	0	0	1	1	0.0	0.0	0	1.0	0.444939200009685	1137.271878200001	1410.1825458999956	1411.183543799969	1412.8849561999668	1414.40156009997	1415.4209980999583	1416.4337788999546	1417.446157599974	1418.4523240999551	1419.8622378999717	2020-06-16 09:39:07.055523	3.54632507279396	-4.33900697159517	-0.801389123849103	-0.802896038122067	-4.34771419664307	-0.801389123849103	-3.54632507279396	-0.801389123849103	-4.33900697159517	-0.801389123849103	-4.34771419664307	0.801389123849103	-3.844873896230814	-6.554614419586956	-2.6406383176129973	-6.269357928130109	-7.630270642235805	-2.6406383176129973	0.09452204069111814	-7.057891428039808	-3.2130175318089984	-6.396924865380386	-2.7983278718195628	2	wrong	1.0
282.6036636000499	8.504795499960892	go_reward	1.0	282.6303431999986	284.5898245999706	287.12051979999524	1.9594813999719918	283.629204799945	286.10112639999716	290.17330279998714	0.9606198000255972	1.01939339999808	0.9618358999723569	289.1591872999561	0.590040199982468	288.13838299998315	1	1	93	1	go_reward	1	1	0	1	0	0	1	0.0	0.0	0	1.0	0.590040199982468	1137.271878200001	1419.9022213999997	1420.901082999946	1421.8617027999717	1423.3730045999982	1424.3923979999963	1425.4102611999842	1426.4310654999572	1427.4451809999882	1428.4070168999606	2020-06-16 09:39:07.055523	-10.8993467507052	10.6698623445446	0.0	10.6693038688229	10.8993467507052	0.0	10.8993467507052	0.0	10.6698623445446	0.0	10.8993467507052	0.0	-18.290545719729977	8.454254896552813	-1.8392491937638942	5.202841978814857	7.616790305112465	-1.8392491937638942	-0.7068670831579849	-6.256502304190705	12.034043415539273	-5.595535741531283	12.210541444320206	2	wrong	1.0
291.14677940000547	7.845952300005592	nogo_reward	1.0	291.17345899995416	292.5434302999638	295.07313709997084	1.369971300009638	292.1859416999505	294.053198199952	298.1264559999688	0.35748860001331195	1.0199389000188148	0.8929552999909447	297.11316359997727	0.5511960000148974	296.09130619995994	1	1	94	2	nogo_reward	0	1	0	0	0	1	0	0.0	1.0	0	1.0	0.5511960000148974	1137.271878200001	1428.4453371999552	1429.4578198999516	1429.8153084999649	1431.325076399953	1432.345015299972	1433.363184399961	1434.3850417999784	1435.39833419997	1436.2912894999608	2020-06-16 09:39:07.055523	18.0499649249921	0.0	18.4452970498714	18.4452970498714	0.395332124879277	18.4452970498714	-18.0499649249921	18.4452970498714	0.0	18.4452970498714	0.395332124879277	-18.4452970498714	10.658765955967326	-2.2156074479917858	16.606047856107505	12.978835159863358	-2.8872243207134582	16.606047856107505	-19.152164133029384	12.188794745680696	1.5300287897133482	12.849761308340117	1.5406790997756075	2	correct	1.0
299.0399903000216	9.313390899973456	go_reward	0.2570858999970369	299.0666698999703	301.82628629996907	304.35911609994923	2.7596163999987766	300.069941999973	303.3435952999862	307.41797529999167	1.7563442999960444	1.015520799963042	0.9620854999520816	306.40479989995947	0.4201264000148512	305.37636199995177	1	1	95	1	go_reward	0	0	1	1	1	1	1	0.0	0.0	0	0.2570858999970369	0.4201264000148512	1137.271878200001	1436.3385480999714	1437.341820199974	1439.0981644999702	1440.6154734999873	1441.6309942999503	1442.6482401999529	1443.6766780999606	1444.6898534999928	1445.6519389999448	2020-06-16 09:39:07.055523	10.8014432200918	10.6698623445446	0.0	6.19648177823335	10.8014432200918	0.0	-10.8014432200918	10.6698623445446	0.0	10.8014432200918	0.0	-10.6698623445446	3.4102442510670254	8.454254896552813	-1.8392491937638942	0.730019888225308	7.518886774499064	-1.8392491937638942	-11.376729427702584	4.544940915901095	1.1346966648340713	5.074326603013316	1.5406790997756075	2	wrong	1.0
308.3937130999984	8.146545900031697	go_punish	0.2292565999669022	308.4203926999471	310.20516309997765	312.7659387999447	1.7847704000305384	309.426209099998	311.7466900999425	315.80883709999034	0.7789539999796489	1.0192487000022084	0.7581014999884701	314.7954666999867	0.5685714000137523	313.77183319994947	1	1	96	3	go_punish	1	0	-1	1	1	1	0	0.0	1.0	0	0.2292565999669022	0.5685714000137523	1137.271878200001	1445.6922708999482	1446.698087299999	1447.4770412999787	1449.0185682999436	1450.0378169999458	1451.0437113999506	1452.0673448999878	1453.0807152999914	1453.83881679998	2020-06-16 09:39:07.055523	2.14057351553815	-3.58511054194465	-5.75507776104158	-5.19988810109547	-3.61450424550343	-5.75507776104158	-2.14057351553815	-3.58511054194465	-5.75507776104158	-3.61450424550343	-5.75507776104158	3.58511054194465	-5.250625453486625	-5.800717989936436	-7.594326954805474	-10.666349991103512	-6.897060691096165	-7.594326954805474	2.878243458786665	-9.871006549694135	-4.620381096207509	-9.180646283475934	-4.214398661265973	2	correct	1.0
316.5828048000112	9.320822200039402	nogo_reward	1.0	316.6094843999599	319.1568076999972	321.69671389996074	2.5473233000373057	317.6181749999523	320.6738027999527	324.7185680999537	1.5386327000449	1.0229111000080593	1.2117385000456125	323.7242692	0.3671889000106603	322.7121333999678	1	1	97	2	nogo_reward	1	0	1	0	0	1	0	0.0	1.0	1	1.0	0.3671889000106603	1137.271878200001	1453.881362599961	1454.8900531999534	1456.4286858999983	1457.9456809999538	1458.9685920999618	1459.9840115999689	1460.996147400001	1461.9904462999548	1463.2021848000004	2020-06-16 09:39:07.055523	9.99056670130796	0.0	10.2098930882128	10.2098930882128	0.219326386904863	10.2098930882128	-9.99056670130796	10.2098930882128	0.0	10.2098930882128	0.219326386904863	9.5703818974934	2.599367732283186	-2.2156074479917858	8.370643894448905	4.743431198204758	-3.0632300586878722	8.370643894448905	8.863514814335415	3.953390784022095	1.3540230517389342	4.614357346681516	1.5406790997756075	2	correct	1.0
325.94573930004844	9.289301399956685	go_reward	0.183874599984847	325.97241889999714	328.1974709999631	330.75073049997445	2.2250520999659784	326.9811899999622	329.7276965999624	333.7914874999551	1.2162810000008903	1.0230339000120239	1.470232799998712	332.77412579994416	1.0	331.7653512999534	1	1	98	1	go_reward	1	1	0	1	1	1	0	n/a	0.0	0	0.183874599984847	1.0	1137.271878200001	1463.2442970999982	1464.2530681999633	1465.4693491999642	1466.9995747999635	1468.0226086999755	1469.0372294999545	1470.0460039999452	1471.0633656999562	1472.533598499955	2020-06-16 09:39:07.055523	6.2738018730805	6.19689021357675	0.0	3.72876412628904	6.2738018730805	0.0	-6.2738018730805	6.19689021357675	0.0	6.2738018730805	0.0	13.583384772129449	-1.1173970959442743	3.981282765584964	-1.8392491937638942	-1.737697763719002	2.991245427487765	-1.8392491937638942	12.876517688971465	0.017299568889795225	1.1346966648340713	0.6013544720454664	1.5406790997756075	2	missed	0.0
335.2764026999939	8.29424650000874	nogo_punish	1.0	335.3030822999426	336.65411479998147	339.1852304999486	1.3510325000388548	336.3125527999946	338.1715717999614	342.24491719994694	0.3415619999868795	1.013658699987218	1.352411600004416	341.23215649998747	0.3309349999763071	340.20325339998817	1	1	99	4	nogo_punish	1	-1	0	0	0	1	0	0.0	1.0	0	1.0	0.3309349999763071	1137.271878200001	1472.5749604999437	1473.5844309999957	1473.9259929999826	1475.4434499999625	1476.4571086999497	1477.4751315999893	1478.5040346999886	1479.516795399948	1480.8692069999524	2020-06-16 09:39:07.055523	3.84126211406664	-4.33900697159517	-0.505003497749037	-0.506151814570624	-4.34626561181567	-0.505003497749037	-3.84126211406664	-0.505003497749037	-4.33900697159517	-0.505003497749037	-4.34626561181567	0.505003497749037	-3.5499368549581343	-6.554614419586956	-2.3442526915129314	-5.9726137045786665	-7.628822057408405	-2.3442526915129314	-0.2018635854089479	-6.761505801939742	-3.2115689469815987	-6.10053923928032	-2.7983278718195628	2	correct	1.0
343.6215219000005	8.111167300026864	go_punish	0.33342460001586	343.6482014999492	345.094828399946	347.6523661999963	1.4466268999967724	344.6595085999579	346.6376218999503	350.70386279997183	0.4353197999880649	1.0147443000460044	1.055506000004243	349.69109099998605	0.4229984999983571	348.66864829999395	1	1	100	3	go_punish	1	0	-1	1	1	1	0	0.0	1.0	0	0.33342460001586	0.4229984999983571	1137.271878200001	1480.9200796999503	1481.931386799959	1482.366706599947	1483.9095000999514	1484.9242443999974	1485.940526499995	1486.9629691999871	1487.975740999973	1489.0312469999772	2020-06-16 09:39:07.055523	3.70386648121899	-2.03217792736052	-5.75507776104158	-2.96987171938173	-2.05121127982259	-5.75507776104158	-3.70386648121899	-2.03217792736052	-5.75507776104158	-2.05121127982259	-5.75507776104158	2.03217792736052	-3.6873324878057843	-4.247785375352306	-7.594326954805474	-8.436333609389772	-5.333767725415325	-7.594326954805474	1.325310844202535	-8.307713584013294	-4.620381096207509	-7.627713668891803	-4.214398661265973	2	correct	1.0
351.7949098999961	7.969914000015706	nogo_reward	1.0	351.8215894999448	353.24626069999067	355.77532839996275	1.4246712000458501	352.8261844999506	354.755481899949	358.8363718999899	0.4200762000400573	1.0198465000137276	0.9551315999706276	357.82376299996395	0.4669651999720372	356.79343169997446	1	1	101	2	nogo_reward	0	1	0	0	0	1	0	0.0	1.0	0	1.0	0.4669651999720372	1137.271878200001	1489.093467699946	1490.0980626999517	1490.5181388999918	1492.02736009995	1493.0472065999638	1494.0653098999755	1495.095641199965	1496.108250099991	1497.0633816999616	2020-06-16 09:39:07.055523	14.3295309044102	0.0	14.641925982573	14.641925982573	0.312395078162784	14.641925982573	-14.3295309044102	14.641925982573	0.0	14.641925982573	0.312395078162784	-14.641925982573	6.938331935385426	-2.2156074479917858	12.802676788809105	9.175464092564958	-2.9701613674299514	12.802676788809105	-15.348793065730984	8.385423678382296	1.4470917429968553	9.046390241041717	1.5406790997756075	2	correct	1.0
359.8051773000043	8.547576400043909	go_reward	0.0315821000258438	359.831856899953	361.88762669998687	364.4398991999915	2.055769800033886	360.8422421999858	363.42793029994937	367.47974309994606	1.0453845000010915	1.0119689000421204	0.8996902000508271	366.4664475999889	0.5391321000060998	365.4532313999953	1	1	102	1	go_reward	1	1	0	1	1	1	0	0.0	1.0	1	0.0315821000258438	0.5391321000060998	1137.271878200001	1497.103735099954	1498.1141203999869	1499.159504899988	1500.6998084999504	1501.7117773999926	1502.7251095999964	1503.73832579999	1504.7516212999471	1505.651311499998	2020-06-16 09:39:07.055523	3.77437150694092	3.72906475953236	0.0	2.31052349912673	3.77437150694092	0.0	-3.77437150694092	3.72906475953236	0.0	3.77437150694092	0.0	16.05121022617384	-3.6168274620838545	1.513457311540574	-1.8392491937638942	-3.155938390881312	0.49181506134818465	-1.8392491937638942	15.344343143015855	-2.482130797249785	1.1346966648340713	-1.8664709819989236	1.5406790997756075	2	correct	1.0
368.40107480000006	9.047960399999283	go_punish	0.253997000050731	368.42775439994875	370.89127449999796	373.4765096999474	2.463520100049209	369.42473509995034	372.4552120999433	376.52927809994435	1.4665394000476226	1.021297600004118	0.9464367000036873	375.51635859999806	0.3905899999663234	374.4876688999939	1	1	103	3	go_punish	1	0	-1	1	1	1	0	0.0	1.0	0	0.253997000050731	0.3905899999663234	1137.271878200001	1505.6996325999498	1506.6966132999514	1508.163152699999	1509.7270902999444	1510.7483878999485	1511.759547099995	1512.7882367999991	1513.8011562999454	1514.7475929999491	2020-06-16 09:39:07.055523	4.5369824699959	-1.20477968090456	-5.75507776104158	-1.7702271678459	-1.21809529104568	-5.75507776104158	-4.5369824699959	-1.20477968090456	-5.75507776104158	-1.21809529104568	-5.75507776104158	1.20477968090456	-2.8542164990288743	-3.420387128896346	-7.594326954805474	-7.236689057853942	-4.500651736638416	-7.594326954805474	0.49791259774657504	-7.474597595236385	-4.620381096207509	-6.800315422435843	-4.214398661265973	2	correct	1.0
377.49161790002813	9.634113400010392	go_reward	0.3154194999951869	377.5182974999768	380.3047971999622	382.8599475999945	2.78649969998537	378.5349895999534	381.83664629998384	385.90934159996687	1.7698076000087894	1.023301300010644	1.2430693000203519	384.89629379997496	0.5055742000113241	383.87466429994674	1	1	104	1	go_reward	1	1	0	1	1	1	1	0.0	0.0	1	0.3154194999951869	0.5055742000113241	1137.271878200001	1514.790175699978	1515.8068677999545	1517.5766753999633	1519.108524499985	1520.1318257999956	1521.1465424999478	1522.168171999976	1523.181219799968	1524.4242890999883	2020-06-16 09:39:07.055523	11.2570721134374	11.0434613355762	0.0	10.2002251673669	11.2570721134374	0.0	-11.2570721134374	11.0434613355762	0.0	11.2570721134374	0.0	8.73681365013	3.8658731444126264	8.827853887584414	-1.8392491937638942	4.733763277358858	7.974515667844665	-1.8392491937638942	8.029946566972015	5.000569809246696	1.1346966648340713	5.447925594044917	1.5406790997756075	2	wrong	1.0
387.17102500004694	8.899599099997204	nogo_punish	1.0	387.19770459999563	389.56783709995216	392.1046932999743	2.370132499956526	388.2148574999883	391.08382949995575	395.1356183999451	1.3529795999638736	1.0208638000185601	0.9616853000477477	394.13421179994475	0.4747781999758445	393.12141909997445	1	1	105	4	nogo_punish	1	-1	0	0	0	1	0	0.0	1.0	0	1.0	0.4747781999758445	1137.271878200001	1524.4695827999967	1525.4867356999894	1526.8397152999532	1528.3557076999568	1529.3765714999754	1530.3932972999755	1531.4060899999458	1532.4074965999462	1533.369181899994	2020-06-16 09:39:07.055523	4.01950518177524	-4.33900697159517	-0.325878297825394	-0.326758209545842	-4.34538347960063	-0.325878297825394	-4.01950518177524	-0.325878297825394	-4.33900697159517	-0.325878297825394	-4.34538347960063	0.325878297825394	-3.3716937872495345	-6.554614419586956	-2.1651274915892884	-5.793220099553884	-7.627939925193365	-2.1651274915892884	-0.38098878533259084	-6.582380602016099	-3.210686814766559	-5.921414039356677	-2.7983278718195628	2	correct	1.0
396.1254125999985	7.920731200021692	nogo_reward	1.0	396.1520921999472	397.5520132999518	400.082167399989	1.3999211000045761	397.1637654999506	399.069543599966	403.14177409996046	0.38824780000118153	1.0126238000229932	0.9310493000084534	402.128508899943	0.5180601000320166	401.1001342999516	1	1	106	2	nogo_reward	0	1	0	0	0	1	0	0.0	1.0	0	1.0	0.5180601000320166	1137.271878200001	1533.4239703999483	1534.4356436999517	1534.8238914999529	1536.341421799967	1537.35404559999	1538.3720124999527	1539.400387099944	1540.4136522999615	1541.34470159997	2020-06-16 09:39:07.055523	7.97226363193477	0.0	8.14593514254929	8.14593514254929	0.173671510614526	8.14593514254929	-7.97226363193477	8.14593514254929	0.0	8.14593514254929	0.173671510614526	-8.14593514254929	0.5810646629099958	-2.2156074479917858	6.306685948785395	2.6794732525412472	-3.1088849349782093	6.306685948785395	-8.852802225707274	1.8894328383585846	1.3083681754485972	2.550399401018006	1.5406790997756075	2	correct	1.0
404.09811170003377	8.685858600016218	nogo_reward	1.0	404.12479129998246	405.8488683999749	408.3886062999952	1.724077099992428	405.14317979995394	407.36565859999973	411.4167676999932	0.7056886000209488	1.022947699995484	1.3938822000054643	410.40992299997015	0.6753368999925442	409.3967797999503	1	1	107	2	nogo_reward	1	0	1	0	0	1	0	1.0	0.0	1	1.0	0.6753368999925442	1137.271878200001	1541.3966694999835	1542.415057999955	1543.120746599976	1544.6375368000008	1545.6604844999963	1546.6686579999514	1547.6818011999712	1548.6886458999943	1550.0825280999998	2020-06-16 09:39:07.055523	4.64151477847779	0.0	4.74074337458612	4.74074337458612	0.0992285961083288	4.74074337458612	-4.64151477847779	4.74074337458612	0.0	4.74074337458612	0.0992285961083288	15.03953161112008	-2.7496841905469847	-2.2156074479917858	2.901494180822225	-0.7257185154219226	-3.183327849484406	2.901494180822225	14.332664527962095	-1.5157589296045852	1.2339252609424	-0.8547923669451638	1.5406790997756075	2	wrong	1.0
412.82741130003706	8.404154999996535	nogo_punish	1.0	412.85409089998575	414.7692994999818	417.3016166999587	1.915208599996049	413.8626513999768	416.2864651999553	420.35013389994856	0.9066481000049862	1.0151515000034124	0.908112000033725	419.34048779995646	0.3687130999751389	418.31239149998873	1	1	108	4	nogo_punish	1	-1	0	0	0	1	0	0.0	1.0	0	1.0	0.3687130999751389	1137.271878200001	1550.1259690999868	1551.134529599978	1552.0411776999829	1553.5583433999564	1554.5734948999598	1555.5842696999898	1556.6123659999575	1557.6220120999496	1558.5301240999834	2020-06-16 09:39:07.055523	4.13024941167071	-4.33900697159517	-0.214585084310783	-0.215262936015781	-4.34483449598149	-0.214585084310783	-4.13024941167071	-0.214585084310783	-4.33900697159517	-0.214585084310783	-4.34483449598149	0.214585084310783	-3.2609495573540643	-6.554614419586956	-2.053834278074677	-5.681724826023824	-7.627390941574225	-2.053834278074677	-0.49228199884720186	-6.471087388501488	-3.210137831147419	-5.810120825842066	-2.7983278718195628	2	correct	1.0
421.27890200004913	9.64870839996729	nogo_reward	1.0	421.3055815999978	424.033294999972	426.5697763999924	2.7277133999741636	422.30463739996776	425.54636329994537	429.6049942999962	1.728657600004226	1.023413100047037	1.349295699968934	428.59893549996195	0.5570175000466406	427.57805729995016	1	1	109	2	nogo_reward	1	0	1	0	0	1	1	0.0	0.0	1	1.0	0.5570175000466406	1137.271878200001	1558.577459799999	1559.5765155999688	1561.305173199973	1562.8182414999465	1563.8416545999935	1564.8499354999512	1565.870813699963	1566.8768724999973	1568.2261681999662	2020-06-16 09:39:07.055523	11.3481361467162	0.0	11.5928595869345	11.5928595869345	0.244723440218326	11.5928595869345	-11.3481361467162	11.5928595869345	0.0	11.5928595869345	0.244723440218326	8.1874153987717	3.956937177691426	-2.2156074479917858	9.753610393170606	6.126397696926458	-3.0378330053744094	9.753610393170606	7.480548315613715	5.336357282743795	1.3794201050523973	5.9973238454032165	1.5406790997756075	2	wrong	1.0
430.96916510001734	8.202643099997886	nogo_punish	1.0	430.995844699966	432.8594386999614	435.3877384999648	1.8635939999953735	432.000037699996	434.36633229994914	438.439178599976	0.8594009999653736	1.02140620001569	0.7593091999879107	437.426808799966	0.401168099953793	436.3978702999884	1	1	110	4	nogo_punish	1	-1	0	0	0	1	1	0.0	0.0	0	1.0	0.401168099953793	1137.271878200001	1568.267722899967	1569.271915899997	1570.1313168999625	1571.6382104999502	1572.659616699966	1573.6697484999895	1574.698686999967	1575.711056799977	1576.470365999965	2020-06-16 09:39:07.055523	4.20069045855203	-4.33900697159517	-0.143797108065435	-0.144322000543405	-4.34448756661747	-0.143797108065435	-4.20069045855203	-0.143797108065435	-4.33900697159517	-0.143797108065435	-4.34448756661747	0.143797108065435	-3.1905085104727444	-6.554614419586956	-1.9830463018293292	-5.610783890551447	-7.627044012210206	-1.9830463018293292	-0.5630699750925499	-6.40029941225614	-3.209790901783399	-5.739332849596718	-2.7983278718195628	2	wrong	1.0
439.2095502000302	8.142436099995393	go_reward	0.3122382000437937	439.2362297999789	440.82867669995176	443.4367412999852	1.592446899972856	440.24207279999973	442.41397329996107	446.4944393999758	0.5866038999520242	1.0227680000241435	0.8842264999984764	445.48087219998683	0.501410000026226	444.45167469995795	1	1	111	1	go_reward	1	1	0	1	1	1	0	0.0	1.0	1	0.3122382000437937	0.501410000026226	1137.271878200001	1576.50810799998	1577.5139510000008	1578.1005548999528	1579.6858514999622	1580.7086194999863	1581.723552899959	1582.752750399988	1583.766317599977	1584.6505440999754	2020-06-16 09:39:07.055523	15.1040018661991	14.8011205570999	0.0	14.2854620938759	15.1040018661991	0.0	-15.1040018661991	14.8011205570999	0.0	15.1040018661991	0.0	4.9791544286063	7.712802897174326	12.585513109108113	-1.8392491937638942	8.819000203867859	11.821445420606365	-1.8392491937638942	4.272287345448316	8.847499562008394	1.1346966648340713	9.205584815568617	1.5406790997756075	2	correct	1.0
447.3978161000414	8.46541329997126	nogo_punish	1.0	447.4244956999901	448.99059019994456	451.5145702999432	1.5660944999544881	448.429387899989	450.49957579997135	454.5732983999769	0.5612022999555393	1.0149944999718628	1.3166105999844149	453.56309439998586	0.3560332000488415	452.5260595999425	1	1	112	4	nogo_punish	1	-1	0	0	0	1	1	0.0	0.0	0	1.0	0.3560332000488415	1137.271878200001	1584.6963738999912	1585.70126609999	1586.2624683999456	1587.7714539999724	1588.7864484999443	1589.7979377999436	1590.834972599987	1591.845176599978	1593.1617871999624	2020-06-16 09:39:07.055523	4.2464113705619	-4.33900697159517	-0.0978546789982485	-0.0982631624701047	-4.34426604956015	-0.0978546789982485	-4.2464113705619	-0.0978546789982485	-4.33900697159517	-0.0978546789982485	-4.34426604956015	0.0978546789982485	-3.144787598462874	-6.554614419586956	-1.9371038727621426	-5.564725052478147	-7.626822495152885	-1.9371038727621426	-0.6090124041597363	-6.3543569831889535	-3.2095693847260787	-5.693390420529532	-2.7983278718195628	2	wrong	1.0
455.9105979000451	8.3699881999637	nogo_reward	1.0	455.9372774999938	457.2613267999841	459.789366699988	1.3240492999902926	456.9351869999666	458.7713747999512	462.84563599998364	0.3261398000174722	1.0179919000368045	1.4616296999738552	461.8327494999978	0.4706408000201918	460.80432119994657	1	1	113	2	nogo_reward	1	0	1	0	0	1	0	0.0	1.0	1	1.0	0.4706408000201918	1137.271878200001	1593.2091556999949	1594.2070651999677	1594.5332049999852	1596.0432529999523	1597.061244899989	1598.0761993999477	1599.104627699999	1600.1175141999847	1601.5791438999586	2020-06-16 09:39:07.055523	14.7894207242376	0.0	15.1107767500776	15.1107767500776	0.321356025840043	15.1107767500776	-14.7894207242376	15.1107767500776	0.0	15.1107767500776	0.321356025840043	4.6694982356286	7.398221755212825	-2.2156074479917858	13.271527556313705	9.644314860069557	-2.961200419752692	13.271527556313705	3.9626311524706153	8.854274445886894	1.4560526906741142	9.515241008546315	1.5406790997756075	2	correct	1.0
464.352575100027	8.62771969998721	nogo_reward	1.0	464.3792546999757	466.08456769998884	468.6112700999947	1.7053130000131205	465.3985471999622	467.59448019997217	471.6606513999868	0.6860205000266433	1.0167899000225589	1.3463229999761097	470.6473745999974	0.4403293000068515	469.6256297999646	1	1	114	2	nogo_reward	0	1	0	0	0	1	0	1.0	0.0	0	1.0	0.4403293000068515	1137.271878200001	1601.6511328999768	1602.6704253999633	1603.35644589999	1604.8663583999733	1605.8831482999958	1606.8975079999657	1607.9192527999985	1608.932529599988	1610.278852599964	2020-06-16 09:39:07.055523	16.6519403455505	0.0	17.0153947394751	17.0153947394751	0.363454393924613	17.0153947394751	-16.6519403455505	17.0153947394751	0.0	17.0153947394751	0.363454393924613	-17.0153947394751	9.260741376525726	-2.2156074479917858	15.176145545711204	11.548932849467057	-2.9191020516681223	15.176145545711204	-17.722261822633083	10.758892435284395	1.4981510587586842	11.419858997943816	1.5406790997756075	2	wrong	1.0
473.0445974000031	8.073668800003588	go_punish	0.6037597000249662	473.0712769999518	474.7301665999694	477.3250333999749	1.6588896000175737	474.07338059996255	476.29566449997924	480.36934879998444	0.6567860000068322	1.0293688999956885	0.7755969999709578	479.36316259996966	0.4169981000013649	478.3350121999972	1	1	115	3	go_punish	1	0	-1	1	1	1	0	0.0	1.0	0	0.6037597000249662	0.4169981000013649	1137.271878200001	1610.343155199953	1611.3452587999636	1612.0020447999705	1613.5675426999803	1614.596911599976	1615.6068903999983	1616.6350407999707	1617.6412269999855	1618.4168239999565	2020-06-16 09:39:07.055523	5.00507281866759	-0.739967889419042	-5.75507776104158	-1.09157908508757	-0.750004942373989	-5.75507776104158	-5.00507281866759	-0.739967889419042	-5.75507776104158	-0.750004942373989	-5.75507776104158	0.739967889419042	-2.3861261503571845	-2.955575337410828	-7.594326954805474	-6.558040975095612	-4.032561387966724	-7.594326954805474	0.03310080626105716	-7.006507246564694	-4.620381096207509	-6.335503630950326	-4.214398661265973	2	correct	1.0
481.1686621000408	8.848602699988987	go_punish	1.0	481.1953416999895	483.11603399994783	485.6380479999932	1.9206922999583185	482.2113765999675	484.6271964999614	488.69674879999366	0.9046573999803513	1.0108515000317766	1.3471955999848433	487.6815976999933	0.3352771000354551	486.65860499994596	1	1	116	3	go_punish	1	0	-1	1	0	0	0	1.0	0.0	-1	1.0	0.3352771000354551	1137.271878200001	1618.4672198999906	1619.4832547999686	1620.387912199949	1621.8990746999625	1622.9099261999943	1623.930483199947	1624.9534758999944	1625.9686269999947	1627.3158225999796	2020-06-16 09:39:07.055523	-5.27926001865568	-0.467729487523169	-5.75507776104158	-0.692040214890202	-0.475817742385893	-5.75507776104158	5.27926001865568	-5.75507776104158	-0.467729487523169	-5.75507776104158	-0.475817742385893	-0.9533787335678401	-12.670458987680455	-2.683336935514955	-7.594326954805474	-6.158502104898244	-3.758374187978628	-7.594326954805474	-1.660245816725825	-12.011580065232284	0.6588789224481783	-11.350613502572863	1.0729496122524385	2	wrong	1.0
490.0664313000161	8.153535499994177	go_punish	0.6820575000019744	490.0931108999648	491.460748099955	494.0735799999675	1.367637199990213	491.103026899975	493.04926369996974	497.11944659997243	0.3577211999800056	1.0243162999977358	1.1271997999865562	496.10615919996053	0.436901899985969	495.09093619999476	1	1	117	3	go_punish	1	0	-1	1	1	1	1	1.0	1.0	0	0.6820575000019744	0.436901899985969	1137.271878200001	1627.364989099966	1628.374905099976	1628.732626299956	1630.3211418999708	1631.3454581999686	1632.3628143999958	1633.3780373999616	1634.3913247999735	1635.51852459996	2020-06-16 09:39:07.055523	5.59438719249408	-0.467729487523169	-6.08211929585251	-3.2499207814414	-0.487732103358428	-6.08211929585251	-5.59438719249408	-0.467729487523169	-6.08211929585251	-0.487732103358428	-6.08211929585251	0.467729487523169	-1.7968117765306948	-2.683336935514955	-7.9213684896164045	-8.716382671449441	-3.770288548951163	-7.9213684896164045	-0.23913759563481585	-6.744234407549133	-4.947422631018439	-6.063265229054452	-4.541440196076903	2	correct	1.0
498.2611156000057	9.331896700023208	go_reward	0.0587874000193551	498.2877951999544	500.7611044999794	503.3145710999961	2.4733093000249937	499.2912111999467	502.2990960999741	506.3763119999785	1.4698933000327088	1.0154750000219792	1.2433798999991268	505.3618105999776	0.6094862999743782	504.3233131999734	1	1	118	1	go_reward	1	1	0	1	1	1	0	1.0	0.0	1	0.0587874000193551	0.6094862999743782	1137.271878200001	1635.5596733999555	1636.5630893999478	1638.0329826999805	1639.5709742999752	1640.5864492999972	1641.5951913999745	1642.6336887999787	1643.6481901999796	1644.8915700999787	2020-06-16 09:39:07.055523	17.1875597407139	16.835338617336	0.0	16.5122714130087	17.1875597407139	0.0	-17.1875597407139	16.835338617336	0.0	17.1875597407139	0.0	2.9449363683702003	9.796360771689127	14.619731169344213	-1.8392491937638942	11.04580952300066	13.905003295121166	-1.8392491937638942	2.2380692852122155	10.931057436523197	1.1346966648340713	11.239802875804717	1.5406790997756075	2	wrong	1.0
507.64649800001644	8.443695100024343	go_punish	0.5446872000466101	507.67317759996513	509.4688273999491	512.0745376999839	1.7956497999839485	508.6862714999588	511.03855679999083	515.1175816999748	0.7825558999902569	1.035980899993092	0.9992910000146367	514.1049105999991	0.3948765999521129	513.091952399991	1	1	119	3	go_punish	1	0	-1	1	1	1	1	0.0	0.0	0	0.5446872000466101	0.3948765999521129	1137.271878200001	1644.9450557999662	1645.95814969996	1646.7407055999502	1648.310434999992	1649.346415899985	1650.363830599992	1651.3767888000002	1652.389459899976	1653.3887508999906	2020-06-16 09:39:07.055523	5.76580647715109	-0.302805362815083	-6.08211929585251	-1.83535266725708	-0.316312818701419	-6.08211929585251	-5.76580647715109	-0.302805362815083	-6.08211929585251	-0.316312818701419	-6.08211929585251	0.302805362815083	-1.6253924918736846	-2.518412810806869	-7.9213684896164045	-7.301814557265122	-3.598869264294154	-7.9213684896164045	-0.40406172034290183	-6.572815122892123	-4.947422631018439	-5.8983411043463665	-4.541440196076903	2	wrong	1.0
516.1361092000152	9.402331300021615	nogo_punish	1.0	516.1627887999639	518.588483999949	521.1202903999947	2.425695199985057	517.1679973999853	520.1041994999978	524.1723922999809	1.420486599963624	1.0160908999969251	1.39272780000465	523.1598690999674	0.4034908999456092	522.1312601999962	1	1	120	4	nogo_punish	1	-1	0	0	0	1	0	0.0	1.0	0	1.0	0.4034908999456092	1137.271878200001	1653.434666999965	1654.4398755999864	1655.86036219995	1657.3760776999989	1658.3921685999958	1659.4031383999973	1660.4317472999685	1661.444270499982	1662.8369982999866	2020-06-16 09:39:07.055523	4.27661613948457	-4.33900697159517	-0.067507577917828	-0.0678270117993518	-4.3441237174024	-0.067507577917828	-4.27661613948457	-0.067507577917828	-4.33900697159517	-0.067507577917828	-4.3441237174024	0.067507577917828	-3.114582829540204	-6.554614419586956	-1.9067567716817222	-5.534288901807394	-7.626680162995136	-1.9067567716817222	-0.6393595052401568	-6.324009882108533	-3.209427052568329	-5.663043319449112	-2.7983278718195628	2	correct	1.0
