onset	duration	trial_type	response_time	cueOnset	targetOnset	fbOnset	cueRT	firstfixOnset	secondfixOnset	waitOnset	firstfixdur	secondfixdur	waitdur	nback_fbOnset	nback_response_time	nback_targetOnset	block	wm	trial	cue	cond	is_common	outcome_go	outcome_nogo	key_correct	key_pressed	is_correct	key_correct_nback	key_pressed_nback	is_correct_nback	outcome	rt	rt_nback	time_scan	time_onset	time_isi1	time_circle	time_isi2	time_feedback	time_same	time_correct	time_iti	time_done	timestamp_scan	DV	Qgo	Qnogo	SV	Wgo	Wnogo	mDV	Qchosen	Qunchosen	Wchosen	Wunchosen	PE	DVC	QgoC	QnogoC	SVC	WgoC	WnogoC	PEC	WchosenC	WunchosenC	QchosenC	QunchosenC	run	outcome_nback	nback_targetResp
0.0	5.667888900000435	nogo_punish	0.3772118000001683	0.03301339999961783	1.3910586000001786	3.9369267000001855	1.3580452000005607	1.0385765000000902	2.922338700000182	4.945071199999802	0.3524821000000884	1.0145880000000034	0.7558311000002504	n/a	1.0	n/a	2	0	61	3	nogo_punish	1	-1	0	0	1	0	0	n/a	n/a	-1	0.3772118000001683	1.0	2091.5841115000003	2091.6171249	2092.6226880000004	2092.9751701000005	2094.5064502000005	2095.5210382000005	n/a	n/a	2096.5291827	2097.2850138000003	2020-08-27 11:04:43.129273	-0.543812812083347	-0.526980552962859	0.0	-0.505605333130103	-0.543812812083347	0.0	0.543812812083347	-0.526980552962859	0.0	-0.543812812083347	0.0	-0.29841248003980303	-4.865354039786551	-2.643050864625933	-2.3760270541930444	-4.989456451945274	-3.4776381161402368	-2.3760270541930444	-6.018554988976996	-5.359509605059917	-0.4941555652733657	-4.955638045517083	-0.06343987330189702	4	missed	0.0
5.703547400000389	6.254385100000036	go_punish	1.0	5.736560800000007	7.068153299999722	9.588080300000001	1.331592499999715	6.741485699999885	8.573588999999629	10.595266999999694	0.32666759999983697	1.0144913000003726	1.3956789000003482	n/a	1.0	n/a	2	0	62	4	go_punish	1	0	-1	1	0	0	0	n/a	n/a	-1	1.0	1.0	2091.5841115000003	2097.3206723000003	2098.3255972	2098.6522648	2100.1577005	2101.1721918000003	n/a	n/a	2102.1793785	2103.5750574000003	2020-08-27 11:04:43.129273	-0.495872068094546	0.0	-0.514281382579025	-0.514281382579025	-0.0184093144844792	-0.514281382579025	0.495872068094546	-0.514281382579025	0.0	-0.514281382579025	-0.0184093144844792	-0.311111650423637	-4.81741329579775	-2.116070311663074	-2.8903084367720693	-4.9981325013941955	-2.9522346185413686	-2.8903084367720693	-6.03125415936083	-5.329978175555595	-0.5125648797578449	-4.942938875133249	-0.06343987330189702	4	missed	0.0
11.994855300000381	6.168569899999966	go_punish	1.0	12.027868699999999	13.864060099999733	16.38367070000004	1.8361913999997341	13.032549999999901	15.368917199999487	17.391528099999505	0.8315100999998322	1.0147535000005519	0.8049105000004602	n/a	1.0	n/a	2	0	63	4	go_punish	1	0	-1	1	0	0	0	n/a	n/a	-1	1.0	1.0	2091.5841115000003	2103.6119802000003	2104.6166615	2105.4481716	2106.9530287	2107.9677822000003	n/a	n/a	2108.9756396	2109.7805501000003	2020-08-27 11:04:43.129273	-0.517236098369436	0.0	-0.539480816705889	-0.539480816705889	-0.0222447183364536	-0.539480816705889	0.517236098369436	-0.539480816705889	0.0	-0.539480816705889	-0.0222447183364536	-0.285912216296773	-4.838777326072639	-2.116070311663074	-2.9155078708989333	-5.0233319355210595	-2.956070022393343	-2.9155078708989333	-6.006054725233966	-5.355177609682459	-0.5164002836098193	-4.968138309260113	-0.06343987330189702	4	missed	0.0
18.199356400000397	6.390103199999885	nogo_reward	1.0	18.232369800000015	19.6271256	22.14681759999985	1.3947557999999844	19.236727900000005	21.131405399999494	23.154027499999756	0.3903976999999941	1.0154122000003554	1.4684455000001435	n/a	1.0	n/a	2	0	64	1	nogo_reward	1	0	1	0	0	1	0	n/a	n/a	1	1.0	1.0	2091.5841115000003	2109.8164813000003	2110.8208394000003	2111.2112371000003	2112.7155169	2113.7309291	n/a	n/a	2114.738139	2116.2065845	2020-08-27 11:04:43.129273	14.7217308007365	0.0	17.6426742338844	17.6426742338844	2.92094343314784	17.6426742338844	-14.7217308007365	17.6426742338844	0.0	17.6426742338844	2.92094343314784	10.767469594890002	10.400189573033296	-2.116070311663074	15.266647179691354	13.158823115069229	-0.012881870909049464	15.266647179691354	5.047327085952809	12.826977440907829	2.4267878678744745	13.214016741330175	-0.06343987330189702	4	missed	0.0
24.62589720000051	6.063060499999665	go_punish	1.0	24.658910600000127	26.440913699999783	28.96152230000007	1.7820030999996561	25.664011599999867	27.945828199999596	29.968996699999934	0.7769020999999157	1.0156941000004736	0.7529743999998573	n/a	1.0	n/a	2	0	65	4	go_punish	1	0	-1	1	0	0	1	n/a	n/a	-1	1.0	1.0	2091.5841115000003	2116.2430221000004	2117.2481231	2118.0250252	2119.5299397	2120.5456338000004	n/a	n/a	2121.5531082	2122.3060826	2020-08-27 11:04:43.129273	-0.535547942443155	0.0	-0.561059694433268	-0.561059694433268	-0.0255117519901134	-0.561059694433268	0.535547942443155	-0.561059694433268	0.0	-0.561059694433268	-0.0255117519901134	-0.264333338569394	-4.8570891701463585	-2.116070311663074	-2.9370867486263124	-5.044910813248439	-2.959337056047003	-2.9370867486263124	-5.984475847506587	-5.376756487409837	-0.519667317263479	-4.989717186987493	-0.06343987330189702	4	missed	0.0
30.72913840000001	7.80323350000026	nogo_reward	1.0	30.76215179999963	33.722180899999785	36.24360179999985	2.960029100000156	31.767074099999718	35.227250399999775	37.2506728999997	1.9551068000000669	1.016351400000076	1.3147124000001895	n/a	1.0	n/a	2	0	66	1	nogo_reward	1	0	1	0	0	1	1	n/a	n/a	1	1.0	1.0	2091.5841115000003	2122.3462633	2123.3511856	2125.3062924	2126.8113619	2127.8277133	n/a	n/a	2128.8347844	2130.1494968	2020-08-27 11:04:43.129273	15.6749418360579	0.0	18.7791167361622	18.7791167361622	3.1041749001043	18.7791167361622	-15.6749418360579	18.7791167361622	0.0	18.7791167361622	3.1041749001043	9.6310270926122	11.353400608354697	-2.116070311663074	16.403089681969156	14.295265617347031	0.1703495960474104	16.403089681969156	3.9108845836750072	13.963419943185631	2.6100193348309344	14.350459243607977	-0.06343987330189702	4	missed	0.0
38.56718369999999	6.808857400000306	go_punish	1.0	38.600197099999605	40.64313819999916	43.16312989999915	2.0429410999995525	39.6046439999991	42.14747519999992	44.17055959999925	1.0384942000000592	1.0156546999992315	1.23849490000066	n/a	1.0	n/a	2	0	67	4	go_punish	1	0	-1	1	0	0	1	n/a	n/a	-1	1.0	1.0	2091.5841115000003	2130.1843086	2131.1887554999994	2132.2272496999994	2133.7315867	2134.7472413999994	n/a	n/a	2135.7546710999995	2136.993166	2020-08-27 11:04:43.129273	-0.551497425488596	0.0	-0.579837274234186	-0.579837274234186	-0.0283398487455901	-0.579837274234186	0.551497425488596	-0.579837274234186	0.0	-0.579837274234186	-0.0283398487455901	-0.24555575876847602	-4.8730386531917995	-2.116070311663074	-2.9558643284272303	-5.063688393049357	-2.9621651528024797	-2.9558643284272303	-5.965698267705669	-5.395534067210756	-0.5224954140189558	-5.00849476678841	-0.06343987330189702	4	missed	0.0
45.42609799999991	6.308741200000441	go_reward	0.2952793000004021	45.45911139999953	47.184916399999565	49.739245199999914	1.7258050000000367	46.46356579999974	48.72389939999994	50.74759039999981	0.7213505999998233	1.0153457999999773	1.020262200000161	n/a	1.0	n/a	2	0	68	2	go_reward	1	1	0	1	1	1	0	n/a	n/a	1	0.2952793000004021	1.0	2091.5841115000003	2137.0432229	2138.0476773	2138.7690279	2140.3080109	2141.3233567	n/a	n/a	2142.3317019	2143.3519641000003	2020-08-27 11:04:43.129273	20.9972259568115	18.0261851333748	0.0	18.0261851333748	20.9972259568115	0.0	-20.9972259568115	18.0261851333748	0.0	20.9972259568115	0.0	10.383958695399603	16.675684729108298	15.910114821711725	-2.3760270541930444	13.542334014559628	18.063400652754613	-2.3760270541930444	4.66381618646241	16.18152916383493	-0.4941555652733657	13.597527640820575	-0.06343987330189702	4	missed	0.0
51.77078950000032	6.7676307999995515	nogo_reward	1.0	51.80380289999994	54.083481799999845	56.60080879999987	2.279678899999908	52.80833959999973	55.58798179999985	57.60839679999981	1.2751422000001185	1.0128270000000157	0.963036899999679	n/a	1.0	n/a	2	0	69	1	nogo_reward	1	0	1	0	0	1	0	n/a	n/a	1	1.0	1.0	2091.5841115000003	2143.3879144	2144.3924511	2145.6675933	2147.1720933	2148.1849203	n/a	n/a	2149.1925083	2150.1555452	2020-08-27 11:04:43.129273	16.429953779425	0.0	19.678909164413	19.678909164413	3.24895538498804	19.678909164413	-16.429953779425	19.678909164413	0.0	19.678909164413	3.24895538498804	8.731234664361402	12.108412551721795	-2.116070311663074	17.302882110219954	15.195058045597829	0.3151300809311506	17.302882110219954	3.011092155424209	14.863212371436429	2.7547998197146746	15.250251671858775	-0.06343987330189702	4	missed	0.0
58.57677700000022	7.57328009999992	nogo_reward	1.0	58.60979039999984	61.44451519999984	63.964797799999815	2.8347248000000036	59.61492509999971	62.94949309999993	64.9723256999996	1.8295901000001322	1.0153046999998878	1.2107448000001568	n/a	1.0	n/a	2	0	70	1	nogo_reward	1	0	1	0	0	1	0	n/a	n/a	1	1.0	1.0	2091.5841115000003	2150.1939019	2151.1990366	2153.0286267	2154.5336046	2155.5489093	n/a	n/a	2156.5564372	2157.767182	2020-08-27 11:04:43.129273	17.0509317647427	0.0	20.4184262606151	20.4184262606151	3.36749449587237	20.4184262606151	-17.0509317647427	20.4184262606151	0.0	20.4184262606151	3.36749449587237	7.991717568159302	12.729390537039496	-2.116070311663074	18.042399206422054	15.934575141799929	0.43366919181548047	18.042399206422054	2.2715750592221093	15.602729467638529	2.8733389305990045	15.989768768060875	-0.06343987330189702	4	missed	0.0
66.18220199999996	6.276236099999551	nogo_reward	1.0	66.21521539999958	67.57618139999977	70.0961744999995	1.3609660000001895	67.21999339999911	69.08089999999993	71.10382319999917	0.35618800000065676	1.0152744999995775	1.3876282999999603	n/a	1.0	n/a	2	0	71	1	nogo_reward	1	0	1	0	0	1	1	n/a	n/a	1	1.0	1.0	2091.5841115000003	2157.7993269	2158.8041048999994	2159.1602929	2160.6650115	2161.680286	n/a	n/a	2162.6879346999995	2164.0755629999994	2020-08-27 11:04:43.129273	17.5755906413909	0.0	21.0427060545854	21.0427060545854	3.46711541319441	21.0427060545854	-17.5755906413909	21.0427060545854	0.0	21.0427060545854	3.46711541319441	7.367437774189003	13.254049413687696	-2.116070311663074	18.666679000392353	16.558854935770228	0.5332901091375204	18.666679000392353	1.6472952652518105	16.227009261608828	2.9729598479210444	16.614048562031172	-0.06343987330189702	4	missed	0.0
72.48898090000012	7.5509007000000565	nogo_reward	1.0	72.52199429999973	75.0622072999995	77.58413989999917	2.540212999999767	73.52617119999923	76.56704739999986	78.59149439999965	1.536036100000274	1.0170924999993076	1.4814006000001427	n/a	1.0	n/a	2	0	72	1	nogo_reward	1	0	1	0	0	1	1	n/a	n/a	1	1.0	1.0	2091.5841115000003	2164.1061058	2165.1102826999995	2166.6463188	2168.1511589	2169.1682513999995	n/a	n/a	2170.1756059	2171.6570065	2020-08-27 11:04:43.129273	18.027746273204	0.0	21.5802485376837	21.5802485376837	3.55250226447965	21.5802485376837	-18.027746273204	21.5802485376837	0.0	21.5802485376837	3.55250226447965	6.8298952910907005	13.706205045500795	-2.116070311663074	19.204221483490656	17.09639741886853	0.6186769604227602	19.204221483490656	1.1097527821535076	16.76455174470713	3.058346699206284	17.15159104512948	-0.06343987330189702	4	missed	0.0
80.07579280000027	6.693630400000075	nogo_reward	1.0	80.10880619999989	82.43868739999925	84.95677259999957	2.329881199999363	81.1132478999998	83.94369919999917	85.96405329999925	1.3254394999994474	1.013073400000394	0.8383833000007144	n/a	1.0	n/a	2	0	73	1	nogo_reward	1	0	1	0	0	1	1	n/a	n/a	1	1.0	1.0	2091.5841115000003	2171.6929177	2172.6973594	2174.0227988999995	2175.5278106999995	2176.5408841	n/a	n/a	2177.5481647999995	2178.3865481000003	2020-08-27 11:04:43.129273	18.4233262567324	0.0	22.050137233233	22.050137233233	3.62681097650061	22.050137233233	-18.4233262567324	22.050137233233	0.0	22.050137233233	3.62681097650061	6.360006595541403	14.101785029029195	-2.116070311663074	19.674110179039953	17.566286114417828	0.6929856724437204	19.674110179039953	0.6398640866042102	17.234440440256428	3.1326554112272444	17.621479740678772	-0.06343987330189702	4	missed	0.0
86.82342700000027	7.182893299999705	go_reward	0.6594975999996677	86.85644039999988	89.28359479999972	91.82459599999993	2.4271543999998357	87.86194849999993	90.81463779999922	92.83218519999991	1.421646299999793	1.0099582000007103	1.2071484999996756	n/a	1.0	n/a	2	0	74	2	go_reward	0	0	1	1	1	1	0	n/a	n/a	0	0.6594975999996677	1.0	2091.5841115000003	2178.4405519	2179.44606	2180.8677063	2182.3987492999995	2183.4087075	n/a	n/a	2184.4162967	2185.6234452	2020-08-27 11:04:43.129273	22.4066163604609	19.2387801819775	0.0	19.2387801819775	22.4066163604609	0.0	-22.4066163604609	19.2387801819775	0.0	22.4066163604609	0.0	-19.2387801819775	18.085075132757698	17.122709870314427	-2.3760270541930444	14.75492906316233	19.472791056404013	-2.3760270541930444	-24.958922690914694	17.59091956748433	-0.4941555652733657	14.810122689423276	-0.06343987330189702	4	missed	0.0
94.04376899999988	6.167548400000214	nogo_reward	1.0	94.0767823999995	95.61559679999982	98.13502139999991	1.5388144000003194	95.08179999999993	97.12043149999954	99.1421810999991	0.5337967999998909	1.0145899000003737	1.1021497000006093	n/a	1.0	n/a	2	0	75	1	nogo_reward	1	0	1	0	0	1	1	n/a	n/a	1	1.0	1.0	2091.5841115000003	2185.6608939	2186.6659115	2187.1997083	2188.704543	2189.7191329	n/a	n/a	2190.7262925999994	2191.8284423	2020-08-27 11:04:43.129273	18.7734921881791	0.0	22.4657535713124	22.4657535713124	3.69226138313328	22.4657535713124	-18.7734921881791	22.4657535713124	0.0	22.4657535713124	3.69226138313328	5.9443902574620004	14.451950960475898	-2.116070311663074	20.089726517119356	17.98190245249723	0.7584360790763904	20.089726517119356	0.22424774852480756	17.65005677833583	3.1981058178599144	18.037096078758175	-0.06343987330189702	4	missed	0.0
100.24376280000024	6.873682799999642	nogo_reward	1.0	100.27677619999986	102.69682119999925	105.21611849999954	2.4200449999993907	101.28189069999917	104.20111169999973	106.22330609999972	1.4149305000000822	1.01500679999981	0.9271528999997827	n/a	1.0	n/a	2	0	76	1	nogo_reward	1	0	1	0	0	1	0	n/a	n/a	1	1.0	1.0	2091.5841115000003	2191.8608877	2192.8660021999995	2194.2809326999995	2195.7852232	2196.80023	n/a	n/a	2197.8074176	2198.7345705	2020-08-27 11:04:43.129273	19.086372336804	0.0	22.8368444403373	22.8368444403373	3.75047210353323	22.8368444403373	-19.086372336804	22.8368444403373	0.0	22.8368444403373	3.75047210353323	5.573299388437103	14.764831109100797	-2.116070311663074	20.460817386144253	18.352993321522128	0.8166467994763402	20.460817386144253	-0.14684312050008952	18.021147647360728	3.2563165382598642	18.408186947783072	-0.06343987330189702	4	missed	0.0
107.1520000999999	6.771095200000218	nogo_reward	1.0	107.18501349999951	109.5374327999998	112.05690559999994	2.3524193000002924	108.18964319999986	111.0423082999996	113.06429389999948	1.3477895999999419	1.0145973000003323	0.8918148000002475	n/a	1.0	n/a	2	0	77	1	nogo_reward	1	0	1	0	0	1	1	n/a	n/a	1	1.0	1.0	2091.5841115000003	2198.769125	2199.7737547	2201.1215443	2202.6264198	2203.6410171	n/a	n/a	2204.6484054	2205.5402202	2020-08-27 11:04:43.129273	19.3680777517191	0.0	23.1707373084121	23.1707373084121	3.80265955669303	23.1707373084121	-19.3680777517191	23.1707373084121	0.0	23.1707373084121	3.80265955669303	5.2394065203623015	15.046536524015895	-2.116070311663074	20.794710254219055	18.68688618959693	0.8688342526361406	20.794710254219055	-0.4807359885748914	18.35504051543553	3.3085039914196646	18.742079815857878	-0.06343987330189702	4	missed	0.0
113.96006370000032	6.235336999999163	nogo_reward	1.0	113.99307709999994	115.46071139999913	117.9794523999999	1.4676342999991903	114.9980115999997	116.96533799999997	118.98574839999992	0.46269979999942734	1.0141143999999258	1.2426656999991792	n/a	1.0	n/a	2	0	78	1	nogo_reward	1	0	1	0	0	1	1	n/a	n/a	1	1.0	1.0	2091.5841115000003	2205.5771886	2206.5821231	2207.0448228999994	2208.5494495000003	2209.5635639	n/a	n/a	2210.5698599	2211.8125255999994	2020-08-27 11:04:43.129273	19.6233268290803	0.0	23.4730882545183	23.4730882545183	3.84976142543798	23.4730882545183	-19.6233268290803	23.4730882545183	0.0	23.4730882545183	3.84976142543798	4.937055574256103	15.301785601377095	-2.116070311663074	21.097061200325253	18.989237135703128	0.9159361213810904	21.097061200325253	-0.7830869346810898	18.657391461541728	3.3556058601646144	19.044430761964072	-0.06343987330189702	4	missed	0.0
120.23047320000023	6.307972799999334	go_punish	0.2578593999996883	120.26348659999985	122.11327669999991	124.65649759999997	1.8497901000000638	121.26815909999914	123.64348399999972	125.66312659999949	0.8451176000007763	1.0130136000002494	0.9083327999996982	n/a	1.0	n/a	2	0	79	4	go_punish	0	-1	0	1	1	1	0	n/a	n/a	-1	0.2578593999996883	1.0	2091.5841115000003	2211.8475981	2212.8522705999994	2213.6973882	2215.2275955	2216.2406091000003	n/a	n/a	2217.2472381	2218.1555708999995	2020-08-27 11:04:43.129273	0.56556203131708	0.0	-0.596380850773098	-0.596380850773098	-0.0308188194560181	-0.596380850773098	-0.56556203131708	0.0	-0.596380850773098	-0.0308188194560181	-0.596380850773098	-0.825393033002662	-3.7559791963861238	-2.116070311663074	-2.9724079049661425	-5.080231969588269	-2.9646441235129077	-2.9724079049661425	-6.545535541939855	-4.846515612432587	-1.0905364160464637	-4.428657492554224	-0.659820724074995	4	missed	0.0
126.59129280000025	7.445879899999909	nogo_punish	1.0	126.62430619999986	129.35207489999993	131.86552399999982	2.7277687000000697	127.62833429999955	130.8564635999992	132.87212169999975	1.723740600000383	1.0090604000006351	1.1980644000000211	n/a	1.0	n/a	2	0	80	3	nogo_punish	1	-1	0	0	0	1	0	n/a	n/a	0	1.0	1.0	2091.5841115000003	2218.2084177	2219.2124458	2220.9361864	2222.4405750999995	2223.4496355	n/a	n/a	2224.4562332	2225.6542976	2020-08-27 11:04:43.129273	0.57317794175437	-0.551930061587924	0.0	-0.534411480430144	-0.57317794175437	0.0	-0.57317794175437	0.0	-0.551930061587924	0.0	-0.57317794175437	0.0	-3.748363285948834	-2.6680003732509983	-2.3760270541930444	-5.018262599245315	-3.5070032458112594	-2.3760270541930444	-5.720142508937193	-4.81569679297657	-1.0673335070277357	-4.428657492554224	-0.6153699348898211	4	missed	0.0
134.0747226000003	6.730522999999266	nogo_reward	1.0	134.10773599999993	136.07154879999962	138.59504879999986	1.9638127999996868	135.11279149999973	137.5761909999992	139.60209029999987	0.9587572999998883	1.01885780000066	1.2361686999993253	n/a	1.0	n/a	2	0	81	1	nogo_reward	1	0	1	0	0	1	0	n/a	n/a	1	1.0	1.0	2091.5841115000003	2225.6918475	2226.696903	2227.6556603	2229.1603024999995	2230.1791603	n/a	n/a	2231.1862018	2232.4223704999995	2020-08-27 11:04:43.129273	19.8558451084176	0.0	23.7483613197997	23.7483613197997	3.89251621138212	23.7483613197997	-19.8558451084176	23.7483613197997	0.0	23.7483613197997	3.89251621138212	4.661782508974703	15.534303880714397	-2.116070311663074	21.372334265606654	19.264510200984528	0.9586909073252303	21.372334265606654	-1.05835999996249	18.932664526823128	3.3983606461087543	19.319703827245476	-0.06343987330189702	4	missed	0.0
140.83367140000018	6.529122099999313	go_punish	0.2014584999997168	140.8666847999998	142.84073719999924	145.3925606999992	1.9740523999994366	141.8716503999999	144.3734912	146.39964829999917	0.9690867999993316	1.0190694999992047	0.9961585999999443	n/a	1.0	n/a	2	0	82	4	go_punish	0	-1	0	1	1	1	0	n/a	n/a	-1	0.2014584999997168	1.0	2091.5841115000003	2232.4507963	2233.4557619	2234.4248486999995	2235.9576027000003	2236.9766721999995	n/a	n/a	2237.9837597999995	2238.9799183999994	2020-08-27 11:04:43.129273	0.43425571850368	-0.1291115863863	-0.596380850773098	-0.611100168937191	-0.162125132269418	-0.596380850773098	-0.43425571850368	-0.1291115863863	-0.596380850773098	-0.162125132269418	-0.596380850773098	-0.696281446616362	-3.8872855091995238	-2.245181898049374	-2.9724079049661425	-5.0949512877523615	-3.0959504363263077	-2.9724079049661425	-6.4164239555535545	-4.977821925245988	-1.0905364160464637	-4.557769078940525	-0.659820724074995	4	missed	0.0
147.41320780000024	6.070852899999863	nogo_punish	1.0	147.44622119999985	149.22977719999972	151.7445842999996	1.7835559999998623	148.45069699999976	150.7355293999999	152.75116959999923	0.779080199999953	1.0090548999996827	0.765904500000488	n/a	1.0	n/a	2	0	83	3	nogo_punish	1	-1	0	0	0	1	0	n/a	n/a	0	1.0	1.0	2091.5841115000003	2239.0303327	2240.0348085	2240.8138887	2242.3196409	2243.3286958	n/a	n/a	2244.3352810999995	2245.1011856	2020-08-27 11:04:43.129273	0.556815304053024	-0.551930061587924	0.0	-0.429415752318336	-0.556815304053024	0.0	-0.556815304053024	0.0	-0.551930061587924	0.0	-0.556815304053024	0.0	-3.7647259236501798	-2.6680003732509983	-2.3760270541930444	-4.913266871133507	-3.4906406081099135	-2.3760270541930444	-5.720142508937193	-4.81569679297657	-1.0509708693263897	-4.428657492554224	-0.6153699348898211	4	missed	0.0
153.53412449999996	7.2390746000000945	nogo_punish	1.0	153.56713789999958	156.32979989999967	158.8446785999995	2.762662000000091	154.57241879999992	157.8343733999991	159.85272369999984	1.7573810999997477	1.0103052000004027	0.9534887999998318	n/a	1.0	n/a	2	0	84	3	nogo_punish	1	-1	0	0	0	1	0	n/a	n/a	0	1.0	1.0	2091.5841115000003	2245.1512494	2246.1565303	2247.9139114	2249.4184848999994	2250.4287901	n/a	n/a	2251.4368352	2252.390324	2020-08-27 11:04:43.129273	0.545402562463523	-0.551930061587924	0.0	-0.356637391666991	-0.545402562463523	0.0	-0.545402562463523	0.0	-0.551930061587924	0.0	-0.545402562463523	0.0	-3.7761386652396807	-2.6680003732509983	-2.3760270541930444	-4.840488510482162	-3.4792278665204126	-2.3760270541930444	-5.720142508937193	-4.81569679297657	-1.0395581277368886	-4.428657492554224	-0.6153699348898211	4	missed	0.0
160.83135660000016	7.807685899999797	go_reward	0.4135937999999441	160.86436999999978	163.63246089999984	166.17567409999992	2.768090900000061	161.86909669999977	165.16192019999926	167.18296929999997	1.763364200000069	1.0137539000006655	1.4890865999996095	n/a	1.0	n/a	2	0	85	2	go_reward	1	1	0	1	1	1	0	n/a	n/a	1	0.4135937999999441	1.0	2091.5841115000003	2252.4484815	2253.4532082	2255.2165724	2256.7460316999995	2257.7597856	n/a	n/a	2258.7670808000003	2260.2561674	2020-08-27 11:04:43.129273	17.7661423559629	15.2463256732685	0.0	15.2463256732685	17.7661423559629	0.0	-17.7661423559629	15.2463256732685	0.0	17.7661423559629	0.0	13.163818155505902	13.444601128259695	13.130255361605425	-2.3760270541930444	10.762474554453329	14.83231705190601	-2.3760270541930444	7.4436756465687095	12.950445562986328	-0.4941555652733657	10.817668180714275	-0.06343987330189702	4	missed	0.0
168.6771222999996	6.591560000000754	nogo_reward	1.0	168.71013569999923	170.37398969999958	172.88954419999982	1.6638540000003559	169.71415209999986	171.8791581999999	173.8973093999998	0.6598375999997188	1.0103859999999258	1.4043863000001693	n/a	1.0	n/a	2	0	86	1	nogo_reward	0	1	0	0	0	1	0	n/a	n/a	0	1.0	1.0	2091.5841115000003	2260.2942471999995	2261.2982636	2261.9581012	2263.4632697	2264.4736557	n/a	n/a	2265.4814209	2266.8858072000003	2020-08-27 11:04:43.129273	20.0686303955329	0.0	24.000146647505	24.000146647505	3.93151625197209	24.000146647505	-20.0686303955329	24.000146647505	0.0	24.000146647505	3.93151625197209	-24.000146647505	15.747089167829696	-2.116070311663074	21.624119593311956	19.51629552868983	0.9976909479152005	21.624119593311956	-29.720289156442195	19.18444985452843	3.4373606866987245	19.571489154950775	-0.06343987330189702	4	missed	0.0
175.3023702999999	7.36191110000027	go_punish	0.2369629999993776	175.3353836999995	177.8013147999991	180.34626329999992	2.4659310999995796	176.3398645999996	179.3320493999995	181.3529097999999	1.46145019999949	1.0142139000004136	1.3443849999998747	n/a	1.0	n/a	2	0	87	4	go_punish	0	-1	0	1	1	1	0	n/a	n/a	-1	0.2369629999993776	1.0	2091.5841115000003	2266.9194952	2267.9239761	2269.3854262999994	2270.9161609	2271.9303748	n/a	n/a	2272.9370213	2274.2814063	2020-08-27 11:04:43.129273	0.338933524535875	-0.222474837632365	-0.596380850773098	-0.624301473108517	-0.257447326237223	-0.596380850773098	-0.338933524535875	-0.222474837632365	-0.596380850773098	-0.257447326237223	-0.596380850773098	-0.602918195370297	-3.9826077031673286	-2.338545149295439	-2.9724079049661425	-5.108152591923687	-3.1912726302941126	-2.9724079049661425	-6.32306070430749	-5.073144119213793	-1.0905364160464637	-4.65113233018659	-0.659820724074995	4	missed	0.0
182.69635310000012	5.739873699999407	go_punish	0.4151621999999406	182.72936649999974	184.1480293999998	186.69069709999985	1.4186629000000721	183.73324809999986	185.67790129999958	187.69688059999953	0.4147812999999587	1.0127958000002764	0.7723595999996178	n/a	1.0	n/a	2	0	88	4	go_punish	0	-1	0	1	1	1	0	n/a	n/a	-1	0.4151621999999406	1.0	2091.5841115000003	2274.313478	2275.3173596	2275.7321409	2277.2620128	2278.2748086	n/a	n/a	2279.2809921	2280.0533516999994	2020-08-27 11:04:43.129273	0.265840078267164	-0.29380791603163	-0.596380850773098	-0.636220145356866	-0.330540772505934	-0.596380850773098	-0.265840078267164	-0.29380791603163	-0.596380850773098	-0.330540772505934	-0.596380850773098	-0.531585116971032	-4.0557011494360395	-2.409878227694704	-2.9724079049661425	-5.1200712641720365	-3.2643660765628235	-2.9724079049661425	-6.251727625908225	-5.146237565482504	-1.0905364160464637	-4.722465408585855	-0.659820724074995	4	missed	0.0
188.4691888000002	6.203137199999674	go_punish	1.0	188.50220219999983	190.16173249999974	192.6799802999999	1.6595302999999149	189.50615809999908	191.66623099999924	193.68688009999914	0.6555744000006598	1.0137493000006543	1.0184593000003588	n/a	1.0	n/a	2	0	89	4	go_punish	1	0	-1	1	0	0	1	n/a	n/a	-1	1.0	1.0	2091.5841115000003	2280.0863137	2281.0902695999994	2281.745844	2283.2503424999995	2284.2640918	n/a	n/a	2285.2709915999994	2286.2894509	2020-08-27 11:04:43.129273	-0.207584716207124	-0.350472251732064	-0.596380850773098	-0.647041333712413	-0.388796134565974	-0.596380850773098	0.207584716207124	-0.596380850773098	-0.350472251732064	-0.596380850773098	-0.388796134565974	-0.229012182229564	-4.529125943910327	-2.466542563395138	-2.9724079049661425	-5.130892452527584	-3.3226214386228636	-2.9724079049661425	-5.949154691166757	-5.412077643749668	-0.8829516998393396	-5.0250383433273225	-0.413912125033961	4	missed	0.0
194.72357050000028	6.872384699999202	go_reward	0.2390036000006148	194.7565838999999	196.61608199999955	199.15904469999987	1.859498099999655	195.76257029999988	198.14448559999983	200.16650509999909	0.8535116999996717	1.0145591000000422	1.4624635000000126	n/a	1.0	n/a	2	0	90	2	go_reward	1	1	0	1	1	1	0	n/a	n/a	1	0.2390036000006148	1.0	2091.5841115000003	2286.3406954	2287.3466818	2288.2001935	2289.7285971	2290.7431562	n/a	n/a	2291.7506165999994	2293.2130800999994	2020-08-27 11:04:43.129273	20.3492602616592	17.4724234885152	0.0	17.4724234885152	20.3492602616592	0.0	-20.3492602616592	17.4724234885152	0.0	20.3492602616592	0.0	10.937720340259201	16.027719033955997	15.356353176852126	-2.3760270541930444	12.98857236970003	17.41543495760231	-2.3760270541930444	5.217577831322008	15.53356346868263	-0.4941555652733657	13.043765995960976	-0.06343987330189702	4	missed	0.0
201.63129590000017	7.692549699999745	nogo_reward	1.0	201.6643092999998	204.42122359999985	206.9396781999999	2.756914300000062	202.66904589999922	205.92643709999993	207.94694629999958	1.7521777000006296	1.0132410999999593	1.4099126999999498	n/a	1.0	n/a	2	0	91	1	nogo_reward	1	0	1	0	0	1	0	n/a	n/a	1	1.0	1.0	2091.5841115000003	2293.2484208	2294.2531573999995	2296.0053351	2297.5105486	2298.5237897	n/a	n/a	2299.5310578	2300.9409705	2020-08-27 11:04:43.129273	16.1314350022728	0.0	19.2982282329822	19.2982282329822	3.16679323070936	19.2982282329822	-16.1314350022728	19.2982282329822	0.0	19.2982282329822	3.16679323070936	9.111915595792201	11.809893774569595	-2.116070311663074	16.922201178789155	14.81437711416703	0.23296792665247024	16.922201178789155	3.3917730868550082	14.48253144000563	2.6726376654359942	14.869570740427976	-0.06343987330189702	4	missed	0.0
209.3559654999999	5.9220507	go_punish	0.4529561000008471	209.38897889999953	210.8231169999999	213.36772239999982	1.434138100000382	210.39371199999914	212.35739909999984	214.37551519999988	0.4294050000007701	1.0103232999999818	0.9355143999996471	n/a	1.0	n/a	2	0	92	4	go_punish	1	0	-1	1	1	1	0	n/a	n/a	0	0.4529561000008471	1.0	2091.5841115000003	2300.9730904	2301.9778234999994	2302.4072285	2303.9415106	2304.9518339	n/a	n/a	2305.9596267	2306.8951411	2020-08-27 11:04:43.129273	0.220858936670982	-0.350472251732064	-0.611100168937191	-0.65691351124653	-0.390241232266208	-0.611100168937191	-0.220858936670982	-0.350472251732064	-0.611100168937191	-0.390241232266208	-0.611100168937191	0.350472251732064	-4.100682291032221	-2.466542563395138	-2.9871272231302353	-5.1407646300617005	-3.3240665363230977	-2.9871272231302353	-5.369670257205129	-5.205938025242777	-1.1052557342105567	-4.779129744286289	-0.674540042239088	4	missed	0.0
215.30838549999953	6.55646920000072	go_punish	0.3027083000006314	215.34139889999915	217.39339919999975	219.93059129999983	2.0520003000006	216.34687129999975	218.92263449999973	220.9378885999995	1.046527900000001	1.0079568000001018	0.9599795000003724	n/a	1.0	n/a	2	0	93	4	go_punish	1	0	-1	1	1	1	0	n/a	n/a	0	0.3027083000006314	1.0	2091.5841115000003	2306.9255103999994	2307.9309828	2308.9775107	2310.506746	2311.5147028	n/a	n/a	2312.5220001	2313.4819796	2020-08-27 11:04:43.129273	0.322367533184488	-0.267685393803585	-0.611100168937191	-0.536846109206601	-0.288732635752703	-0.611100168937191	-0.322367533184488	-0.267685393803585	-0.611100168937191	-0.288732635752703	-0.611100168937191	0.267685393803585	-3.9991736945187157	-2.383755705466659	-2.9871272231302353	-5.020697228021771	-3.2225579398095925	-2.9871272231302353	-5.452457115133608	-5.104429428729273	-1.1052557342105567	-4.69634288635781	-0.674540042239088	4	missed	0.0
221.9177039000001	5.80983359999982	go_reward	0.4130806000002849	221.95071729999972	223.3100497999999	225.84942629999978	1.3593325000001641	222.95481409999957	224.8414115999999	226.8578846999999	0.35523570000032123	1.008014699999876	0.9026661999996577	n/a	1.0	n/a	2	0	94	2	go_reward	0	0	1	1	1	1	0	n/a	n/a	0	0.4130806000002849	1.0	2091.5841115000003	2313.5348288	2314.5389256	2314.8941613	2316.4255231	2317.4335378	n/a	n/a	2318.4419962	2319.3446624	2020-08-27 11:04:43.129273	22.0995367809706	18.9788712570608	0.0	18.9788712570608	22.0995367809706	0.0	-22.0995367809706	18.9788712570608	0.0	22.0995367809706	0.0	-18.9788712570608	17.777995553267395	16.862800945397726	-2.3760270541930444	14.495020138245629	19.16571147691371	-2.3760270541930444	-24.699013765997993	17.28383998799403	-0.4941555652733657	14.550213764506575	-0.06343987330189702	4	missed	0.0
227.7623469	6.674786100000347	go_punish	0.3362546999996993	227.79536029999963	229.64201849999972	232.18005299999913	1.8466582000000926	228.7995434999998	231.17177279999987	233.1866640999997	0.8424749999999221	1.0082801999992625	1.283482300000287	n/a	1.0	n/a	2	0	95	4	go_punish	1	0	-1	1	1	1	1	n/a	n/a	0	0.3362546999996993	1.0	2091.5841115000003	2319.3794718	2320.383655	2321.22613	2322.7558843	2323.7641644999994	n/a	n/a	2324.7707756	2326.0542579000003	2020-08-27 11:04:43.129273	0.390345906359112	-0.213035046480833	-0.611100168937191	-0.451799066933988	-0.220754262578078	-0.611100168937191	-0.390345906359112	-0.213035046480833	-0.611100168937191	-0.220754262578078	-0.611100168937191	0.213035046480833	-3.9311953213440916	-2.329105358143907	-2.9871272231302353	-4.935650185749159	-3.1545795666349674	-2.9871272231302353	-5.50710746245636	-5.036451055554648	-1.1052557342105567	-4.641692539035057	-0.674540042239088	4	missed	0.0
234.4919573000002	7.037913000000117	nogo_punish	1.0	234.5249706999998	236.69198769999912	239.20613159999994	2.167016999999305	235.5290355999996	238.1968322999992	240.2132174999997	1.1629520999995293	1.0092993000007482	1.3496662000002289	n/a	1.0	n/a	2	0	96	3	nogo_punish	1	-1	0	0	0	1	0	n/a	n/a	0	1.0	1.0	2091.5841115000003	2326.1090822	2327.1131471	2328.2760991999994	2329.7809437999995	2330.7902431	n/a	n/a	2331.797329	2333.1469952	2020-08-27 11:04:43.129273	0.537003506584452	-0.551930061587924	0.0	-0.303145381737493	-0.537003506584452	0.0	-0.537003506584452	0.0	-0.551930061587924	0.0	-0.537003506584452	0.0	-3.7845377211187516	-2.6680003732509983	-2.3760270541930444	-4.786996500552664	-3.4708288106413416	-2.3760270541930444	-5.720142508937193	-4.81569679297657	-1.0311590718578176	-4.428657492554224	-0.6153699348898211	4	missed	0.0
241.5646909000002	6.7929065999996965	go_punish	0.3109113999998953	241.5977042999998	243.59706779999988	246.14129799999955	1.9993635000000722	242.60238349999963	245.12614999999914	247.14808419999918	0.9946843000002445	1.0151480000004085	1.242526700000326	n/a	1.0	n/a	2	0	97	4	go_punish	0	-1	0	1	1	1	1	n/a	n/a	-1	0.3109113999998953	1.0	2091.5841115000003	2333.1818158	2334.186495	2335.1811793	2336.7102614999994	2337.7254095	n/a	n/a	2338.7321956999995	2339.9747224	2020-08-27 11:04:43.129273	0.438746008010146	-0.174617032908789	-0.611100168937191	-0.388137877398501	-0.172354160927044	-0.611100168937191	-0.438746008010146	-0.174617032908789	-0.611100168937191	-0.172354160927044	-0.611100168937191	-0.6507760000938729	-3.8827952196930577	-2.290687344571863	-2.9871272231302353	-4.8719889962136715	-3.1061794649839336	-2.9871272231302353	-6.370918509031066	-4.988050953903613	-1.1052557342105567	-4.603274525463013	-0.674540042239088	4	missed	0.0
248.41335629999958	6.496750100000554	go_reward	0.5669084000001021	248.4463696999992	250.00122329999977	252.55232069999965	1.5548536000005697	249.45109519999914	251.5350626999998	253.55950509999911	0.5501281000006202	1.017257999999856	1.383614700000635	n/a	1.0	n/a	2	0	98	2	go_reward	1	1	0	1	1	1	0	n/a	n/a	1	0.5669084000001021	1.0	2091.5841115000003	2340.0304811999995	2341.0352066999994	2341.5853348	2343.1191742	2344.1364322	n/a	n/a	2345.1436165999994	2346.5272313	2020-08-27 11:04:43.129273	17.6485053560243	15.149198593201	0.0	15.149198593201	17.6485053560243	0.0	-17.6485053560243	15.149198593201	0.0	17.6485053560243	0.0	13.260945235573402	13.326964128321098	13.033128281537925	-2.3760270541930444	10.665347474385829	14.714680051967413	-2.3760270541930444	7.540802726636209	12.832808563047731	-0.4941555652733657	10.720541100646775	-0.06343987330189702	4	missed	0.0
254.96663070000022	7.186390099999244	nogo_punish	1.0	254.99964409999984	257.70894039999985	260.22392669999954	2.7092963000000054	256.0048113999992	259.21357199999966	261.2317181999997	1.7041290000006484	1.0103546999998798	0.9543159999993804	n/a	1.0	n/a	2	0	99	3	nogo_punish	1	-1	0	0	0	1	0	n/a	n/a	0	1.0	1.0	2091.5841115000003	2346.5837556	2347.5889228999995	2349.2930519	2350.7976835	2351.8080382	n/a	n/a	2352.8158297	2353.7701456999994	2020-08-27 11:04:43.129273	0.530571162776543	-0.551930061587924	0.0	-0.262134590817767	-0.530571162776543	0.0	-0.530571162776543	0.0	-0.551930061587924	0.0	-0.530571162776543	0.0	-3.7909700649266607	-2.6680003732509983	-2.3760270541930444	-4.745985709632937	-3.4643964668334326	-2.3760270541930444	-5.720142508937193	-4.81569679297657	-1.0247267280499086	-4.428657492554224	-0.6153699348898211	4	missed	0.0
262.1818035999995	7.029582900000605	go_punish	0.2001622000007046	262.21481699999913	264.7858809999998	267.32655199999954	2.5710640000006606	263.21994749999976	266.3164666999992	268.3323713	1.5659335000000283	1.0100853000003553	0.9120285999997577	n/a	1.0	n/a	2	0	100	4	go_punish	1	0	-1	1	1	1	0	n/a	n/a	0	0.2001622000007046	1.0	2091.5841115000003	2353.7989284999994	2354.804059	2356.3699925	2357.9005781999995	2358.9106635	n/a	n/a	2359.9164828000003	2360.8285114	2020-08-27 11:04:43.129273	0.32564214165431	-0.275441115817085	-0.611100168937191	-0.467683395842987	-0.28545802728288	-0.611100168937191	-0.32564214165431	-0.275441115817085	-0.611100168937191	-0.28545802728288	-0.611100168937191	0.275441115817085	-3.995899086048894	-2.391511427480159	-2.9871272231302353	-4.9515345146581575	-3.2192833313397697	-2.9871272231302353	-5.444701393120108	-5.10115482025945	-1.1052557342105567	-4.704098608371309	-0.674540042239088	4	missed	0.0
269.25984670000025	7.039640999999847	nogo_punish	1.0	269.29286009999987	271.8118896999995	274.3250119999998	2.5190295999996124	270.29790609999964	273.3164543999992	275.3317219999999	1.5139835999998468	1.0085576000005858	1.0007790999998178	n/a	1.0	n/a	2	0	101	3	nogo_punish	1	-1	0	0	0	1	1	n/a	n/a	0	1.0	1.0	2091.5841115000003	2360.8769716	2361.8820176	2363.3960012	2364.9005658999995	2365.9091235	n/a	n/a	2366.9158335	2367.9166126	2020-08-27 11:04:43.129273	0.525492134946508	-0.551930061587924	0.0	-0.229682365475263	-0.525492134946508	0.0	-0.525492134946508	0.0	-0.551930061587924	0.0	-0.525492134946508	0.0	-3.7960490927566957	-2.6680003732509983	-2.3760270541930444	-4.7135334842904335	-3.4593174390033976	-2.3760270541930444	-5.720142508937193	-4.81569679297657	-1.0196477002198736	-4.428657492554224	-0.6153699348898211	4	missed	0.0
276.35340350000024	5.901209699999981	nogo_punish	1.0	276.38641689999986	277.8842423999995	280.39846769999986	1.4978254999996352	277.39106219999985	279.3893210999995	281.4043615999999	0.49318019999964235	1.0091466000003493	0.8832649999999376	n/a	1.0	n/a	2	0	102	3	nogo_punish	1	-1	0	0	0	1	0	n/a	n/a	0	1.0	1.0	2091.5841115000003	2367.9705284	2368.9751737	2369.4683539	2370.9734326	2371.9825792	n/a	n/a	2372.9884731	2373.8717381	2020-08-27 11:04:43.129273	0.521384332081378	-0.551930061587924	0.0	-0.203366373292471	-0.521384332081378	0.0	-0.521384332081378	0.0	-0.551930061587924	0.0	-0.521384332081378	0.0	-3.800156895621826	-2.6680003732509983	-2.3760270541930444	-4.687217492107641	-3.4552096361382674	-2.3760270541930444	-5.720142508937193	-4.81569679297657	-1.0155398973547438	-4.428657492554224	-0.6153699348898211	4	missed	0.0
282.2904649000002	7.375566400000025	go_punish	0.2756131999994977	282.3234782999998	284.7633357999998	287.3063517999999	2.4398575000000164	283.3286926999999	286.29712259999997	288.3134007999997	1.434643099999903	1.009229199999936	1.3856439000001046	n/a	1.0	n/a	2	0	103	4	go_punish	1	0	-1	1	1	1	0	n/a	n/a	0	0.2756131999994977	1.0	2091.5841115000003	2373.9075898	2374.9128042	2376.3474473	2377.8812341000003	2378.8904633	n/a	n/a	2379.8975123	2381.2831562	2020-08-27 11:04:43.129273	0.394681961948022	-0.218112752700238	-0.611100168937191	-0.392195273268386	-0.216418206989168	-0.611100168937191	-0.394681961948022	-0.218112752700238	-0.611100168937191	-0.216418206989168	-0.611100168937191	0.218112752700238	-3.9268592657551817	-2.3341830643633124	-2.9871272231302353	-4.876046392083556	-3.1502435110460576	-2.9871272231302353	-5.502029756236955	-5.032114999965738	-1.1052557342105567	-4.646770245254462	-0.674540042239088	4	missed	0.0
289.7028653000002	6.1000340999999025	go_punish	0.5287411999997857	289.73587869999983	291.01441259999956	293.5599729999999	1.2785338999997293	290.74138049999965	292.5457699999997	294.5668194	0.2730320999999094	1.0142030000001796	1.269093399999747	n/a	1.0	n/a	2	0	104	4	go_punish	0	-1	0	1	1	1	0	n/a	n/a	-1	0.5287411999997857	1.0	2091.5841115000003	2381.3199902	2382.325492	2382.5985241	2384.1298815	2385.1440845	n/a	n/a	2386.1509309000003	2387.4200243	2020-08-27 11:04:43.129273	0.442160582127418	-0.179153420146814	-0.611100168937191	-0.3375756452957	-0.168939586809773	-0.611100168937191	-0.442160582127418	-0.179153420146814	-0.611100168937191	-0.168939586809773	-0.611100168937191	-0.646239612855848	-3.8793806455757855	-2.2952237318098883	-2.9871272231302353	-4.82142676411087	-3.1027648908666627	-2.9871272231302353	-6.366382121793041	-4.984636379786343	-1.1052557342105567	-4.607810912701038	-0.674540042239088	4	missed	0.0
295.8598267000002	6.253499399999328	nogo_punish	1.0	295.89284009999983	297.45621049999954	299.9804790999997	1.5633703999997124	296.8967568999997	298.9614507999995	300.9883164999992	0.5594535999998698	1.0190283000001727	1.1580229999999574	n/a	1.0	n/a	2	0	105	3	nogo_punish	0	0	-1	0	0	1	0	n/a	n/a	-1	1.0	1.0	2091.5841115000003	2387.4769516	2388.4808684	2389.040322	2390.5455623	2391.5645906	n/a	n/a	2392.5724279999995	2393.7304509999994	2020-08-27 11:04:43.129273	0.517997683815853	-0.551930061587924	0.0	-0.181607674041524	-0.517997683815853	0.0	-0.517997683815853	0.0	-0.551930061587924	0.0	-0.517997683815853	-0.825393033002662	-3.8035435438873506	-2.6680003732509983	-2.3760270541930444	-4.665458792856695	-3.4518229878727427	-2.3760270541930444	-6.545535541939855	-4.81569679297657	-1.0121532490892187	-4.428657492554224	-0.6153699348898211	4	missed	0.0
302.1676185000001	6.239616500000011	nogo_punish	1.0	302.20063189999973	303.7086882999997	306.22429549999924	1.5080563999999868	303.2057468999992	305.2134418999999	307.2314077999995	0.502941400000509	1.0108535999993364	1.2088406000002578	n/a	1.0	n/a	2	0	106	3	nogo_punish	1	-1	0	0	0	1	0	n/a	n/a	0	1.0	1.0	2091.5841115000003	2393.7847434	2394.7898583999995	2395.2927998	2396.7975534	2397.8084069999995	n/a	n/a	2398.8155193	2400.0243599	2020-08-27 11:04:43.129273	0.406090048317881	-0.551930061587924	-0.1291115863863	-0.292442824290451	-0.535201634704181	-0.1291115863863	-0.406090048317881	-0.1291115863863	-0.551930061587924	-0.1291115863863	-0.535201634704181	0.1291115863863	-3.9154511793853226	-2.6680003732509983	-2.5051386405793443	-4.776293943105622	-3.4690269387610706	-2.5051386405793443	-5.5910309225508925	-4.94480837936287	-1.0293571999775466	-4.557769078940525	-0.6153699348898211	4	missed	0.0
308.47032769999987	6.254322800000409	go_reward	0.4715441999996983	308.5033410999995	309.9725606999991	312.5262826999997	1.469219599999633	309.5081386999991	311.5050644999992	313.53459309999926	0.4644220000000132	1.021218200000476	1.2230708000006416	n/a	1.0	n/a	2	0	107	2	go_reward	1	1	0	1	1	1	0	n/a	n/a	1	0.4715441999996983	1.0	2091.5841115000003	2400.0874526	2401.0922501999994	2401.5566721999994	2403.0891759999995	2404.1103942	n/a	n/a	2405.1187045999995	2406.3417754	2020-08-27 11:04:43.129273	20.3428428515143	17.4706037516674	0.0	17.4706037516674	20.3428428515143	0.0	-20.3428428515143	17.4706037516674	0.0	20.3428428515143	0.0	10.939540077107	16.021301623811095	15.354533440004326	-2.3760270541930444	12.98675263285223	17.40901754745741	-2.3760270541930444	5.219397568169808	15.527146058537728	-0.4941555652733657	13.041946259113177	-0.06343987330189702	4	missed	0.0
314.7925083	6.436689000000115	nogo_punish	1.0	314.8255216999996	316.39006329999984	318.9048968999996	1.5645416000002115	315.8304120999992	317.8952268999992	319.91348219999963	0.5596512000006442	1.0096700000003693	1.3487285000001066	n/a	1.0	n/a	2	0	108	3	nogo_punish	1	-1	0	0	0	1	1	n/a	n/a	0	1.0	1.0	2091.5841115000003	2406.4096332	2407.4145235999995	2407.9741748	2409.4793383999995	2410.4890084	n/a	n/a	2411.4975937	2412.8463222	2020-08-27 11:04:43.129273	0.43392778263959	-0.551930061587924	-0.0933632512460652	-0.241141717303305	-0.527291033885655	-0.0933632512460652	-0.43392778263959	-0.0933632512460652	-0.551930061587924	-0.0933632512460652	-0.527291033885655	0.0933632512460652	-3.8876134450636135	-2.6680003732509983	-2.4693903054391098	-4.724992836118475	-3.4611163379425447	-2.4693903054391098	-5.626779257691128	-4.909060044222635	-1.0214465991590207	-4.522020743800289	-0.6153699348898211	4	missed	0.0
321.2815375	6.594813400000021	go_reward	0.3953417000002446	321.31455089999963	322.8818651999991	325.4330394999997	1.5673142999994525	322.31917599999997	324.41209289999915	326.4407524999997	0.562689199999113	1.0209466000005705	1.4686117999999624	n/a	1.0	n/a	2	0	109	2	go_reward	1	1	0	1	1	1	1	n/a	n/a	1	0.3953417000002446	1.0	2091.5841115000003	2412.8986624	2413.9032875000003	2414.4659766999994	2415.9962043999994	2417.017151	n/a	n/a	2418.024864	2419.4934758	2020-08-27 11:04:43.129273	22.1606517415828	19.0347752500127	0.0	19.0347752500127	22.1606517415828	0.0	-22.1606517415828	19.0347752500127	0.0	22.1606517415828	0.0	9.375368578761702	17.839110513879596	16.918704938349627	-2.3760270541930444	14.55092413119753	19.22682643752591	-2.3760270541930444	3.6552260698245087	17.34495494860623	-0.4941555652733657	14.606117757458476	-0.06343987330189702	4	missed	0.0
327.92399090000026	6.388684399999875	go_reward	0.5540530999996918	327.9570042999999	329.3049805999999	331.8530912999995	1.3479763000000275	328.96249779999926	330.8358827999991	332.8603162999998	0.3424828000006528	1.017208500000379	1.4853723999999602	n/a	1.0	n/a	2	0	110	2	go_reward	1	1	0	1	1	1	0	n/a	n/a	1	0.5540530999996918	1.0	2091.5841115000003	2419.5411158	2420.5466092999995	2420.8890921	2422.4199942999994	2423.4372028	n/a	n/a	2424.4444278	2425.9298002	2020-08-27 11:04:43.129273	23.4849052737937	20.173783864506	0.0	20.173783864506	23.4849052737937	0.0	-23.4849052737937	20.173783864506	0.0	23.4849052737937	0.0	8.236359964268402	19.163364046090496	18.057713552842927	-2.3760270541930444	15.689932745690829	20.55107996973681	-2.3760270541930444	2.5162174553312093	18.66920848081713	-0.4941555652733657	15.745126371951775	-0.06343987330189702	4	missed	0.0
334.36282100000017	6.548072300000058	go_reward	0.2196416000006138	334.3958343999998	336.04657059999954	338.5907751999998	1.6507361999997556	335.4006819999995	337.5778260999996	339.5980417999999	0.6458886000000348	1.0129491000002417	1.345864899999924	n/a	1.0	n/a	2	0	111	2	go_reward	1	1	0	1	1	1	1	n/a	n/a	1	0.2196416000006138	1.0	2091.5841115000003	2425.9799459	2426.9847935	2427.6306821	2429.1619376	2430.1748867	n/a	n/a	2431.1821533	2432.5280182	2020-08-27 11:04:43.129273	24.5023193674961	21.0490059437692	0.0	21.0490059437692	24.5023193674961	0.0	-24.5023193674961	21.0490059437692	0.0	24.5023193674961	0.0	7.361137885005203	20.180778139792896	18.932935632106126	-2.3760270541930444	16.56515482495403	21.56849406343921	-2.3760270541930444	1.6409953760680098	19.68662257451953	-0.4941555652733657	16.620348451214973	-0.06343987330189702	4	missed	0.0
340.94404380000014	7.547108499999922	go_punish	0.2580468999994991	340.97705719999976	343.58698339999955	346.1247741999996	2.6099261999997907	341.98125549999986	345.1152725999991	347.1327530999997	1.6057278999996925	1.0095016000004762	1.391412599999967	n/a	1.0	n/a	2	0	112	4	go_punish	1	0	-1	1	1	1	0	n/a	n/a	0	0.2580468999994991	1.0	2091.5841115000003	2432.5611687	2433.565367	2435.1710949	2436.6993840999994	2437.7088857	n/a	n/a	2438.7168646	2440.1082772	2020-08-27 11:04:43.129273	0.327793658071737	-0.280013521443662	-0.611100168937191	-0.424810260576629	-0.283306510865453	-0.611100168937191	-0.327793658071737	-0.280013521443662	-0.611100168937191	-0.283306510865453	-0.611100168937191	0.280013521443662	-3.993747569631467	-2.396083833106736	-2.9871272231302353	-4.908661379391799	-3.2171318149223427	-2.9871272231302353	-5.440128987493531	-5.099003303842022	-1.1052557342105567	-4.708671013997886	-0.674540042239088	4	missed	0.0
348.5428568000002	6.662843799999337	go_reward	0.3113398000004963	348.5758701999998	350.4936968999991	353.04195939999954	1.9178266999992957	349.5802133999996	352.0251522999997	354.0489864999995	0.9134834999995292	1.0168070999998235	1.1897274999996625	n/a	1.0	n/a	2	0	113	2	go_reward	1	1	0	1	1	1	1	n/a	n/a	1	0.3113398000004963	1.0	2091.5841115000003	2440.1599817	2441.1643249	2442.0778083999994	2443.6092638	2444.6260709	n/a	n/a	2445.633098	2446.8228254999995	2020-08-27 11:04:43.129273	25.3149046954147	21.7483396501702	0.0	21.7483396501702	25.3149046954147	0.0	-25.3149046954147	21.7483396501702	0.0	25.3149046954147	0.0	6.6618041786042	20.993363467711497	19.63226933850713	-2.3760270541930444	17.26448853135503	22.38107939135781	-2.3760270541930444	0.941661669667007	20.49920790243813	-0.4941555652733657	17.31968215761598	-0.06343987330189702	4	missed	0.0
355.24089200000026	6.4143138999993425	nogo_reward	1.0	355.2739053999999	357.03661529999954	359.55140879999954	1.7627098999996633	356.2789736999998	358.5412035999998	360.55839129999913	0.7576415999997153	1.0102051999997457	1.1298280000000887	n/a	1.0	n/a	2	0	114	1	nogo_reward	0	1	0	0	0	1	0	n/a	n/a	0	1.0	1.0	2091.5841115000003	2446.8580169	2447.8630852	2448.6207268	2450.1253151	2451.1355203	n/a	n/a	2452.1425027999994	2453.2723307999995	2020-08-27 11:04:43.129273	17.545093471579	0.0	20.9793527346727	20.9793527346727	3.43425926309376	20.9793527346727	-17.545093471579	20.9793527346727	0.0	20.9793527346727	3.43425926309376	-20.9793527346727	13.223552243875798	-2.116070311663074	18.603325680479653	16.495501615857528	0.5004339590368705	18.603325680479653	-26.699495243609892	16.163655941696128	2.9401036978203945	16.550695242118472	-0.06343987330189702	4	missed	0.0
361.7175956000001	7.077957500000139	go_reward	0.2825521000004301	361.7506089999997	364.22645439999997	366.7724765999992	2.475845400000253	362.7548174999997	365.7589221999997	367.7819261999998	1.4716369000002487	1.0135543999995207	1.0466403000000355	n/a	1.0	n/a	2	0	115	2	go_reward	1	1	0	1	1	1	1	n/a	n/a	1	0.2825521000004301	1.0	2091.5841115000003	2453.3347205	2454.338929	2455.8105659000003	2457.3430337	2458.3565880999995	n/a	n/a	2459.3660377	2460.412678	2020-08-27 11:04:43.129273	25.9831674964309	22.3238052642293	0.0	22.3238052642293	25.9831674964309	0.0	-25.9831674964309	22.3238052642293	0.0	25.9831674964309	0.0	6.086338564545102	21.661626268727698	20.207734952566227	-2.3760270541930444	17.83995414541413	23.049342192374013	-2.3760270541930444	0.3661960556079089	21.16747070345433	-0.4941555652733657	17.895147771675077	-0.06343987330189702	4	missed	0.0
368.83046520000016	6.604352999999719	nogo_reward	1.0	368.8634785999998	371.0796691999999	373.59936039999957	2.216190600000118	369.8683345999998	372.58438849999993	374.60610109999925	1.2113346000001002	1.0149718999996367	0.8617305000002489	n/a	1.0	n/a	2	0	116	1	nogo_reward	1	0	1	0	0	1	1	n/a	n/a	1	1.0	1.0	2091.5841115000003	2460.4475901	2461.4524461	2462.6637807	2464.1685	2465.1834719	n/a	n/a	2466.1902125999995	2467.0519431	2020-08-27 11:04:43.129273	14.3142402560732	0.0	17.1211493307235	17.1211493307235	2.80690907465029	17.1211493307235	-14.3142402560732	17.1211493307235	0.0	17.1211493307235	2.80690907465029	11.2889944980509	9.992699028369996	-2.116070311663074	14.745122276530456	12.63729821190833	-0.12691622940659952	14.745122276530456	5.568851989113708	12.30545253774693	2.3127535093769245	12.692491838169277	-0.06343987330189702	4	missed	0.0
375.4892764999995	6.796047400000134	nogo_punish	1.0	375.5222898999991	377.33830469999975	379.8555510999995	1.8160148000006302	376.5277541999999	378.84407569999985	380.86242669999956	0.810550499999863	1.0114753999996537	1.4559105999996973	n/a	1.0	n/a	2	0	117	3	nogo_punish	1	-1	0	0	0	1	0	n/a	n/a	0	1.0	1.0	2091.5841115000003	2467.1064013999994	2468.1118657	2468.9224162	2470.4281872	2471.4396626	n/a	n/a	2472.4465382	2473.9024487999995	2020-08-27 11:04:43.129273	0.450451043640925	-0.551930061587924	-0.0713330783992651	-0.205730939465949	-0.52178412204019	-0.0713330783992651	-0.450451043640925	-0.0713330783992651	-0.551930061587924	-0.0713330783992651	-0.52178412204019	0.0713330783992651	-3.871090184062279	-2.6680003732509983	-2.4473601325923093	-4.68958205828112	-3.4556094260970793	-2.4473601325923093	-5.648809430537928	-4.887029871375835	-1.0159396873135558	-4.499990570953489	-0.6153699348898211	4	missed	0.0
382.31676199999947	6.47234330000083	go_punish	1.0	382.3497753999991	384.2537299999999	386.7715794999999	1.9039546000008158	383.3551898999999	385.75791649999974	387.7786839999999	0.8985400999999911	1.0136630000001787	1.0434347000000344	n/a	1.0	n/a	2	0	118	4	go_punish	1	0	-1	1	0	0	0	n/a	n/a	-1	1.0	1.0	2091.5841115000003	2473.9338868999994	2474.9393014	2475.8378415	2477.342028	2478.355691	n/a	n/a	2479.3627955	2480.4062302	2020-08-27 11:04:43.129273	-0.395685341930282	-0.222824632014483	-0.611100168937191	-0.355674816272258	-0.215414827006909	-0.611100168937191	0.395685341930282	-0.611100168937191	-0.222824632014483	-0.611100168937191	-0.215414827006909	-0.214292864065471	-4.717226569633485	-2.3388949436775572	-2.9871272231302353	-4.839525935087429	-3.1492401310637987	-2.9871272231302353	-5.934435373002664	-5.426796961913761	-0.7095703922802747	-5.039757661491415	-0.28626450531638004	4	missed	0.0
388.8271813000001	6.655407799999921	nogo_reward	1.0	388.86019469999974	390.54998799999976	393.0699023999996	1.6897933000000194	389.8638047999998	392.0558342999998	394.0766705999995	0.6861831999999595	1.014068099999804	1.4389319000001706	n/a	1.0	n/a	2	0	119	1	nogo_reward	1	0	1	0	0	1	0	n/a	n/a	1	1.0	1.0	2091.5841115000003	2480.4443062	2481.4479163	2482.1340995	2483.6399458	2484.6540139	n/a	n/a	2485.6607821	2487.099714	2020-08-27 11:04:43.129273	16.1792741834623	0.0	19.3427266686637	19.3427266686637	3.1634524852014	19.3427266686637	-16.1792741834623	19.3427266686637	0.0	19.3427266686637	3.1634524852014	9.0674171601107	11.857732955759097	-2.116070311663074	16.966699614470656	14.85887554984853	0.2296271811445103	16.966699614470656	3.3472746511735076	14.52702987568713	2.6692969199280343	14.914069176109477	-0.06343987330189702	4	missed	0.0
395.5363376999999	5.817082500000197	nogo_punish	1.0	395.5693510999995	396.8876561999996	399.40280889999985	1.3183051000000887	396.5737571999998	398.39202169999953	400.40959869999915	0.3138989999997648	1.0107872000003226	0.9768349000005401	n/a	1.0	n/a	2	0	120	3	nogo_punish	1	-1	0	0	0	1	0	n/a	n/a	0	1.0	1.0	2091.5841115000003	2487.1534626	2488.1578687	2488.4717677	2489.9761332	2490.9869204	n/a	n/a	2491.9937101999994	2492.9705451	2020-08-27 11:04:43.129273	0.461025560609612	-0.551930061587924	-0.0566643357004338	-0.179442624688478	-0.517689896310046	-0.0566643357004338	-0.461025560609612	-0.0566643357004338	-0.551930061587924	-0.0566643357004338	-0.517689896310046	0.0566643357004338	-3.860515667093592	-2.6680003732509983	-2.432691389893478	-4.663293743503648	-3.4515152003669356	-2.432691389893478	-5.663478173236759	-4.872361128677004	-1.0118454615834116	-4.4853218282546585	-0.6153699348898211	4	missed	0.0
