onset	duration	trial_type	response_time	cueOnset	targetOnset	fbOnset	cueRT	firstfixOnset	secondfixOnset	waitOnset	firstfixdur	secondfixdur	waitdur	nback_fbOnset	nback_response_time	nback_targetOnset	block	wm	trial	cue	cond	is_common	outcome_go	outcome_nogo	key_correct	key_pressed	is_correct	key_correct_nback	key_pressed_nback	is_correct_nback	outcome	rt	rt_nback	time_scan	time_onset	time_isi1	time_circle	time_isi2	time_feedback	time_same	time_correct	time_iti	time_done	timestamp_scan	DV	Qgo	Qnogo	SV	Wgo	Wnogo	mDV	Qchosen	Qunchosen	Wchosen	Wunchosen	PE	DVC	QgoC	QnogoC	SVC	WgoC	WnogoC	PEC	WchosenC	WunchosenC	QchosenC	QunchosenC	run	outcome_nback	nback_targetResp
0.0	6.621556199999759	nogo_punish	0.2814682999996876	0.06528460000026826	2.1099583000000166	4.660860700000285	2.0446736999997484	1.069921400000112	3.644490600000154	5.668687000000318	1.0400368999999046	1.016370100000131	1.018153799999709	n/a	1.0	n/a	2	0	1	3	nogo_punish	1	-1	0	0	1	0	0	n/a	n/a	-1	0.2814682999996876	1.0	1624.4224063	1624.4876909000002	1625.4923277	1626.5323646	1628.0668969	1629.0832670000002	n/a	n/a	1630.0910933000002	1631.1092471	2020-08-27 10:56:55.967467	0.0609778832085504	0.0	0.0	0.0	0.0609778832085504	0.0	-0.0609778832085504	0.0	0.0	0.0609778832085504	0.0	-0.825393033002662	-4.260563344494654	-2.116070311663074	-2.3760270541930444	-4.483851118815171	-2.872847420848339	-2.3760270541930444	-6.545535541939855	-4.75471890976802	-0.4941555652733657	-4.428657492554224	-0.06343987330189702	3	missed	0.0
6.700728399999889	7.588972799999965	go_reward	0.2984612000000197	6.766013000000157	9.531907399999909	12.078395200000159	2.765894399999752	7.770866300000307	11.063235200000236	13.085962100000188	1.761041099999602	1.0151599999999235	1.2690236999999343	n/a	1.0	n/a	2	0	2	2	go_reward	1	1	0	1	1	1	0	n/a	n/a	1	0.2984612000000197	1.0	1624.4224063	1631.1884193	1632.1932726000002	1633.9543136999998	1635.4856415000002	1636.5008015	n/a	n/a	1637.5083684	1638.7773921	2020-08-27 10:56:55.967467	0.0609778832085504	0.0	0.0	0.0	0.0609778832085504	0.0	-0.0609778832085504	0.0	0.0	0.0609778832085504	0.0	28.4101438287744	-4.260563344494654	-2.116070311663074	-2.3760270541930444	-4.483851118815171	-2.872847420848339	-2.3760270541930444	22.690001319837208	-4.75471890976802	-0.4941555652733657	-4.428657492554224	-0.06343987330189702	3	missed	0.0
14.342995099999825	6.293449199999941	nogo_punish	0.4662812999999914	14.408279700000094	15.802203599999984	18.349677800000563	1.3939238999998906	15.413947500000177	17.336468800000148	19.357088400000066	0.3882560999998077	1.0132090000004155	1.3446404999999686	n/a	1.0	n/a	2	0	3	3	nogo_punish	1	-1	0	0	1	0	1	n/a	n/a	-1	0.4662812999999914	1.0	1624.4224063	1638.830686	1639.8363538	1640.2246099	1641.7588751	1642.7720841000005	n/a	n/a	1643.7794947	1645.1241352	2020-08-27 10:56:55.967467	-0.0881736680613335	-0.1291115863863	0.0	-0.1291115863863	-0.0881736680613335	0.0	0.0881736680613335	-0.1291115863863	0.0	-0.0881736680613335	0.0	-0.696281446616362	-4.409714895764537	-2.245181898049374	-2.3760270541930444	-4.612962705201471	-3.021998972118223	-2.3760270541930444	-6.4164239555535545	-4.903870461037903	-0.4941555652733657	-4.557769078940525	-0.06343987330189702	3	missed	0.0
20.687456099999963	7.586830799999916	nogo_punish	0.4232234999999491	20.75274070000023	23.593331699999908	26.13387929999999	2.8405909999996766	21.75774739999997	25.122431000000233	27.141056899999967	1.8355842999999368	1.0114482999997563	1.1985146000001805	n/a	1.0	n/a	2	0	4	3	nogo_punish	0	0	-1	0	1	0	0	n/a	n/a	0	0.4232234999999491	1.0	1624.4224063	1645.1751470000002	1646.1801537	1648.0157379999998	1649.5448373000002	1650.5562856	n/a	n/a	1651.5634632	1652.7619778	2020-08-27 10:56:55.967467	-0.196072026836634	-0.222474837632365	0.0	-0.222474837632365	-0.196072026836634	0.0	0.196072026836634	-0.222474837632365	0.0	-0.196072026836634	0.0	0.222474837632365	-4.517613254539838	-2.338545149295439	-2.3760270541930444	-4.706325956447536	-3.1298973308935234	-2.3760270541930444	-5.497667671304828	-5.011768819813204	-0.4941555652733657	-4.65113233018659	-0.06343987330189702	3	missed	0.0
28.324724799999785	7.305688200000077	nogo_punish	0.1807896999998774	28.390009400000054	30.907535900000312	33.452432199999976	2.5175265000002582	29.394927700000153	32.437167300000056	34.45983100000012	1.5126082000001588	1.01526489999992	1.2358666000000085	n/a	1.0	n/a	2	0	5	3	nogo_punish	1	-1	0	0	1	0	1	n/a	n/a	-1	0.1807896999998774	1.0	1624.4224063	1652.8124157	1653.817334	1655.3299422000002	1656.8595736	1657.8748385	n/a	n/a	1658.8822373	1660.1181039	2020-08-27 10:56:55.967467	-0.129344711364959	-0.16469632964533	0.0	-0.16469632964533	-0.129344711364959	0.0	0.129344711364959	-0.16469632964533	0.0	-0.129344711364959	0.0	-0.660696703357332	-4.450885939068162	-2.280766641308404	-2.3760270541930444	-4.6485474484605005	-3.0631700154218486	-2.3760270541930444	-6.380839212294525	-4.945041504341528	-0.4941555652733657	-4.593353822199554	-0.06343987330189702	3	missed	0.0
35.6827980999999	6.2416578999998364	go_punish	1.0	35.74808270000017	37.65377250000029	40.176930900000116	1.9056898000001183	36.753039400000034	39.15832500000056	41.18388410000057	0.9007331000002523	1.0186058999995566	0.805856499999436	n/a	1.0	n/a	2	0	6	4	go_punish	1	0	-1	1	0	0	0	n/a	n/a	-1	1.0	1.0	1624.4224063	1660.170489	1661.1754457	1662.0761788000002	1663.5807313000005	1664.5993372	n/a	n/a	1665.6062904000005	1666.4121469	2020-08-27 10:56:55.967467	-0.0609778832085504	0.0	0.0	0.0	0.0609778832085504	0.0	0.0609778832085504	0.0	0.0	0.0	0.0609778832085504	-0.825393033002662	-4.382519110911754	-2.116070311663074	-2.3760270541930444	-4.483851118815171	-2.872847420848339	-2.3760270541930444	-6.545535541939855	-4.81569679297657	-0.4331776820648153	-4.428657492554224	-0.06343987330189702	3	missed	0.0
41.95537999999988	6.1513254999999845	go_punish	1.0	42.020664600000146	43.671179400000256	46.18727980000017	1.65051480000011	43.025496299999986	45.17706199999998	47.195000600000185	0.6456831000002694	1.0102178000001913	0.9769894999999451	n/a	1.0	n/a	2	0	7	4	go_punish	0	-1	0	1	0	0	0	n/a	n/a	0	1.0	1.0	1624.4224063	1666.4430709	1667.4479026	1668.0935857000002	1669.5994683	1670.6096861	n/a	n/a	1671.6174069	1672.5943964	2020-08-27 10:56:55.967467	-0.170049504711266	0.0	-0.1291115863863	-0.1291115863863	0.0409379183249664	-0.1291115863863	0.170049504711266	-0.1291115863863	0.0	-0.1291115863863	0.0409379183249664	0.1291115863863	-4.49159073241447	-2.116070311663074	-2.5051386405793443	-4.612962705201471	-2.8928873857319233	-2.5051386405793443	-5.5910309225508925	-4.94480837936287	-0.4532176469483993	-4.557769078940525	-0.06343987330189702	3	missed	0.0
48.14911959999972	6.952561199999991	go_reward	0.2662249999998494	48.21440419999999	50.26022850000027	52.810377200000175	2.0458243000002767	49.219345700000304	51.79516250000006	53.81738510000014	1.040882799999963	1.015214700000115	1.3495802999998432	n/a	1.0	n/a	2	0	8	2	go_reward	1	1	0	1	1	1	0	n/a	n/a	1	0.2662249999998494	1.0	1624.4224063	1672.6368105	1673.6417520000002	1674.6826348000002	1676.2175688	1677.2327835	n/a	n/a	1678.2397914	1679.5893717	2020-08-27 10:56:55.967467	5.79457877913314	4.93315000309132	0.0	4.93315000309132	5.79457877913314	0.0	-5.79457877913314	4.93315000309132	0.0	5.79457877913314	0.0	23.47699382568308	1.473037551429936	2.8170796914282454	-2.3760270541930444	0.44929888427614895	2.86075347507625	-2.3760270541930444	17.756851316745887	0.9788819861565701	-0.4941555652733657	0.5044925105370952	-0.06343987330189702	3	missed	0.0
55.16191260000005	6.656655299999784	nogo_reward	1.0	55.22719720000032	56.95150580000018	59.46621499999992	1.7243085999998584	56.2318451000001	58.45700790000001	60.473429800000304	0.7196607000000768	1.0092070999999123	1.410422699999799	n/a	1.0	n/a	2	0	9	1	nogo_reward	0	1	0	0	0	1	0	n/a	n/a	0	1.0	1.0	1624.4224063	1679.6496035000002	1680.6542514	1681.3739121	1682.8794142	1683.8886212999998	n/a	n/a	1684.8958361000002	1686.3062588	2020-08-27 10:56:55.967467	-0.0609778832085504	0.0	0.0	0.0	0.0609778832085504	0.0	0.0609778832085504	0.0	0.0	0.0	0.0609778832085504	0.0	-4.382519110911754	-2.116070311663074	-2.3760270541930444	-4.483851118815171	-2.872847420848339	-2.3760270541930444	-5.720142508937193	-4.81569679297657	-0.4331776820648153	-4.428657492554224	-0.06343987330189702	3	missed	0.0
61.85278530000005	7.2583998000000065	go_punish	1.0	61.91806990000032	64.49181700000008	67.01137260000019	2.573747099999764	62.92359290000013	65.9962757000003	68.01822349999998	1.5682240999999522	1.0150968999998895	1.1582462000003488	n/a	1.0	n/a	2	0	10	4	go_punish	1	0	-1	1	0	0	0	n/a	n/a	-1	1.0	1.0	1624.4224063	1686.3404762000002	1687.3459992	1688.9142233	1690.4186820000002	1691.4337789	n/a	n/a	1692.4406298	1693.5988760000002	2020-08-27 10:56:55.967467	-0.13980602692538	0.0	-0.0933632512460652	-0.0933632512460652	0.0464427756793149	-0.0933632512460652	0.13980602692538	-0.0933632512460652	0.0	-0.0933632512460652	0.0464427756793149	-0.7320297817565968	-4.461347254628584	-2.116070311663074	-2.4693903054391098	-4.5772143700612355	-2.8873825283775747	-2.4693903054391098	-6.45217229069379	-4.909060044222635	-0.4477127895940508	-4.522020743800289	-0.06343987330189702	3	missed	0.0
69.16787059999979	5.924340400000119	nogo_punish	0.4114811999997982	69.23315520000006	70.81596810000019	73.38295300000027	1.5828129000001354	70.23979900000018	72.36248730000057	74.39085580000028	0.5761691000000155	1.0204656999997042	0.7666397999998935	n/a	1.0	n/a	2	0	11	3	nogo_punish	1	-1	0	0	1	0	0	n/a	n/a	-1	0.4114811999997982	1.0	1624.4224063	1693.6555615	1694.6622053	1695.2383744	1696.7848936000005	1697.8053593000002	n/a	n/a	1698.8132621000002	1699.5799019	2020-08-27 10:56:55.967467	-0.23604455612437	-0.257109000485999	0.0	-0.257109000485999	-0.23604455612437	0.0	0.23604455612437	-0.257109000485999	0.0	-0.23604455612437	0.0	-0.5682840325166629	-4.557585783827574	-2.373179312149073	-2.3760270541930444	-4.740960119301169	-3.1698698601812594	-2.3760270541930444	-6.288426541453855	-5.05174134910094	-0.4941555652733657	-4.685766493040223	-0.06343987330189702	3	missed	0.0
75.15359489999992	7.020205799999985	nogo_punish	0.2446650000001682	75.21887950000018	77.92874200000006	80.47576220000019	2.709862499999872	76.2240340000003	79.45869880000009	81.4823715	1.704707999999755	1.0170634000000973	0.7567138000001705	n/a	1.0	n/a	2	0	12	3	nogo_punish	1	-1	0	0	1	0	0	n/a	n/a	-1	0.2446650000001682	1.0	1624.4224063	1699.6412858	1700.6464403000002	1702.3511483	1703.8811051	1704.8981685	n/a	n/a	1705.9047778	1706.6614916	2020-08-27 10:56:55.967467	-0.314994637186343	-0.325463901790619	0.0	-0.325463901790619	-0.314994637186343	0.0	0.314994637186343	-0.325463901790619	0.0	-0.314994637186343	0.0	-0.49992913121204297	-4.636535864889547	-2.4415342134536933	-2.3760270541930444	-4.80931502060579	-3.248819941243233	-2.3760270541930444	-6.220071640149236	-5.130691430162913	-0.4941555652733657	-4.7541213943448435	-0.06343987330189702	3	missed	0.0
82.23217569999997	6.31836149999981	nogo_punish	0.4468147000002318	82.29746030000024	83.85564610000029	86.39784710000004	1.5581858000000466	83.30304980000028	85.38707169999998	87.4048829000003	0.5525963000000047	1.0107754000000568	1.2109388999997464	n/a	1.0	n/a	2	0	13	3	nogo_punish	0	0	-1	0	1	0	1	n/a	n/a	0	0.4468147000002318	1.0	1624.4224063	1706.7198666000002	1707.7254561000002	1708.2780524000002	1709.809478	1710.8202534	n/a	n/a	1711.8272892000002	1713.0382281	2020-08-27 10:56:55.967467	-0.376635674775733	-0.378845548412765	0.0	-0.378845548412765	-0.376635674775733	0.0	0.376635674775733	-0.378845548412765	0.0	-0.376635674775733	0.0	0.378845548412765	-4.698176902478937	-2.494915860075839	-2.3760270541930444	-4.862696667227936	-3.3104609788326225	-2.3760270541930444	-5.341296960524428	-5.192332467752303	-0.4941555652733657	-4.807503040966989	-0.06343987330189702	3	missed	0.0
88.59838779999973	6.401201700000001	go_reward	0.28934849999996	88.6636724	90.12912419999998	92.66949199999999	1.4654517999999825	89.66807210000024	91.65549820000024	93.67603529999997	0.4610520999997334	1.0139937999997528	1.3888388000000305	n/a	1.0	n/a	2	0	14	2	go_reward	1	1	0	1	1	1	0	n/a	n/a	1	0.28934849999996	1.0	1624.4224063	1713.0860787	1714.0904784000002	1714.5515305	1716.0779045000002	1717.0918983	n/a	n/a	1718.0984416	1719.4872804	2020-08-27 10:56:55.967467	9.82555217723277	8.39828435737203	0.0	8.39828435737203	9.82555217723277	0.0	-9.82555217723277	8.39828435737203	0.0	9.82555217723277	0.0	20.011859471402374	5.504010949529567	6.282214045708955	-2.3760270541930444	3.9144332385568585	6.891726873175881	-2.3760270541930444	14.29171696246518	5.009855384256201	-0.4941555652733657	3.969626864817805	-0.06343987330189702	3	missed	0.0
95.04539539999996	6.105700600000091	nogo_punish	0.2837079999999332	95.11068000000023	96.77469070000006	99.31567170000017	1.6640106999998352	96.11589760000015	98.30675800000017	100.32369240000025	0.6587930999999116	1.0089136999999937	0.892688200000066	n/a	1.0	n/a	2	0	15	3	nogo_punish	0	0	-1	0	1	0	1	n/a	n/a	0	0.2837079999999332	1.0	1624.4224063	1719.5330863000002	1720.5383039	1721.197097	1722.7291643	1723.738078	n/a	n/a	1724.7460987000002	1725.6387869000002	2020-08-27 10:56:55.967467	-0.277406965646885	-0.292988634096299	0.0	-0.292988634096299	-0.277406965646885	0.0	0.277406965646885	-0.292988634096299	0.0	-0.277406965646885	0.0	0.292988634096299	-4.598948193350089	-2.409058945759373	-2.3760270541930444	-4.77683975291147	-3.2112322697037747	-2.3760270541930444	-5.427153874840894	-5.093103758623455	-0.4941555652733657	-4.721646126650524	-0.06343987330189702	3	missed	0.0
101.18777769999997	6.227538300000333	nogo_reward	1.0	101.25306230000024	102.75121839999997	105.26528260000032	1.4981560999997328	102.25733120000018	104.25645920000056	106.27303560000018	0.49388719999979	1.0088233999997556	1.2075650000003861	n/a	1.0	n/a	2	0	16	1	nogo_reward	0	1	0	0	0	1	0	n/a	n/a	0	1.0	1.0	1624.4224063	1725.6754686000002	1726.6797375	1727.1736247	1728.6788655000005	1729.6876889000002	n/a	n/a	1730.6954419	1731.9030069000005	2020-08-27 10:56:55.967467	-0.0609778832085504	0.0	0.0	0.0	0.0609778832085504	0.0	0.0609778832085504	0.0	0.0	0.0	0.0609778832085504	0.0	-4.382519110911754	-2.116070311663074	-2.3760270541930444	-4.483851118815171	-2.872847420848339	-2.3760270541930444	-5.720142508937193	-4.81569679297657	-0.4331776820648153	-4.428657492554224	-0.06343987330189702	3	missed	0.0
107.45356300000003	6.1145738999998684	nogo_reward	1.0	107.5188476000003	108.8652331000003	111.38459520000015	1.3463854999999967	108.52445439999997	110.37034690000019	112.39054529999999	0.34077870000032817	1.014248299999963	1.2428762000001825	n/a	1.0	n/a	2	0	17	1	nogo_reward	1	0	1	0	0	1	0	n/a	n/a	1	1.0	1.0	1624.4224063	1731.9412539000002	1732.9468607	1733.2876394000002	1734.7927532	1735.8070015	n/a	n/a	1736.8129516	1738.0558278	2020-08-27 10:56:55.967467	-0.0609778832085504	0.0	0.0	0.0	0.0609778832085504	0.0	0.0609778832085504	0.0	0.0	0.0	0.0609778832085504	28.4101438287744	-4.382519110911754	-2.116070311663074	-2.3760270541930444	-4.483851118815171	-2.872847420848339	-2.3760270541930444	22.690001319837208	-4.81569679297657	-0.4331776820648153	-4.428657492554224	-0.06343987330189702	3	missed	0.0
113.60017130000006	6.279591900000241	go_punish	1.0	113.66545590000032	115.66770630000019	118.18480330000011	2.002250399999866	114.66987620000009	117.1726865999999	119.19151370000009	0.9978301000001011	1.012116700000206	0.7535341000004792	n/a	1.0	n/a	2	0	18	4	go_punish	1	0	-1	1	0	0	0	n/a	n/a	-1	1.0	1.0	1624.4224063	1738.0878622000002	1739.0922825	1740.0901126	1741.5950928999998	1742.6072096	n/a	n/a	1743.61392	1744.3674541000005	2020-08-27 10:56:55.967467	-0.230291425711588	0.0	-0.200444664785565	-0.200444664785565	0.0298467609260232	-0.200444664785565	0.230291425711588	-0.200444664785565	0.0	-0.200444664785565	0.0298467609260232	-0.624948368217097	-4.551832653414792	-2.116070311663074	-2.5764717189786093	-4.684295783600736	-2.9039785431308665	-2.5764717189786093	-6.3450908771542895	-5.016141457762135	-0.4643088043473425	-4.62910215733979	-0.06343987330189702	3	missed	0.0
119.92725829999972	7.434597300000178	nogo_punish	0.2758495000002767	119.99254289999999	122.4126119	124.95790519999991	2.4200690000000122	120.99733779999997	123.94436450000012	125.96447699999999	1.4152741000000333	1.013540699999794	1.4626632000001791	n/a	1.0	n/a	2	0	19	3	nogo_punish	1	-1	0	0	1	0	0	n/a	n/a	-1	0.2758495000002767	1.0	1624.4224063	1744.4149492	1745.4197441	1746.8350182	1748.3667708	1749.3803114999998	n/a	n/a	1750.3868833	1751.8495465	2020-08-27 10:56:55.967467	-0.211021216475782	-0.23561403960717	0.0	-0.23561403960717	-0.211021216475782	0.0	0.211021216475782	-0.23561403960717	0.0	-0.211021216475782	0.0	-0.589778993395492	-4.532562444178986	-2.351684351270244	-2.3760270541930444	-4.719465158422341	-3.1448465205326714	-2.3760270541930444	-6.309921502332685	-5.026718009452352	-0.4941555652733657	-4.664271532161394	-0.06343987330189702	3	missed	0.0
127.39674009999999	5.795634499999778	nogo_reward	1.0	127.46202470000026	128.82342030000018	131.34157820000019	1.3613955999999234	128.4660523	130.3283851000001	132.3489932	0.35736800000017865	1.0131931000000804	0.9086660000000393	n/a	1.0	n/a	2	0	20	1	nogo_reward	1	0	1	0	0	1	0	n/a	n/a	1	1.0	1.0	1624.4224063	1751.8844310000002	1752.8884586	1753.2458266	1754.7507914	1755.7639845	n/a	n/a	1756.7713995	1757.6800655	2020-08-27 10:56:55.967467	4.0717212270495	0.0	4.93315000309132	4.93315000309132	0.861428776041821	4.93315000309132	-4.0717212270495	4.93315000309132	0.0	4.93315000309132	0.861428776041821	23.47699382568308	-0.24982000065370347	-2.116070311663074	2.557122948898275	0.44929888427614895	-2.0723965280150685	2.557122948898275	17.756851316745887	0.11745321011474985	0.3672732107684553	0.5044925105370952	-0.06343987330189702	3	missed	0.0
133.2421386999997	6.151135100000147	nogo_punish	0.7206651999999849	133.30742329999998	134.66558320000013	137.20904910000058	1.358159900000146	134.31152659999998	136.19621070000017	138.2156149	0.35405660000014905	1.012838400000419	1.2429435000001376	n/a	1.0	n/a	2	0	21	3	nogo_punish	1	-1	0	0	1	0	1	n/a	n/a	-1	0.7206651999999849	1.0	1624.4224063	1757.7298296	1758.7339329	1759.0879895	1760.618617	1761.6314554000005	n/a	n/a	1762.6380212	1763.8809647	2020-08-27 10:56:55.967467	-0.312957625175621	-0.323935087171506	0.0	-0.323935087171506	-0.312957625175621	0.0	0.312957625175621	-0.323935087171506	0.0	-0.312957625175621	0.0	-0.501457945831156	-4.634498852878824	-2.4400053988345802	-2.3760270541930444	-4.807786205986677	-3.2467829292325106	-2.3760270541930444	-6.221600454768349	-5.128654418152191	-0.4941555652733657	-4.7525925797257305	-0.06343987330189702	3	missed	0.0
139.42460149999988	6.765522400000009	go_punish	1.0	139.48988610000015	141.81738330000007	144.3361778000003	2.327497199999925	140.49494760000016	143.3219667000003	145.34325580000018	1.3224356999999145	1.0142111000000114	0.9121526999999787	n/a	1.0	n/a	2	0	22	4	go_punish	1	0	-1	1	0	0	0	n/a	n/a	-1	1.0	1.0	1624.4224063	1763.9122924	1764.9173539	1766.2397896	1767.7443730000002	1768.7585841000002	n/a	n/a	1769.7656621	1770.6778148	2020-08-27 10:56:55.967467	-0.296759667564136	0.0	-0.279139173332799	-0.279139173332799	0.0176204942313367	-0.279139173332799	0.296759667564136	-0.279139173332799	0.0	-0.279139173332799	0.0176204942313367	-0.546253859669863	-4.61830089526734	-2.116070311663074	-2.6551662275258434	-4.762990292147969	-2.916204809825553	-2.6551662275258434	-6.266396368607056	-5.094835966309368	-0.47653507104202897	-4.707796665887023	-0.06343987330189702	3	missed	0.0
146.22536579999996	7.023653599999761	nogo_reward	1.0	146.29065040000023	148.76627240000016	151.28570770000056	2.4756219999999303	147.2953093000001	150.27058380000017	152.29478910000057	1.4709631000000627	1.0151239000003898	1.0195148999994217	n/a	1.0	n/a	2	0	23	1	nogo_reward	1	0	1	0	0	1	0	n/a	n/a	1	1.0	1.0	1624.4224063	1770.7130567000002	1771.7177156	1773.1886787	1774.6929901	1775.7081140000005	n/a	n/a	1776.7171954000005	1777.7367103	2020-08-27 10:56:55.967467	6.97101653751128	0.0	8.39828435737203	8.39828435737203	1.42726781986074	8.39828435737203	-6.97101653751128	8.39828435737203	0.0	8.39828435737203	1.42726781986074	20.011859471402374	2.649475309808076	-2.116070311663074	6.022257303178985	3.9144332385568585	-1.5065574841961495	6.022257303178985	14.29171696246518	3.5825875643954594	0.9331122545873743	3.969626864817805	-0.06343987330189702	3	missed	0.0
153.28438559999972	6.4893908000001375	nogo_reward	1.0	153.3496702	154.90946910000002	157.4282251000002	1.5597989000000325	154.35419610000008	156.41378810000015	158.43479109999998	0.5552729999999428	1.0144370000000436	1.4042699000001448	n/a	1.0	n/a	2	0	24	1	nogo_reward	1	0	1	0	0	1	0	n/a	n/a	1	1.0	1.0	1624.4224063	1777.7720765	1778.7766024	1779.3318754	1780.8361944	1781.8506314	n/a	n/a	1782.8571974	1784.2614673	2020-08-27 10:56:55.967467	9.13517701095488	0.0	10.9854965746578	10.9854965746578	1.85031956370291	10.9854965746578	-9.13517701095488	10.9854965746578	0.0	10.9854965746578	1.85031956370291	17.4246472541166	4.8136357832516765	-2.116070311663074	8.609469520464756	6.501645455842629	-1.0835057403539796	8.609469520464756	11.704504745179406	6.16979978168123	1.3561639984295444	6.556839082103576	-0.06343987330189702	3	missed	0.0
159.82586489999971	6.610211700000264	nogo_punish	0.2999816999999893	159.89114949999998	161.7372934	164.28593280000018	1.8461439000000155	160.8953922999999	163.27216530000032	165.29242030000023	0.8419011000000864	1.013767499999858	1.208940900000016	n/a	1.0	n/a	2	0	25	3	nogo_punish	1	-1	0	0	1	0	0	n/a	n/a	-1	0.2999816999999893	1.0	1624.4224063	1784.3135558	1785.3177985999998	1786.1596997	1787.6945716000002	1788.7083391	n/a	n/a	1789.7148266000002	1790.9237675000002	2020-08-27 10:56:55.967467	-0.385734356970972	-0.386955979538619	0.0	-0.386955979538619	-0.385734356970972	0.0	0.385734356970972	-0.386955979538619	0.0	-0.385734356970972	0.0	-0.438437053464043	-4.707275584674176	-2.503026291201693	-2.3760270541930444	-4.870807098353789	-3.3195596610278617	-2.3760270541930444	-6.158579562401236	-5.201431149947542	-0.4941555652733657	-4.815613472092843	-0.06343987330189702	3	missed	0.0
166.49083429999973	6.628615100000161	nogo_punish	1.0	166.5561189	168.4734489	170.98822200000018	1.9173299999999927	167.56015100000013	169.97896740000033	171.9957370000002	0.9132978999998613	1.0092545999998492	1.188996999999972	n/a	1.0	n/a	2	0	26	3	nogo_punish	1	-1	0	0	0	1	0	n/a	n/a	0	1.0	1.0	1624.4224063	1790.9785252	1791.9825573	1792.8958552	1794.4013737000002	1795.4106283	n/a	n/a	1796.4181433	1797.6071403	2020-08-27 10:56:55.967467	0.441123349868885	-0.434928783657885	0.0	-0.434928783657885	-0.441123349868885	0.0	-0.441123349868885	0.0	-0.434928783657885	0.0	-0.441123349868885	0.0	-3.8804178778343186	-2.550999095320959	-2.3760270541930444	-4.918779902473055	-3.3749486539257747	-2.3760270541930444	-5.720142508937193	-4.81569679297657	-0.9352789151422507	-4.428657492554224	-0.49836865695978205	3	missed	0.0
173.15482789999987	6.73392889999991	nogo_reward	1.0	173.22011250000014	175.07764110000016	177.59729770000013	1.8575286000000233	174.22460200000023	176.5821731000001	178.60422210000002	0.8530390999999327	1.0151246000000356	1.3498193000000356	n/a	1.0	n/a	2	0	27	1	nogo_reward	1	0	1	0	0	1	0	n/a	n/a	1	1.0	1.0	1624.4224063	1797.6425188	1798.6470083000002	1799.5000474	1801.0045794	1802.019704	n/a	n/a	1803.0266284	1804.3764477	2020-08-27 10:56:55.967467	10.8223207103267	0.0	13.0018140691026	13.0018140691026	2.17949335877588	13.0018140691026	-10.8223207103267	13.0018140691026	0.0	13.0018140691026	2.17949335877588	15.408329759671801	6.500779482623496	-2.116070311663074	10.625787014909555	8.51796295028743	-0.7543319452810096	10.625787014909555	9.688187250734607	8.18611727612603	1.6853377935025144	8.573156576548376	-0.06343987330189702	3	missed	0.0
179.9249116000003	6.573331899999403	nogo_reward	1.0	179.99019620000058	181.55009170000017	184.06928390000007	1.559895499999584	180.9940964	183.05513710000014	185.07834660000003	0.5559953000001769	1.014146799999935	1.4851814999999533	n/a	1.0	n/a	2	0	28	1	nogo_reward	1	0	1	0	0	1	0	n/a	n/a	1	1.0	1.0	1624.4224063	1804.4126025000005	1805.4165027	1805.972498	1807.4775434	1808.4916902	n/a	n/a	1809.5007529	1810.9859344	2020-08-27 10:56:55.967467	12.1803452963532	0.0	14.6237950149387	14.6237950149387	2.44344971858547	14.6237950149387	-12.1803452963532	14.6237950149387	0.0	14.6237950149387	2.44344971858547	13.786348813835701	7.858804068649997	-2.116070311663074	12.247767960745655	10.13994389612353	-0.4903755854714196	12.247767960745655	8.066206304898508	9.80809822196213	1.9492941533121044	10.195137522384476	-0.06343987330189702	3	missed	0.0
186.5464615999997	5.782526400000052	go_reward	0.4326128000002427	186.61174619999997	187.88561990000017	190.42737520000014	1.2738737000001947	187.6159851	189.41728480000006	191.43484630000012	0.26963480000017626	1.010090400000081	0.9594262999999046	n/a	1.0	n/a	2	0	29	2	go_reward	0	0	1	1	1	1	0	n/a	n/a	0	0.4326128000002427	1.0	1624.4224063	1811.0341525	1812.0383914	1812.3080262	1813.8396911	1814.8497815	n/a	n/a	1815.8572526	1816.8166789	2020-08-27 10:56:55.967467	12.8358161383607	10.9854965746578	0.0	10.9854965746578	12.8358161383607	0.0	-12.8358161383607	10.9854965746578	0.0	12.8358161383607	0.0	-10.9854965746578	8.514274910657496	8.869426262994725	-2.3760270541930444	6.501645455842629	9.90199083430381	-2.3760270541930444	-16.705639083594992	8.020119345384131	-0.4941555652733657	6.556839082103576	-0.06343987330189702	3	missed	0.0
192.3614541999998	6.424778900000092	go_punish	1.0	192.42673880000007	194.08746100000008	196.60660710000002	1.6607222000000093	193.43148650000012	195.59242170000016	197.6135217000001	0.6559744999999566	1.0141853999998602	1.2379960000000665	n/a	1.0	n/a	2	0	30	4	go_punish	1	0	-1	1	0	0	0	n/a	n/a	-1	1.0	1.0	1624.4224063	1816.8491451	1817.8538928	1818.5098673	1820.014828	1821.0290134	n/a	n/a	1822.035928	1823.273924	2020-08-27 10:56:55.967467	-0.348293068259178	0.0	-0.340132644489451	-0.340132644489451	0.0081604237697272	-0.340132644489451	0.348293068259178	-0.340132644489451	0.0	-0.340132644489451	0.0081604237697272	-0.48526038851321096	-4.6698342959623815	-2.116070311663074	-2.716159698682495	-4.823983763304621	-2.9256648802871625	-2.716159698682495	-6.205402897450404	-5.1558294374660205	-0.4859951415036385	-4.768790137043675	-0.06343987330189702	3	missed	0.0
198.8329217999999	7.419507199999998	go_reward	0.2379633999998986	198.89820640000016	201.36542840000016	203.91385120000018	2.4672219999999925	199.90294160000008	202.901032	204.9207867	1.4624868000000788	1.0128192000001945	1.3969269000001532	n/a	1.0	n/a	2	0	31	2	go_reward	1	1	0	1	1	1	1	n/a	n/a	1	0.2379633999998986	1.0	1624.4224063	1823.3206127	1824.3253479	1825.7878347	1827.3234383	1828.3362575	n/a	n/a	1829.343193	1830.7401199	2020-08-27 10:56:55.967467	9.44770653195387	8.06866406601126	0.0	8.06866406601126	9.44770653195387	0.0	-9.44770653195387	8.06866406601126	0.0	9.44770653195387	0.0	20.341479762763143	5.126165304250666	5.952593754348186	-2.3760270541930444	3.58481294719609	6.51388122789698	-2.3760270541930444	14.62133725382595	4.6320097389773	-0.4941555652733657	3.640006573457036	-0.06343987330189702	3	missed	0.0
206.2973510999998	6.218188100000134	go_reward	0.3559776000001875	206.36263570000006	208.1457895000001	210.69018380000057	1.7831538000000364	207.36712610000018	209.67765540000005	211.6979248	0.778663399999914	1.0125284000005195	0.8828990000001795	n/a	1.0	n/a	2	0	32	2	go_reward	1	1	0	1	1	1	0	n/a	n/a	1	0.3559776000001875	1.0	1624.4224063	1830.785042	1831.7895324	1832.5681958	1834.1000617	1835.1125901000005	n/a	n/a	1836.1203311	1837.0032301	2020-08-27 10:56:55.967467	13.0362713354245	11.158660660658	0.0	11.158660660658	13.0362713354245	0.0	-13.0362713354245	11.158660660658	0.0	13.0362713354245	0.0	17.2514831681164	8.714730107721296	9.042590348994926	-2.3760270541930444	6.67480954184283	10.10244603136761	-2.3760270541930444	11.531340659179207	8.220574542447931	-0.4941555652733657	6.730003168103776	-0.06343987330189702	3	missed	0.0
212.54947020000031	7.201959299999999	go_punish	1.0	212.61475480000058	214.83283530000017	217.3523626000001	2.218080499999587	213.61929690000056	216.33811450000007	218.36132070000008	1.2135383999996066	1.0142481000000316	1.4553934000005029	n/a	1.0	n/a	2	0	33	4	go_punish	1	0	-1	1	0	0	0	n/a	n/a	-1	1.0	1.0	1624.4224063	1837.0371611000005	1838.0417032000005	1839.2552416	1840.7605208	1841.7747689	n/a	n/a	1842.783727	1844.2391204000005	2020-08-27 10:56:55.967467	-0.389763942355076	0.0	-0.389185155655378	-0.389185155655378	0.0005787866996979	-0.389185155655378	0.389763942355076	-0.389185155655378	0.0	-0.389185155655378	0.0005787866996979	-0.436207877347284	-4.71130517005828	-2.116070311663074	-2.765212209848422	-4.873036274470548	-2.9332465173571918	-2.765212209848422	-6.156350386284477	-5.2048819486319475	-0.4935767785736678	-4.817842648209602	-0.06343987330189702	3	missed	0.0
219.7892986999998	6.702030200000081	go_punish	1.0	219.85458330000006	222.13226600000007	224.64777990000016	2.277682700000014	220.85957210000015	223.63735300000008	225.65488130000017	1.272693899999922	1.010426900000084	0.9017321999999695	n/a	1.0	n/a	2	0	34	4	go_punish	0	-1	0	1	0	0	0	n/a	n/a	0	1.0	1.0	1624.4224063	1844.2769896	1845.2819784	1846.5546723	1848.0597593	1849.0701862	n/a	n/a	1850.0772876	1850.9790198	2020-08-27 10:56:55.967467	-0.424053069088571	0.0	-0.429712045017106	-0.429712045017106	-0.0056589759285349	-0.429712045017106	0.424053069088571	-0.429712045017106	0.0	-0.429712045017106	-0.0056589759285349	0.429712045017106	-4.745594296791775	-2.116070311663074	-2.8057390992101503	-4.9135631638322765	-2.9394842799854244	-2.8057390992101503	-5.290430463920087	-5.245408837993676	-0.4998145412019006	-4.85836953757133	-0.06343987330189702	3	missed	0.0
226.54023979999988	6.3529687000000195	go_reward	0.4922270000001845	226.60552440000015	227.9249496	230.470008	1.3194251999998414	227.61003930000015	229.4563197	231.47755540000003	0.31491029999983766	1.0136883000000125	1.4809377000001405	n/a	1.0	n/a	2	0	35	2	go_reward	1	1	0	1	1	1	0	n/a	n/a	1	0.4922270000001845	1.0	1624.4224063	1851.0279307	1852.0324456	1852.3473559	1853.878726	1854.8924143	n/a	n/a	1855.8999617	1857.3808994	2020-08-27 10:56:55.967467	15.6105117552288	13.3734228667324	0.0	13.3734228667324	15.6105117552288	0.0	-15.6105117552288	13.3734228667324	0.0	15.6105117552288	0.0	15.036720962042002	11.288970527525596	11.257352555069325	-2.3760270541930444	8.889571747917229	12.67668645117191	-2.3760270541930444	9.31657845310481	10.794814962252229	-0.4941555652733657	8.944765374178175	-0.06343987330189702	3	missed	0.0
232.94185119999975	6.972774999999956	nogo_punish	0.0033303999998679	233.00713580000001	235.43295990000001	237.97259060000056	2.4258241	234.0119161	236.96273530000008	238.9790677000001	1.4210438000000067	1.0098553000004813	1.0008430999998836	n/a	1.0	n/a	2	0	36	3	nogo_punish	0	0	-1	0	1	0	0	n/a	n/a	0	0.0033303999998679	1.0	1624.4224063	1857.4295421	1858.4343224	1859.8553662	1861.3851416	1862.3949969000005	n/a	n/a	1863.401474	1864.4023171	2020-08-27 10:56:55.967467	-0.426964418749562	-0.434928783657885	0.0	-0.344005470489322	-0.426964418749562	0.0	0.426964418749562	-0.434928783657885	0.0	-0.426964418749562	0.0	0.434928783657885	-4.748505646452766	-2.550999095320959	-2.3760270541930444	-4.827856589304493	-3.3607897228064516	-2.3760270541930444	-5.285213725279307	-5.242661211726132	-0.4941555652733657	-4.863586276212109	-0.06343987330189702	3	missed	0.0
239.96142509999981	5.879380200000014	go_reward	0.5131986000001234	240.02670970000008	241.3570307	243.90182010000058	1.3303209999999126	241.03122080000003	242.88841100000013	244.90943330000005	0.32580989999996746	1.0134091000004446	0.9966566000000512	n/a	1.0	n/a	2	0	37	2	go_reward	1	1	0	1	1	1	1	n/a	n/a	1	0.5131986000001234	1.0	1624.4224063	1864.449116	1865.4536271	1865.779437	1867.3108173	1868.3242264000005	n/a	n/a	1869.3318396	1870.3284962	2020-08-27 10:56:55.967467	17.5796575301131	15.0674306283624	0.0	15.0674306283624	17.5796575301131	0.0	-17.5796575301131	15.0674306283624	0.0	17.5796575301131	0.0	13.342713200412001	13.258116302409896	12.951360316699326	-2.3760270541930444	10.58357950954723	14.64583222605621	-2.3760270541930444	7.622570691474809	12.763960737136529	-0.4941555652733657	10.638773135808176	-0.06343987330189702	3	missed	0.0
245.8913428999997	6.4349803000000065	nogo_punish	0.3077892999999676	245.95662749999997	247.79246750000016	250.33643670000015	1.8358400000001893	246.96165650000012	249.32437649999997	251.3446738	0.8308110000000397	1.0120602000001782	1.0469339999999647	n/a	1.0	n/a	2	0	38	3	nogo_punish	1	-1	0	0	1	0	1	n/a	n/a	-1	0.3077892999999676	1.0	1624.4224063	1870.3790338	1871.3840628	1872.2148738	1873.7467828	1874.758843	n/a	n/a	1875.7670801	1876.8140141	2020-08-27 10:56:55.967467	-0.326317378336139	-0.344005470489322	0.0	-0.2820344769858	-0.326317378336139	0.0	0.326317378336139	-0.344005470489322	0.0	-0.326317378336139	0.0	-0.48138756251334	-4.6478586060393425	-2.460075782152396	-2.3760270541930444	-4.76588559580097	-3.2601426823930284	-2.3760270541930444	-6.201530071450533	-5.1420141713127085	-0.4941555652733657	-4.772662963043547	-0.06343987330189702	3	missed	0.0
252.38462509999977	6.291083100000151	go_reward	0.3006541999998262	252.44990970000003	254.41566000000012	256.96105439999997	1.9657503000000816	253.45519420000005	255.9469940000006	257.9686686	0.9604658000000654	1.01406039999938	0.7723242000001846	n/a	1.0	n/a	2	0	39	2	go_reward	1	1	0	1	1	1	1	n/a	n/a	1	0.3006541999998262	1.0	1624.4224063	1876.872316	1877.8776005	1878.8380663	1880.3694003000005	1881.3834607	n/a	n/a	1882.3910749	1883.1633991	2020-08-27 10:56:55.967467	19.1513882005975	16.4199836304617	0.0	16.4199836304617	19.1513882005975	0.0	-19.1513882005975	16.4199836304617	0.0	19.1513882005975	0.0	11.9901601983127	14.829846972894295	14.303913318798626	-2.3760270541930444	11.93613251164653	16.21756289654061	-2.3760270541930444	6.270017689375508	14.335691407620928	-0.4941555652733657	11.991326137907476	-0.06343987330189702	3	missed	0.0
258.7077343000003	6.333547699999599	go_punish	1.0	258.7730189000006	260.53678560000003	263.0562186000002	1.7637666999994508	259.77776530000006	262.0418073000001	264.06358360000013	0.7590202999999747	1.0144113000001198	1.0429830000000493	n/a	1.0	n/a	2	0	40	4	go_punish	1	0	-1	1	0	0	0	n/a	n/a	-1	1.0	1.0	1624.4224063	1883.1954252000005	1884.2001716	1884.9591919	1886.4642136	1887.4786249	n/a	n/a	1888.4859899	1889.5289729	2020-08-27 10:56:55.967467	-0.343919378552654	0.0	-0.334775129949328	-0.334775129949328	0.0091442486033252	-0.334775129949328	0.343919378552654	-0.334775129949328	0.0	-0.334775129949328	0.0091442486033252	-0.49061790305333397	-4.6654606062558575	-2.116070311663074	-2.7108021841423726	-4.818626248764499	-2.9246810554535645	-2.7108021841423726	-6.210760411990527	-5.150471922925898	-0.4850113166700405	-4.763432622503553	-0.06343987330189702	3	missed	0.0
265.0860238999999	6.558531799999855	go_reward	0.3108482000002368	265.15130850000014	267.31933260000005	269.86575830000015	2.1680240999999114	266.1559318000002	268.8563194000001	270.8718285	1.163400799999863	1.0094389000000774	0.8380118000000039	n/a	1.0	n/a	2	0	41	2	go_reward	0	0	1	1	1	1	1	n/a	n/a	0	0.3108482000002368	1.0	1624.4224063	1889.5737148	1890.5783381	1891.7417389	1893.2787257	1894.2881646	n/a	n/a	1895.2942348	1896.1322466	2020-08-27 10:56:55.967467	20.4441816696414	17.5330699998794	0.0	17.5330699998794	20.4441816696414	0.0	-20.4441816696414	17.5330699998794	0.0	20.4441816696414	0.0	-17.5330699998794	16.122640441938195	15.416999688216327	-2.3760270541930444	13.049218881064231	17.51035636558451	-2.3760270541930444	-23.253212508816596	15.628484876664828	-0.4941555652733657	13.104412507325177	-0.06343987330189702	3	missed	0.0
271.6811680999999	6.741547999999966	go_punish	1.0	271.7464527000002	274.10027020000007	276.6182755	2.3538174999998773	272.75152060000005	275.60533340000006	277.62598670000057	1.3487496000000192	1.0129420999999184	0.8620139999995899	n/a	1.0	n/a	2	0	42	4	go_punish	1	0	-1	1	0	0	1	n/a	n/a	-1	1.0	1.0	1624.4224063	1896.168859	1897.1739269	1898.5226765	1900.0277397	1901.0406818	n/a	n/a	1902.0483930000005	1902.910407	2020-08-27 10:56:55.967467	-0.398978892991532	0.0	-0.399806398175563	-0.399806398175563	-0.0008275051840301	-0.399806398175563	0.398978892991532	-0.399806398175563	0.0	-0.399806398175563	-0.0008275051840301	-0.42558663482709896	-4.720520120694736	-2.116070311663074	-2.7758334523686075	-4.883657516990733	-2.93465280924092	-2.7758334523686075	-6.145729143764292	-5.215503191152132	-0.49498307045739576	-4.828463890729787	-0.06343987330189702	3	missed	0.0
278.4601846999999	6.183703199999854	nogo_reward	1.0	278.52546930000017	279.9605498000001	282.4779456000001	1.4350804999999127	279.52991870000005	281.4660185	283.4857658000001	0.4306311000000278	1.0119271000000936	1.2234066999999413	n/a	1.0	n/a	2	0	43	1	nogo_reward	1	0	1	0	0	1	0	n/a	n/a	1	1.0	1.0	1624.4224063	1902.9478756	1903.952325	1904.3829561	1905.8884248	1906.9003519	n/a	n/a	1907.9081721	1909.1315788	2020-08-27 10:56:55.967467	13.3004944516796	0.0	15.9606350840182	15.9606350840182	2.66014063233855	15.9606350840182	-13.3004944516796	15.9606350840182	0.0	15.9606350840182	2.66014063233855	12.449508744756201	8.978953223976397	-2.116070311663074	13.584608029825155	11.47678396520303	-0.27368467171833943	13.584608029825155	6.7293662358190085	11.14493829104163	2.1659850670651846	11.531977591463976	-0.06343987330189702	3	missed	0.0
284.68063029999985	7.029214400000001	nogo_reward	1.0	284.7459149000001	287.2896081000006	289.813993	2.5436932000004617	285.75157680000007	288.7956411	290.8218409000001	1.5380313000005117	1.0183518999999706	0.9532884000000195	n/a	1.0	n/a	2	0	44	1	nogo_reward	1	0	1	0	0	1	0	n/a	n/a	1	1.0	1.0	1624.4224063	1909.1683212	1910.1739831	1911.7120144000005	1913.2180474	1914.2363993	n/a	n/a	1915.2442472	1916.1975356	2020-08-27 10:56:55.967467	14.2423474259835	0.0	17.0837481228072	17.0837481228072	2.84140069682369	17.0837481228072	-14.2423474259835	17.0837481228072	0.0	17.0837481228072	2.84140069682369	11.326395705967201	9.920806198280296	-2.116070311663074	14.707721068614156	12.59989700399203	-0.09242460723319956	14.707721068614156	5.606253197030008	12.26805132983063	2.3472451315503244	12.655090630252976	-0.06343987330189702	3	missed	0.0
291.7634380999998	6.719182799999999	go_reward	0.2526088999998137	291.82872270000007	293.6495609000001	296.19529950000015	1.8208382000000256	292.8365147000002	295.1815179	297.20239660000016	0.813046199999917	1.0137816000001294	1.3455088999999134	n/a	1.0	n/a	2	0	45	2	go_reward	1	1	0	1	1	1	0	n/a	n/a	1	0.2526088999998137	1.0	1624.4224063	1916.251129	1917.258921	1918.0719672	1919.6039242	1920.6177058	n/a	n/a	1921.6248029	1922.9703118	2020-08-27 10:56:55.967467	15.7978745775663	13.5366291318472	0.0	13.5366291318472	15.7978745775663	0.0	-15.7978745775663	13.5366291318472	0.0	15.7978745775663	0.0	14.873514696927202	11.476333349863097	11.420558820184125	-2.3760270541930444	9.052778013032029	12.864049273509412	-2.3760270541930444	9.153372187990009	10.98217778458973	-0.4941555652733657	9.107971639292975	-0.06343987330189702	3	missed	0.0
298.5335938999999	7.258283699999993	nogo_punish	0.2736141000000316	298.5988785000002	301.3703839	303.91398000000004	2.7715053999997963	299.6044455000001	302.8976910000001	304.9214489000001	1.7659383999998681	1.0162889999999152	0.9357133000000886	n/a	1.0	n/a	2	0	46	3	nogo_punish	1	-1	0	0	1	0	0	n/a	n/a	-1	0.2736141000000316	1.0	1624.4224063	1923.0212848	1924.0268518	1925.7927902	1927.3200973	1928.3363863	n/a	n/a	1929.3438552	1930.2795685	2020-08-27 10:56:55.967467	-0.406436927132846	-0.4111460633721	0.0	-0.366241819721265	-0.406436927132846	0.0	0.406436927132846	-0.4111460633721	0.0	-0.406436927132846	0.0	-0.41424696963056196	-4.72797815483605	-2.527216375035174	-2.3760270541930444	-4.850092938536435	-3.3402622311897354	-2.3760270541930444	-6.134389478567755	-5.222133720109416	-0.4941555652733657	-4.839803555926324	-0.06343987330189702	3	missed	0.0
305.8261606999997	7.867754900000136	nogo_reward	1.0	305.8914453	308.8525436	311.36689360000014	2.9610983000000033	306.8966998000001	310.35734040000057	312.37423260000014	1.9558437999999114	1.0095531999995728	1.3849675999999818	n/a	1.0	n/a	2	0	47	1	nogo_reward	0	1	0	0	0	1	0	n/a	n/a	0	1.0	1.0	1624.4224063	1930.3138516	1931.3191061	1933.2749499	1934.7797467000005	1935.7892999	n/a	n/a	1936.7966389	1938.1816065	2020-08-27 10:56:55.967467	15.0466036463524	0.0	18.0419645762978	18.0419645762978	2.99536092994543	18.0419645762978	-15.0466036463524	18.0419645762978	0.0	18.0419645762978	2.99536092994543	-18.0419645762978	10.725062418649197	-2.116070311663074	15.665937522104755	13.55811345748263	0.061535625888540224	15.665937522104755	-23.762107085234994	13.22626778332123	2.5012053646720642	13.613307083743576	-0.06343987330189702	3	missed	0.0
313.7522584999997	6.230144100000189	nogo_reward	1.0	313.81754309999997	315.23725220000006	317.7566982000001	1.419709100000091	314.82265320000056	316.74275880000005	318.7647557	0.4145989999994981	1.0139394000000266	1.2829315000001316	n/a	1.0	n/a	2	0	48	1	nogo_reward	1	0	1	0	0	1	0	n/a	n/a	1	1.0	1.0	1624.4224063	1938.2399494	1939.2450595000005	1939.6596585	1941.1651651	1942.1791045	n/a	n/a	1943.187162	1944.4700935	2020-08-27 10:56:55.967467	11.6094083751858	0.0	13.9367600658676	13.9367600658676	2.32735169068178	13.9367600658676	-11.6094083751858	13.9367600658676	0.0	13.9367600658676	2.32735169068178	14.473383762906801	7.287867147482597	-2.116070311663074	11.560733011674557	9.45290894705243	-0.6064736133751096	11.560733011674557	8.753241253969609	9.121063272891032	1.8331961254084144	9.508102573313376	-0.06343987330189702	3	missed	0.0
320.0285680999998	6.48773540000002	go_reward	0.2221113999999033	320.09385270000007	322.0729547000001	324.61791700000003	1.9791020000000117	321.09905930000014	323.60480340000004	325.62663640000005	0.9738953999999467	1.013113599999997	0.9549517000000378	n/a	1.0	n/a	2	0	49	2	go_reward	1	1	0	1	1	1	0	n/a	n/a	1	0.2221113999999033	1.0	1624.4224063	1944.516259	1945.5214656	1946.495361	1948.0272097	1949.0403233	n/a	n/a	1950.0490427	1951.0039944	2020-08-27 10:56:55.967467	18.4307315434482	15.8065356433988	0.0	15.8065356433988	18.4307315434482	0.0	-18.4307315434482	15.8065356433988	0.0	18.4307315434482	0.0	12.603608185375602	14.109190315744996	13.690465331735725	-2.3760270541930444	11.322684524583629	15.496906239391311	-2.3760270541930444	6.8834656764384095	13.61503475047163	-0.4941555652733657	11.377878150844575	-0.06343987330189702	3	missed	0.0
326.5613265999998	6.70563360000051	go_reward	0.3297509999997601	326.62661120000007	328.3183634000002	330.8566449	1.69175220000011	327.63184360000014	329.8476617000001	331.86384599999997	0.6865198000000419	1.008983199999875	1.4683988000006138	n/a	1.0	n/a	2	0	50	2	go_reward	0	0	1	1	1	1	0	n/a	n/a	0	0.3297509999997601	1.0	1624.4224063	1951.0490175	1952.0542499	1952.7407697	1954.270068	1955.2790512	n/a	n/a	1956.2862523	1957.7546511000005	2020-08-27 10:56:55.967467	20.2581318184256	17.3802765206601	0.0	17.3802765206601	20.2581318184256	0.0	-20.2581318184256	17.3802765206601	0.0	20.2581318184256	0.0	-17.3802765206601	15.936590590722396	15.264206208997026	-2.3760270541930444	12.89642540184493	17.32430651436871	-2.3760270541930444	-23.100419029597294	15.44243502544903	-0.4941555652733657	12.951619028105876	-0.06343987330189702	3	missed	0.0
333.31930279999983	6.4847440999999435	nogo_punish	0.3456479000001309	333.3845874000001	334.8514556	337.3928578	1.466868199999908	334.3891751000001	336.3783817000001	338.40122570000017	0.46228049999990617	1.0144760999999107	1.4681057999998757	n/a	1.0	n/a	2	0	51	3	nogo_punish	1	-1	0	0	1	0	0	n/a	n/a	-1	0.3456479000001309	1.0	1624.4224063	1957.8069937	1958.8115814	1959.2738619	1960.800788	1961.8152641	n/a	n/a	1962.823632	1964.2917378	2020-08-27 10:56:55.967467	-0.464086506389427	-0.45960507096733	0.0	-0.425600313108467	-0.464086506389427	0.0	0.464086506389427	-0.45960507096733	0.0	-0.464086506389427	0.0	-0.365787962035332	-4.785627734092631	-2.575675382630404	-2.3760270541930444	-4.909451431923638	-3.3979118104463164	-2.3760270541930444	-6.085930470972525	-5.279783299365997	-0.4941555652733657	-4.888262563521554	-0.06343987330189702	3	missed	0.0
339.8536539999998	7.601438400000006	go_reward	0.3802113000001554	339.91893860000005	342.5288428000006	345.0737682000006	2.6099042000005284	340.9248544000002	344.0556864	346.0814037	1.6039884000003894	1.018081800000573	1.4389733000000433	n/a	1.0	n/a	2	0	52	2	go_reward	1	1	0	1	1	1	1	n/a	n/a	1	0.3802113000001554	1.0	1624.4224063	1964.3413449	1965.3472607	1966.9512491000005	1968.4780927	1969.4961745000005	n/a	n/a	1970.50381	1971.9427833	2020-08-27 10:56:55.967467	15.8965737453133	13.6284405079444	0.0	13.6284405079444	15.8965737453133	0.0	-15.8965737453133	13.6284405079444	0.0	15.8965737453133	0.0	14.781703320830001	11.575032517610095	11.512370196281326	-2.3760270541930444	9.14458938912923	12.962748441256409	-2.3760270541930444	9.061560811892807	11.08087695233673	-0.4941555652733657	9.199783015390176	-0.06343987330189702	3	missed	0.0
347.5019136000003	6.403355799999417	go_reward	0.9406002999999146	347.5671982000006	349.10547080000015	351.6473778000002	1.5382725999995728	348.57125300000007	350.63427390000015	352.65496600000006	0.5342178000000786	1.0131039000000328	1.3155879999999343	n/a	1.0	n/a	2	0	53	2	go_reward	1	1	0	1	1	1	0	n/a	n/a	1	0.9406002999999146	1.0	1624.4224063	1971.9896045000005	1972.9936593	1973.5278771	1975.0566802	1976.0697841	n/a	n/a	1977.0773723	1978.3929603	2020-08-27 10:56:55.967467	18.6845079841796	16.0311567521352	0.0	16.0311567521352	18.6845079841796	0.0	-18.6845079841796	16.0311567521352	0.0	18.6845079841796	0.0	12.378987076639202	14.362966756476396	13.915086440472125	-2.3760270541930444	11.547305633320029	15.750682680122711	-2.3760270541930444	6.658844567702009	13.86881119120303	-0.4941555652733657	11.602499259580975	-0.06343987330189702	3	missed	0.0
353.95992869999986	6.391803499999924	go_reward	0.5501647000000958	354.02521330000013	355.37900179999997	357.9211520000006	1.3537884999998369	355.02992270000004	356.9096622000002	358.9279392000001	0.34907909999992626	1.0114898000003905	1.4890775999999732	n/a	1.0	n/a	2	0	54	2	go_reward	0	0	1	1	1	1	1	n/a	n/a	0	0.5501647000000958	1.0	1624.4224063	1978.4476196	1979.452329	1979.8014081	1981.3320685	1982.3435583000005	n/a	n/a	1983.3503455	1984.8394231	2020-08-27 10:56:55.967467	20.5954983294693	17.6762190275723	0.0	17.6762190275723	20.5954983294693	0.0	-20.5954983294693	17.6762190275723	0.0	20.5954983294693	0.0	-17.6762190275723	16.273957101766097	15.560148715909227	-2.3760270541930444	13.19236790875713	17.661673025412412	-2.3760270541930444	-23.396361536509495	15.77980153649273	-0.4941555652733657	13.247561535018077	-0.06343987330189702	3	missed	0.0
360.3805983999998	6.275848199999928	go_punish	1.0	360.4458830000001	362.2272789000001	364.7505580000002	1.7813959000000068	361.4508973000002	363.7318735000006	365.75872030000005	0.7763815999999224	1.0186844999996083	0.963010899999972	n/a	1.0	n/a	2	0	55	4	go_punish	1	0	-1	1	0	0	0	n/a	n/a	-1	1.0	1.0	1624.4224063	1984.8682893	1985.8733036	1986.6496852	1988.1542798000005	1989.1729643	n/a	n/a	1990.1811266	1991.1441375	2020-08-27 10:56:55.967467	-0.439121566282665	0.0	-0.447252446980274	-0.447252446980274	-0.0081308806976085	-0.447252446980274	0.439121566282665	-0.447252446980274	0.0	-0.447252446980274	-0.0081308806976085	-0.378140586022388	-4.760662793985869	-2.116070311663074	-2.8232795011733183	-4.9311035657954445	-2.941956184754498	-2.8232795011733183	-6.098283094959581	-5.262949239956844	-0.5022864459709742	-4.875909939534498	-0.06343987330189702	3	missed	0.0
366.6896027999999	6.499922199999901	go_punish	1.0	366.75488740000014	368.5993833	371.1188744000001	1.8444958999998562	367.7601033000001	370.1048524	372.126213	0.839279999999917	1.0140220000000681	1.1285966000000371	n/a	1.0	n/a	2	0	56	4	go_punish	1	0	-1	1	0	0	0	n/a	n/a	-1	1.0	1.0	1624.4224063	1991.1772937	1992.1825096	1993.0217896	1994.5272587	1995.5412807	n/a	n/a	1996.5486193	1997.6772159	2020-08-27 10:56:55.967467	-0.470404824572555	0.0	-0.484214468380225	-0.484214468380225	-0.0138096438076701	-0.484214468380225	0.470404824572555	-0.484214468380225	0.0	-0.484214468380225	-0.0138096438076701	-0.34117856462243695	-4.791946052275759	-2.116070311663074	-2.8602415225732694	-4.968065587195396	-2.9476349478645596	-2.8602415225732694	-6.06132107355963	-5.299911261356795	-0.5079652090810358	-4.912871960934449	-0.06343987330189702	3	missed	0.0
373.24461469999983	7.409643199999891	go_reward	0.3185639000002993	373.3098993000001	376.0667007000002	378.60994400000004	2.7568014000000858	374.31467210000005	377.59608120000007	379.6173629	1.7520286000001306	1.0138627999999699	1.1021795999999995	n/a	1.0	n/a	2	0	57	2	go_reward	1	1	0	1	1	1	0	n/a	n/a	1	0.3185639000002993	1.0	1624.4224063	1997.7323056	1998.7370784	2000.489107	2002.0184875	2003.0323503	n/a	n/a	2004.0397692	2005.1419488	2020-08-27 10:56:55.967467	16.2764432707966	13.960428575207	0.0	13.960428575207	16.2764432707966	0.0	-16.2764432707966	13.960428575207	0.0	16.2764432707966	0.0	14.449715253567401	11.954902043093398	11.844358263543926	-2.3760270541930444	9.47657745639183	13.342617966739713	-2.3760270541930444	8.729572744630207	11.460746477820031	-0.4941555652733657	9.531771082652776	-0.06343987330189702	3	missed	0.0
380.70591879999984	6.915807500000028	nogo_punish	0.2942759000002297	380.7712034000001	383.2098262000002	385.7531265	2.4386228000000756	381.7772570000002	384.73823600000014	386.75943210000014	1.432569199999989	1.014890499999865	0.927578799999992	n/a	1.0	n/a	2	0	58	3	nogo_punish	1	-1	0	0	1	0	0	n/a	n/a	-1	0.2942759000002297	1.0	1624.4224063	2005.1936097	2006.1996633	2007.6322325	2009.1606423	2010.1755328	n/a	n/a	2011.1818384	2012.1094172	2020-08-27 10:56:55.967467	-0.508329643649715	-0.496933391507732	0.0	-0.470316217262426	-0.508329643649715	0.0	0.508329643649715	-0.496933391507732	0.0	-0.508329643649715	0.0	-0.32845964149492995	-4.829870871352918	-2.613003703170806	-2.3760270541930444	-4.954167336077597	-3.4421549477066047	-2.3760270541930444	-6.048602150432123	-5.324026436626284	-0.4941555652733657	-4.925590884061957	-0.06343987330189702	3	missed	0.0
387.67379949999986	7.658295400000043	go_reward	0.2691133999996964	387.7390841000001	390.4658823	393.0069923000001	2.7267981999998483	388.74328660000015	391.99289940000017	394.0139825000001	1.7225956999998289	1.0140928999999232	1.383397000000059	n/a	1.0	n/a	2	0	59	2	go_reward	1	1	0	1	1	1	1	n/a	n/a	1	0.2691133999996964	1.0	1624.4224063	2012.1614904	2013.1656929	2014.8882886	2016.4153057	2017.4293986	n/a	n/a	2018.4363888	2019.8197858	2020-08-27 10:56:55.967467	19.0825980813335	16.3783747528413	0.0	16.3783747528413	19.0825980813335	0.0	-19.0825980813335	16.3783747528413	0.0	19.0825980813335	0.0	12.031769075933102	14.761056853630297	14.262304441178225	-2.3760270541930444	11.894523634026129	16.148772777276612	-2.3760270541930444	6.311626566995909	14.26690128835693	-0.4941555652733657	11.949717260287075	-0.06343987330189702	3	missed	0.0
395.3623178999999	6.420515699999896	nogo_reward	1.0	395.42760250000015	396.93054120000056	399.44878140000014	1.5029387000004135	396.43187710000007	398.43472210000004	400.45641580000006	0.49866410000049655	1.014059300000099	1.3917023999999856	n/a	1.0	n/a	2	0	60	1	nogo_reward	1	0	1	0	0	1	0	n/a	n/a	1	1.0	1.0	1624.4224063	2019.8500088	2020.8542834	2021.3529475000005	2022.8571284	2023.8711877	n/a	n/a	2024.8788221	2026.2705245	2020-08-27 10:56:55.967467	13.4506404602283	0.0	16.1277578194468	16.1277578194468	2.67711735921858	16.1277578194468	-13.4506404602283	16.1277578194468	0.0	16.1277578194468	2.67711735921858	12.282386009327602	9.129099232525096	-2.116070311663074	13.751730765253754	11.643906700631629	-0.2567079448383094	13.751730765253754	6.56224350039041	11.312061026470229	2.1829617939452146	11.699100326892575	-0.06343987330189702	3	missed	0.0
