onset	duration	trial_type	response_time	cueOnset	targetOnset	fbOnset	cueRT	firstfixOnset	secondfixOnset	waitOnset	firstfixdur	secondfixdur	waitdur	nback_fbOnset	nback_response_time	nback_targetOnset	block	wm	trial	cue	cond	is_common	outcome_go	outcome_nogo	key_correct	key_pressed	is_correct	key_correct_nback	key_pressed_nback	is_correct_nback	outcome	rt	rt_nback	time_scan	time_onset	time_isi1	time_circle	time_isi2	time_feedback	time_same	time_correct	time_iti	time_done	timestamp_scan	DV	Qgo	Qnogo	SV	Wgo	Wnogo	mDV	Qchosen	Qunchosen	Wchosen	Wunchosen	PE	DVC	QgoC	QnogoC	SVC	WgoC	WnogoC	PEC	WchosenC	WunchosenC	QchosenC	QunchosenC	run	outcome_nback	nback_targetResp
0.0	7.876752399999987	nogo_reward	1.0	0.08559810000002699	1.6547084999997992	4.175332899999887	1.5691103999997722	1.0905352999998854	3.1597241999998005	7.209432299999719	0.5641731999999138	1.0156087000000866	0.7529182000002947	6.202371299999925	1.0	5.193924700000082	1	1	1	1	nogo_reward	1	0	1	0	0	1	0	n/a	0.0	1	1.0	1.0	445.9424715000002	446.0280696000002	447.03300680000007	447.59718	449.1021957	450.11780440000007	451.13639620000026	452.1448428000001	453.1519037999999	453.9048220000002	2020-08-27 10:37:17.488057	-0.0609778832085504	0.0	0.0	0.0	0.0609778832085504	0.0	0.0609778832085504	0.0	0.0	0.0	0.0609778832085504	28.4101438287744	-4.382519110911754	-2.116070311663074	-2.3760270541930444	-4.483851118815171	-2.872847420848339	-2.3760270541930444	22.690001319837208	-4.81569679297657	-0.4331776820648153	-4.428657492554224	-0.06343987330189702	1	missed	0.0
7.9422483999996984	8.620547400000305	go_reward	0.9934044999999968	8.027846499999725	9.588866899999744	12.132545900000025	1.561020400000018	9.032739499999991	11.121240600000021	15.159212699999955	0.5561273999997525	1.0113053000000036	1.4891812000000755	14.152023400000019	1.0	13.143760399999792	1	1	2	2	go_reward	0	0	1	1	1	1	0	n/a	0.0	1	0.9934044999999968	1.0	445.9424715000002	453.9703179999999	454.9752110000002	455.5313383999999	457.0637121000002	458.0750174000002	459.0862319	460.0944949000002	461.10168420000014	462.5908654000002	2020-08-27 10:37:17.488057	0.0609778832085504	0.0	0.0	0.0	0.0609778832085504	0.0	-0.0609778832085504	0.0	0.0	0.0609778832085504	0.0	0.0	-4.260563344494654	-2.116070311663074	-2.3760270541930444	-4.483851118815171	-2.872847420848339	-2.3760270541930444	-5.720142508937193	-4.75471890976802	-0.4941555652733657	-4.428657492554224	-0.06343987330189702	1	missed	0.0
16.59966570000006	9.502685699999802	nogo_reward	0.1881608999997297	16.685263800000087	19.203036099999792	21.738322400000072	2.517772299999706	17.690342899999962	20.730222299999753	24.79670779999975	1.5126931999998305	1.0081001000003198	1.391241700000137	23.790205399999707	0.6384718000003886	22.74897440000001	1	1	3	1	nogo_reward	1	0	1	0	1	0	1	1.0	1.0	0	0.1881608999997297	0.6384718000003886	445.9424715000002	462.62773530000027	463.63281440000014	465.1455076	466.67269379999993	467.68079390000025	468.6914459000002	469.7326768999999	470.73917929999993	472.13042100000007	2020-08-27 10:37:17.488057	-0.266947423408803	0.0	0.414898197478618	0.414898197478618	0.147950774069815	0.414898197478618	0.266947423408803	0.0	0.414898197478618	0.147950774069815	0.414898197478618	0.0	-4.588488651112007	-2.116070311663074	-1.9611288567144265	-4.068952921336552	-2.7858745299870744	-1.9611288567144265	-5.720142508937193	-4.667746018906755	-0.07925736779474768	-4.428657492554224	0.35145832417672096	1	correct	1.0
26.17358759999979	7.917723299999977	go_reward	1.0	26.25918569999982	27.617679699999883	30.13103789999974	1.3584940000000643	27.263219499999707	29.122415899999908	33.1585025	0.354460200000176	1.008621999999832	1.0184064999997986	32.15184109999984	1.0	31.14292819999997	1	1	4	2	go_reward	1	1	0	1	0	0	1	n/a	0.0	0	1.0	1.0	445.9424715000002	472.2016572	473.2056909999999	473.56015120000006	475.0648874000001	476.0735093999999	477.08539970000015	478.0943126	479.1009740000002	480.1193805	2020-08-27 10:37:17.488057	-0.562848971548433	0.414898197478618	0.0	0.414898197478618	0.562848971548433	0.0	0.562848971548433	0.0	0.414898197478618	0.0	0.562848971548433	0.0	-4.884390199251637	-1.7011721141844562	-2.3760270541930444	-4.068952921336552	-2.3709763325084565	-2.3760270541930444	-5.720142508937193	-4.81569679297657	0.06869340627506737	-4.428657492554224	0.35145832417672096	1	missed	0.0
34.13323300000002	8.523869899999681	go_reward	0.734982299999956	34.218831100000045	36.05628489999992	38.60920089999996	1.837453799999878	35.223262900000066	37.59535729999982	41.64059989999993	0.8330219999998576	1.0138436000001434	1.1021010999997998	40.633382199999744	1.0	39.62467290000001	1	1	5	2	go_reward	1	1	0	1	1	1	0	n/a	0.0	0	0.734982299999956	1.0	445.9424715000002	480.1613026000002	481.16573440000025	481.9987564000001	483.5378288	484.55167240000014	485.5671444000002	486.5758536999999	487.5830714000001	488.6851724999999	2020-08-27 10:37:17.488057	0.556864849319176	0.414898197478618	0.0	0.381597662845202	0.556864849319176	0.0	-0.556864849319176	0.414898197478618	0.0	0.556864849319176	0.0	27.995245631295784	-3.764676378384028	-1.7011721141844562	-2.3760270541930444	-4.102253455969969	-2.3769604547377137	-2.3760270541930444	22.27510312235859	-4.258831943657394	-0.4941555652733657	-4.013759295075606	-0.06343987330189702	1	missed	0.0
42.70048539999971	8.252537900000334	go_reward	0.3121833000000151	42.786083499999734	44.21008140000009	46.75382300000007	1.4239979000003586	43.79095889999974	45.74039939999972	49.800619499999925	0.41912250000035556	1.0134236000003511	1.2380019000001425	48.794076399999994	0.5215238999999201	47.76679939999991	1	1	6	2	go_reward	1	1	0	1	1	1	1	1.0	1.0	1	0.3121833000000151	0.5215238999999201	445.9424715000002	488.7285549999999	489.7334303999999	490.1525529000003	491.6828708999999	492.69629450000025	493.7092709000001	494.7365479000002	495.7430910000001	496.98109290000025	2020-08-27 10:37:17.488057	0.518621899013503	0.381597662845202	0.0	0.356202398135596	0.518621899013503	0.0	-0.518621899013503	0.381597662845202	0.0	0.518621899013503	0.0	28.0285461659292	-3.8029193286897005	-1.734472648817872	-2.3760270541930444	-4.1276487206795744	-2.4152034050433864	-2.3760270541930444	22.308403656992006	-4.2970748939630665	-0.4941555652733657	-4.047059829709022	-0.06343987330189702	1	correct	1.0
51.0199874999999	7.708552900000029	go_punish	0.3355594999998175	51.10558559999993	52.38291769999984	54.92328529999992	1.27733209999991	52.10977220000001	53.91472009999973	57.9520135999997	0.27314549999982773	1.0085652000001915	0.8621249000002535	56.94566209999999	1.0	55.93395379999998	1	1	7	4	go_punish	1	0	-1	1	1	1	0	n/a	0.0	-1	0.3355594999998175	1.0	445.9424715000002	497.0480571000001	498.0522437000002	498.3253892	499.8571915999999	500.8657568000001	501.87642530000016	502.8881336000002	503.8944850999999	504.75661000000014	2020-08-27 10:37:17.488057	0.0609778832085504	0.0	0.0	0.0	0.0609778832085504	0.0	-0.0609778832085504	0.0	0.0	0.0609778832085504	0.0	0.0	-4.260563344494654	-2.116070311663074	-2.3760270541930444	-4.483851118815171	-2.872847420848339	-2.3760270541930444	-5.720142508937193	-4.75471890976802	-0.4941555652733657	-4.428657492554224	-0.06343987330189702	1	missed	0.0
58.805514799999855	9.687371999999868	nogo_punish	0.2346936999997524	58.89111289999988	61.50453470000008	64.04549129999992	2.6134218000001965	59.8965531999998	63.035515599999655	67.09339740000001	1.6079815000002782	1.0099757000002683	1.4850874999997359	66.08629179999986	0.8132460000001629	65.05700779999972	1	1	8	3	nogo_punish	0	0	-1	0	1	0	0	0.0	1.0	0	0.2346936999997524	0.8132460000001629	445.9424715000002	504.83358440000006	505.8390247	507.44700620000026	508.97798709999984	509.9879628000001	510.9994792999999	512.0287633	513.0358689000002	514.5209563999999	2020-08-27 10:37:17.488057	0.0609778832085504	0.0	0.0	0.0	0.0609778832085504	0.0	-0.0609778832085504	0.0	0.0	0.0609778832085504	0.0	0.0	-4.260563344494654	-2.116070311663074	-2.3760270541930444	-4.483851118815171	-2.872847420848339	-2.3760270541930444	-5.720142508937193	-4.75471890976802	-0.4941555652733657	-4.428657492554224	-0.06343987330189702	1	correct	1.0
68.53395120000005	9.044740899999852	nogo_reward	1.0	68.61954930000007	70.66522769999989	73.18834619999967	2.045678399999815	69.62472869999971	72.16987889999979	76.25979799999965	1.0404990000001817	1.0184672999998838	1.404492200000277	75.25322949999969	0.8455198999999993	74.22975629999979	1	1	9	1	nogo_reward	1	0	1	0	0	1	0	0.0	1.0	1	1.0	0.8455198999999993	445.9424715000002	514.5620208000003	515.5672001999999	516.6076992000001	518.1123504	519.1308176999999	520.1722278	521.1957009999999	522.2022694999998	523.6067617000001	2020-08-27 10:37:17.488057	0.272931545638059	0.0	0.414898197478618	0.381597662845202	0.141966651840558	0.414898197478618	-0.272931545638059	0.414898197478618	0.0	0.414898197478618	0.141966651840558	27.995245631295784	-4.048609682065145	-2.116070311663074	-1.9611288567144265	-4.102253455969969	-2.7918586522163316	-1.9611288567144265	22.27510312235859	-4.400798595497951	-0.35218891343280767	-4.013759295075606	-0.06343987330189702	1	correct	1.0
77.61637209999981	8.67870640000001	nogo_reward	1.0	77.70197019999983	79.98036860000008	82.49857479999997	2.278398400000242	78.70672679999967	81.48472069999985	85.54216629999979	1.273641800000405	1.0138541000001169	0.8385103000000527	84.53494299999971	0.5424564999998438	83.51083739999973	1	1	10	1	nogo_reward	1	0	1	0	0	1	0	0.0	1.0	1	1.0	0.5424564999998438	445.9424715000002	523.6444417	524.6491982999999	525.9228401000003	527.4271922	528.4410463000002	529.4533088999999	530.4774144999999	531.4846378	532.3231481	2020-08-27 10:37:17.488057	0.572498733294254	0.0	0.79649586032382	0.771100595614214	0.223997127029566	0.79649586032382	-0.572498733294254	0.79649586032382	0.0	0.79649586032382	0.223997127029566	27.613647968450582	-3.7490424944089495	-2.116070311663074	-1.5795311938692245	-3.7127505232009566	-2.7098281770273234	-1.5795311938692245	21.89350545951339	-4.019200932652749	-0.2701584382437997	-3.6321616322304044	-0.06343987330189702	1	correct	1.0
86.34154509999962	9.50498940000034	nogo_reward	1.0	86.42714319999965	88.90503339999992	91.42341569999968	2.4778902000002745	87.43148380000008	90.40985749999987	94.46989080000009	1.473549599999842	1.0135581999998067	1.4622417999999016	93.46281920000007	0.4819745999998304	92.43530100000004	1	1	11	1	nogo_reward	1	0	1	0	0	1	1	1.0	1.0	1	1.0	0.4819745999998304	445.9424715000002	532.3696146999998	533.3739553000003	534.8475049000001	536.352329	537.3658871999999	538.3777725000002	539.4052907000003	540.4123623000003	541.8746041000002	2020-08-27 10:37:17.488057	0.851880829453737	0.0	1.15269825845942	1.13252064689351	0.300817429005679	1.15269825845942	-0.851880829453737	1.15269825845942	0.0	1.15269825845942	0.300817429005679	27.25744557031498	-3.4696603982494665	-2.116070311663074	-1.2233287957336243	-3.351330471921661	-2.6330078750512107	-1.2233287957336243	21.537303061377788	-3.6629985345171496	-0.1933381362676867	-3.2759592340948043	-0.06343987330189702	1	correct	1.0
95.88784709999982	8.961781299999984	go_punish	0.848142899999857	95.97344519999984	98.01602800000006	100.55779629999967	2.0425828000002184	96.9785650999998	99.54817599999984	103.5860558	1.0374629000002642	1.009620299999824	1.3491706999998314	102.57947119999977	1.0	101.57040079999985	1	1	12	4	go_punish	1	0	-1	1	1	1	0	n/a	0.0	-1	0.848142899999857	1.0	445.9424715000002	541.9159167	542.9210366	543.9584995000002	545.4906475	546.5002677999998	547.5128723	548.5219427	549.5285273000002	550.877698	2020-08-27 10:37:17.488057	0.0473129164612898	-0.0114300209910089	0.0	-0.0114300209910089	0.0473129164612898	0.0	-0.0473129164612898	-0.0114300209910089	0.0	0.0473129164612898	0.0	0.0114300209910089	-4.274228311241914	-2.127500332654083	-2.3760270541930444	-4.495281139806179	-2.8865123875956	-2.3760270541930444	-5.708712487946184	-4.76838387651528	-0.4941555652733657	-4.440087513545233	-0.06343987330189702	1	missed	0.0
104.88970070000005	8.753240000000005	nogo_reward	0.4513597000000118	104.97529880000008	106.79082169999998	109.331119	1.8155228999999053	105.97954869999973	108.32192649999985	112.37910190000008	0.8112730000002557	1.0091925000001538	1.3494369000000006	111.37213359999993	0.5608443999999508	110.34239140000005	1	1	13	1	nogo_reward	1	0	1	0	1	0	1	0.0	0.0	0	0.4513597000000118	0.5608443999999508	445.9424715000002	550.9177703000003	551.9220201999999	552.7332932000002	554.264398	555.2735905000002	556.2848629000002	557.3146051000001	558.3215734000003	559.6710103000003	2020-08-27 10:37:17.488057	-1.11543303830625	0.0	1.48872304502911	1.47216090634199	0.373290006722863	1.48872304502911	1.11543303830625	0.0	1.48872304502911	0.373290006722863	1.48872304502911	0.0	-5.436974266009454	-2.116070311663074	-0.8873040091639344	-3.0116902124731806	-2.5605352973340265	-0.8873040091639344	-5.720142508937193	-4.442406786253707	0.9945674797557443	-4.428657492554224	1.425283171727213	1	wrong	1.0
113.68750460000001	8.991935900000044	go_reward	0.0943425999998908	113.77310270000004	116.21289200000007	118.76221679999986	2.4397893000000295	114.77894829999974	117.74669670000009	121.80507939999967	1.4339437000003272	1.015520099999776	0.9599592000004122	120.79841859999993	0.5496619000000464	119.77362809999983	1	1	14	2	go_reward	1	1	0	1	1	1	0	0.0	1.0	1	0.0943425999998908	0.5496619000000464	445.9424715000002	559.7155742000002	560.7214197999999	562.1553635000002	563.6891682000003	564.7046883	565.7160996	566.7408901000001	567.7475508999999	568.7075101000003	2020-08-27 10:37:17.488057	0.990929255987885	0.771100595614214	0.0	0.750922984048312	0.990929255987885	0.0	-0.990929255987885	0.771100595614214	0.0	0.990929255987885	0.0	27.639043233160187	-3.3306119717153186	-1.34496971604886	-2.3760270541930444	-3.7329281347668584	-1.9428960480690045	-2.3760270541930444	21.918900724222993	-3.8247675369886847	-0.4941555652733657	-3.6575568969400103	-0.06343987330189702	1	correct	1.0
122.71887659999993	9.4464281999999	go_punish	1.0	122.80447469999996	125.56325189999967	128.07677309999968	2.758777199999713	123.80875059999977	127.06819009999987	131.1216175	1.7545012999999017	1.0085829999998168	1.1292853999998442	130.1141930999998	0.7175157000001491	129.08883040000006	1	1	15	4	go_punish	0	-1	0	1	0	0	0	1.0	0.0	0	1.0	0.7175157000001491	445.9424715000002	568.7469462000001	569.7512221	571.5057233999999	573.0106616	574.0192445999999	575.0313019000002	576.0566646	577.0640890000002	578.1933744	2020-08-27 10:37:17.488057	-0.0344518272305931	-0.0221828987109648	0.0	-0.0221828987109648	0.0344518272305931	0.0	0.0344518272305931	0.0	-0.0221828987109648	0.0	0.0344518272305931	0.0	-4.355993054933797	-2.138253210374039	-2.3760270541930444	-4.506034017526136	-2.8993734768262964	-2.3760270541930444	-5.720142508937193	-4.81569679297657	-0.4597037380427726	-4.428657492554224	-0.08562277201286181	1	wrong	1.0
132.2064661999998	8.379399100000228	go_punish	0.5433163999996395	132.29206429999982	133.6470517999997	136.19092310000002	1.3549874999998792	133.2962023999999	135.18208529999998	139.23228399999977	0.35084939999978815	1.0088378000000375	1.4391794000002847	138.22539329999978	0.583589800000027	137.20265019999994	1	1	16	4	go_punish	1	0	-1	1	1	1	0	0.0	1.0	0	0.5433163999996395	0.583589800000027	445.9424715000002	578.2345358	579.2386739000001	579.5895232999999	581.1245568000002	582.1333946000002	583.1451217000001	584.1678648	585.1747555	586.6139349000002	2020-08-27 10:37:17.488057	0.0346851869632156	-0.0221828987109648	0.0	-0.0209711192492534	0.0346851869632156	0.0	-0.0346851869632156	-0.0221828987109648	0.0	0.0346851869632156	0.0	0.0221828987109648	-4.2868560407399885	-2.138253210374039	-2.3760270541930444	-4.504822238064424	-2.899140117093674	-2.3760270541930444	-5.697959610226228	-4.7810116060133545	-0.4941555652733657	-4.4508403912651895	-0.06343987330189702	1	correct	1.0
140.62585199999967	8.904561400000148	go_reward	0.2219583999999486	140.7114500999997	142.61622929999982	145.160915	1.904779200000121	141.71545900000007	144.1463962999997	148.20581099999987	0.9007702999997491	1.0145187000002807	1.4102004999999735	147.19903389999996	0.4322216999999	146.17395959999982	1	1	17	2	go_reward	1	1	0	1	1	1	0	0.0	1.0	1	0.2219583999999486	0.4322216999999	445.9424715000002	586.6539215999999	587.6579305000002	588.5587008	590.0888677999999	591.1033865000002	592.1164311	593.1415054000001	594.1482825	595.558483	2020-08-27 10:37:17.488057	1.42976430065663	1.13252064689351	0.0	1.1159585082064	1.42976430065663	0.0	-1.42976430065663	1.13252064689351	0.0	1.42976430065663	0.0	27.27762318188089	-2.891776927046574	-0.9835496647695641	-2.3760270541930444	-3.3678926106087705	-1.5040610034002595	-2.3760270541930444	21.557480672943697	-3.38593249231994	-0.4941555652733657	-3.2961368456607145	-0.06343987330189702	1	correct	1.0
149.57509019999998	9.392363299999943	go_reward	0.2445905999998103	149.6606883	152.08360499999986	154.62819349999978	2.4229166999998597	150.66545679999996	153.61457810000007	157.67024369999996	1.418148199999905	1.0136153999997077	1.3828078999999889	156.66304879999967	0.4160155999998096	155.63914409999967	1	1	18	2	go_reward	1	1	0	1	1	1	0	0.0	1.0	1	0.2445905999998103	0.4160155999998096	445.9424715000002	595.6031598000002	596.6079283000001	598.0260765	599.5570496000003	600.570665	601.5816155999999	602.6055202999999	603.6127152000001	604.9955231000001	2020-08-27 10:37:17.488057	1.84234478567095	1.47216090634199	0.0	1.45820942936358	1.84234478567095	0.0	-1.84234478567095	1.47216090634199	0.0	1.84234478567095	0.0	26.93798292243241	-2.4791964420322534	-0.6439094053210841	-2.3760270541930444	-3.0256416894515907	-1.0914805183859395	-2.3760270541930444	21.217840413495217	-2.9733520073056194	-0.4941555652733657	-2.9564965862122343	-0.06343987330189702	1	correct	1.0
159.00876100000005	7.788034499999867	nogo_reward	1.0	159.09435910000008	160.52859889999996	163.04866210000006	1.4342397999998866	160.10009529999985	162.03332719999986	166.0771347999999	0.4285036000001128	1.015334900000198	0.8052588000000469	165.0711566999999	1.0	164.06232019999976	1	1	19	1	nogo_reward	1	0	1	0	0	1	0	n/a	0.0	1	1.0	1.0	445.9424715000002	605.0368306000003	606.0425668	606.4710704000001	607.9757987	608.9911336000002	610.0047916999999	611.0136282000001	612.0196063000001	612.8248651000001	2020-08-27 10:37:17.488057	1.13363417025756	0.0	1.48872304502911	1.37933601845466	0.355088874771547	1.48872304502911	-1.13363417025756	1.48872304502911	0.0	1.48872304502911	0.355088874771547	26.92142078374529	-3.187907057445644	-2.116070311663074	-0.8873040091639344	-3.1045151003605107	-2.5787364292853425	-0.8873040091639344	21.201278274808097	-3.3269737479474597	-0.1390666905018187	-2.9399344475251143	-0.06343987330189702	1	missed	0.0
166.83866869999974	9.603208500000164	nogo_punish	0.2672339999999167	166.92426679999977	169.6949405000001	172.24144570000004	2.770673700000316	167.9294499999997	171.22662589999987	175.28567929999969	1.7654905000003964	1.0148198000001685	1.2417960000002495	174.27834149999995	0.9528967000001104	173.25343029999982	1	1	20	3	nogo_punish	1	-1	0	0	1	0	0	0.0	1.0	-1	0.2672339999999167	0.9528967000001104	445.9424715000002	612.8667383	613.8719214999999	615.6374120000003	617.1690974	618.1839172000002	619.1959018	620.2208130000001	621.2281507999999	622.4699468000001	2020-08-27 10:37:17.488057	0.0609778832085504	0.0	0.0	0.0	0.0609778832085504	0.0	-0.0609778832085504	0.0	0.0	0.0609778832085504	0.0	-0.825393033002662	-4.260563344494654	-2.116070311663074	-2.3760270541930444	-4.483851118815171	-2.872847420848339	-2.3760270541930444	-6.545535541939855	-4.75471890976802	-0.4941555652733657	-4.428657492554224	-0.06343987330189702	1	correct	1.0
176.48934680000002	8.521221199999673	go_reward	0.2804642999999487	176.57494490000005	178.30049239999977	180.8450039	1.7255474999997205	177.57983040000005	179.83022339999985	183.88922879999978	0.7206619999997201	1.0147805000001426	1.206937299999936	182.88162479999988	0.3776247000000694	181.85754839999987	1	1	21	2	go_reward	1	1	0	1	1	1	0	0.0	1.0	1	0.2804642999999487	0.3776247000000694	445.9424715000002	622.5174164000002	623.5223019000002	624.2429639	625.7726949	626.7874754000002	627.8000199	628.8240963000001	629.8317003	631.0386375999999	2020-08-27 10:37:17.488057	2.23356400644952	1.79423421593328	0.0	1.7822337745663	2.23356400644952	0.0	-2.23356400644952	1.79423421593328	0.0	2.23356400644952	0.0	26.615909612841122	-2.087977221253684	-0.3218360957297941	-2.3760270541930444	-2.701617344248871	-0.7002612976073697	-2.3760270541930444	20.89576710390393	-2.58213278652705	-0.4941555652733657	-2.6344232766209443	-0.06343987330189702	1	correct	1.0
185.05552169999964	8.325951799999984	go_reward	0.2718532000003506	185.14111979999967	186.64034529999986	189.18521849999985	1.4992255000001933	186.14616119999988	188.1717945000001	192.2309664	0.49418409999998403	1.013423999999759	1.2361051999996562	191.22179699999975	0.3732751000002281	190.19699069999984	1	1	22	2	go_reward	1	1	0	1	1	1	0	0.0	1.0	1	0.2718532000003506	0.3732751000002281	445.9424715000002	631.0835912999999	632.0886327000001	632.5828168	634.1142660000003	635.12769	636.1394622	637.1642684999999	638.1734379000002	639.4095430999998	2020-08-27 10:37:17.488057	2.60690196032571	2.10169642244888	0.0	2.09119636096908	2.60690196032571	0.0	-2.60690196032571	2.10169642244888	0.0	2.60690196032571	0.0	26.30844740632552	-1.7146392673774935	-0.014373889214194246	-2.3760270541930444	-2.3926547578460906	-0.32692334373117937	-2.3760270541930444	20.588304897388326	-2.2087948326508595	-0.4941555652733657	-2.3269610701053445	-0.06343987330189702	1	correct	1.0
193.42907160000004	9.058845599999586	go_reward	0.2398650999998608	193.51466970000007	195.51524639999985	198.05702929999967	2.000576699999783	194.51891679999977	197.04612569999978	201.1054848999998	0.996329600000081	1.0109035999998923	1.4680303999998614	200.09794739999967	0.5299090999997134	199.07114589999998	1	1	23	2	go_reward	0	0	1	1	1	1	1	1.0	1.0	0	0.2398650999998608	0.5299090999997134	445.9424715000002	639.4571412000003	640.4613883	641.4577179	642.9885972	643.9995007999999	645.0136174000002	646.0404188999998	647.0479564	648.5159867999998	2020-08-27 10:37:17.488057	2.96493214154395	2.39670753187325	0.0	2.38738925537415	2.96493214154395	0.0	-2.96493214154395	2.39670753187325	0.0	2.96493214154395	0.0	-2.39670753187325	-1.3566090861592537	0.2806372202101759	-2.3760270541930444	-2.0964618634410206	0.031106837487060446	-2.3760270541930444	-8.116850040810442	-1.8507646514326197	-0.4941555652733657	-2.0319499606809743	-0.06343987330189702	1	correct	1.0
202.53309379999973	8.745142700000088	go_punish	1.0	202.61869189999976	204.4026356	206.92831989999974	1.7839437000002363	203.62353510000008	205.90792179999977	209.97624589999992	0.7791004999999132	1.0203980999999658	1.3875886999999238	208.96660769999977	0.7961113999999725	207.94108329999978	1	1	24	4	go_punish	1	0	-1	1	0	0	0	0.0	1.0	-1	1.0	0.7961113999999725	445.9424715000002	648.5611633999999	649.5660066000003	650.3451071000002	651.8503933	652.8707913999999	653.8835548	654.9090792	655.9187174000001	657.3063061	2020-08-27 10:37:17.488057	-0.036094895444008	-0.0209711192492534	0.0	-0.0199974164232264	0.036094895444008	0.0	0.036094895444008	0.0	-0.0209711192492534	0.0	0.036094895444008	-0.825393033002662	-4.357636123147212	-2.1370414309123276	-2.3760270541930444	-4.503848535238397	-2.8977304086128814	-2.3760270541930444	-6.545535541939855	-4.81569679297657	-0.45806066982935767	-4.428657492554224	-0.08441099255115042	1	correct	1.0
211.32351560000006	8.105707399999574	nogo_punish	0.5710627999997087	211.4091137000001	212.96617889999976	215.5184245000001	1.5570651999996699	212.41383649999995	214.5026728999997	218.56019949999978	0.5523423999998158	1.0157516000003852	0.9546215999998822	217.55303469999996	0.8387705000000096	216.53039799999993	1	1	25	3	nogo_punish	1	-1	0	0	1	0	0	0.0	1.0	-1	0.5710627999997087	0.8387705000000096	445.9424715000002	657.3515852000003	658.3563080000001	658.9086503999999	660.4451443999999	661.4608960000003	662.4728695000001	663.4955062000001	664.502671	665.4572925999998	2020-08-27 10:37:17.488057	0.0473129164612898	-0.0114300209910089	0.0	-0.0114300209910089	0.0473129164612898	0.0	-0.0473129164612898	-0.0114300209910089	0.0	0.0473129164612898	0.0	-0.8139630120116531	-4.274228311241914	-2.127500332654083	-2.3760270541930444	-4.495281139806179	-2.8865123875956	-2.3760270541930444	-6.534105520948846	-4.76838387651528	-0.4941555652733657	-4.440087513545233	-0.06343987330189702	1	correct	1.0
219.47419969999964	9.276211100000182	nogo_reward	1.0	219.55979779999967	222.26871119999993	224.78845289999987	2.708913400000256	220.56442359999988	223.7730033999997	227.83563509999982	1.7042876000000433	1.0154495000001589	1.000373800000034	226.82684810000006	0.6388968000001114	225.80127329999965	1	1	26	1	nogo_reward	1	0	1	0	0	1	0	0.0	1.0	1	1.0	0.6388968000001114	445.9424715000002	665.5022692999999	666.5068951000001	668.2111827000001	669.7154748999999	670.7309244	671.7437447999998	672.7693196000002	673.7781066	674.7784804	2020-08-27 10:37:17.488057	1.38154055996616	0.0	1.80818569291169	1.72009875960367	0.426645132945527	1.80818569291169	-1.38154055996616	1.80818569291169	0.0	1.80818569291169	0.426645132945527	26.601958135862713	-2.940000667737044	-2.116070311663074	-0.5678413612813544	-2.7637523592115008	-2.5071801711113624	-0.5678413612813544	20.88181562692552	-3.00751110006488	-0.06751043232783871	-2.6204717996425346	-0.06343987330189702	1	correct	1.0
228.79447889999983	8.268989799999872	go_reward	1.0	228.88007699999986	230.5436382999997	233.05927909999997	1.6635612999998557	229.88555539999976	232.048378	236.10241150000007	0.658082899999954	1.0109010999999555	1.0466552999996566	235.0947837999998	0.9260444999999892	234.07105370000005	1	1	27	2	go_reward	1	1	0	1	0	0	0	1.0	0.0	0	1.0	0.9260444999999892	445.9424715000002	674.8225485	675.8280268999999	676.4861097999999	677.9908495000002	679.0017506000002	680.0135252000002	681.0372553	682.0448830000003	683.0915382999999	2020-08-27 10:37:17.488057	-2.80774790825126	2.26600178743272	0.0	2.25763343523047	2.80774790825126	0.0	2.80774790825126	0.0	2.26600178743272	0.0	2.80774790825126	0.0	-7.129289135954464	0.14993147576964594	-2.3760270541930444	-2.2262176835847005	-0.1260773958056296	-2.3760270541930444	-5.720142508937193	-4.81569679297657	2.3135923429778944	-4.428657492554224	2.2025619141308233	1	wrong	1.0
237.1085393999997	9.077737099999922	nogo_punish	1.0	237.19413749999973	239.5494135999998	242.06823790000004	2.355276100000083	238.19880930000005	241.0542729999998	245.11379459999995	1.350604299999759	1.0139649000002464	1.1580799999996998	244.1057366999999	0.6405405000000428	243.08064139999993	1	1	28	3	nogo_punish	0	0	-1	0	0	1	0	0.0	1.0	-1	1.0	0.6405405000000428	445.9424715000002	683.1366089999999	684.1412808000002	685.4918851	686.9967445	688.0107094000002	689.0231129000001	690.0482082000001	691.0562661000001	692.2143460999998	2020-08-27 10:37:17.488057	-0.0344518272305931	-0.0221828987109648	0.0	-0.0221828987109648	0.0344518272305931	0.0	0.0344518272305931	0.0	-0.0221828987109648	0.0	0.0344518272305931	-0.825393033002662	-4.355993054933797	-2.138253210374039	-2.3760270541930444	-4.506034017526136	-2.8993734768262964	-2.3760270541930444	-6.545535541939855	-4.81569679297657	-0.4597037380427726	-4.428657492554224	-0.08562277201286181	1	correct	1.0
246.22671029999992	9.24382770000011	go_punish	1.0	246.31230839999995	248.64515659999967	251.16510290000002	2.3328481999997166	247.31723709999966	250.15014509999997	254.21060029999995	1.3279195000000072	1.0149578000000474	1.345535800000107	253.20176240000006	0.99138849999963	252.1757616999999	1	1	29	4	go_punish	1	0	-1	1	0	0	0	0.0	1.0	-1	1.0	0.99138849999963	445.9424715000002	692.2547799000001	693.2597085999998	694.5876280999998	696.0926166000002	697.1075744000002	698.1182332000001	699.1442339000002	700.1530718000001	701.4986076000002	2020-08-27 10:37:17.488057	-0.0454606472506367	-0.0209711192492534	-0.0114300209910089	-0.0306166439494783	0.0340306262596278	-0.0114300209910089	0.0454606472506367	-0.0114300209910089	-0.0209711192492534	-0.0114300209910089	0.0340306262596278	-0.8139630120116531	-4.36700187495384	-2.1370414309123276	-2.387457075184053	-4.514467762764649	-2.899794677797262	-2.387457075184053	-6.534105520948846	-4.8271268139675785	-0.46012493901373785	-4.440087513545233	-0.08441099255115042	1	correct	1.0
255.51517889999968	9.258797700000287	go_punish	1.0	255.6007769999997	258.0722686	260.5909265000001	2.471491600000263	256.60577500000005	259.5764227	263.6356243999999	1.4664935999999216	1.0145038000000568	1.2239503000000695	262.6291763	0.6705544000001282	261.60355229999965	1	1	30	4	go_punish	1	0	-1	1	0	0	0	1.0	0.0	-1	1.0	0.6705544000001282	445.9424715000002	701.5432484999999	702.5482465000002	704.0147401000002	705.5188942000002	706.5333980000003	707.5460237999998	708.5716478000002	709.5780959000001	710.8020462000002	2020-08-27 10:37:17.488057	-0.0542546121135652	-0.0209711192492534	-0.0221828987109648	-0.0406754958669049	0.0320717134026004	-0.0221828987109648	0.0542546121135652	-0.0221828987109648	-0.0209711192492534	-0.0221828987109648	0.0320717134026004	-0.8032101342916972	-4.375795839816769	-2.1370414309123276	-2.398209952904009	-4.524526614682076	-2.9017535906542893	-2.398209952904009	-6.52335264322889	-4.837879691687535	-0.4620838518707653	-4.4508403912651895	-0.08441099255115042	1	wrong	1.0
264.8110044	8.47260389999974	go_reward	0.7997354999997697	264.89660250000003	266.46032539999993	269.00897420000007	1.5637228999999024	265.90173899999996	267.9935719999999	272.0544618999998	0.5585863999999674	1.0154022000001532	1.3147444999999607	271.04672309999984	0.8518954000001031	270.0192355	1	1	31	2	go_reward	1	1	0	1	1	1	0	0.0	1.0	1	0.7997354999997697	0.8518954000001031	445.9424715000002	710.8390740000002	711.8442105000001	712.4027969000001	713.9360435000001	714.9514457000002	715.9617070000002	716.9891946	717.9969334	719.3116779	2020-08-27 10:37:17.488057	2.78499930876092	2.26600178743272	0.0	2.15145507553169	2.78499930876092	0.0	-2.78499930876092	2.26600178743272	0.0	2.78499930876092	0.0	26.14414204134168	-1.5365419189422838	0.14993147576964594	-2.3760270541930444	-2.3323960432834805	-0.14882599529596963	-2.3760270541930444	20.423999532404487	-2.0306974842156498	-0.4941555652733657	-2.1626557051215043	-0.06343987330189702	1	correct	1.0
273.32520899999963	8.403268400000343	nogo_reward	1.0	273.41080709999966	274.77946720000006	277.3009355	1.3686601000003975	274.41555569999997	276.28505809999984	280.3463278	0.36391150000008565	1.0158774000001358	1.467747700000018	279.3389213000001	0.7102781999997205	278.3140141999998	1	1	32	1	nogo_reward	1	0	1	0	0	1	0	0.0	1.0	1	1.0	0.7102781999997205	445.9424715000002	719.3532785999998	720.3580272000002	720.7219387000002	722.2275296	723.2434070000002	724.2564857	725.2813928000003	726.2887993000002	727.7565470000002	2020-08-27 10:37:17.488057	1.61933969523139	0.0	2.11369686381585	2.04050513373765	0.494357168584464	2.11369686381585	-1.61933969523139	2.11369686381585	0.0	2.11369686381585	0.494357168584464	26.29644696495855	-2.702201532471814	-2.116070311663074	-0.2623301903771944	-2.4433459850775208	-2.4394681354724255	-0.2623301903771944	20.576304456021358	-2.7019999291607197	0.00020160331109830842	-2.3149606287383744	-0.06343987330189702	1	correct	1.0
281.76630780000005	8.504543199999716	nogo_reward	1.0	281.8519059000001	283.81459950000004	286.3347298999998	1.962693599999966	282.8562792999997	285.3197412	289.37840740000007	0.9583202000003439	1.0149886999997761	0.9780416999997215	288.3723591999997	0.4534874999999374	287.34760190000003	1	1	33	1	nogo_reward	1	0	1	0	0	1	0	0.0	1.0	1	1.0	0.4534874999999374	445.9424715000002	727.7943774000003	728.7987507999999	729.7570710000002	731.2622127000002	732.2772014	733.2900734000002	734.3148306999999	735.3208789000003	736.2989206	2020-08-27 10:37:17.488057	1.84839486143539	0.0	2.40720759335304	2.34487519834164	0.558812731917658	2.40720759335304	-1.84839486143539	2.40720759335304	0.0	2.40720759335304	0.558812731917658	26.002936235421362	-2.4731463662678137	-2.116070311663074	0.031180539159995746	-2.1389759204735306	-2.3750125721392314	0.031180539159995746	20.28279372648417	-2.4084891996235296	0.06465716664429233	-2.0214498992011842	-0.06343987330189702	1	correct	1.0
290.31667119999975	8.134852200000296	go_reward	1.0	290.4022692999998	292.06658459999977	294.5816701999998	1.6643152999999984	291.4067139999998	293.5712801	297.62840710000006	0.6598705999999765	1.0103900999997677	0.908714400000008	296.6185127999998	0.6953650999998899	295.59279040000007	1	1	34	2	go_reward	1	1	0	1	0	0	0	0.0	1.0	0	1.0	0.6953650999998899	445.9424715000002	736.3447408	737.3491855	738.0090561	739.5137516000002	740.5241417	741.5352619000003	742.5609843	743.5708786000002	744.4795930000002	2020-08-27 10:37:17.488057	-3.16007770132149	2.57394463792128	0.0	2.47689717116723	3.16007770132149	0.0	3.16007770132149	0.0	2.57394463792128	0.0	3.16007770132149	0.0	-7.481618929024694	0.4578743262582057	-2.3760270541930444	-2.0069539476479408	0.22625239726460045	-2.3760270541930444	-5.720142508937193	-4.81569679297657	2.6659221360481244	-4.428657492554224	2.510504764619383	1	correct	1.0
298.4982624999998	8.318565999999919	nogo_punish	1.0	298.5838605999998	300.34706599999987	302.8630537999998	1.7632054000000608	299.58834159999975	301.8525891	305.90560310000006	0.7587244000001192	1.0104646999998295	0.9968234999996639	304.8988215	0.7233900999999605	303.87382529999974	1	1	35	3	nogo_punish	1	-1	0	0	0	1	0	0.0	1.0	0	1.0	0.7233900999999605	445.9424715000002	744.5263321	745.5308130999999	746.2895375	747.7950606000002	748.8055253	749.8162967999999	750.8412930000002	751.8480746000002	752.8448980999999	2020-08-27 10:37:17.488057	-0.0438802621979728	-0.0221828987109648	-0.0114300209910089	-0.0324011402402623	0.0324502412069638	-0.0114300209910089	0.0438802621979728	-0.0114300209910089	-0.0221828987109648	-0.0114300209910089	0.0324502412069638	0.0114300209910089	-4.365421489901176	-2.138253210374039	-2.387457075184053	-4.516252259055433	-2.901375062849926	-2.387457075184053	-5.708712487946184	-4.8271268139675785	-0.46170532406640186	-4.440087513545233	-0.08562277201286181	1	correct	1.0
306.86098979999997	8.010331199999655	nogo_punish	0.2635064999999486	306.9465879	308.48659129999993	311.0314463	1.5400033999999323	307.95185339999995	310.0171486	314.07415389999966	0.5347378999999819	1.0142977000000428	0.8827651999999944	313.0669905999999	0.8896450000002005	312.0436037	1	1	36	3	nogo_punish	1	-1	0	0	1	0	0	0.0	1.0	-1	0.2635064999999486	0.8896450000002005	445.9424715000002	752.8890594000002	753.8943249000001	754.4290628000001	755.9596201000002	756.9739178000002	757.9860752000002	759.0094621000001	760.0166253999998	760.8993905999998	2020-08-27 10:37:17.488057	0.0435277821915116	-0.0221828987109648	-0.0107528777199558	-0.0307502941431822	0.0327749044715558	-0.0107528777199558	-0.0435277821915116	-0.0221828987109648	-0.0107528777199558	0.0327749044715558	-0.0107528777199558	-0.8032101342916972	-4.278013445511692	-2.138253210374039	-2.3867799319130003	-4.514601412958353	-2.901050399585334	-2.3867799319130003	-6.52335264322889	-4.7829218885050135	-0.5049084429933215	-4.4508403912651895	-0.07419275102185281	1	correct	1.0
314.9130038999997	9.593717300000208	nogo_reward	1.0	314.9986019999997	317.76033609999973	320.2782650999998	2.7617341000000124	316.00395099999974	319.2645343	323.32270479999994	1.7563850999999886	1.0137307999998484	1.2696144999999888	322.3152406	0.5513928999998825	321.2886755	1	1	37	1	nogo_reward	1	0	1	0	0	1	0	0.0	1.0	1	1.0	0.5513928999998825	445.9424715000002	760.9410734999999	761.9464224999999	763.7028075999999	765.2070058000002	766.2207366	767.2311470000002	768.2577121000002	769.2651763000001	770.5347908000001	2020-08-27 10:37:17.488057	2.06976571594181	0.0	2.69021826141044	2.63607965288391	0.62045254546863	2.69021826141044	-2.06976571594181	2.69021826141044	0.0	2.69021826141044	0.62045254546863	25.719925567363962	-2.2517755117613936	-2.116070311663074	0.3141912072173958	-1.8477714659312605	-2.3133727585882595	0.3141912072173958	19.999783058426768	-2.1254785315661295	0.12629698019526436	-1.7384392311437842	-0.06343987330189702	1	correct	1.0
324.55365219999976	8.29613240000026	nogo_punish	0.2956572999996751	324.6392502999998	326.10630640000005	328.6505171999998	1.4670561000002635	325.64372949999967	327.6352542	331.6933079000001	0.46257690000038565	1.015262999999777	1.2420747999999548	330.68611229999993	0.5604583999997885	329.66168440000007	1	1	38	3	nogo_punish	1	-1	0	0	1	0	1	0.0	0.0	-1	0.2956572999996751	0.5604583999997885	445.9424715000002	770.5817218	771.5862009999998	772.0487779000002	773.5777257000002	774.5929887	775.6041559000003	776.6285838000001	777.6357794000003	778.8778542000002	2020-08-27 10:37:17.488057	0.0313518969649455	-0.0324011402402623	-0.0107528777199558	-0.0408348854787759	0.0205990192449896	-0.0107528777199558	-0.0313518969649455	-0.0324011402402623	-0.0107528777199558	0.0205990192449896	-0.0107528777199558	-0.7929918927623997	-4.290189330738258	-2.1484714519033363	-2.3867799319130003	-4.5246860042939465	-2.9132262848119	-2.3867799319130003	-6.513134401699593	-4.79509777373158	-0.5049084429933215	-4.4610586327944866	-0.07419275102185281	1	wrong	1.0
332.8895660999997	8.719151700000111	nogo_punish	0.3613239000001158	332.9751641999997	335.1428134999997	337.6875969999997	2.1676492999999937	333.9794315999998	336.67365069999965	340.73129339999974	1.1633818999998766	1.0139463000000433	0.9630225000000792	339.7244643999998	0.4821277999999438	338.6990541999999	1	1	39	3	nogo_punish	1	-1	0	0	1	0	0	0.0	1.0	-1	0.3613239000001158	0.4821277999999438	445.9424715000002	778.9176356999999	779.9219031	781.0852849999999	782.6161221999998	783.6300684999999	784.6415257000001	785.6669359	786.6737648999999	787.6367874	2020-08-27 10:37:17.488057	0.0197051127459588	-0.0421803151341911	-0.0107528777199558	-0.0504546707608337	0.0089522350260029	-0.0107528777199558	-0.0197051127459588	-0.0421803151341911	-0.0107528777199558	0.0089522350260029	-0.0107528777199558	-0.7832127178684709	-4.301836114957245	-2.1582506267972654	-2.3867799319130003	-4.534305789576004	-2.9248730690308866	-2.3867799319130003	-6.503355226805664	-4.806744557950567	-0.5049084429933215	-4.470837807688415	-0.07419275102185281	1	correct	1.0
341.6551393999998	7.656427899999926	go_reward	1.0	341.74073749999985	343.0874261999998	345.60238110000006	1.3466886999999588	342.74590019999965	344.59193029999966	348.6301475000001	0.3415260000001581	1.0104508000003989	0.7670178999997006	347.6233846999999	1.0	346.6147352999997	1	1	40	2	go_reward	1	1	0	1	0	0	0	n/a	0.0	0	1.0	1.0	445.9424715000002	787.683209	788.6883716999998	789.0298977	790.5344017999998	791.5448526000002	792.5572067999999	793.5658562000001	794.5726190000003	795.3396369	2020-08-27 10:37:17.488057	-3.13657964854826	2.57394463792128	0.0	2.36649291550326	3.13657964854826	0.0	3.13657964854826	0.0	2.57394463792128	0.0	3.13657964854826	0.0	-7.4581208762514635	0.4578743262582057	-2.3760270541930444	-2.1173582033119107	0.20275434449137064	-2.3760270541930444	-5.720142508937193	-4.81569679297657	2.6424240832748946	-4.428657492554224	2.510504764619383	1	missed	0.0
349.36421359999986	9.19572079999989	nogo_punish	0.3082753000003322	349.4498116999999	351.6678988999998	354.2120261999999	2.2180871999999	350.4542769	353.1968540999997	357.2601218999999	1.2136219999997593	1.0151721000001999	1.3854105999998865	356.2530991999998	0.857823499999995	355.2233062000001	1	1	41	3	nogo_punish	1	-1	0	0	1	0	1	1.0	1.0	-1	0.3082753000003322	0.857823499999995	445.9424715000002	795.3922832000001	796.3967484000002	797.6103704	799.1393255999999	800.1544977000001	801.1657777000003	802.1955707	803.2025934000001	804.588004	2020-08-27 10:37:17.488057	0.008507711938568	-0.0515877631987317	-0.0107528777199558	-0.0596941146198575	-0.0022451657813878	-0.0107528777199558	-0.008507711938568	-0.0515877631987317	-0.0107528777199558	-0.0022451657813878	-0.0107528777199558	-0.7738052698039303	-4.313033515764635	-2.167658074861806	-2.3867799319130003	-4.543545233435028	-2.9360704698382776	-2.3867799319130003	-6.4939477787411235	-4.817941958757958	-0.5049084429933215	-4.480245255752956	-0.07419275102185281	1	correct	1.0
358.6047248	8.529942499999834	go_punish	1.0	358.6903229	360.4722364	362.9866478999998	1.7819134999999733	359.6950712999997	361.97642009999987	366.0307644	0.7771651000002748	1.0102277999999387	1.1895009999998365	365.0240718999999	0.5646342999998524	363.9983800999999	1	1	42	4	go_punish	0	-1	0	1	0	0	0	0.0	1.0	0	1.0	0.5646342999998524	445.9424715000002	804.6327944000002	805.6375427999999	806.4147079000002	807.9188916	808.9291194	809.9408516000001	810.9665434000001	811.9732359000002	813.1627369	2020-08-27 10:37:17.488057	-0.0626035278601106	-0.0209711192492534	-0.0324011402402623	-0.0502866665553169	0.0302023876198482	-0.0324011402402623	0.0626035278601106	-0.0324011402402623	-0.0209711192492534	-0.0324011402402623	0.0302023876198482	0.0324011402402623	-4.384144755563314	-2.1370414309123276	-2.4084281944333066	-4.534137785370487	-2.9036229164370413	-2.4084281944333066	-5.687741368696931	-4.848097933216832	-0.46395317765351746	-4.4610586327944866	-0.08441099255115042	1	correct	1.0
367.175025	8.852651700000024	go_punish	0.3894369999998162	367.26062310000003	369.23762619999985	371.77915390000004	1.9770030999998198	368.2651913	370.7691519999999	374.8303363999999	0.9724348999998256	1.010001900000134	1.2829384000001482	373.8230475000001	0.6847228000001451	372.79032049999984	1	1	43	4	go_punish	1	0	-1	1	1	1	0	0.0	1.0	0	0.3894369999998162	0.6847228000001451	445.9424715000002	813.2030946000002	814.2076628000002	815.1800977	816.7116235000001	817.7216254000002	818.732792	819.7655190000003	820.7728079000001	822.0557463000002	2020-08-27 10:37:17.488057	0.061395832086133	-0.0209711192492534	-0.0307502941431822	-0.0480955833307491	0.0306455379429507	-0.0307502941431822	-0.061395832086133	-0.0209711192492534	-0.0307502941431822	0.0306455379429507	-0.0307502941431822	0.0209711192492534	-4.26014539561707	-2.1370414309123276	-2.4067773483362265	-4.53194670214592	-2.9031797661139387	-2.4067773483362265	-5.6991713896879395	-4.785051255033619	-0.5249058594165479	-4.449628611803478	-0.09419016744507921	1	correct	1.0
376.07636569999977	8.346403200000168	nogo_punish	0.2991974999999911	376.1619637999998	378.01490389999987	380.5614338000001	1.852940100000069	377.16732519999965	379.5444745999999	383.60565679999996	0.8475787000002128	1.0169592000002012	0.9027102000000014	382.59843259999985	0.5728030000000217	381.5732746999998	1	1	44	3	nogo_punish	1	-1	0	0	1	0	0	0.0	1.0	-1	0.2991974999999911	0.5728030000000217	445.9424715000002	822.1044353	823.1097966999998	823.9573754	825.4869461000001	826.5039053000003	827.5157462	828.5409041	829.5481283000001	830.4508385000001	2020-08-27 10:37:17.488057	-0.0022993069721693	-0.0606729122901313	-0.0107528777199558	-0.0686107534131576	-0.0130521846921251	-0.0107528777199558	0.0022993069721693	-0.0606729122901313	-0.0107528777199558	-0.0130521846921251	-0.0107528777199558	-0.7647201207125307	-4.323840534675373	-2.1767432239532054	-2.3867799319130003	-4.552461872228328	-2.946877488749015	-2.3867799319130003	-6.484862629649724	-4.8287489776686945	-0.5049084429933215	-4.489330404844356	-0.07419275102185281	1	correct	1.0
384.47257899999977	8.658980799999881	nogo_punish	0.7359311999998681	384.5581770999998	386.42000239999976	388.97157299999986	1.861825299999964	385.5633727	387.955544	392.01819889999985	0.8566296999997576	1.0160289999998895	1.1989589999998316	391.00978889999993	0.5410568000002058	389.98393949999996	1	1	45	3	nogo_punish	1	-1	0	0	1	0	0	0.0	1.0	-1	0.7359311999998681	0.5410568000002058	445.9424715000002	830.5006486	831.5058442000002	832.3624738999999	833.8980155000002	834.9140445	835.9264110000001	836.9522604000001	837.9606704	839.1596293999999	2020-08-27 10:37:17.488057	-0.0127610541473739	-0.0694732895137863	-0.0107528777199558	-0.0772459384031847	-0.0235139318673297	-0.0107528777199558	0.0127610541473739	-0.0694732895137863	-0.0107528777199558	-0.0235139318673297	-0.0107528777199558	-0.7559197434888757	-4.334302281850578	-2.1855436011768603	-2.3867799319130003	-4.561097057218356	-2.9573392359242194	-2.3867799319130003	-6.476062252426068	-4.839210724843899	-0.5049084429933215	-4.498130782068011	-0.07419275102185281	1	correct	1.0
393.1756780999999	8.42403000000013	go_reward	0.2167407000001731	393.26127619999994	395.1833318999998	397.72493379999975	1.9220556999998735	394.2666144999999	396.71467450000006	400.77359889999985	0.916717399999925	1.0102592999996887	0.9117073000002165	399.76683599999984	0.828143899999759	398.7369168999999	1	1	46	2	go_reward	0	0	1	1	1	1	0	0.0	1.0	0	0.2167407000001731	0.828143899999759	445.9424715000002	839.2037477000001	840.2090860000001	841.1258034	842.6571460000002	843.6674052999999	844.6793884000001	845.7093075	846.7160704	847.6277777000003	2020-08-27 10:37:17.488057	3.11600898370318	2.57394463792128	0.0	2.2734273526608	3.11600898370318	0.0	-3.11600898370318	2.57394463792128	0.0	3.11600898370318	0.0	-2.57394463792128	-1.2055322440000236	0.4578743262582057	-2.3760270541930444	-2.2104237661543706	0.18218367964629056	-2.3760270541930444	-8.294087146858473	-1.6996878092733896	-0.4941555652733657	-1.8547128546329446	-0.06343987330189702	1	correct	1.0
401.6524999999997	8.579956500000208	go_reward	0.3960467000001699	401.7380980999997	403.3860187000001	405.926141	1.6479206000003614	402.74274440000005	404.9158343999998	408.9740690999998	0.64327430000003	1.010306600000149	1.3439855000001444	407.9671108999997	0.9591222000003654	406.9419086999997	1	1	47	2	go_reward	0	0	1	1	1	1	0	0.0	1.0	0	0.3960467000001699	0.9591222000003654	445.9424715000002	847.6805695999999	848.6852159000002	849.3284902000003	850.8583059	851.8686125000002	852.8843801999999	853.9095823999999	854.9165406	856.2605261000001	2020-08-27 10:37:17.488057	2.97436209240999	2.45054273179959	0.0	2.19298319017688	2.97436209240999	0.0	-2.97436209240999	2.45054273179959	0.0	2.97436209240999	0.0	-2.45054273179959	-1.3471791352932136	0.3344724201365157	-2.3760270541930444	-2.2908679286382907	0.040536788353100484	-2.3760270541930444	-8.170685240736782	-1.8413347005665797	-0.4941555652733657	-1.9781147607546345	-0.06343987330189702	1	correct	1.0
410.27466289999984	9.777659100000164	go_punish	1.0	410.36026099999987	413.09415270000005	415.6116797	2.7338917000001857	411.36538369999977	414.5988914	418.65748649999983	1.728769000000284	1.012788300000011	1.4804336000001967	417.65033550000004	0.9126505999997788	416.6233432999998	1	1	48	4	go_punish	1	0	-1	1	0	0	0	0.0	1.0	-1	1.0	0.9126505999997788	445.9424715000002	856.3027325	857.3078552	859.0366242000002	860.5413629000002	861.5541512000002	862.5658148	863.5928070000002	864.599958	866.0803916000002	2020-08-27 10:37:17.488057	-0.0627540418442856	-0.0199974164232264	-0.0307502941431822	-0.0462626624685649	0.0320037477011034	-0.0307502941431822	0.0627540418442856	-0.0307502941431822	-0.0199974164232264	-0.0307502941431822	0.0320037477011034	-0.7946427388594798	-4.384295269547489	-2.1360677280863007	-2.4067773483362265	-4.5301137812837355	-2.9018215563557863	-2.4067773483362265	-6.514785247796673	-4.846447087119752	-0.4621518175722623	-4.4594077866974065	-0.08343728972512342	1	correct	1.0
420.1049211999998	9.368210399999953	nogo_punish	0.2874432999997225	420.19051929999983	423.02751889999996	425.5778603999998	2.8369996000001265	421.19543059999984	424.5618206	428.6226871999998	1.8320883000001231	1.0160397999998168	0.936042499999985	427.61512550000003	0.5095827000000099	426.59043769999977	1	1	49	3	nogo_punish	1	-1	0	0	1	0	0	0.0	1.0	-1	0.2874432999997225	0.5095827000000099	445.9424715000002	866.1329908	867.1379021	868.9699904000001	870.5042921000002	871.5203319	872.5329092	873.5575970000002	874.5651587	875.5012012	2020-08-27 10:37:17.488057	-0.0229129519868279	-0.0780182014776982	-0.0107528777199558	-0.0856307043085675	-0.0336658297067837	-0.0107528777199558	0.0229129519868279	-0.0780182014776982	-0.0107528777199558	-0.0336658297067837	-0.0107528777199558	-0.7473748315249638	-4.344454179690032	-2.1940885131407724	-2.3867799319130003	-4.569481823123738	-2.9674911337636733	-2.3867799319130003	-6.467517340462157	-4.849362622683353	-0.5049084429933215	-4.506675694031922	-0.07419275102185281	1	correct	1.0
429.52474329999995	8.476411199999802	nogo_punish	0.3504107999997359	429.6103414	431.4575495999998	433.9988998999998	1.8472081999998409	430.61481469999995	432.9885801000001	437.04300169999993	0.8427348999998685	1.0103197999997064	1.04375089999985	436.03369019999997	0.487366700000166	435.0095969999998	1	1	50	3	nogo_punish	0	0	-1	0	1	0	0	0.0	1.0	0	0.3504107999997359	0.487366700000166	445.9424715000002	875.5528129000002	876.5572862000001	877.4000211	878.9310516000003	879.9413714	880.9520685	881.9761617000001	882.9854732000001	884.0292241	2020-08-27 10:37:17.488057	-0.0327834478791556	-0.0863310874945842	-0.0107528777199558	-0.0937891706577422	-0.0435363255991114	-0.0107528777199558	0.0327834478791556	-0.0863310874945842	-0.0107528777199558	-0.0435363255991114	-0.0107528777199558	0.0863310874945842	-4.354324675582359	-2.2024013991576585	-2.3867799319130003	-4.577640289472913	-2.977361629656001	-2.3867799319130003	-5.6338114214426085	-4.859233118575681	-0.5049084429933215	-4.514988580048809	-0.07419275102185281	1	correct	1.0
438.0471066	7.968813599999976	nogo_reward	0.6646474999997736	438.13270470000003	439.59932209999994	442.1451791	1.4666173999999046	439.13669050000004	441.1293059	445.17398299999974	0.4626315999998951	1.0158731999999873	0.9275353000002724	444.16684519999995	1.0	443.1575120999997	1	1	51	1	nogo_reward	0	1	0	0	1	0	0	n/a	0.0	0	0.6646474999997736	1.0	445.9424715000002	884.0751762000002	885.0791620000002	885.5417936000001	887.0717774000002	888.0876506000002	889.0999835999999	890.1093167000001	891.1164544999999	892.0439898000002	2020-08-27 10:37:17.488057	-2.28429072283804	0.0	2.96391065296873	2.91613215650963	0.679619930130687	2.96391065296873	2.28429072283804	0.0	2.96391065296873	0.679619930130687	2.96391065296873	28.4101438287744	-6.605831950541244	-2.116070311663074	0.5878835987756856	-1.5677189623055408	-2.2542053739262027	0.5878835987756856	22.690001319837208	-4.136076862845883	2.4697550876953644	-4.428657492554224	2.900470779666833	1	missed	0.0
446.0561706999997	9.41390170000011	nogo_reward	0.3341325000001234	446.14176879999974	448.56797049999983	451.10930209999975	2.4262017000000924	447.1463878	450.09903489999994	454.15968200000003	1.4215826999998171	1.0102671999998165	1.3959884999998167	453.1527213	0.471052200000031	452.1259605000001	1	1	52	1	nogo_reward	1	0	1	0	1	0	0	0.0	1.0	0	0.3341325000001234	0.471052200000031	445.9424715000002	892.0842402999999	893.0888593000002	894.510442	896.0415064000001	897.0517735999999	898.0684320000003	899.0951928000002	900.1021535000002	901.498142	2020-08-27 10:37:17.488057	-2.31429424095396	0.0	2.96391065296873	2.77161234448826	0.649616412014772	2.96391065296873	2.31429424095396	0.0	2.96391065296873	0.649616412014772	2.96391065296873	0.0	-6.635835468657164	-2.116070311663074	0.5878835987756856	-1.7122387743269107	-2.2842088920421175	0.5878835987756856	-5.720142508937193	-4.166080380961798	2.4697550876953644	-4.428657492554224	2.900470779666833	1	correct	1.0
455.52220409999984	9.735295899999983	go_punish	1.0	455.60780219999987	458.56741519999986	461.0870765	2.9596129999999903	456.6116708	460.0718201	464.13168219999983	1.955744399999844	1.0152563999999984	1.21141590000002	463.1238822999998	0.5418051999999989	462.099546	1	1	53	4	go_punish	1	0	-1	1	0	0	0	0.0	1.0	-1	1.0	0.5418051999999989	445.9424715000002	901.5502737	902.5541423000002	904.5098867	906.0142916000002	907.0295480000002	908.0420175000002	909.0663538	910.0741537	911.2855696	2020-08-27 10:37:17.488057	-0.0709421351402699	-0.0199974164232264	-0.0408348854787759	-0.0561146730954022	0.0301072496614939	-0.0408348854787759	0.0709421351402699	-0.0408348854787759	-0.0199974164232264	-0.0408348854787759	0.0301072496614939	-0.7845581475238861	-4.392483362843474	-2.1360677280863007	-2.4168619396718203	-4.539965791910573	-2.9037180543953958	-2.4168619396718203	-6.504700656461079	-4.856531678455346	-0.46404831561187176	-4.469492378033	-0.08343728972512342	1	correct	1.0
465.30249649999996	8.355585400000223	nogo_reward	1.0	465.3880946	466.7208412999998	469.2409232999998	1.3327466999998023	466.39252089999985	468.2260179999998	472.28732629999985	0.3283203999999387	1.0149053000000094	1.4563537000003635	471.2782330999998	0.9707520999995722	470.2531977999998	1	1	54	1	nogo_reward	1	0	1	0	0	1	1	0.0	0.0	1	1.0	0.9707520999995722	445.9424715000002	911.3305661000002	912.3349924	912.6633128	914.1684895	915.1833948	916.1956693	917.2207046	918.2297978	919.6861515000004	2020-08-27 10:37:17.488057	2.34028816583382	0.0	2.96391065296873	2.65184444375102	0.623622487134907	2.96391065296873	-2.34028816583382	2.96391065296873	0.0	2.96391065296873	0.623622487134907	25.446233175805673	-1.9812530618693835	-2.116070311663074	0.5878835987756856	-1.8320066750641506	-2.310202816921983	0.5878835987756856	19.72609066686848	-1.8517861400078397	0.1294669218615413	-1.4647468395854943	-0.06343987330189702	1	wrong	1.0
473.72715960000016	7.8093666999996	nogo_punish	0.4012876000001597	473.8127577000002	475.13751289999976	477.67788799999977	1.3247551999995721	474.8187540999998	476.6670964999998	480.7298314	0.31875879999995504	1.010791499999982	0.8922929999997677	479.72179869999985	0.770845399999871	478.6900925999998	1	1	55	3	nogo_punish	0	0	-1	0	1	0	0	0.0	1.0	0	0.4012876000001597	0.770845399999871	445.9424715000002	919.7552292000004	920.7612256	921.0799844	922.609568	923.6203595	924.6325641	925.6642702	926.6723029000002	927.5645959	2020-08-27 10:37:17.488057	-0.0287308666977251	-0.0830010605412136	-0.0107528777199558	-0.0903106017588545	-0.0394837444176809	-0.0107528777199558	0.0287308666977251	-0.0830010605412136	-0.0107528777199558	-0.0394837444176809	-0.0107528777199558	0.0830010605412136	-4.350272094400929	-2.199071372204288	-2.3867799319130003	-4.5741617205740255	-2.9733090484745706	-2.3867799319130003	-5.63714144839598	-4.855180537394251	-0.5049084429933215	-4.511658553095438	-0.07419275102185281	1	correct	1.0
481.5831722999998	8.043971700000384	nogo_punish	0.2868209999996907	481.6687703999998	483.3680981999998	485.91354340000004	1.6993277999999918	482.6727429999998	484.89834219999983	488.9568210999998	0.6953551999999945	1.015201200000206	0.7559210000003986	487.94945190000004	0.7280728000000636	486.92591139999985	1	1	56	3	nogo_punish	1	-1	0	0	1	0	0	0.0	1.0	-1	0.2868209999996907	0.7280728000000636	445.9424715000002	927.6112419	928.6152145	929.3105697	930.8408137	931.8560149000002	932.8683829	933.8919234000002	934.8992926	935.6552136000004	2020-08-27 10:37:17.488057	-0.0252434476858967	-0.0801511839106894	-0.0107528777199558	-0.0873179478732561	-0.0359963254058526	-0.0107528777199558	0.0252434476858967	-0.0801511839106894	-0.0107528777199558	-0.0359963254058526	-0.0107528777199558	-0.7452418490919726	-4.346784675389101	-2.1962214955737633	-2.3867799319130003	-4.571169066688427	-2.969821629462742	-2.3867799319130003	-6.465384358029166	-4.851693118382422	-0.5049084429933215	-4.508808676464914	-0.07419275102185281	1	correct	1.0
489.67368439999984	8.026112299999909	go_punish	1.0	489.75928249999987	491.2629177999998	493.7815524999998	1.503635299999928	490.76362509999984	492.76743709999977	496.8316261999998	0.4992926999999554	1.014115400000037	0.9537685999999894	495.8240268	0.7361155999997209	494.7938206999998	1	1	57	4	go_punish	1	0	-1	1	0	0	0	0.0	1.0	-1	1.0	0.7361155999997209	445.9424715000002	935.701754	936.7060966	937.2053893	938.7099086	939.724024	940.7362922	941.7664983000002	942.7740977	943.7278663	2020-08-27 10:37:17.488057	-0.0787553290861073	-0.0199974164232264	-0.0504546707608337	-0.0654788682176299	0.0283006583252736	-0.0504546707608337	0.0787553290861073	-0.0504546707608337	-0.0199974164232264	-0.0504546707608337	0.0283006583252736	-0.7749383622418283	-4.400296556789311	-2.1360677280863007	-2.426481724953878	-4.549329987032801	-2.905524645731616	-2.426481724953878	-6.495080871179021	-4.8661514637374035	-0.46585490694809206	-4.479112163315058	-0.08343728972512342	1	correct	1.0
497.75267570000017	8.162659999999846	go_punish	1.0	497.8382738000002	499.2303958999998	501.74539680000004	1.3921220999995967	498.8438280000002	500.7354037999998	504.7918249	0.38656789999959074	1.009993000000236	1.2091089000000466	503.7847631	0.4870650999996542	502.7578902999998	1	1	58	4	go_punish	0	-1	0	1	0	0	0	0.0	1.0	0	1.0	0.4870650999996542	445.9424715000002	943.7807453000004	944.7862995000004	945.1728674	946.6778753	947.6878683000002	948.7003618	949.7272346000002	950.7342964000002	951.9434053000002	2020-08-27 10:37:17.488057	-0.0862649117558059	-0.0199974164232264	-0.0596941146198575	-0.0744540057537556	0.0265707971359485	-0.0596941146198575	0.0862649117558059	-0.0596941146198575	-0.0199974164232264	-0.0596941146198575	0.0265707971359485	0.0596941146198575	-4.40780613945901	-2.1360677280863007	-2.435721168812902	-4.558305124568927	-2.9072545069209412	-2.435721168812902	-5.660448394317336	-4.875390907596427	-0.4675847681374172	-4.488351607174081	-0.08343728972512342	1	correct	1.0
505.9571493999998	9.149359400000208	go_punish	1.0	506.04274749999985	508.61411830000003	511.12813680000005	2.5713708000001816	507.04724489999984	510.11910059999985	514.1714588999998	1.5668734000001905	1.009036200000196	1.0206480000002784	513.1651155	0.5130644999999276	512.1389322	1	1	59	4	go_punish	0	-1	0	1	0	0	1	0.0	0.0	0	1.0	0.5130644999999276	445.9424715000002	951.985219	952.9897164	954.5565898000002	956.0615721	957.0706083000002	958.0814037000002	959.1075870000002	960.1139304	961.1345784000002	2020-08-27 10:37:17.488057	-0.0843233137267191	-0.0199974164232264	-0.0571807324221487	-0.0716752273478403	0.0271425813045705	-0.0571807324221487	0.0843233137267191	-0.0571807324221487	-0.0199974164232264	-0.0571807324221487	0.0271425813045705	0.0571807324221487	-4.4058645414299225	-2.1360677280863007	-2.433207786615193	-4.555526346163011	-2.906682722752319	-2.433207786615193	-5.662961776515044	-4.872877525398718	-0.4670129839687952	-4.485838224976373	-0.08343728972512342	1	wrong	1.0
515.1534555999998	8.898305899999968	go_punish	0.3042163000000073	515.2390536999999	517.7815593999999	520.3195732999998	2.5425056999999924	516.2434389	519.3094076999996	523.3649395999998	1.5381204999997635	1.010165600000164	0.772420000000011	522.3584658	0.4707243000002563	521.3321606999998	1	1	60	4	go_punish	1	0	-1	1	1	1	1	1.0	1.0	0	0.3042163000000073	0.4707243000002563	445.9424715000002	961.1815252	962.1859104000002	963.7240309	965.2518791999998	966.2620448	967.2746322	968.3009373000002	969.3074111	970.0798311	2020-08-27 10:37:17.488057	0.0827095322822806	-0.0199974164232264	-0.0550630396922199	-0.0692951694357469	0.0276464925900607	-0.0550630396922199	-0.0827095322822806	-0.0199974164232264	-0.0550630396922199	0.0276464925900607	-0.0550630396922199	0.0199974164232264	-4.238831695420923	-2.1360677280863007	-2.431090093885264	-4.553146288250917	-2.906178811466829	-2.431090093885264	-5.700145092513966	-4.788050300386509	-0.5492186049655856	-4.448654908977451	-0.11850291299411692	1	correct	1.0
