onset	duration	trial_type	response_time	cueOnset	targetOnset	fbOnset	cueRT	firstfixOnset	secondfixOnset	waitOnset	firstfixdur	secondfixdur	waitdur	nback_fbOnset	nback_response_time	nback_targetOnset	block	wm	trial	cue	cond	is_common	outcome_go	outcome_nogo	key_correct	key_pressed	is_correct	key_correct_nback	key_pressed_nback	is_correct_nback	outcome	rt	rt_nback	time_scan	time_onset	time_isi1	time_circle	time_isi2	time_feedback	time_same	time_correct	time_iti	time_done	timestamp_scan	DV	Qgo	Qnogo	SV	Wgo	Wnogo	mDV	Qchosen	Qunchosen	Wchosen	Wunchosen	PE	DVC	QgoC	QnogoC	SVC	WgoC	WnogoC	PEC	WchosenC	WunchosenC	QchosenC	QunchosenC	run	outcome_nback	nback_targetResp
0.0	8.154070000048023	nogo_reward	0.6247599999187514	0.010525399935431778	1.2865668999729678	3.827157199965086	1.276041500037536	1.0150328000308946	2.8167833000188693	6.880759399966109	0.2715340999420732	1.0103738999462166	1.2838360000173452	5.8724324000065735	0.8253310999134555	4.844190499977685	2	1	61	4	nogo_reward	1	0	1	0	1	0	0	0.0	1.0	0	0.6247599999187514	0.8253310999134555	2037.980765699991	2037.9912910999265	2038.995798500022	2039.267332599964	2040.79754900001	2041.807922899956	2042.8249561999687	2043.8531980999976	2044.8615250999571	2046.1453610999745	2020-09-10 10:47:50.565154	5.94487386091568	5.94871663410223	3.77509120330316	8.36805557277036	9.71996506421884	3.77509120330316	-5.94487386091568	5.94871663410223	3.77509120330316	9.71996506421884	3.77509120330316	-5.94871663410223	-12.563528600741659	-3.181795409598286	-6.444338831288921	-10.920468632164443	-12.916549980616438	-6.444338831288921	-11.343606133356289	-15.962208706323558	-3.3986801055818736	-12.994033915946194	3.3678996750589203	4	correct	1.0
8.188240100047551	7.781906499993056	go_punish	0.311720099998638	8.198765499982983	9.632670099963434	12.170339399949171	1.4339045999804512	9.203228799975477	11.160715400008485	15.214341699961096	0.4294412999879569	1.0096239999406862	0.7663303000149426	14.207056900021144	0.3182533000363037	13.181068699923344	2	1	62	1	go_punish	1	0	-1	1	1	1	0	0.0	1.0	0	0.311720099998638	0.3182533000363037	2037.980765699991	2046.179531199974	2047.1839944999665	2047.6134357999545	2049.1414810999995	2050.15110509994	2051.1618343999144	2052.187822600012	2053.195107399952	2053.961437699967	2020-09-10 10:47:50.565154	-0.98915832250371	-0.236006703903277	-0.199113269896178	-0.342817549179301	-1.18827159239989	-0.199113269896178	0.98915832250371	-0.236006703903277	-0.199113269896178	-1.18827159239989	-0.199113269896178	0.236006703903277	-19.49756078416105	-9.366518747603793	-10.41854330448826	-19.631341754114104	-23.824786637235167	-10.41854330448826	-5.158882795350781	-26.870445362942288	-7.372884578781211	-19.1787572539517	-0.6063047981404175	4	correct	1.0
16.003148499992676	8.392227500095032	nogo_reward	0.4272281000157818	16.013673899928108	17.48004699999001	20.015496899955906	1.466373100061901	17.01833779993467	19.006703699938953	23.062338999937765	0.46170920005533844	1.008793200016953	1.343562400085375	22.055826999945566	0.3221686000470072	21.027218500035815	2	1	63	4	nogo_reward	1	0	1	0	1	0	1	1.0	1.0	0	0.4272281000157818	0.3221686000470072	2037.980765699991	2053.994439599919	2054.9991034999257	2055.460812699981	2056.98746939993	2057.996262599947	2059.007984200027	2060.0365926999366	2061.043104699929	2062.386667100014	2020-09-10 10:47:50.565154	5.44718121248911	5.6629867406248	3.77509120330316	7.96999657728813	9.22227241579227	3.77509120330316	-5.44718121248911	5.6629867406248	3.77509120330316	9.22227241579227	3.77509120330316	-5.6629867406248	-13.06122124916823	-3.4675253030757167	-6.444338831288921	-11.318527627646672	-13.414242629043008	-6.444338831288921	-11.057876239878858	-16.45990135475013	-3.3986801055818736	-13.279763809423624	3.3678996750589203	4	correct	1.0
24.445651400019415	7.856745199998841	go_reward	1.0	24.456176799954847	25.801897499943152	28.31526639999356	1.3457206999883056	25.460443599964492	27.306660800008103	31.359333500033244	0.34145389997866005	1.008605599985458	0.9535884999204427	30.35308129992336	0.28797420009505	29.327542799990624	2	1	64	3	go_reward	1	1	0	1	0	0	0	0.0	1.0	0	1.0	0.28797420009505	2037.980765699991	2062.436942499946	2063.4412092999555	2063.782663199934	2065.287426499999	2066.2960320999846	2067.3083084999816	2068.3338469999144	2069.3400992000243	2070.2936876999447	2020-09-10 10:47:50.565154	6.41480473443676	0.0	12.3640750688915	12.3640750688915	5.94927033445475	12.3640750688915	-6.41480473443676	12.3640750688915	0.0	12.3640750688915	5.94927033445475	-12.3640750688915	-12.09359772722058	-9.130512043700517	2.144645034299419	-6.924449136043302	-16.687244710380526	2.144645034299419	-17.758964568145558	-13.318098701650898	-1.224500974430283	-6.578675481156923	-0.40719152824423954	4	correct	1.0
32.35054850007873	8.386481399997137	nogo_punish	1.0	32.36107390001416	34.143040900002234	36.656326600001194	1.7819669999880716	33.366121000028215	35.64775290002581	39.70126000000164	0.7769198999740183	1.0085736999753863	1.0462953000096604	38.6934207000304	0.2817308999365195	37.668870999943465	2	1	65	2	nogo_punish	1	-1	0	0	0	1	0	0.0	1.0	0	1.0	0.2817308999365195	2037.980765699991	2070.341839600005	2071.3468867000192	2072.1238065999933	2073.628518600017	2074.637092299992	2075.6496366999345	2076.6741864000214	2077.6820256999927	2078.7283210000023	2020-09-10 10:47:50.565154	0.669982808331373	0.0	-0.208956928180599	-0.208956928180599	-0.878939736511972	-0.208956928180599	-0.669982808331373	-0.208956928180599	0.0	-0.208956928180599	-0.878939736511972	0.208956928180599	-17.838419653325968	-9.130512043700517	-10.42838696277268	-19.4974811331154	-23.51545478134725	-10.42838696277268	-5.185932571073459	-25.891130698722996	-8.052711045397006	-19.15170747822902	-0.40719152824423954	4	correct	1.0
40.78652740002144	8.313009900040925	nogo_punish	1.0	40.79705279995687	42.33604800002604	44.851253299973905	1.5389952000691665	41.80223199992906	43.84177079994697	47.89848360000178	0.5338160000969765	1.0094825000269338	1.2115790999960154	46.89110959996515	0.4186683000298217	45.8626977999229	2	1	66	2	nogo_punish	1	-1	0	0	0	1	0	1.0	0.0	0	1.0	0.4186683000298217	2037.980765699991	2078.777818499948	2079.78299769992	2080.316813700017	2081.822536499938	2082.832018999965	2083.843463499914	2084.871875299956	2085.879249299993	2087.090828399989	2020-09-10 10:47:50.565154	0.674654927415557	0.0	-0.198811304883202	-0.198811304883202	-0.873466232298759	-0.198811304883202	-0.674654927415557	-0.198811304883202	0.0	-0.198811304883202	-0.873466232298759	0.198811304883202	-17.833747534241784	-9.130512043700517	-10.418241339475284	-19.487335509818003	-23.509981277134038	-10.418241339475284	-5.196078194370855	-25.8809850754256	-8.047237541183792	-19.141561854931624	-0.40719152824423954	4	wrong	1.0
49.13405300001614	9.005423200083897	go_punish	0.2924442000221461	49.14457839995157	51.18586530000903	53.72248769993894	2.0412869000574574	50.14965379994874	52.71343619993377	56.76641889999155	1.0362115000602898	1.009051500005171	1.3835827000439167	55.75940460001584	0.3306902000913396	54.734620000002906	2	1	67	1	go_punish	1	0	-1	1	1	1	0	0.0	1.0	0	0.2924442000221461	0.3306902000913396	2037.980765699991	2087.1253440999426	2088.1304194999398	2089.166631	2090.694201899925	2091.70325339993	2092.715385699994	2093.740170300007	2094.7471845999826	2096.1307673000265	2020-09-10 10:47:50.565154	-0.968601708004226	-0.224396659945424	-0.199113269896178	-0.326240777837024	-1.1677149779004	-0.199113269896178	0.968601708004226	-0.224396659945424	-0.199113269896178	-1.1677149779004	-0.199113269896178	0.224396659945424	-19.477004169661566	-9.35490870364594	-10.41854330448826	-19.614764982771828	-23.804230022735677	-10.41854330448826	-5.170492839308634	-26.849888748442797	-7.372884578781211	-19.167147209993846	-0.6063047981404175	4	correct	1.0
58.16955560003407	8.814735000021756	nogo_reward	0.3059425000101328	58.180080999969505	60.53048529999796	63.06982919992879	2.3504043000284582	59.183818500023335	62.060141299967654	66.11160960001871	1.3466667999746278	1.0096878999611363	0.8832063999725506	65.104767599958	0.4682502000359818	64.08106070000213	2	1	68	4	nogo_reward	1	0	1	0	1	0	0	0.0	1.0	0	0.3059425000101328	0.4682502000359818	2037.980765699991	2096.1608466999605	2097.1645842000144	2098.511250999989	2100.0409069999587	2101.05059489992	2102.061826399993	2103.085533299949	2104.0923753000097	2104.9755816999823	2020-09-10 10:47:50.565154	4.97672890713692	5.39303122097602	3.77509120330316	7.59375720131576	8.75182011044008	3.77509120330316	-4.97672890713692	5.39303122097602	3.77509120330316	8.75182011044008	3.77509120330316	-5.39303122097602	-13.53167355452042	-3.737480822724496	-6.444338831288921	-11.694767003619042	-13.884694934395197	-6.444338831288921	-10.787920720230078	-16.93035366010232	-3.3986801055818736	-13.549719329072403	3.3678996750589203	4	correct	1.0
67.01787790004164	8.37770139996428	nogo_reward	0.2675379000138491	67.02840329997707	68.88784019998275	71.42565310001373	1.8594369000056759	68.03349259996321	70.41624709998723	74.4692024999531	0.8543476000195369	1.0094060000265017	0.9369021999882534	73.46166459994902	0.2936961000086739	72.43765360000543	2	1	69	4	nogo_reward	1	0	1	0	1	0	0	0.0	1.0	0	0.2675379000138491	0.2936961000086739	2037.980765699991	2105.009168999968	2106.0142582999542	2106.8686058999738	2108.3970127999783	2109.4064188000048	2110.4184192999965	2111.44243029994	2112.449968199944	2113.3868703999324	2020-09-10 10:47:50.565154	4.53187986051355	5.13789597459984	3.77509120330316	7.23802481819084	8.3069710638167	3.77509120330316	-4.53187986051355	5.13789597459984	3.77509120330316	8.3069710638167	3.77509120330316	-5.13789597459984	-13.97652260114379	-3.9926160691006762	-6.444338831288921	-12.050499386743962	-14.329543981018578	-6.444338831288921	-10.532785473853899	-17.375202706725698	-3.3986801055818736	-13.804854575448584	3.3678996750589203	4	correct	1.0
75.42826379998587	8.943973600049503	nogo_reward	0.2494258999358862	75.4387891999213	77.4841873999685	80.02262009994593	2.0453982000472024	76.44351599994116	79.0132032999536	83.067679699976	1.0406714000273496	1.009416799992323	1.3150830999948084	82.06020850001369	0.3747684999834746	81.0346600000048	2	1	70	4	nogo_reward	1	0	1	0	1	0	1	0.0	0.0	0	0.2494258999358862	0.3747684999834746	2037.980765699991	2113.4195548999123	2114.424281699932	2115.4649530999595	2116.9939689999446	2118.003385799937	2119.015425699996	2120.0409742000047	2121.048445399967	2122.363528499962	2020-09-10 10:47:50.565154	4.11110205158853	4.89668842974595	3.77509120330316	6.90157109210529	7.88619325489169	3.77509120330316	-4.11110205158853	4.89668842974595	3.77509120330316	7.88619325489169	3.77509120330316	-4.89668842974595	-14.39730041006881	-4.233823613954566	-6.444338831288921	-12.386953112829513	-14.750321789943587	-6.444338831288921	-10.291577929000008	-17.795980515650708	-3.3986801055818736	-14.046062120302473	3.3678996750589203	4	wrong	1.0
84.4227710000705	9.198395799961872	go_reward	1.0	84.43329640000593	87.1620394999627	89.67679249995854	2.728743099956773	85.43782709992956	88.66718029999174	92.71993739996105	1.7242124000331387	1.0096121999667957	0.9117548000067472	91.71234039997216	0.5685982999857515	90.68891709996387	2	1	71	3	go_reward	1	1	0	1	0	0	0	0.0	1.0	0	1.0	0.5685982999857515	2037.980765699991	2122.414062099997	2123.4185927999206	2125.1428051999537	2126.6479459999828	2127.6575581999496	2128.669682799955	2129.693106099963	2130.700703099952	2131.612457899959	2020-09-10 10:47:50.565154	6.1445451534885	0.0	11.7850225667567	11.7850225667567	5.64047741326821	11.7850225667567	-6.1445451534885	11.7850225667567	0.0	11.7850225667567	5.64047741326821	-11.7850225667567	-12.36385730816884	-9.130512043700517	1.5655925321646187	-7.503501638178102	-16.99603763156707	1.5655925321646187	-17.179912066010758	-13.897151203785699	-1.5332938956168238	-7.157727983291723	-0.40719152824423954	4	correct	1.0
93.6697470000945	9.578263999894261	nogo_punish	1.0	93.68027240002993	96.51166339998599	99.02589629997965	2.8313909999560565	94.6851724999724	98.01638159994036	102.06964979995973	1.8264909000135958	1.00951470003929	1.1888865999644622	101.06263649999164	0.3040145999984815	100.03741410002112	2	1	72	2	nogo_punish	1	-1	0	0	0	1	0	0.0	1.0	0	1.0	0.3040145999984815	2037.980765699991	2131.661038100021	2132.6659381999634	2134.492429099977	2135.9971472999314	2137.0066619999707	2138.018179800012	2139.0434021999827	2140.0504154999508	2141.239302099915	2020-09-10 10:47:50.565154	0.679067081195677	0.0	-0.189223497696094	-0.189223497696094	-0.868290578891771	-0.189223497696094	-0.679067081195677	-0.189223497696094	0.0	-0.189223497696094	-0.868290578891771	0.189223497696094	-17.829335380461664	-9.130512043700517	-10.408653532288175	-19.477747702630896	-23.504805623727048	-10.408653532288175	-5.205666001557963	-25.871397268238493	-8.042061887776804	-19.131974047744517	-0.40719152824423954	4	correct	1.0
103.28435690002561	8.905633899964869	go_punish	0.5694903999101371	103.29488229996105	105.12988749996293	107.67133729998022	1.8350052000018877	104.29981619992759	106.65874169999734	110.71882960002404	0.8300713000353426	1.0125955999828875	1.4816865999018773	109.71076629997697	0.3865791999269277	108.68245189997833	2	1	73	1	go_punish	0	-1	0	1	1	1	0	0.0	1.0	-1	0.5694903999101371	0.3865791999269277	2037.980765699991	2141.275647999952	2142.2805818999186	2143.110653199954	2144.6395073999884	2145.6521029999712	2146.6632175999694	2147.691531999968	2148.699595300015	2150.181281899917	2020-09-10 10:47:50.565154	-0.94917455854062	-0.213430959732973	-0.199113269896178	-0.310572237220071	-1.1482878284368	-0.199113269896178	0.94917455854062	-0.213430959732973	-0.199113269896178	-1.1482878284368	-0.199113269896178	-2.190495177704737	-19.45757702019796	-9.34394300343349	-10.41854330448826	-19.599096442154874	-23.784802873272078	-10.41854330448826	-7.585384676958794	-26.8304615989792	-7.372884578781211	-19.156181509781398	-0.6063047981404175	4	correct	1.0
112.24082489998545	7.927808700012974	go_reward	1.0	112.25135029992089	113.81796270003542	116.3323337000329	1.5666124001145363	113.25645500002474	115.32252299995116	119.37393769994378	0.5615077000106794	1.0098107000817436	0.8052212999900803	118.36695789999794	0.4194128999952227	117.3440266000107	2	1	74	3	go_reward	1	1	0	1	0	0	0	0.0	1.0	0	1.0	0.4194128999952227	2037.980765699991	2150.232115999912	2151.2372207000158	2151.7987284000264	2153.303288699942	2154.313099400024	2155.3247923000017	2156.347723599989	2157.354703399935	2158.159924699925	2020-09-10 10:47:50.565154	5.88916522577766	0.0	11.2373682186829	11.2373682186829	5.3482029929052	11.2373682186829	-5.88916522577766	11.2373682186829	0.0	11.2373682186829	5.3482029929052	-11.2373682186829	-12.61923723587968	-9.130512043700517	1.0179381840908182	-8.051155986251903	-17.288312051930077	1.0179381840908182	-16.63225771793696	-14.444805551859499	-1.825568315979833	-7.705382331365524	-0.40719152824423954	4	correct	1.0
120.20280590001494	7.776019199983693	nogo_reward	0.4493888999568298	120.21333129995037	121.54230640002106	124.0840091999853	1.3289751000706929	121.21792650001589	123.06989299994893	127.12740080000367	0.3243799000051695	1.0141162000363693	0.8619496999303919	126.1200053000357	0.333557500038296	125.09588779998012	2	1	75	4	nogo_reward	0	1	0	0	1	0	0	0.0	1.0	1	0.4493888999568298	0.333557500038296	2037.980765699991	2158.1940969999414	2159.198692200007	2159.523072100012	2161.05065869994	2162.0647748999763	2163.076653499971	2164.1007710000267	2165.1081664999947	2165.970116199925	2020-09-10 10:47:50.565154	3.71296144225886	4.66857338164782	3.77509120330316	6.58324629628839	7.48805264556202	3.77509120330316	-3.71296144225886	4.66857338164782	3.77509120330316	7.48805264556202	3.77509120330316	89.53439060553728	-14.79544101939848	-4.461938662052696	-6.444338831288921	-12.705277908646412	-15.148462399273257	-6.444338831288921	84.13950110628322	-18.194121124980377	-3.3986801055818736	-14.274177168400602	3.3678996750589203	4	correct	1.0
128.01211210002657	9.577371399966069	nogo_reward	0.2767741000279784	128.022637499962	130.79169630003116	133.33182179997675	2.7690588000691605	129.0271790999691	132.3214900000021	136.37623649998568	1.7645172000620732	1.010331799974665	1.2237723999423906	135.36806030001026	0.3762353000929579	134.34324319998268	2	1	76	4	nogo_reward	1	0	1	0	1	0	0	0.0	1.0	0	0.2767741000279784	0.3762353000929579	2037.980765699991	2166.003403199953	2167.00794479996	2168.772462000022	2170.302255699993	2171.312587499968	2172.3240088999737	2173.3488260000013	2174.3570021999767	2175.580774599919	2020-09-10 10:47:50.565154	9.14697959297967	8.2278603261777	3.77509120330316	10.0570652322282	12.9220707962828	3.77509120330316	-9.14697959297967	8.2278603261777	3.77509120330316	12.9220707962828	3.77509120330316	-8.2278603261777	-9.36142286867767	-0.9026517175228168	-6.444338831288921	-9.231458972706601	-9.714444248552478	-6.444338831288921	-13.622749825431757	-12.760102974259599	-3.3986801055818736	-10.714890223870723	3.3678996750589203	4	correct	1.0
137.62470320006832	8.966714299982414	go_punish	0.3297844999469816	137.63522860000376	139.63415209995583	142.17346920003183	1.9989234999520704	138.6396866999571	141.16388749994803	145.2160453000106	0.9944653999987167	1.0095817000837997	1.3858975999755785	144.20829650002997	0.3475155000342056	143.18496500002175	2	1	77	1	go_punish	1	0	-1	1	1	1	0	0.0	1.0	0	0.3297844999469816	0.3475155000342056	2037.980765699991	2175.615994299995	2176.620452399948	2177.614917799947	2179.144653199939	2180.154234900023	2181.165730700013	2182.189062200021	2183.1968110000016	2184.582708599977	2020-09-10 10:47:50.565154	-1.08858534354149	-0.305216853612811	-0.199113269896178	-0.397903815515534	-1.28769861343767	-0.199113269896178	1.08858534354149	-0.305216853612811	-0.199113269896178	-1.28769861343767	-0.199113269896178	0.305216853612811	-19.59698780519883	-9.435728897313327	-10.41854330448826	-19.686428020450336	-23.924213658272947	-10.41854330448826	-5.089672645641246	-26.969872383980068	-7.372884578781211	-19.247967403661235	-0.6063047981404175	4	correct	1.0
146.63080899999477	8.19984320004005	go_punish	0.2681306999875232	146.6413343999302	148.4864927999447	151.0254376999801	1.8451584000144976	147.6463784999214	150.0161990999477	154.06916519999504	0.8401143000232878	1.009238600032404	0.7720123999752104	153.0621126999613	0.3533225000137463	152.03729190002196	2	1	78	1	go_punish	1	0	-1	1	1	1	0	0.0	1.0	0	0.2681306999875232	0.3533225000137463	2037.980765699991	2184.622100099921	2185.6271441999124	2186.4672584999357	2187.9969647999387	2189.006203399971	2190.018057600013	2191.0428783999523	2192.049930899986	2192.8219432999613	2020-09-10 10:47:50.565154	-1.06325631419321	-0.290246932358429	-0.199113269896178	-0.378713696938009	-1.26236958408939	-0.199113269896178	1.06325631419321	-0.290246932358429	-0.199113269896178	-1.26236958408939	-0.199113269896178	0.290246932358429	-19.57165877585055	-9.420758976058945	-10.41854330448826	-19.667237901872813	-23.89888462892467	-10.41854330448826	-5.104642566895628	-26.94454335463179	-7.372884578781211	-19.23299748240685	-0.6063047981404175	4	correct	1.0
154.8657736000605	8.783044299925677	go_punish	0.2649162999587133	154.87629899999592	156.72259349992964	159.26178349996917	1.8462944999337196	155.88094329996966	158.2524205999216	162.30979540001135	0.8416501999599859	1.009362900047563	1.3495478999102488	161.30210590001707	0.3247990999370813	160.27375359996176	2	1	79	1	go_punish	1	0	-1	1	1	1	1	1.0	1.0	0	0.2649162999587133	0.3247990999370813	2037.980765699991	2192.857064699987	2193.8617089999607	2194.7033591999207	2196.2331862999126	2197.24254919996	2198.254519299953	2199.282871600008	2200.2905611000024	2201.6401089999126	2020-09-10 10:47:50.565154	-1.03931709772726	-0.276106074943546	-0.199113269896178	-0.360573246976992	-1.23843036762344	-0.199113269896178	1.03931709772726	-0.276106074943546	-0.199113269896178	-1.23843036762344	-0.199113269896178	0.276106074943546	-19.5477195593846	-9.406618118644062	-10.41854330448826	-19.649097451911793	-23.874945412458718	-10.41854330448826	-5.118783424310512	-26.92060413816584	-7.372884578781211	-19.218856624991968	-0.6063047981404175	4	correct	1.0
163.7000338000944	8.259249099995941	go_reward	1.0	163.71055920002982	165.43446549994405	167.94869969994716	1.7239062999142334	164.71538639999926	166.93933389999438	170.99199260002933	0.7190790999447927	1.009365799952775	0.9778156999964267	169.98518089996605	0.3077716999687254	168.96082239993802	2	1	80	3	go_reward	1	1	0	1	0	0	0	0.0	1.0	0	1.0	0.3077716999687254	2037.980765699991	2201.691324900021	2202.6961520999903	2203.415231199935	2204.9200995999854	2205.929465399938	2206.941588099929	2207.965946599957	2208.9727583000204	2209.950574000017	2020-09-10 10:47:50.565154	5.64776683552927	0.0	10.7192378745354	10.7192378745354	5.07147103900609	10.7192378745354	-5.64776683552927	10.7192378745354	0.0	10.7192378745354	5.07147103900609	-10.7192378745354	-12.86063562612807	-9.130512043700517	0.499807839943319	-8.569286330399402	-17.565044005829186	0.499807839943319	-16.114127373789458	-14.962935896006998	-2.1023002698789437	-8.223512675513023	-0.40719152824423954	4	correct	1.0
172.0099390000105	8.072966500069015	go_reward	1.0	172.02046439994592	173.78333539993037	176.29756420000876	1.7628709999844432	173.02567849995103	175.288060199935	179.340290299966	0.757656899979338	1.0095040000737754	0.7531406000489369	178.33335209998768	0.3191141999559477	177.30945029994518	2	1	81	3	go_reward	1	1	0	1	0	0	0	0.0	1.0	0	1.0	0.3191141999559477	2037.980765699991	2210.001230099937	2211.006444199942	2211.7641010999214	2213.268825899926	2214.2783299	2215.290215999936	2216.3141177999787	2217.321055999957	2218.074196600006	2020-09-10 10:47:50.565154	5.41950967590948	0.0	10.2288770308004	10.2288770308004	4.80936735489091	10.2288770308004	-5.41950967590948	10.2288770308004	0.0	10.2288770308004	4.80936735489091	-10.2288770308004	-13.08889278574786	-9.130512043700517	0.009446996208318126	-9.059647174134403	-17.82714768994437	0.009446996208318126	-15.623766530054457	-15.453296739742	-2.364403953994123	-8.713873519248024	-0.40719152824423954	4	correct	1.0
180.13139850005973	8.831838199985214	go_reward	1.0	180.14192389999516	182.41918409999926	184.93327959999397	2.2772602000040933	181.14582939993124	183.92399009992369	187.977799099986	1.2733547000680119	1.009289500070281	0.99596299999439	186.97120509995148	0.335484700044617	185.9450819999911	2	1	82	3	go_reward	1	1	0	1	0	0	1	1.0	1.0	0	1.0	0.335484700044617	2037.980765699991	2218.122689599986	2219.1265950999223	2220.3999497999903	2221.9047557999147	2222.914045299985	2223.925847699982	2224.9519707999425	2225.958564799977	2226.9545277999714	2020-09-10 10:47:50.565154	5.20360734665924	0.0	9.7646428021786	9.7646428021786	4.56103545551936	9.7646428021786	-5.20360734665924	9.7646428021786	0.0	9.7646428021786	4.56103545551936	-9.7646428021786	-13.3047951149981	-9.130512043700517	-0.45478723241348185	-9.523881402756203	-18.07547958931592	-0.45478723241348185	-15.159532301432657	-15.917530968363799	-2.612735853365673	-9.178107747869824	-0.40719152824423954	4	correct	1.0
189.0112091000192	8.508678100071393	nogo_punish	1.0	189.02173449995462	190.58173229999375	193.0996496999869	1.5599978000391275	190.0266588999657	192.08675220003352	196.14178840001114	0.55507340002805	1.0128974999533966	1.388624200014874	195.13491629995406	0.3450230000307783	194.11043390003033	2	1	83	2	nogo_punish	0	0	-1	0	0	1	0	0.0	1.0	-1	1.0	0.3450230000307783	2037.980765699991	2227.0025001999456	2228.0074245999567	2228.5624979999848	2230.0675179000245	2231.080415399978	2232.0911996000214	2233.115681999945	2234.122554100002	2235.511178300017	2020-09-10 10:47:50.565154	0.683234962962459	0.0	-0.180160122114412	-0.180160122114412	-0.86339508507687	-0.180160122114412	-0.683234962962459	-0.180160122114412	0.0	-0.180160122114412	-0.86339508507687	-2.2237660153232977	-17.82516749869488	-9.130512043700517	-10.399590156706493	-19.468684327049214	-23.49991012991215	-10.399590156706493	-7.618655514577355	-25.86233389265681	-8.037166393961904	-19.122910672162835	-0.40719152824423954	4	correct	1.0
197.55463030003057	8.910360299981676	go_punish	0.2830787999555468	197.565155699966	199.9904865999706	202.53124559996604	2.42533090000461	198.5700674999971	201.5209638000233	205.57270010001957	1.4204190999735147	1.0102817999427316	0.9028158999281004	204.5654844000237	0.352434300002642	203.54228679998778	2	1	84	1	go_punish	1	0	-1	1	1	1	0	0.0	1.0	0	0.2830787999555468	0.352434300002642	2037.980765699991	2235.545921399957	2236.550833199988	2237.9712522999616	2239.5017295000143	2240.512011299957	2241.523052499979	2242.5462501000147	2243.5534658000106	2244.4562816999387	2020-09-10 10:47:50.565154	-1.01668463855874	-0.262744393633116	-0.199113269896178	-0.3434198992205	-1.21579790845492	-0.199113269896178	1.01668463855874	-0.262744393633116	-0.199113269896178	-1.21579790845492	-0.199113269896178	0.262744393633116	-19.52508710021608	-9.393256437333633	-10.41854330448826	-19.631944104155302	-23.8523129532902	-10.41854330448826	-5.132145105620942	-26.89797167899732	-7.372884578781211	-19.20549494368154	-0.6063047981404175	4	correct	1.0
206.52409810002428	8.544517699978314	nogo_reward	0.4322912999195978	206.5346234999597	208.03037039993796	210.56895149999764	1.4957468999782577	207.53917230002116	209.55952250002883	213.6112961999611	0.49119809991680086	1.0094289999688044	1.4678449999769327	212.60406139993574	0.3072065999731421	211.5813692000229	2	1	85	4	nogo_reward	1	0	1	0	1	0	0	0.0	1.0	0	0.4322912999195978	0.3072065999731421	2037.980765699991	2244.5153891999507	2245.519938000012	2246.011136099929	2247.54028820002	2248.5497171999887	2249.562134900014	2250.5848270999268	2251.592061899952	2253.059906899929	2020-09-10 10:47:50.565154	8.50319824217905	7.83609413303064	3.77509120330316	9.58429658641696	12.2782894454822	3.77509120330316	-8.50319824217905	7.83609413303064	3.77509120330316	12.2782894454822	3.77509120330316	-7.83609413303064	-10.00520421947829	-1.2944179106698765	-6.444338831288921	-9.704227618517843	-10.358225599353078	-6.444338831288921	-13.230983632284698	-13.403884325060199	-3.3986801055818736	-11.106656417017783	3.3678996750589203	4	correct	1.0
215.11977720004506	8.772728099953383	go_reward	1.0	215.1303025999805	217.10541890002787	219.62282589997676	1.9751163000473753	216.13490009994712	218.60972329997458	222.66700979997404	0.9705188000807539	1.0131026000021848	1.2360208999598399	221.66002960002515	0.333982800017111	220.63465389993507	2	1	86	3	go_reward	0	0	1	1	0	0	0	0.0	1.0	1	1.0	0.333982800017111	2037.980765699991	2253.1110682999715	2254.115665799938	2255.086184600019	2256.5904889999656	2257.603591599968	2258.615419599926	2259.640795300016	2260.647775499965	2261.883796399925	2020-09-10 10:47:50.565154	4.99932372505423	0.0	9.32499645312742	9.32499645312742	4.32567272807319	9.32499645312742	-4.99932372505423	9.32499645312742	0.0	9.32499645312742	4.32567272807319	84.87796753405767	-13.50907873660311	-9.130512043700517	-0.8944335814646607	-9.963527751807382	-18.310842316762088	-0.8944335814646607	79.48307803480361	-16.35717731741498	-2.8480985808118433	-9.617754096921002	-0.40719152824423954	4	correct	1.0
223.92716419999488	9.544427000102587	go_punish	0.2925627999939024	223.9376895999303	226.45512109994888	228.99632459995337	2.5174315000185743	224.94243499997538	227.98563000001013	232.04286089993548	1.5126860999735072	1.0106945999432355	1.4392557000974193	231.0352242999943	0.3437916000839323	230.00772019999567	2	1	87	1	go_punish	1	0	-1	1	1	1	0	0.0	1.0	0	0.2925627999939024	0.3437916000839323	2037.980765699991	2261.9184552999213	2262.9232006999664	2264.43588679994	2265.966395700001	2266.9770902999444	2267.9884858999867	2269.0159899999853	2270.0236265999265	2271.462882300024	2020-09-10 10:47:50.565154	-0.995281162162734	-0.250115189421965	-0.199113269896178	-0.327195056485371	-1.19439443205891	-0.199113269896178	0.995281162162734	-0.250115189421965	-0.199113269896178	-1.19439443205891	-0.199113269896178	0.250115189421965	-19.503683623820073	-9.380627233122482	-10.41854330448826	-19.615719261420175	-23.83090947689419	-10.41854330448826	-5.144774309832092	-26.87656820260131	-7.372884578781211	-19.19286573947039	-0.6063047981404175	4	correct	1.0
233.50413720007055	9.584841899923049	nogo_reward	0.3015735999215394	233.51466260000598	236.27509889996145	238.81360550003592	2.7604362999554724	234.51941309997346	237.80369510001037	241.85697109997318	1.7556857999879867	1.0099104000255466	1.242533399955846	240.84888219996355	0.5475886999629438	239.82392450003	2	1	88	4	nogo_reward	1	0	1	0	1	0	0	0.0	1.0	0	0.3015735999215394	0.5475886999629438	2037.980765699991	2271.495428299997	2272.5001787999645	2274.2558645999525	2275.7844608000014	2276.794371200027	2277.804690200021	2278.8296478999546	2279.837736799964	2281.08027019992	2020-09-10 10:47:50.565154	7.89444377005973	7.46583271591792	3.77509120330316	9.13723937509187	11.6695349733629	3.77509120330316	-7.89444377005973	7.46583271591792	3.77509120330316	11.6695349733629	3.77509120330316	-7.46583271591792	-10.61395869159761	-1.6646793277825962	-6.444338831288921	-10.151284829842933	-10.966980071472378	-6.444338831288921	-12.860722215171979	-14.012638797179498	-3.3986801055818736	-11.476917834130504	3.3678996750589203	4	correct	1.0
243.11667960009072	9.439453099970706	nogo_reward	0.341339600039646	243.12720500002615	245.59327970002778	248.13283639994916	2.466074700001627	244.13150339992717	247.12341509992257	251.17559220001567	1.4617763001006097	1.0094213000265881	1.3910658999811858	250.16847589996178	0.3391935999970883	249.14549120003358	2	1	89	4	nogo_reward	1	0	1	0	1	0	0	0.0	1.0	0	0.341339600039646	0.3391935999970883	2037.980765699991	2281.107970700017	2282.112269099918	2283.574045400019	2285.1041807999136	2286.11360209994	2287.1262569000246	2288.149241599953	2289.1563579000067	2290.547423799988	2020-09-10 10:47:50.565154	7.31861959810503	7.11578044147036	3.77509120330316	8.71435521217603	11.0937108014082	3.77509120330316	-7.31861959810503	7.11578044147036	3.77509120330316	11.0937108014082	3.77509120330316	-7.11578044147036	-11.18978286355231	-2.0147316022301567	-6.444338831288921	-10.574168992758771	-11.542804243427078	-6.444338831288921	-12.510669940724418	-14.588462969134198	-3.3986801055818736	-11.826970108578063	3.3678996750589203	4	correct	1.0
252.58969650010158	7.740174299920454	nogo_reward	0.3073411000659689	252.600221900037	253.91950179997366	256.4580400999407	1.319279899936646	253.60535790002905	255.44870680000167	259.50196979998145	0.3141438999446109	1.009333299939044	0.8384263999760151	258.4942771999631	0.2893165999557823	257.46901939995587	2	1	90	4	nogo_reward	1	0	1	0	1	0	1	1.0	1.0	0	0.3073411000659689	0.2893165999557823	2037.980765699991	2290.580987600028	2291.58612360002	2291.9002674999647	2293.4294724999927	2294.4388057999317	2295.449785099947	2296.475042899954	2297.4827354999725	2298.3211618999485	2020-09-10 10:47:50.565154	6.77376331768376	6.78472499860935	3.77509120330316	8.31420411615982	10.5488545209869	3.77509120330316	-6.77376331768376	6.78472499860935	3.77509120330316	10.5488545209869	3.77509120330316	-6.78472499860935	-11.734639143973581	-2.345787045091167	-6.444338831288921	-10.974320088774983	-12.087660523848378	-6.444338831288921	-12.179614497863408	-15.133319249555498	-3.3986801055818736	-12.158025551439074	3.3678996750589203	4	correct	1.0
260.3651738000335	9.425436399993032	go_punish	0.2881337000289932	260.37569919996895	262.70361720002256	265.242622599937	2.3279180000536144	261.3801503999857	264.232697000029	268.31546850001905	1.3234668000368401	1.0099255999080015	1.4856670999429298	267.30833599995776	0.3928725000005215	266.25487710000016	2	1	91	1	go_punish	1	0	-1	1	1	1	0	0.0	1.0	0	0.2881337000289932	0.3928725000005215	2037.980765699991	2298.35646489996	2299.3609160999767	2300.6843829000136	2302.21346270002	2303.223388299928	2304.235642799991	2305.289101699949	2306.29623420001	2307.781901299953	2020-09-10 10:47:50.565154	-0.975033822938928	-0.238174738560127	-0.199113269896178	-0.311843826715224	-1.17414709283511	-0.199113269896178	0.975033822938928	-0.238174738560127	-0.199113269896178	-1.17414709283511	-0.199113269896178	0.238174738560127	-19.48343628459627	-9.368686782260644	-10.41854330448826	-19.600368031650028	-23.810662137670388	-10.41854330448826	-5.156714760693931	-26.85632086337751	-7.372884578781211	-19.18092528860855	-0.6063047981404175	4	correct	1.0
269.84281740000006	8.628852099995129	go_reward	1.0	269.8533427999355	271.5174795000348	274.03600469999947	1.6641367000993341	270.85788549995004	273.02213830000255	277.07781389995944	0.6595940000847804	1.013866399996914	1.4043809999711812	276.0704659000039	0.7233965999912471	275.047424999997	2	1	92	3	go_reward	0	0	1	1	0	0	0	0.0	1.0	1	1.0	0.7233965999912471	2037.980765699991	2307.8341084999265	2308.838651199941	2309.498245200026	2311.0029039999936	2312.0167703999905	2313.028190699988	2314.051231599995	2315.0585795999505	2316.4629605999216	2020-09-10 10:47:50.565154	6.54528779674946	0.0	12.6835876523658	12.6835876523658	6.13829985561639	12.6835876523658	-6.54528779674946	12.6835876523658	0.0	12.6835876523658	6.13829985561639	81.5193763348193	-11.96311466490788	-9.130512043700517	2.4641576177737186	-6.6049365525690025	-16.49821518921889	2.4641576177737186	76.12448683556524	-12.998586118176599	-1.0354714532686433	-6.259162897682623	-0.40719152824423954	4	correct	1.0
278.5172850000672	8.19148729997687	go_reward	1.0	278.52781040000264	280.0306178999599	282.54637759993784	1.502807499957271	279.53283349995036	281.53606059995946	285.58979929995303	0.49778440000955015	1.0103169999783859	1.1294984000264776	284.5816287000198	0.3281847999896854	283.5585455999244	2	1	93	3	go_reward	1	1	0	1	0	0	0	0.0	1.0	0	1.0	0.3281847999896854	2037.980765699991	2316.5085760999937	2317.5135991999414	2318.011383599951	2319.5168262999505	2320.527143299929	2321.5393112999154	2322.562394400011	2323.570564999944	2324.7000633999705	2020-09-10 10:47:50.565154	8.01342656135033	0.0	15.8764334815203	15.8764334815203	7.86300692016997	15.8764334815203	-8.01342656135033	15.8764334815203	0.0	15.8764334815203	7.86300692016997	-15.8764334815203	-10.49497590030701	-9.130512043700517	5.657003446928218	-3.4120907234145026	-14.773508124665309	5.657003446928218	-21.271322980774357	-9.805740289022099	0.6892356112849365	-3.0663170685281234	-0.40719152824423954	4	correct	1.0
286.75841240002774	9.271107700070843	go_reward	1.0	286.76893779996317	289.5267451999248	292.0400843999814	2.757807399961621	287.77400089998264	291.0314688000367	295.0867667000275	1.752744299942151	1.0086155999447328	0.9532788000065011	294.0791600999655	0.3404811000218615	293.05215290002525	2	1	94	3	go_reward	1	1	0	1	0	0	1	1.0	1.0	0	1.0	0.3404811000218615	2037.980765699991	2324.749703499954	2325.7547665999737	2327.507510899916	2329.0122345000277	2330.0208500999724	2331.0329186000163	2332.0599257999565	2333.0675324000185	2334.020811200025	2020-09-10 10:47:50.565154	7.66887182298134	0.0	15.1377877055874	15.1377877055874	7.46891588260606	15.1377877055874	-7.66887182298134	15.1377877055874	0.0	15.1377877055874	7.46891588260606	-15.1377877055874	-10.839530638675999	-9.130512043700517	4.918357670995318	-4.150736499347403	-15.167599162229218	4.918357670995318	-20.532677204841455	-10.544386064954999	0.29514457372102676	-3.8049628444610235	-0.40719152824423954	4	correct	1.0
296.08326760004275	8.954385400051251	nogo_punish	1.0	296.0937929999782	298.52977609995287	301.0445803999901	2.435983099974692	297.0987093999288	300.03508179995697	304.0888899000129	1.4310667000240755	1.0094986000331119	0.9592885000165552	303.08163459994876	0.3409066000021994	302.056766299997	2	1	95	2	nogo_punish	1	-1	0	0	0	1	0	0.0	1.0	0	1.0	0.3409066000021994	2037.980765699991	2334.074558699969	2335.07947509992	2336.510541799944	2338.015847499948	2339.025346099981	2340.037531999988	2341.06240029994	2342.069655600004	2343.0289441000205	2020-09-10 10:47:50.565154	0.640657123949893	0.0	-0.273736001482963	-0.273736001482963	-0.914393125432856	-0.273736001482963	-0.640657123949893	-0.273736001482963	0.0	-0.273736001482963	-0.914393125432856	0.273736001482963	-17.867745337707447	-9.130512043700517	-10.493166036075044	-19.562260206417765	-23.550908170268134	-10.493166036075044	-5.121153497771095	-25.95590977202536	-8.08816443431789	-19.216486551531386	-0.40719152824423954	4	correct	1.0
305.0725244000787	8.42581009992864	go_punish	0.2570146999787539	305.0830498000141	307.00065129995346	309.5422100999858	1.9176014999393374	306.08786069997586	308.528390099993	312.58217890001833	0.9127905999775976	1.0138199999928474	0.9266809999244288	311.57536529994104	0.4472191999666393	310.55258389993105	2	1	96	1	go_punish	0	-1	0	1	1	1	0	0.0	1.0	-1	0.2570146999787539	0.4472191999666393	2037.980765699991	2343.063815500005	2344.068626399967	2344.9814169999445	2346.509155799984	2347.522975799977	2348.533349599922	2349.556130999932	2350.5629446000094	2351.489625599934	2020-09-10 10:47:50.565154	-0.955874376464018	-0.22688209390805	-0.199113269896178	-0.297314777131213	-1.1549876463602	-0.199113269896178	0.955874376464018	-0.22688209390805	-0.199113269896178	-1.1549876463602	-0.199113269896178	-2.17704404352966	-19.464276838121357	-9.357394137608566	-10.41854330448826	-19.585838982066015	-23.79150269119548	-10.41854330448826	-7.571933542783718	-26.8371614169026	-7.372884578781211	-19.169632643956472	-0.6063047981404175	4	correct	1.0
313.53028300008737	9.308612999971956	nogo_reward	0.3391870999475941	313.5408084000228	316.2486059999792	318.78735140000936	2.7077975999563932	314.5464690999361	317.77748689998407	321.8305937999394	1.702136900043115	1.0098645000252873	1.0188276000553742	320.8223607999971	0.3912033999804407	319.7985869999975	2	1	97	4	nogo_reward	1	0	1	0	1	0	0	0.0	1.0	0	0.3391870999475941	0.3912033999804407	2037.980765699991	2351.521574100014	2352.527234799927	2354.22937169997	2355.758252599975	2356.7681171000004	2357.7793526999885	2358.803126499988	2359.8113594999304	2360.830187099986	2020-09-10 10:47:50.565154	6.25803766711828	6.47153177416991	3.77509120330316	7.93543789612812	10.0331288704214	3.77509120330316	-6.25803766711828	6.47153177416991	3.77509120330316	10.0331288704214	3.77509120330316	-6.47153177416991	-12.25036479453906	-2.6589802695306064	-6.444338831288921	-11.353086308806683	-12.603386174413878	-6.444338831288921	-11.866421273423967	-15.649044900120998	-3.3986801055818736	-12.471218775878512	3.3678996750589203	4	correct	1.0
322.8745459000347	8.607944800052792	go_punish	0.4915076000615954	322.88507129997015	324.4402045999891	326.9781003999524	1.5551333000189516	323.89029729994945	325.96913069998845	330.0248402999714	0.5499073000396493	1.0089696999639273	1.4681758000515401	329.0172505999217	0.2399156999308616	327.98972039995715	2	1	98	1	go_punish	1	0	-1	1	1	1	1	1.0	1.0	0	0.4915076000615954	0.2399156999308616	2037.980765699991	2360.865836999961	2361.8710629999405	2362.42097029998	2363.9498963999795	2364.9588660999434	2365.970486099948	2366.9980162999127	2368.0056059999624	2369.473781800014	2020-09-10 10:47:50.565154	-1.09551490326125	-0.318344982964096	-0.199113269896178	-0.385705788238634	-1.29462817315742	-0.199113269896178	1.09551490326125	-0.318344982964096	-0.199113269896178	-1.29462817315742	-0.199113269896178	0.318344982964096	-19.60391736491859	-9.448857026664612	-10.41854330448826	-19.674229993173437	-23.931143217992698	-10.41854330448826	-5.076544516289962	-26.97680194369982	-7.372884578781211	-19.26109553301252	-0.6063047981404175	4	correct	1.0
331.53313290001824	8.637692400021479	go_reward	0.3783205000218004	331.5436582999537	333.32644760003313	335.8689000000013	1.7827893000794575	332.54871390003245	334.8546493999893	338.9125734999543	0.777733700000681	1.0142506000120193	1.2687772000208497	337.9051475999877	0.3674688999308273	336.8803004999645	2	1	99	3	go_reward	1	1	0	1	1	1	0	0.0	1.0	1	0.3783205000218004	0.3674688999308273	2037.980765699991	2369.5244239999447	2370.5294796000235	2371.307213300024	2372.8354150999803	2373.8496656999923	2374.8610661999555	2375.8859132999787	2376.8933391999453	2378.162116399966	2020-09-10 10:47:50.565154	-7.34322468818208	0.0	14.4390527100637	14.4390527100637	7.09582802188165	14.4390527100637	7.34322468818208	0.0	14.4390527100637	7.09582802188165	14.4390527100637	94.2029639871851	-25.85162714983942	-9.130512043700517	4.219622675471619	-4.849471494871102	-15.540687022953627	4.219622675471619	88.80807448793104	-18.586345748660747	7.265281401178667	-18.942750550048423	14.031861181819462	4	correct	1.0
340.22160310007166	9.524870499968074	go_reward	1.0	340.2321285000071	342.7090944999368	345.2231622999534	2.476965999929689	341.23684309993405	344.21375729993406	348.26790320000146	1.4722514000027331	1.009405000019342	1.489095799973711	347.26062009995803	0.3353900999063626	346.23535289999563	2	1	100	3	go_reward	1	1	0	1	0	0	0	1.0	0.0	0	1.0	0.3353900999063626	2037.980765699991	2378.212894199998	2379.217608799925	2380.689860199928	2382.194522999925	2383.2039279999444	2384.2161185999867	2385.241385799949	2386.2486688999925	2387.737764699966	2020-09-10 10:47:50.565154	1.88568378581704	3.77509120330316	14.4390527100637	17.552941776736	12.5533689242467	14.4390527100637	-1.88568378581704	14.4390527100637	3.77509120330316	14.4390527100637	12.5533689242467	-14.4390527100637	-16.6227186758403	-5.355420840397357	4.219622675471619	-1.7355824281988035	-10.083146120588578	4.219622675471619	-19.833942209317758	-11.243121060478698	5.379597615361666	-4.5036978399847225	3.3678996750589203	4	wrong	1.0
349.77997770009097	9.144884899957106	go_punish	0.3204078999115154	349.7905031000264	352.00625299999956	354.54618229996413	2.2157498999731615	350.7952369999839	353.536911600037	357.5896525999997	1.2110160000156611	1.0092706999271286	1.3457353999838233	356.58271520002745	0.4768821999896317	355.5580415999284	2	1	101	1	go_punish	1	0	-1	1	1	1	0	0.0	1.0	0	0.3204078999115154	0.4768821999896317	2037.980765699991	2387.7712688000174	2388.776002699975	2389.9870186999906	2391.517677300028	2392.526947999955	2393.5388072999194	2394.5634809000185	2395.5704182999907	2396.9161536999745	2020-09-10 10:47:50.565154	-1.07038097899711	-0.303056408239879	-0.199113269896178	-0.367500613142693	-1.26949424889329	-0.199113269896178	1.07038097899711	-0.303056408239879	-0.199113269896178	-1.26949424889329	-0.199113269896178	0.303056408239879	-19.57878344065445	-9.433568451940396	-10.41854330448826	-19.656024818077494	-23.90600929372857	-10.41854330448826	-5.091833091014179	-26.95166801943569	-7.372884578781211	-19.245806958288302	-0.6063047981404175	4	correct	1.0
358.96007070003543	8.986267999978736	go_punish	0.2489644000306725	358.97059609997086	361.13783269992564	363.67547120002564	2.1672365999547765	359.9760812999448	362.6661727000028	366.7188426000066	1.161751399980858	1.009298500022851	1.2380214999429882	365.71154639997985	0.2881404000800103	364.68766679999	2	1	102	1	go_punish	1	0	-1	1	1	1	0	0.0	1.0	0	0.2489644000306725	0.2881404000800103	2037.980765699991	2396.951361799962	2397.956846999936	2399.1185983999167	2400.646938399994	2401.6562369000167	2402.668432499981	2403.692312099971	2404.6996082999976	2405.9376297999406	2020-09-10 10:47:50.565154	-1.04660529100411	-0.288601601335408	-0.199113269896178	-0.350275793319228	-1.24571856090029	-0.199113269896178	1.04660529100411	-0.288601601335408	-0.199113269896178	-1.24571856090029	-0.199113269896178	0.288601601335408	-19.55500775266145	-9.419113645035925	-10.41854330448826	-19.63879999825403	-23.882233605735568	-10.41854330448826	-5.10628789791865	-26.92789233144269	-7.372884578781211	-19.23135215138383	-0.6063047981404175	4	correct	1.0
367.99680150009226	8.423261199961416	nogo_punish	1.0	368.0073269000277	369.9106589999287	372.4237567000091	1.9033320999010357	369.0124957000371	371.41505980002694	375.46758079994515	0.8981632998916211	1.0086968999821693	0.9630073000439552	374.45999300002586	0.3550229000393301	373.43589520000387	2	1	103	2	nogo_punish	1	-1	0	0	0	1	0	0.0	1.0	0	1.0	0.3550229000393301	2037.980765699991	2405.9880926000187	2406.993261400028	2407.8914246999198	2409.395825500018	2410.4045224	2411.416660899995	2412.440758700017	2413.448346499936	2414.41135379998	2020-09-10 10:47:50.565154	0.646774950022767	0.0	-0.260450797683837	-0.260450797683837	-0.907225747706604	-0.260450797683837	-0.646774950022767	-0.260450797683837	0.0	-0.260450797683837	-0.907225747706604	0.260450797683837	-17.861627511634573	-9.130512043700517	-10.479880832275919	-19.54897500261864	-23.543740792541882	-10.479880832275919	-5.134438701570221	-25.942624568226236	-8.080997056591638	-19.20320134773226	-0.40719152824423954	4	correct	1.0
376.46896640001796	8.017033400014043	nogo_punish	1.0	376.4794917999534	377.83324920001905	380.3514610999264	1.3537574000656605	377.4849853999913	379.3379669999704	383.3943316999357	0.34826380002778023	1.0134940999560058	1.1021935000317171	382.3870568999555	0.3694024999858811	381.3633819000097	2	1	104	2	nogo_punish	0	0	-1	0	0	1	0	0.0	1.0	-1	1.0	0.3694024999858811	2037.980765699991	2414.4602574999444	2415.4657510999823	2415.81401490001	2417.3187326999614	2418.3322267999174	2419.3441476000007	2420.3678225999465	2421.3750973999267	2422.4772908999585	2020-09-10 10:47:50.565154	0.652552376821026	0.0	-0.247895993474258	-0.247895993474258	-0.900448370295283	-0.247895993474258	-0.652552376821026	-0.247895993474258	0.0	-0.247895993474258	-0.900448370295283	-2.1560301439634517	-17.855850084836312	-9.130512043700517	-10.467326028066338	-19.53642019840906	-23.53696341513056	-10.467326028066338	-7.55091964321751	-25.930069764016658	-8.074219679180317	-19.190646543522682	-0.40719152824423954	4	correct	1.0
384.51852440007497	8.400031000026502	nogo_reward	0.2867440999252721	384.5290498000104	385.9961439999752	388.535563500016	1.4670941999647766	385.5334027999779	387.5258505999809	391.57960429997183	0.4627411999972537	1.0097129000350833	1.349476500065066	390.571570500033	0.395084600080736	389.5477137999842	2	1	105	4	nogo_reward	1	0	1	0	1	0	0	0.0	1.0	0	0.2867440999252721	0.395084600080736	2037.980765699991	2422.5098155000014	2423.514168499969	2423.976909699966	2425.506616299972	2426.516329200007	2427.528479499975	2428.552336200024	2429.560369999963	2430.909846500028	2020-09-10 10:47:50.565154	5.76972213941799	6.17513862275375	3.77509120330316	7.57679399974109	9.54481334272115	3.77509120330316	-5.76972213941799	6.17513862275375	3.77509120330316	9.54481334272115	3.77509120330316	-6.17513862275375	-12.73868032223935	-2.955373420946766	-6.444338831288921	-11.711730205193712	-13.091701702114127	-6.444338831288921	-11.570028122007809	-16.13736042782125	-3.3986801055818736	-12.767611927294674	3.3678996750589203	4	correct	1.0
392.96930980007164	8.26915830001235	go_reward	1.0	392.9798352000071	394.64644269994506	397.16152299998794	1.6666074999379816	393.9847017999273	396.15180699992925	400.20538780000106	0.6617409000177759	1.0097160000586882	1.043605700018361	399.19746239995584	0.741475599934347	398.17384139995556	2	1	106	3	go_reward	1	1	0	1	0	0	0	0.0	1.0	0	1.0	0.741475599934347	2037.980765699991	2430.960600899998	2431.9654674999183	2432.627208399936	2434.1325726999203	2435.142288699979	2436.1546070999466	2437.178228099947	2438.186153499992	2439.2297592000104	2020-09-10 10:47:50.565154	1.65863217886326	3.77509120330316	13.7778505734329	16.739505335693	12.1192183945696	13.7778505734329	-1.65863217886326	13.7778505734329	3.77509120330316	13.7778505734329	12.1192183945696	-13.7778505734329	-16.84977028279408	-5.355420840397357	3.558420538840819	-2.5490188692418023	-10.517296650265678	3.558420538840819	-19.172740072686956	-11.904323197109498	4.945447085684567	-5.164899976615523	3.3678996750589203	4	correct	1.0
401.2857575000962	8.614722799975425	go_reward	0.3928691999753937	401.29628290003166	403.1122192000039	405.6569143999368	1.8159362999722362	402.3016347999219	404.6424638000317	408.702085900004	0.810584400082007	1.0144505999051034	1.2089198000030592	407.69505179999396	0.4114642000058666	406.6683015000308	2	1	107	3	go_reward	1	1	0	1	1	1	0	0.0	1.0	1	0.3928691999753937	0.4114642000058666	2037.980765699991	2439.2770486000227	2440.282400499913	2441.092984899995	2442.6232295000227	2443.637680099928	2444.649067200022	2445.675817499985	2446.682851599995	2447.891771399998	2020-09-10 10:47:50.565154	-1.44381345579935	3.77509120330316	13.151955047381	15.9699018088292	11.7081415915816	13.151955047381	1.44381345579935	3.77509120330316	13.151955047381	11.7081415915816	13.151955047381	90.42787278388194	-19.95221591745669	-5.355420840397357	2.9325250127889184	-3.318622396105603	-10.928373453253679	2.9325250127889184	85.03298328462787	-13.9740321789608	5.978183738495966	-15.167659346745264	12.744763519136761	4	correct	1.0
409.9494076000992	8.16569489997346	nogo_punish	1.0	409.95993300003465	411.32049660000484	413.8382945000194	1.3605635999701917	410.96421260002535	412.82495989999734	416.88267989992164	0.356283999979496	1.0133346000220627	1.2429480000864714	415.8748973000329	0.2773473000852391	414.8504605999915	2	1	108	2	nogo_punish	0	0	-1	0	0	1	0	0.0	1.0	-1	1.0	0.2773473000852391	2037.980765699991	2447.9406987000257	2448.9449783000164	2449.301262299996	2450.8057255999884	2451.8190602000104	2452.8312262999825	2453.855663000024	2454.8634455999127	2456.106393599999	2020-09-10 10:47:50.565154	0.611493819123794	0.0	-0.338173952589628	-0.338173952589628	-0.949667771713421	-0.338173952589628	-0.611493819123794	-0.338173952589628	0.0	-0.338173952589628	-0.949667771713421	-2.065752184848082	-17.896908642533546	-9.130512043700517	-10.55760398718171	-19.62669815752443	-23.5861828165487	-10.55760398718171	-7.460641684102139	-26.020347723132026	-8.123439080598455	-19.28092450263805	-0.40719152824423954	4	correct	1.0
418.14950840000574	8.297264100051962	nogo_reward	0.2740723000606522	418.1600337999412	419.85170200001403	422.3916469999822	1.6916682000728542	419.16522560000885	421.3812068999978	425.43655660003424	0.6864764000051764	1.0104400999844074	1.0207412999588996	424.4293655999936	0.3594518000027165	423.40337630000477	2	1	109	4	nogo_reward	1	0	1	0	1	0	0	0.0	1.0	0	0.2740723000606522	0.3594518000027165	2037.980765699991	2456.140799499932	2457.1459913	2457.832467700005	2459.361972599989	2460.372412699973	2461.384141999996	2462.4101312999846	2463.4173223000253	2464.438063599984	2020-09-10 10:47:50.565154	5.30720517520298	5.89455100232631	3.77509120330316	7.23708978988875	9.08229637850613	3.77509120330316	-5.30720517520298	5.89455100232631	3.77509120330316	9.08229637850613	3.77509120330316	-5.89455100232631	-13.20119728645436	-3.235961041374207	-6.444338831288921	-12.051434415046053	-13.554218666329147	-6.444338831288921	-11.289440501580367	-16.59987739203627	-3.3986801055818736	-13.048199547722113	3.3678996750589203	4	correct	1.0
426.4812404999975	8.912437800085172	nogo_reward	0.2610517999855801	426.49176589993294	428.9119251000229	431.4493178999983	2.4201592000899836	427.49679380003363	430.44048330001533	434.49508999998216	1.415131299989298	1.0088345999829471	0.9091137000359595	433.48502929997676	0.3086528000421822	432.46129240002483	2	1	110	4	nogo_reward	1	0	1	0	1	0	0	0.0	1.0	0	0.2610517999855801	0.3086528000421822	2037.980765699991	2464.472531599924	2465.4775595000247	2466.892690800014	2468.4212490000064	2469.4300835999893	2470.442058100016	2471.465794999968	2472.475855699973	2473.384969400009	2020-09-10 10:47:50.565154	4.86897689870742	5.62883744918273	3.77509120330316	6.91521721919944	8.64406810201057	3.77509120330316	-4.86897689870742	5.62883744918273	3.77509120330316	8.64406810201057	3.77509120330316	-5.62883744918273	-13.63942556294992	-3.5016745945177865	-6.444338831288921	-12.373306985735361	-13.992446942824708	-6.444338831288921	-11.023726948436789	-17.038105668531827	-3.3986801055818736	-13.313913100865694	3.3678996750589203	4	correct	1.0
435.4587256000377	9.060344199999236	nogo_punish	1.0	435.46925099997316	438.0801925000269	440.5934931000229	2.610941500053741	436.4752934999997	439.58506209996995	443.6368126999587	1.604899000027217	1.0084310000529513	0.8927825000137091	442.6294529000297	0.3080072000157088	441.60581380000804	2	1	111	2	nogo_punish	1	-1	0	0	0	1	0	0.0	1.0	0	1.0	0.3080072000157088	2037.980765699991	2473.450016699964	2474.4560591999907	2476.060958200018	2477.565827799961	2478.574258800014	2479.586579499999	2480.6102186000207	2481.6175783999497	2482.5103608999634	2020-09-10 10:47:50.565154	0.572530010599119	0.0	-0.423918760385499	-0.423918760385499	-0.996448770984619	-0.423918760385499	-0.572530010599119	-0.423918760385499	0.0	-0.423918760385499	-0.996448770984619	0.423918760385499	-17.93587245105822	-9.130512043700517	-10.64334879497758	-19.7124429653203	-23.632963815819895	-10.64334879497758	-4.970970738868559	-26.106092530927896	-8.170220079869653	-19.36666931043392	-0.40719152824423954	4	correct	1.0
444.54713720001746	9.952786599984393	nogo_reward	0.2375066000968217	444.5576625999529	447.51732210000046	450.05566790001467	2.9596595000475645	445.5622141000349	449.0460397999268	453.1003137999214	1.9551079999655485	1.0096281000878662	1.4101354000158608	452.0929613999324	0.3203249999787658	451.0677151000132	2	1	112	4	nogo_reward	1	0	1	0	1	0	1	1.0	1.0	0	0.2375066000968217	0.3203249999787658	2037.980765699991	2482.538428299944	2483.542979800026	2485.4980877999915	2487.026805499918	2488.0364336000057	2489.048480800004	2490.0737270999234	2491.0810794999124	2492.4912148999283	2020-09-10 10:47:50.565154	4.45362235786297	5.37712536785879	3.77509120330316	6.61013787385663	8.22871356116612	3.77509120330316	-4.45362235786297	5.37712536785879	3.77509120330316	8.22871356116612	3.77509120330316	-5.37712536785879	-14.054780103794371	-3.7533866758417265	-6.444338831288921	-12.678386331078173	-14.407801483669157	-6.444338831288921	-10.772014867112848	-17.453460209376278	-3.3986801055818736	-13.565625182189633	3.3678996750589203	4	correct	1.0
454.5524551999988	8.909883800079115	nogo_reward	0.2434475999325513	454.56298059993424	457.1333110999549	459.67146660003345	2.5703305000206456	455.5678276999388	458.6621228000149	462.7159518999979	1.5654834000160918	1.0093438000185415	0.75691250001546	461.7077211999572	0.3025838000467047	460.6832962000044	2	1	113	4	nogo_reward	1	0	1	0	1	0	0	0.0	1.0	0	0.2434475999325513	0.3025838000467047	2037.980765699991	2492.5437462999253	2493.54859339993	2495.114076799946	2496.642888500006	2497.6522323000245	2498.6640618999954	2499.688486899948	2500.696717599989	2501.4536301000044	2020-09-10 10:47:50.565154	4.059815232338	5.13859711336684	3.77509120330316	6.32087836028057	7.83490643564116	3.77509120330316	-4.059815232338	5.13859711336684	3.77509120330316	7.83490643564116	3.77509120330316	-5.13859711336684	-14.44858722931934	-3.9919149303336763	-6.444338831288921	-12.967645844654232	-14.801608609194119	-6.444338831288921	-10.533486612620898	-17.84726733490124	-3.3986801055818736	-13.804153436681583	3.3678996750589203	4	correct	1.0
463.51582050009165	8.148961699916981	nogo_punish	1.0	463.5263459000271	464.91743429994676	467.4314760999987	1.3910883999196813	464.5316940000048	466.42216259997804	470.47672069992404	0.3857402999419719	1.009313500020653	1.1985869000200182	469.4684739999939	0.3454383999342099	468.4434241999411	2	1	114	2	nogo_punish	1	-1	0	0	0	1	0	0.0	1.0	0	1.0	0.3454383999342099	2037.980765699991	2501.507111600018	2502.512459699996	2502.898199999938	2504.402928299969	2505.4122417999897	2506.424189899932	2507.449239699985	2508.457486399915	2509.656073299935	2020-09-10 10:47:50.565154	0.582057653851164	0.0	-0.403239924846937	-0.403239924846937	-0.985297578698102	-0.403239924846937	-0.582057653851164	-0.403239924846937	0.0	-0.403239924846937	-0.985297578698102	0.403239924846937	-17.926344807806178	-9.130512043700517	-10.622669959439019	-19.69176412978174	-23.62181262353338	-10.622669959439019	-4.991649574407121	-26.085413695389335	-8.159068887583135	-19.34599047489536	-0.40719152824423954	4	correct	1.0
471.6979556999863	8.611721200054035	nogo_reward	0.275608199997805	471.70848109992176	473.3583348999964	475.8953383000335	1.649853800074652	472.71391319995746	474.88593959994614	478.92381659999955	0.6444217000389472	1.0093987000873312	1.3963856999762356	477.91638790001116	1.0	476.9076160999248	2	1	115	4	nogo_reward	1	0	1	0	1	0	1	n/a	0.0	1	0.275608199997805	1.0	2037.980765699991	2509.689246799913	2510.6946788999485	2511.3391005999874	2512.866705299937	2513.8761040000245	2514.888381799916	2515.897153600002	2516.9045822999906	2518.300967999967	2020-09-10 10:47:50.565154	3.68631197606735	4.91248634480395	3.77509120330316	6.04652601017617	7.46140317937051	3.77509120330316	-3.68631197606735	4.91248634480395	3.77509120330316	7.46140317937051	3.77509120330316	-4.91248634480395	-14.82209048558999	-4.218025698896566	-6.444338831288921	-13.241998194758633	-15.175111865464768	-6.444338831288921	-10.307375844058008	-18.22077059117189	-3.3986801055818736	-14.030264205244473	3.3678996750589203	4	missed	0.0
480.343489699997	8.304733600001327	nogo_reward	0.2641637000488117	480.35401509993244	481.9137893000152	484.4573075999506	1.5597742000827566	481.35802019992843	483.44392600003675	487.50091259996407	0.5557691000867635	1.0133815999138278	1.1578360999696997	486.49360129993875	0.2877387000480667	485.469089300022	2	1	116	4	nogo_reward	0	1	0	0	1	0	0	0.0	1.0	1	0.2641637000488117	0.2877387000480667	2037.980765699991	2518.3347807999235	2519.3387858999195	2519.894555000006	2521.424691700028	2522.4380732999416	2523.449855000013	2524.4743669999298	2525.481678299955	2526.639514399925	2020-09-10 10:47:50.565154	9.14281056359333	8.4731658342246	3.77509120330316	9.56131608454894	12.9179017668965	3.77509120330316	-9.14281056359333	8.4731658342246	3.77509120330316	12.9179017668965	3.77509120330316	85.7297981529605	-9.365591898064011	-0.6573462094759162	-6.444338831288921	-9.727208120385862	-9.718613277938777	-6.444338831288921	80.33490865370644	-12.764272003645898	-3.3986801055818736	-10.469584715823823	3.3678996750589203	4	correct	1.0
488.6993290000828	8.521579899941571	nogo_punish	1.0	488.70985440001823	490.67351340001915	493.1881000000285	1.9636590000009164	489.71435769996606	492.1785459999228	496.2310128000099	0.9591557000530884	1.0095540001057088	1.00042149994988	495.2238315999275	0.3004726000363007	494.1993357000174	2	1	117	2	nogo_punish	1	-1	0	0	0	1	0	0.0	1.0	0	1.0	0.3004726000363007	2037.980765699991	2526.6906201000093	2527.695123399957	2528.65427910001	2530.159311699914	2531.1688657000195	2532.1801014000084	2533.2045972999185	2534.211778500001	2535.212199999951	2020-09-10 10:47:50.565154	0.5910531629727	0.0	-0.383702418038081	-0.383702418038081	-0.974755581010781	-0.383702418038081	-0.5910531629727	-0.383702418038081	0.0	-0.383702418038081	-0.974755581010781	0.383702418038081	-17.91734929868464	-9.130512043700517	-10.603132452630161	-19.672226622972882	-23.61127062584606	-10.603132452630161	-5.011187081215977	-26.06587618858048	-8.148526889895814	-19.326452968086503	-0.40719152824423954	4	correct	1.0
497.25640130008105	8.46885989990551	go_punish	0.3692640999797731	497.2669267000165	498.6856479999842	501.22852709994186	1.4187212999677286	498.2721789999632	500.21481359994505	504.2733956000302	0.41346900002099574	1.0137134999968112	1.4623909998917952	503.265121600009	0.4079576000804081	502.24102469999343	2	1	118	1	go_punish	0	-1	0	1	1	1	0	0.0	1.0	-1	0.3692640999797731	0.4079576000804081	2037.980765699991	2535.2476924000075	2536.2529446999542	2536.6664136999752	2538.195579299936	2539.209292799933	2540.2217903999845	2541.2458873	2542.254161300021	2543.716552299913	2020-09-10 10:47:50.565154	-1.02410759993201	-0.274930973781176	-0.199113269896178	-0.333973573716062	-1.22322086982819	-0.199113269896178	1.02410759993201	-0.274930973781176	-0.199113269896178	-1.22322086982819	-0.199113269896178	-2.128995163656534	-19.53251006158935	-9.405443017481693	-10.41854330448826	-19.622497778650864	-23.859735914663467	-10.41854330448826	-7.523884662910591	-26.905394640370588	-7.372884578781211	-19.217681523829597	-0.6063047981404175	4	correct	1.0
505.7608099000063	9.307387300068058	go_punish	1.0	505.7713352999417	508.3111485999543	510.82892300002277	2.539813300012611	506.7759301000042	509.816206999938	513.8718462999677	1.5352184999501333	1.0127160000847653	1.2068763000420404	512.8643468000228	0.33932430006098	511.8406460999977	2	1	119	1	go_punish	1	0	-1	1	0	0	0	0.0	1.0	-1	1.0	0.33932430006098	2037.980765699991	2543.7521009999327	2544.756695799995	2546.2919142999453	2547.796972699929	2548.809688700014	2549.8214117999887	2550.845112500014	2551.8526119999588	2553.059488300001	2020-09-10 10:47:50.565154	1.16058875142076	-0.364144160628402	-0.199113269896178	-0.420685912988448	-1.35970202131694	-0.199113269896178	-1.16058875142076	-0.199113269896178	-0.364144160628402	-0.199113269896178	-1.35970202131694	-2.204812867541532	-17.34781371023658	-9.494656204328919	-10.41854330448826	-19.70921011792325	-23.99621706615222	-10.41854330448826	-7.59970236679559	-25.881287040438576	-8.533473330201973	-19.1418638199446	-0.7713356888726415	4	correct	1.0
515.1017242000671	8.40065039996989	nogo_reward	0.4088317999849096	515.1122496000025	516.4701668999624	519.0149566000332	1.3579172999598086	516.1175321999472	518.0010361999739	522.0565017999616	0.35263470001518726	1.0139204000593054	1.4563982000108808	521.0495093000354	0.4411907999310642	520.0268435999751	2	1	120	4	nogo_reward	0	1	0	0	1	0	0	0.0	1.0	1	0.4088317999849096	0.4411907999310642	2037.980765699991	2553.0930152999936	2554.098297899938	2554.4509325999534	2555.981801899965	2556.995722300024	2558.007609299966	2559.0302750000264	2560.0372674999526	2561.4936656999635	2020-09-10 10:47:50.565154	14.3303803153671	11.8573297812862	3.77509120330316	12.9018135241443	18.1054715186702	3.77509120330316	-14.3303803153671	11.8573297812862	3.77509120330316	18.1054715186702	3.77509120330316	82.3456342058989	-4.178022146290241	2.7268177375856837	-6.444338831288921	-6.386710680790502	-4.531043526165078	-6.444338831288921	76.95074470664484	-7.576702251872199	-3.3986801055818736	-7.085420768762223	3.3678996750589203	4	correct	1.0
