onset	duration	trial_type	response_time	cueOnset	targetOnset	fbOnset	cueRT	firstfixOnset	secondfixOnset	waitOnset	firstfixdur	secondfixdur	waitdur	nback_fbOnset	nback_response_time	nback_targetOnset	block	wm	trial	cue	cond	is_common	outcome_go	outcome_nogo	key_correct	key_pressed	is_correct	key_correct_nback	key_pressed_nback	is_correct_nback	outcome	rt	rt_nback	time_scan	time_onset	time_isi1	time_circle	time_isi2	time_feedback	time_same	time_correct	time_iti	time_done	timestamp_scan	DV	Qgo	Qnogo	SV	Wgo	Wnogo	mDV	Qchosen	Qunchosen	Wchosen	Wunchosen	PE	DVC	QgoC	QnogoC	SVC	WgoC	WnogoC	PEC	WchosenC	WunchosenC	QchosenC	QunchosenC	run	outcome_nback	nback_targetResp
0.0	8.364080899977125	nogo_punish	1.0	0.06147419998887926	1.5310439999448135	4.047494999947958	1.4695697999559343	1.0661241000054815	3.0368829999351874	7.081797000020742	0.464919899939332	1.0106120000127703	1.343758099945262	6.0755075999770725	1.0	5.066107099992223	2	1	1	2	nogo_punish	1	-1	0	0	0	1	0	n/a	0.0	0	1.0	1.0	1450.0979831999866	1450.1594573999755	1451.164107299992	1451.6290271999314	1453.1348661999218	1454.1454781999346	1455.1640902999789	1456.1734907999637	1457.1797802000074	1458.5235382999526	2020-09-10 10:38:02.682191	0.764603359348582	0.0	0.0	0.0	-0.764603359348582	0.0	-0.764603359348582	0.0	0.0	0.0	-0.764603359348582	0.0	-17.74379910230876	-9.130512043700517	-10.219430034592081	-19.288524204934802	-23.40111840418386	-10.219430034592081	-5.394889499254058	-25.6821737705424	-7.938374668233616	-18.942750550048423	-0.40719152824423954	3	missed	0.0
8.46206239995081	8.855969900032505	go_reward	1.0	8.523536599939689	10.853529099956859	13.372918999986723	2.3299925000171697	9.528249299968593	12.3585507000098	16.426629599998478	1.325279799988266	1.0143682999769226	0.9528768999737167	15.419885999988765	0.5523674000287428	14.384057299932465	2	1	2	3	go_reward	0	0	1	1	0	0	0	0.0	1.0	1	1.0	0.5523674000287428	1450.0979831999866	1458.6215197999263	1459.6262324999552	1460.9515122999435	1462.4565338999964	1463.4709021999734	1464.482040499919	1465.5178691999754	1466.524612799985	1467.4774896999588	2020-09-10 10:38:02.682191	0.764603359348582	0.0	0.0	0.0	-0.764603359348582	0.0	-0.764603359348582	0.0	0.0	0.0	-0.764603359348582	94.2029639871851	-17.74379910230876	-9.130512043700517	-10.219430034592081	-19.288524204934802	-23.40111840418386	-10.219430034592081	88.80807448793104	-25.6821737705424	-7.938374668233616	-18.942750550048423	-0.40719152824423954	3	correct	1.0
17.367273399955593	9.046130200033076	nogo_punish	1.0	17.428747599944472	19.999348799930885	22.51422829995863	2.570601199986413	18.43303289997857	21.504577399929985	25.5632458999753	1.5663158999523148	1.009650900028646	0.9116319000022486	24.556581299985055	0.5806368000339717	23.525872700032778	2	1	3	2	nogo_punish	1	-1	0	0	0	1	1	1.0	1.0	0	1.0	0.5806368000339717	1450.0979831999866	1467.526730799931	1468.5310160999652	1470.0973319999175	1471.6025605999166	1472.6122114999453	1473.6238559000194	1474.6545644999717	1475.661229099962	1476.5728609999642	2020-09-10 10:38:02.682191	0.764603359348582	0.0	0.0	0.0	-0.764603359348582	0.0	-0.764603359348582	0.0	0.0	0.0	-0.764603359348582	0.0	-17.74379910230876	-9.130512043700517	-10.219430034592081	-19.288524204934802	-23.40111840418386	-10.219430034592081	-5.394889499254058	-25.6821737705424	-7.938374668233616	-18.942750550048423	-0.40719152824423954	3	correct	1.0
26.482245499966666	8.345299700042233	nogo_reward	1.0	26.543719699955545	28.103058599983342	30.62281540001277	1.5593389000277966	27.5471521000145	29.608171300031472	33.65095529996347	0.5559064999688417	1.0146440999812967	1.2380641000343076	32.64386890002061	1.0	31.63445270003308	2	1	4	4	nogo_reward	1	0	1	0	0	1	0	n/a	0.0	1	1.0	1.0	1450.0979831999866	1476.6417028999422	1477.6451353000011	1478.20104179997	1479.706154500018	1480.7207985999994	1481.7324359000197	1482.7418521000072	1483.74893849995	1484.9870025999844	2020-09-10 10:38:02.682191	0.764603359348582	0.0	0.0	0.0	-0.764603359348582	0.0	-0.764603359348582	0.0	0.0	0.0	-0.764603359348582	94.2029639871851	-17.74379910230876	-9.130512043700517	-10.219430034592081	-19.288524204934802	-23.40111840418386	-10.219430034592081	88.80807448793104	-25.6821737705424	-7.938374668233616	-18.942750550048423	-0.40719152824423954	3	missed	0.0
34.87872509995941	8.148381600040011	go_reward	1.0	34.94019929994829	36.5068992000306	39.02646419999655	1.5666999000823125	35.94477399997413	38.012304099975154	42.06999260000907	0.5621252000564709	1.0141601000213996	1.0185882999792284	41.06327569996938	0.3668966999975964	40.03868070000317	2	1	5	3	go_reward	0	0	1	1	0	0	0	0.0	1.0	1	1.0	0.3668966999975964	1450.0979831999866	1485.038182499935	1486.0427571999608	1486.6048824000172	1488.1102872999618	1489.1244473999832	1490.1366638999898	1491.161258899956	1492.1679757999957	1493.186564099975	2020-09-10 10:38:02.682191	2.50392156562733	0.0	3.77509120330316	3.77509120330316	1.27116963767583	3.77509120330316	-2.50392156562733	3.77509120330316	0.0	3.77509120330316	1.27116963767583	90.42787278388194	-16.00448089603001	-9.130512043700517	-6.444338831288921	-15.513433001631643	-21.36534540715945	-6.444338831288921	85.03298328462787	-21.90708256723924	-5.9026016712092035	-15.167659346745264	-0.40719152824423954	3	correct	1.0
43.08815249998588	8.703988100052811	go_punish	1.0	43.14962669997476	44.810708299977705	47.329769099946134	1.6610816000029445	44.154682599939406	46.31572389998473	50.37241109996103	0.656025700038299	1.0140451999614015	1.4812037000665441	49.36511130002327	0.3945105999009684	48.34204849996627	2	1	6	1	go_punish	1	0	-1	1	0	0	0	0.0	1.0	-1	1.0	0.3945105999009684	1450.0979831999866	1493.2476098999614	1494.252665799926	1494.9086914999643	1496.4137070999714	1497.4277522999328	1498.440031699953	1499.46309450001	1500.4703942999477	1501.9515980000142	2020-09-10 10:38:02.682191	0.764603359348582	0.0	0.0	0.0	-0.764603359348582	0.0	-0.764603359348582	0.0	0.0	0.0	-0.764603359348582	-2.40392613743771	-17.74379910230876	-9.130512043700517	-10.219430034592081	-19.288524204934802	-23.40111840418386	-10.219430034592081	-7.798815636691767	-25.6821737705424	-7.938374668233616	-18.942750550048423	-0.40719152824423954	3	correct	1.0
51.830176300020184	8.410353499930125	go_punish	0.2544105999404564	51.891650500009064	53.81015459995251	56.350266900029965	1.9185040999434477	52.89628839993384	55.340029099956155	59.399321699980646	0.9138662000186741	1.01023780007381	0.902682299958542	58.391626599943265	0.4074780999217182	57.36205959995277	2	1	7	1	go_punish	1	0	-1	1	1	1	0	1.0	0.0	0	0.2544105999404564	0.4074780999217182	1450.0979831999866	1501.9896336999957	1502.9942715999205	1503.9081377999391	1505.4380122999428	1506.4482501000166	1507.4600427999394	1508.48960979993	1509.4973048999673	1510.3999871999258	2020-09-10 10:38:02.682191	-0.718087222411382	0.0	-0.102146082904576	-0.102146082904576	-0.820233305315958	-0.102146082904576	0.718087222411382	0.0	-0.102146082904576	-0.820233305315958	-0.102146082904576	0.0	-19.22648968406872	-9.130512043700517	-10.321576117496658	-19.390670287839377	-23.456748350151237	-10.321576117496658	-5.394889499254058	-26.502407075858358	-7.275917391789609	-18.942750550048423	-0.5093376111488155	3	wrong	1.0
60.29130929999519	8.3592018999625	nogo_punish	1.0	60.35278349998407	61.77149459999055	64.28595229994971	1.418711100006476	61.35794070002157	63.27649449999444	67.3284003000008	0.4135538999689743	1.0094577999552712	1.3835850999457762	66.3210315000033	0.527229700004682	65.29747300001327	2	1	8	2	nogo_punish	1	-1	0	0	0	1	0	0.0	1.0	0	1.0	0.527229700004682	1450.0979831999866	1510.4507666999707	1511.4559239000082	1511.8694777999772	1513.374477699981	1514.3839354999363	1515.3954562	1516.41901469999	1517.4263834999874	1518.8099685999332	2020-09-10 10:38:02.682191	0.764603359348582	0.0	0.0	0.0	-0.764603359348582	0.0	-0.764603359348582	0.0	0.0	0.0	-0.764603359348582	0.0	-17.74379910230876	-9.130512043700517	-10.219430034592081	-19.288524204934802	-23.40111840418386	-10.219430034592081	-5.394889499254058	-25.6821737705424	-7.938374668233616	-18.942750550048423	-0.40719152824423954	3	correct	1.0
68.70455699996091	8.357480600010604	nogo_punish	1.0	68.7660311999498	70.32132769993041	72.83511909993831	1.5552964999806136	69.77057099994249	71.82605189993046	75.88065179996192	0.5507566999879145	1.0090672000078484	1.2428599999984726	74.87363229994662	0.4203846999444067	73.84715489996597	2	1	9	2	nogo_punish	1	-1	0	0	0	1	0	0.0	1.0	0	1.0	0.4203846999444067	1450.0979831999866	1518.8640143999364	1519.8685541999291	1520.419310899917	1521.924035099917	1522.933102299925	1523.9451380999526	1524.9716154999333	1525.9786349999486	1527.221494999947	2020-09-10 10:38:02.682191	0.764603359348582	0.0	0.0	0.0	-0.764603359348582	0.0	-0.764603359348582	0.0	0.0	0.0	-0.764603359348582	0.0	-17.74379910230876	-9.130512043700517	-10.219430034592081	-19.288524204934802	-23.40111840418386	-10.219430034592081	-5.394889499254058	-25.6821737705424	-7.938374668233616	-18.942750550048423	-0.40719152824423954	3	correct	1.0
77.11263360001612	8.283806800027378	nogo_punish	1.0	77.174107800005	79.03383880003821	81.55250949994661	1.8597310000332072	78.17914839996956	80.5389598000329	84.59626649995334	0.8546904000686482	1.0135496999137104	0.8616481000790372	83.58926979999546	0.3971844000043347	82.56426020001527	2	1	10	2	nogo_punish	0	0	-1	0	0	1	1	1.0	1.0	-1	1.0	0.3971844000043347	1450.0979831999866	1527.2720909999916	1528.2771315999562	1529.1318220000248	1530.6369430000195	1531.6504926999332	1532.662243400002	1533.687252999982	1534.69424969994	1535.555897800019	2020-09-10 10:38:02.682191	0.764603359348582	0.0	0.0	0.0	-0.764603359348582	0.0	-0.764603359348582	0.0	0.0	0.0	-0.764603359348582	-2.40392613743771	-17.74379910230876	-9.130512043700517	-10.219430034592081	-19.288524204934802	-23.40111840418386	-10.219430034592081	-7.798815636691767	-25.6821737705424	-7.938374668233616	-18.942750550048423	-0.40719152824423954	3	correct	1.0
85.44061940000392	9.98184979998041	nogo_punish	1.0	85.5020935999928	88.46355069999117	90.978782900027	2.96145709999837	86.50759249995463	89.9684081999585	94.02207289997023	1.955958200036548	1.0103747000684962	1.4618705000029877	93.01479669997934	0.3751173999626189	91.9903463999508	2	1	11	2	nogo_punish	1	-1	0	0	0	1	1	1.0	1.0	0	1.0	0.3751173999626189	1450.0979831999866	1535.6000767999794	1536.6055756999413	1538.5615338999778	1540.0663913999451	1541.0767661000136	1542.0883295999374	1543.112779899966	1544.1200560999569	1545.5819265999598	2020-09-10 10:38:02.682191	0.718087222411382	0.0	-0.102146082904576	-0.102146082904576	-0.820233305315958	-0.102146082904576	-0.718087222411382	-0.102146082904576	0.0	-0.102146082904576	-0.820233305315958	0.102146082904576	-17.79031523924596	-9.130512043700517	-10.321576117496658	-19.390670287839377	-23.456748350151237	-10.321576117496658	-5.292743416349482	-25.784319853446974	-7.994004614200992	-19.044896632952998	-0.40719152824423954	3	correct	1.0
95.47036689997185	9.034349199966755	nogo_punish	1.0	95.53184109996073	97.81061209994368	100.33055710000917	2.278770999982953	96.53631170000881	99.31588230002649	103.37732760002837	1.274300399934873	1.0146747999826857	1.1888626998991185	102.37012410000898	0.4131633000215515	101.34232669998892	2	1	12	2	nogo_punish	0	0	-1	0	0	1	1	1.0	1.0	-1	1.0	0.4131633000215515	1450.0979831999866	1545.6298242999474	1546.6342948999954	1547.9085952999303	1549.4138655000131	1550.4285402999958	1551.4403098999755	1552.4681072999956	1553.475310800015	1554.664173499914	2020-09-10 10:38:02.682191	0.720482583993916	0.0	-0.0969671869916025	-0.0969671869916025	-0.817449770985519	-0.0969671869916025	-0.720482583993916	-0.0969671869916025	0.0	-0.0969671869916025	-0.817449770985519	-2.3069589504461074	-17.787919877663423	-9.130512043700517	-10.316397221583683	-19.385491391926404	-23.453964815820797	-10.316397221583683	-7.701848449700165	-25.779140957534	-7.991221079870552	-19.039717737040025	-0.40719152824423954	3	correct	1.0
104.55321309994906	8.031506600091234	go_reward	1.0	104.61468729993794	106.1777168000117	108.69360909995157	1.5630295000737533	105.62017969996668	107.68299210001715	111.73642059997655	0.5575371000450104	1.0106169999344274	0.9097733000526205	110.72968089999631	0.4057229000609368	109.70586149999849	2	1	13	3	go_reward	1	1	0	1	0	0	0	0.0	1.0	0	1.0	0.4057229000609368	1450.0979831999866	1554.7126704999246	1555.7181628999533	1556.2756999999983	1557.7809753000038	1558.7915922999382	1559.8038446999851	1560.827664099983	1561.8344037999632	1562.7441771000158	2020-09-10 10:38:02.682191	4.1551304364039	0.0	7.36264149161519	7.36264149161519	3.20751105521128	7.36264149161519	-4.1551304364039	7.36264149161519	0.0	7.36264149161519	3.20751105521128	-7.36264149161519	-14.353272025253439	-9.130512043700517	-2.856788542976891	-11.925882713319613	-19.429003989623997	-2.856788542976891	-12.757530990869249	-18.31953227892721	-3.9662602536737532	-11.580109058433234	-0.40719152824423954	3	correct	1.0
112.63322600000538	8.605167099973187	nogo_punish	1.0	112.69470019999426	114.34553089994006	116.86037360003706	1.6508306999458	113.69990190002136	115.85092829994369	119.90339839993976	0.6456289999186993	1.0094453000933754	1.3964689000276849	118.89662110002246	0.5471717000473291	117.87128700001631	2	1	14	2	nogo_punish	1	-1	0	0	0	1	1	1.0	1.0	0	1.0	0.5471717000473291	1450.0979831999866	1562.792683399981	1563.797885100008	1564.4435140999267	1565.9489114999303	1566.9583568000237	1567.969270200003	1568.994604300009	1570.0013815999264	1571.397850499954	2020-09-10 10:38:02.682191	0.676224367477607	0.0	-0.194228303113571	-0.194228303113571	-0.870452670591177	-0.194228303113571	-0.676224367477607	-0.194228303113571	0.0	-0.194228303113571	-0.870452670591177	0.194228303113571	-17.83217809417973	-9.130512043700517	-10.413658337705652	-19.482752508048375	-23.506967715426455	-10.413658337705652	-5.200661196140486	-25.87640207365597	-8.044223979476211	-19.136978853161995	-0.40719152824423954	3	correct	1.0
121.2856811999809	8.159840599983	nogo_punish	1.0	121.34715539996978	123.11150090000592	125.62665590003598	1.7643455000361428	122.35231059999228	124.61642089998327	128.6690055000363	0.7591903000136426	1.0102350000527167	0.8379904999164864	127.66299770004116	0.3075231000548228	126.63899050001055	2	1	15	2	nogo_punish	1	-1	0	0	0	1	0	0.0	1.0	0	1.0	0.3075231000548228	1450.0979831999866	1571.4451385999564	1572.450293799979	1573.2094840999926	1574.71440409997	1575.7246391000226	1576.7369736999972	1577.7609809000278	1578.766988700023	1579.6049791999394	2020-09-10 10:38:02.682191	0.680748701468643	0.0	-0.184440347203291	-0.184440347203291	-0.865189048671934	-0.184440347203291	-0.680748701468643	-0.184440347203291	0.0	-0.184440347203291	-0.865189048671934	0.184440347203291	-17.827653760188696	-9.130512043700517	-10.403870381795372	-19.472964552138095	-23.50170409350721	-10.403870381795372	-5.210449152050766	-25.86661411774569	-8.038960357556967	-19.127190897251715	-0.40719152824423954	3	correct	1.0
129.49444689997472	8.601243000011664	go_reward	1.0	129.5559210999636	131.39097259996947	133.90517289994727	1.835051500005875	130.5603429999901	132.89578699995786	136.94801829999778	0.8306295999793747	1.009385899989411	1.2091457999774775	135.94065809994936	0.3292729998938739	134.91725429997314	2	1	16	3	go_reward	1	1	0	1	0	0	0	0.0	1.0	0	1.0	0.3292729998938739	1450.0979831999866	1579.6539042999502	1580.6583261999767	1581.488955799956	1582.9937701999445	1584.003156099934	1585.0152374999598	1586.038641299936	1587.0460014999844	1588.255147299962	2020-09-10 10:38:02.682191	3.98396639406743	0.0	6.99817071418029	6.99817071418029	3.01420432011286	6.99817071418029	-3.98396639406743	6.99817071418029	0.0	6.99817071418029	3.01420432011286	-6.99817071418029	-14.52443606758991	-9.130512043700517	-3.221259320411791	-12.290353490754512	-19.622310724722418	-3.221259320411791	-12.393060213434348	-18.68400305636211	-4.159566988772173	-11.944579835868133	-0.40719152824423954	3	correct	1.0
138.13919979997445	9.759927300037816	nogo_punish	1.0	138.20067399996333	140.91023479995783	143.42580389999785	2.709560799994506	139.20593299996108	142.4154542000033	146.47124500002246	1.704301799996756	1.0103496999945492	1.489356299978681	145.46355720004067	0.3536598000209778	144.43793639994692	2	1	17	2	nogo_punish	1	-1	0	0	0	1	1	1.0	1.0	0	1.0	0.3536598000209778	1450.0979831999866	1588.29865719995	1589.3039161999477	1591.0082179999445	1592.51343739999	1593.5237870999845	1594.5359195999335	1595.5615404000273	1596.569228200009	1598.0585844999878	2020-09-10 10:38:02.682191	0.685014585323104	0.0	-0.175205374207802	-0.175205374207802	-0.860219959530906	-0.175205374207802	-0.685014585323104	-0.175205374207802	0.0	-0.175205374207802	-0.860219959530906	0.175205374207802	-17.823387876334237	-9.130512043700517	-10.394635408799884	-19.463729579142605	-23.496735004366183	-10.394635408799884	-5.219684125046256	-25.8573791447502	-8.033991268415939	-19.117955924256226	-0.40719152824423954	3	correct	1.0
147.93199399998412	8.809033300029114	go_punish	0.2946598998969421	147.993468199973	150.46197159995768	153.00567590002902	2.4685033999846837	148.99792280001566	151.99120930000208	156.0493594999425	1.4640487999420202	1.0144666000269353	0.7531420000595972	155.04244079999626	0.5759357999777421	154.01757249992806	2	1	18	1	go_punish	0	-1	0	1	1	1	0	0.0	1.0	-1	0.2946598998969421	0.5759357999777421	1450.0979831999866	1598.0914513999596	1599.0959060000023	1600.5599547999443	1602.0891924999887	1603.1036591000156	1604.1155556999147	1605.1404239999829	1606.1473426999291	1606.9004846999887	2020-09-10 10:38:02.682191	-0.715303688080943	0.0	-0.102146082904576	-0.0969671869916025	-0.817449770985519	-0.102146082904576	0.715303688080943	0.0	-0.102146082904576	-0.817449770985519	-0.102146082904576	-2.40392613743771	-19.223706149738284	-9.130512043700517	-10.321576117496658	-19.385491391926404	-23.453964815820797	-10.321576117496658	-7.798815636691767	-26.499623541527917	-7.275917391789609	-18.942750550048423	-0.5093376111488155	3	correct	1.0
156.7752679999685	9.783351700054482	nogo_reward	0.2587649000342935	156.83674219995737	159.56593859998975	162.10874269995838	2.7291964000323787	157.84223259997088	161.09462550003082	165.15135129995178	1.7237060000188649	1.0141171999275684	1.468742600060068	164.14416809997056	0.9034240000182764	163.12129409995396	2	1	19	4	nogo_reward	0	1	0	0	1	0	0	1.0	0.0	1	0.2587649000342935	0.9034240000182764	1450.0979831999866	1606.934725399944	1607.9402157999575	1609.6639217999764	1611.1926087000174	1612.206725899945	1613.2192772999406	1614.2421512999572	1615.2493344999384	1616.7180770999985	2020-09-10 10:38:02.682191	-2.50392156562733	0.0	3.77509120330316	3.77509120330316	1.27116963767583	3.77509120330316	2.50392156562733	0.0	3.77509120330316	1.27116963767583	3.77509120330316	94.2029639871851	-21.01232402728467	-9.130512043700517	-6.444338831288921	-15.513433001631643	-21.36534540715945	-6.444338831288921	88.80807448793104	-24.41100413286657	-3.3986801055818736	-18.942750550048423	3.3678996750589203	3	wrong	1.0
166.5929577000204	8.755384700023797	go_punish	1.0	166.65443190000929	169.08053699997254	171.59948069998063	2.4261050999632516	167.65976269997168	170.58599239995237	174.64361199992686	1.4207743000008577	1.013488300028257	0.7662046001062208	173.63587460003328	0.6143400999717414	172.6112957999576	2	1	20	1	go_punish	1	0	-1	1	0	0	1	1.0	1.0	-1	1.0	0.6143400999717414	1450.0979831999866	1616.752415099996	1617.7577458999583	1619.1785201999592	1620.683975599939	1621.6974638999673	1622.7092789999442	1623.73385780002	1624.7415951999135	1625.5077998000197	2020-09-10 10:38:02.682191	0.870452670591177	-0.102146082904576	-0.102146082904576	-0.194228303113571	-0.972598753495753	-0.102146082904576	-0.870452670591177	-0.102146082904576	-0.102146082904576	-0.102146082904576	-0.972598753495753	-2.301780054533134	-17.637949791066163	-9.232658126605093	-10.321576117496658	-19.482752508048375	-23.60911379833103	-10.321576117496658	-7.696669553787192	-25.784319853446974	-8.146370062380786	-19.044896632952998	-0.5093376111488155	3	correct	1.0
175.39752530003898	8.854067599982955	go_reward	1.0	175.45899950002786	177.62717340001836	180.14184449997265	2.1681738999905065	176.4637456999626	179.13235720002558	183.1841300999513	1.1634277000557631	1.009487299947068	1.1289370000595227	182.17712280002888	0.3841695000883192	181.1532991999993	2	1	21	3	go_reward	1	1	0	1	0	0	0	0.0	1.0	0	1.0	0.3841695000883192	1450.0979831999866	1625.5569827000145	1626.5617288999492	1627.725156600005	1629.2303404000122	1630.2398276999593	1631.251282399986	1632.2751060000155	1633.282113299938	1634.4110502999974	2020-09-10 10:38:02.682191	3.82259704197218	0.0	6.65426822782494	6.65426822782494	2.83167118585276	6.65426822782494	-3.82259704197218	6.65426822782494	0.0	6.65426822782494	2.83167118585276	-6.65426822782494	-14.68580541968516	-9.130512043700517	-3.565161806767141	-12.634255977109863	-19.80484385898252	-3.565161806767141	-12.049157727078999	-19.02790554271746	-4.3421001230322736	-12.288482322223484	-0.40719152824423954	3	correct	1.0
184.28298879996873	9.43205790000502	nogo_reward	0.2903912999900058	184.3444629999576	187.1751555999508	189.71510519995354	2.830692599993199	185.34875729994383	188.7056896999709	192.7559675000373	1.8263983000069857	1.0094154999826515	1.0205533999253475	191.74842339998577	0.7375264000147581	190.72603230003733	2	1	22	4	nogo_reward	1	0	1	0	1	0	0	0.0	1.0	0	0.2903912999900058	0.7375264000147581	1450.0979831999866	1634.4424461999442	1635.4467404999305	1637.2731387999374	1638.8036728999575	1639.8130883999402	1640.824015500024	1641.8464065999724	1642.853950700024	1643.8745040999493	2020-09-10 10:38:02.682191	3.20751105521128	3.77509120330316	3.77509120330316	7.36264149161519	6.98260225851444	3.77509120330316	-3.20751105521128	3.77509120330316	3.77509120330316	6.98260225851444	3.77509120330316	-3.77509120330316	-15.300891406446059	-5.355420840397357	-6.444338831288921	-11.925882713319613	-15.653912786320838	-6.444338831288921	-9.169980702557218	-18.69957151202796	-3.3986801055818736	-15.167659346745264	3.3678996750589203	3	correct	1.0
193.7640210000102	9.661112300003424	go_reward	1.0	193.82549519999907	196.43679059995338	198.95540370000526	2.611295399954315	194.83042549993843	197.94193490000907	202.00123649998568	1.6063651000149548	1.0134687999961898	1.485371000016812	200.99390919995494	0.4323105999501422	199.96836279996228	2	1	23	3	go_reward	0	0	1	1	0	0	1	1.0	1.0	1	1.0	0.4323105999501422	1450.0979831999866	1643.9234783999857	1644.928408699925	1646.53477379994	1648.0399180999957	1649.053386899992	1650.066345999949	1651.0918923999416	1652.0992196999723	1653.5845906999891	2020-09-10 10:38:02.682191	3.6704139786962	0.0	6.32966918626936	6.32966918626936	2.65925520757315	6.32966918626936	-3.6704139786962	6.32966918626936	0.0	6.32966918626936	2.65925520757315	87.87329480091574	-14.83798848296114	-9.130512043700517	-3.8897608483227213	-12.958855018665442	-19.977259837262128	-3.8897608483227213	82.47840530166168	-19.35250458427304	-4.514516101311884	-12.613081363779063	-0.40719152824423954	3	correct	1.0
203.47058820002712	8.226262899930589	go_reward	1.0	203.532062400016	205.31604419997893	207.83147660002578	1.7839817999629304	204.5373923999723	206.82090970000718	210.8752397999633	0.778651800006628	1.0105669000186026	0.8830854999832809	209.86758219997864	0.6502856999868527	208.84337789996061	2	1	24	3	go_reward	1	1	0	1	0	0	0	0.0	1.0	0	1.0	0.6502856999868527	1450.0979831999866	1653.6300456000026	1654.635375599959	1655.4140273999656	1656.9188928999938	1657.9294598000124	1658.9413610999472	1659.9655653999653	1660.97322299995	1661.8563084999332	2020-09-10 10:38:02.682191	5.26616704826515	0.0	9.79828258187594	9.79828258187594	4.53211553361079	9.79828258187594	-5.26616704826515	9.79828258187594	0.0	9.79828258187594	4.53211553361079	-9.79828258187594	-13.24223541339219	-9.130512043700517	-0.4211474527161414	-9.490241623058862	-18.104399511224486	-0.4211474527161414	-15.193172081129998	-15.883891188666459	-2.641655775274243	-9.144467968172483	-0.40719152824423954	3	correct	1.0
211.7281420000363	8.375931699993089	nogo_reward	0.2439597999909892	211.7896162000252	213.48165229998995	216.02012020000257	1.6920360999647528	212.7949000999797	215.0106206999626	219.06318669999018	0.6867522000102326	1.009499500039965	1.1023612000280991	218.05610369995702	0.6634612999623641	217.03216009994503	2	1	25	4	nogo_reward	1	0	1	0	1	0	0	0.0	1.0	0	0.2439597999909892	0.6634612999623641	1450.0979831999866	1661.8875994000118	1662.8928832999663	1663.5796354999766	1665.1086038999492	1666.1181033999892	1667.1301432999317	1668.1540868999436	1669.1611698999768	1670.263531100005	2020-09-10 10:38:02.682191	2.82666340512173	3.58755028831203	3.77509120330316	6.99817071418029	6.60175460842489	3.77509120330316	-2.82666340512173	3.58755028831203	3.77509120330316	6.60175460842489	3.77509120330316	-3.58755028831203	-15.68173905653561	-5.542961755388486	-6.444338831288921	-12.290353490754512	-16.034760436410387	-6.444338831288921	-8.982439787566088	-19.080419162117508	-3.3986801055818736	-15.355200261736393	3.3678996750589203	3	correct	1.0
220.15156799997203	9.196096800034866	go_reward	1.0	220.2130421999609	222.63435649999906	225.15252679993864	2.421314300038148	221.21838510001544	224.13977010000986	228.19729679997545	1.4159713999836185	1.0127566999287865	1.2118422000203282	227.19030899996847	0.3444048000965267	226.16445839998778	2	1	26	3	go_reward	0	0	1	1	0	0	1	1.0	1.0	1	1.0	0.3444048000965267	1450.0979831999866	1670.3110253999475	1671.316368300002	1672.7323396999857	1674.2377532999965	1675.2505099999253	1676.2624415999744	1677.288292199955	1678.295279999962	1679.5071221999824	2020-09-10 10:38:02.682191	5.0425794282858	0.0	9.32127986872708	9.32127986872708	4.27870044044127	9.32127986872708	-5.0425794282858	9.32127986872708	0.0	9.32127986872708	4.27870044044127	84.88168411845803	-13.46582303337154	-9.130512043700517	-0.8981501658650011	-9.967244336207722	-18.357814604394008	-0.8981501658650011	79.48679461920396	-16.360893901815317	-2.8950708684437636	-9.621470681321343	-0.40719152824423954	3	correct	1.0
229.38125099998433	9.010035400046263	go_punish	0.2680744000244885	229.4427251999732	231.41652600001544	233.9550362000009	1.973800800042227	230.44731540000066	232.94475609995425	236.9974111999618	0.969210600014776	1.010280100046657	1.4553494000576848	235.990019400022	0.5424946000566706	234.96659319999185	2	1	27	1	go_punish	1	0	-1	1	1	1	0	0.0	1.0	0	0.2680744000244885	0.5424946000566706	1450.0979831999866	1679.5407083999598	1680.5452985999873	1681.514509200002	1683.0427392999409	1684.0530193999875	1685.0645763999785	1686.0880026000086	1687.0953943999484	1688.550743800006	2020-09-10 10:38:02.682191	-0.823851807647708	-0.102146082904576	-0.199113269896178	-0.286586430107867	-1.02296507754389	-0.199113269896178	0.823851807647708	-0.102146082904576	-0.199113269896178	-1.02296507754389	-0.199113269896178	0.102146082904576	-19.332254269305047	-9.232658126605093	-10.41854330448826	-19.57511063504267	-23.65948012237917	-10.41854330448826	-5.292743416349482	-26.70513884808629	-7.372884578781211	-19.044896632952998	-0.6063047981404175	3	correct	1.0
238.4420848999871	8.563962899963371	nogo_punish	1.0	238.50355909997597	240.4670627999585	242.98117309994996	1.9635036999825388	239.50750659999903	241.9717565999597	246.0238863999257	0.9595561999594793	1.009416499990266	1.0436356000136584	245.01676799997222	0.4488252000883221	243.99305769999046	2	1	28	2	nogo_punish	1	-1	0	0	0	1	0	0.0	1.0	0	1.0	0.4488252000883221	1450.0979831999866	1688.6015422999626	1689.6054897999857	1690.5650459999451	1692.0697397999463	1693.0791562999366	1694.091040899977	1695.1147511999588	1696.1218695999123	1697.165505199926	2020-09-10 10:38:02.682191	0.68903793481283	0.0	-0.166489598870477	-0.166489598870477	-0.855527533683307	-0.166489598870477	-0.68903793481283	-0.166489598870477	0.0	-0.166489598870477	-0.855527533683307	0.166489598870477	-17.81936452684451	-9.130512043700517	-10.385919633462558	-19.45501380380528	-23.492042578518586	-10.385919633462558	-5.228399900383581	-25.848663369412876	-8.029298842568341	-19.1092401489189	-0.40719152824423954	3	correct	1.0
247.03696920000948	9.304050000035204	go_punish	0.2713018999202177	247.09844339999836	249.86623459996167	252.4057376999408	2.7677911999633125	248.10291729995515	251.39545239997096	255.44793609995395	1.7633173000065199	1.010285299969837	0.9545573000796139	254.4415606999537	0.4366683999542147	253.41726979997475	2	1	29	1	go_punish	1	0	-1	1	1	1	1	1.0	1.0	0	0.2713018999202177	0.4366683999542147	1450.0979831999866	1697.196426599985	1698.2009004999418	1699.9642177999483	1701.4934355999576	1702.5037208999274	1703.5152529999614	1704.5395438999403	1705.5459192999406	1706.5004766000202	2020-09-10 10:38:02.682191	-0.810920288263268	-0.0969671869916025	-0.199113269896178	-0.272172561199405	-1.01003355815945	-0.199113269896178	0.810920288263268	-0.0969671869916025	-0.199113269896178	-1.01003355815945	-0.199113269896178	0.0969671869916025	-19.31932274992061	-9.227479230692119	-10.41854330448826	-19.560696766134207	-23.646548602994727	-10.41854330448826	-5.297922312262455	-26.692207328701848	-7.372884578781211	-19.039717737040025	-0.6063047981404175	3	correct	1.0
256.3824078999462	8.39796780003212	go_punish	0.4480742000741884	256.4438820999351	258.2596937000053	260.79717259993777	1.8158116000702194	257.44878780003637	259.78785179997794	263.84130850003567	0.8109058999689296	1.0093207999598235	1.0005413999315351	262.8339254999303	0.3986504999920726	261.8083210999612	2	1	30	1	go_punish	1	0	-1	1	1	1	0	0.0	1.0	0	0.4480742000741884	0.3986504999920726	1450.0979831999866	1706.5418652999217	1707.546771000023	1708.357676899992	1709.8858349999646	1710.8951557999244	1711.9063042999478	1712.931908699917	1713.9392917000223	1714.9398330999538	2020-09-10 10:38:02.682191	-0.798715849271344	-0.0920822202089951	-0.199113269896178	-0.258571819079472	-0.997829119167522	-0.199113269896178	0.798715849271344	-0.0920822202089951	-0.199113269896178	-0.997829119167522	-0.199113269896178	0.0920822202089951	-19.307118310928683	-9.222594263909512	-10.41854330448826	-19.547096024014273	-23.6343441640028	-10.41854330448826	-5.302807279045062	-26.68000288970992	-7.372884578781211	-19.034832770257417	-0.6063047981404175	3	correct	1.0
264.81479299999774	8.597620700020343	go_punish	0.4906740000005811	264.8762671999866	266.54192550003063	269.08232839999255	1.665658300044015	265.88170419994276	268.0726784999713	272.12436729995534	0.6602213000878692	1.0096499000212589	1.3495206000516191	271.1170634999871	0.3681901000672951	270.09445330000017	2	1	31	1	go_punish	1	0	-1	1	1	1	1	0.0	0.0	0	0.4906740000005811	0.3681901000672951	1450.0979831999866	1714.9742503999732	1715.9796873999294	1716.6399087000173	1718.170661699958	1719.1803115999792	1720.1924364999868	1721.2150466999738	1722.222350499942	1723.5718710999936	2020-09-10 10:38:02.682191	-0.787194219906356	-0.0874731602116888	-0.199113269896178	-0.245734581888375	-0.986307489802534	-0.199113269896178	0.787194219906356	-0.0874731602116888	-0.199113269896178	-0.986307489802534	-0.199113269896178	0.0874731602116888	-19.295596681563698	-9.217985203912205	-10.41854330448826	-19.534258786823177	-23.622822534637812	-10.41854330448826	-5.307416339042369	-26.668481260344933	-7.372884578781211	-19.030223710260113	-0.6063047981404175	3	wrong	1.0
273.4470968999667	9.561560700065456	nogo_reward	0.3531601999420672	273.5085710999556	276.04957519995514	278.5884983999422	2.5410040999995545	274.5134796999628	277.57873549999226	281.63113590003945	1.5360954999923706	1.0097628999499193	1.4389958999815917	280.6241630000293	0.3517777000088244	279.5999557999894	2	1	32	4	nogo_reward	1	0	1	0	1	0	0	0.0	1.0	0	0.3531601999420672	0.3517777000088244	1450.0979831999866	1723.6065542999422	1724.6114628999494	1726.1475583999418	1727.676718699979	1728.6864815999288	1729.697938999976	1730.722146200016	1731.729119100026	1733.1681150000077	2020-09-10 10:38:02.682191	2.46720040841787	3.41062042586827	3.77509120330316	6.65426822782494	6.24229161172103	3.77509120330316	-2.46720040841787	3.41062042586827	3.77509120330316	6.24229161172103	3.77509120330316	-3.41062042586827	-16.04120205323947	-5.719891617832246	-6.444338831288921	-12.634255977109863	-16.39422343311425	-6.444338831288921	-8.805509925122328	-19.43988215882137	-3.3986801055818736	-15.532130124180153	3.3678996750589203	3	correct	1.0
283.0431973999364	8.142476100009162	go_punish	0.4158808999927714	283.10467159992527	284.434917400009	286.97798540000827	1.3302458000837305	284.10987699998077	285.96398260002024	290.0242072000401	0.32504040002822876	1.0140027999880203	1.222940499894321	289.0169093000004	0.3543520999373868	287.99032839993015	2	1	33	1	go_punish	0	-1	0	1	1	1	1	1.0	1.0	-1	0.4158808999927714	0.3543520999373868	1450.0979831999866	1733.202654799912	1734.2078601999674	1734.5329005999956	1736.0619658000069	1737.075968599995	1738.0883115999168	1739.114892499987	1740.1221904000267	1741.345130899921	2020-09-10 10:38:02.682191	-0.77631398673569	-0.0831231539988073	-0.199113269896178	-0.233614435067553	-0.975427256631868	-0.199113269896178	0.77631398673569	-0.0831231539988073	-0.199113269896178	-0.975427256631868	-0.199113269896178	-2.320802983438903	-19.28471644839303	-9.213635197699324	-10.41854330448826	-19.522138640002357	-23.611942301467145	-10.41854330448826	-7.71569248269296	-26.657601027174266	-7.372884578781211	-19.025873704047232	-0.6063047981404175	3	correct	1.0
291.2370312999701	9.304655999992974	go_reward	1.0	291.298505499959	293.7759303000057	296.2902460999321	2.4774248000467196	292.3038330000127	295.28136220003944	299.3341762999769	1.4720972999930382	1.0088838998926803	1.2689851999750772	298.32692619995214	0.4129461999982595	297.3018157000188	2	1	34	3	go_reward	1	1	0	1	0	0	0	0.0	1.0	0	1.0	0.4129461999982595	1450.0979831999866	1741.3964886999456	1742.4018161999993	1743.8739134999923	1745.379345400026	1746.3882292999187	1747.3997989000054	1748.4249093999388	1749.4321594999635	1750.7011446999386	2020-09-10 10:38:02.682191	6.57095515336604	0.0	12.6459619346149	12.6459619346149	6.07500678124882	12.6459619346149	-6.57095515336604	12.6459619346149	0.0	12.6459619346149	6.07500678124882	-12.6459619346149	-11.9374473082913	-9.130512043700517	2.4265319000228196	-6.642562270319901	-16.561508263586457	2.4265319000228196	-18.04085143386896	-13.036211835927498	-1.098764527636213	-6.296788615433522	-0.40719152824423954	3	correct	1.0
300.5885529000079	8.052252399967983	nogo_punish	1.0	300.6500270999968	302.18853869999293	304.7023959000362	1.5385115999961272	301.6543890000321	303.69334240001626	307.74301760003436	0.5341496999608353	1.0090535000199452	0.959261899930425	306.7355803999817	0.4241888000397011	305.713445100002	2	1	35	2	nogo_punish	1	-1	0	0	0	1	0	0.0	1.0	0	1.0	0.4241888000397011	1450.0979831999866	1750.7480102999834	1751.7523722000187	1752.2865218999796	1753.791325600003	1754.8003791000228	1755.8114282999886	1756.8335635999683	1757.841000800021	1758.8002626999514	2020-09-10 10:38:02.682191	0.692833630227744	0.0	-0.158261421676686	-0.158261421676686	-0.85109505190443	-0.158261421676686	-0.692833630227744	-0.158261421676686	0.0	-0.158261421676686	-0.85109505190443	0.158261421676686	-17.815568831429594	-9.130512043700517	-10.377691456268767	-19.446785626611486	-23.487610096739708	-10.377691456268767	-5.236628077577372	-25.840435192219083	-8.024866360789463	-19.101011971725107	-0.40719152824423954	3	correct	1.0
308.6904513000045	8.253232599934563	go_reward	1.0	308.7519254999934	310.097883899929	312.61303380003665	1.3459583999356255	309.7564521000022	311.60359650000464	315.65944199997466	0.34143179992679507	1.0094373000320047	1.345716099953279	314.6518919999944	0.3807861000532284	313.62400660000276	2	1	36	3	go_reward	1	1	0	1	0	0	1	1.0	1.0	0	1.0	0.3807861000532284	1450.0979831999866	1758.84990869998	1759.8544352999888	1760.1958670999156	1761.7015796999913	1762.7110170000233	1763.7219897999894	1764.749875199981	1765.7574251999613	1767.1031412999146	2020-09-10 10:38:02.682191	6.28376992399963	0.0	12.0329850177911	12.0329850177911	5.74921509379153	12.0329850177911	-6.28376992399963	12.0329850177911	0.0	12.0329850177911	5.74921509379153	-12.0329850177911	-12.22463253765771	-9.130512043700517	1.813554983199019	-7.255539187143702	-16.887299951043747	1.813554983199019	-17.427874517045158	-13.649188752751298	-1.4245562150935038	-6.909765532257323	-0.40719152824423954	3	correct	1.0
316.992026599939	9.784427500097081	nogo_punish	1.0	317.05350079992786	319.81183359993156	322.3261205999877	2.7583328000037	318.05908129992895	321.3167535000248	325.3697627999354	1.7527523000026122	1.0093670999629012	1.4681655000895262	324.36303350003436	0.2759805000387132	323.3377787999343	2	1	37	2	nogo_punish	1	-1	0	0	0	1	1	1.0	1.0	0	1.0	0.2759805000387132	1450.0979831999866	1767.1514839999145	1768.1570644999156	1769.9098167999182	1771.4147367000114	1772.4241037999743	1773.435761999921	1774.461016700021	1775.467745999922	1776.9359115000116	2020-09-10 10:38:02.682191	0.69641558665721	0.0	-0.150491281068745	-0.150491281068745	-0.846906867725956	-0.150491281068745	-0.69641558665721	-0.150491281068745	0.0	-0.150491281068745	-0.846906867725956	0.150491281068745	-17.81198687500013	-9.130512043700517	-10.369921315660827	-19.439015486003548	-23.483421912561234	-10.369921315660827	-5.244398218185313	-25.832665051611144	-8.02067817661099	-19.09324183111717	-0.40719152824423954	3	correct	1.0
326.8260574999731	8.099508800078183	go_reward	1.0	326.887531699962	328.67124980001245	331.1850319999503	1.7837181000504643	327.89251899998635	330.176034300006	334.23085649998393	0.7787308000260964	1.0089976999443024	0.756184000056237	333.22339890000876	0.3877145999576896	332.19713590003107	2	1	38	3	go_reward	1	1	0	1	0	0	1	1.0	1.0	0	1.0	0.3877145999576896	1450.0979831999866	1776.9855148999486	1777.990502199973	1778.769232999999	1780.2740174999926	1781.283015199937	1782.2951191000177	1783.3213820999954	1784.3288396999706	1785.0850237000268	2020-09-10 10:38:02.682191	6.01277824332006	0.0	11.454076957083	11.454076957083	5.44129871376299	11.454076957083	-6.01277824332006	11.454076957083	0.0	11.454076957083	5.44129871376299	-11.454076957083	-12.49562421833728	-9.130512043700517	1.234646922490919	-7.834447247851802	-17.195216331072288	1.234646922490919	-16.84896645633706	-14.228096813459398	-1.7324725951220437	-7.488673592965423	-0.40719152824423954	3	correct	1.0
334.95794520003255	8.869876699988026	nogo_reward	0.268337000044994	335.01941940002143	337.3715130999917	339.90914190001786	2.3520936999702826	336.02462979999837	338.9007098999573	342.9528560999315	1.346883299993351	1.0084320000605658	0.9364400000779369	341.94554370001424	0.4017521999776363	340.92220729996916	2	1	39	4	nogo_reward	1	0	1	0	1	0	0	0.0	1.0	0	0.268337000044994	0.4017521999776363	1450.0979831999866	1785.117402600008	1786.122612999985	1787.4694962999783	1788.998693099944	1790.0071251000045	1791.0201904999558	1792.0435269000009	1793.0508392999182	1793.987279299996	2020-09-10 10:38:02.682191	2.12781180622667	3.24364780195667	3.77509120330316	6.32966918626936	5.90290300952983	3.77509120330316	-2.12781180622667	3.24364780195667	3.77509120330316	5.90290300952983	3.77509120330316	-3.24364780195667	-16.38059065543067	-5.886864241743846	-6.444338831288921	-12.958855018665442	-16.73361203530545	-6.444338831288921	-8.638537301210729	-19.77927076101257	-3.3986801055818736	-15.699102748091754	3.3678996750589203	3	correct	1.0
343.8761201000307	8.076648799935128	nogo_punish	1.0	343.93759430001955	345.2977230999386	347.8118612000253	1.360128799919039	344.94162289996166	346.8025382999331	350.85605019994546	0.356100199976936	1.0093229000922292	1.158192900009226	349.84877889999166	0.363473100005649	348.82327549997717	2	1	40	2	nogo_punish	1	-1	0	0	0	1	0	1.0	0.0	0	1.0	0.363473100005649	1450.0979831999866	1794.0355775000062	1795.0396060999483	1795.3957062999252	1796.9005214999197	1797.909844400012	1798.9212586999638	1799.9467620999783	1800.954033399932	1802.1122262999413	2020-09-10 10:38:02.682191	0.69979681933655	0.0	-0.143151516013297	-0.143151516013297	-0.842948335349847	-0.143151516013297	-0.69979681933655	-0.143151516013297	0.0	-0.143151516013297	-0.842948335349847	0.143151516013297	-17.80860564232079	-9.130512043700517	-10.362581550605379	-19.4316757209481	-23.479463380185123	-10.362581550605379	-5.25173798324076	-25.825325286555696	-8.01671964423488	-19.08590206606172	-0.40719152824423954	3	wrong	1.0
351.9864802999655	8.325841900077421	go_punish	0.3028073000023141	352.04795449995436	353.54500539996616	356.0869749999838	1.4970509000118	353.0530999000184	355.0761456999462	359.1315992999587	0.4919054999477339	1.0108293000375852	1.2421971000730991	358.1244308999742	0.3809937000041827	357.09988039999735	2	1	41	1	go_punish	1	0	-1	1	1	1	0	0.0	1.0	0	0.3028073000023141	0.3809937000041827	1450.0979831999866	1802.145937699941	1803.151083100005	1803.6429885999528	1805.1741288999328	1806.1849581999704	1807.197863599984	1808.2224140999608	1809.2295824999453	1810.4717796000184	2020-09-10 10:38:02.682191	-0.923812429632718	-0.181162521563364	-0.199113269896178	-0.324314037576661	-1.1229256995289	-0.199113269896178	0.923812429632718	-0.181162521563364	-0.199113269896178	-1.1229256995289	-0.199113269896178	0.181162521563364	-19.43221489129006	-9.31167456526388	-10.41854330448826	-19.61283824251146	-23.759440744364177	-10.41854330448826	-5.213726977690694	-26.805099470071298	-7.372884578781211	-19.12391307161179	-0.6063047981404175	3	correct	1.0
360.36737879994325	8.602356300107203	go_reward	1.0	360.42885299993213	362.2765359999614	364.79007320001256	1.847683000029292	361.43398329999786	363.780879499973	367.83333609998226	0.8425526999635622	1.009193700039532	1.1978732000570744	366.82583310001064	0.7703975000185892	365.8024943999483	2	1	42	3	go_reward	1	1	0	1	0	0	0	0.0	1.0	0	1.0	0.7703975000185892	1450.0979831999866	1810.5268361999188	1811.5319664999845	1812.374519199948	1813.8788626999597	1814.8880563999992	1815.900477599935	1816.9238162999973	1817.931319299969	1819.129192500026	2020-09-10 10:38:02.682191	5.75698528409218	0.0	10.9071665715482	10.9071665715482	5.15018128745605	10.9071665715482	-5.75698528409218	10.9071665715482	0.0	10.9071665715482	5.15018128745605	-10.9071665715482	-12.751417177565159	-9.130512043700517	0.6877365369561179	-8.381357633386603	-17.486333757379228	0.6877365369561179	-16.30205607080226	-14.7750071989942	-2.0235900214289835	-8.035583978500224	-0.40719152824423954	3	correct	1.0
369.0026237999555	9.273661700077355	go_punish	0.2552320000249892	369.06409799994435	371.82461010001134	374.3644645999884	2.7605121000669897	370.0677847999614	373.3540939999509	377.4106098000193	1.756825300049968	1.0103706000375041	0.927149900002405	376.40229390002787	0.3487156999763101	375.37610420002625	2	1	43	1	go_punish	1	0	-1	1	1	1	1	1.0	1.0	0	0.2552320000249892	0.3487156999763101	1450.0979831999866	1819.162081199931	1820.165767999948	1821.922593299998	1823.4520771999375	1824.462447799975	1825.4740874000129	1826.5002771000145	1827.508593000006	1828.4357429000083	2020-09-10 10:38:02.682191	-0.906138796648385	-0.172105454669481	-0.199113269896178	-0.308321692843827	-1.10525206654456	-0.199113269896178	0.906138796648385	-0.172105454669481	-0.199113269896178	-1.10525206654456	-0.199113269896178	0.172105454669481	-19.414541258305725	-9.302617498369997	-10.41854330448826	-19.59684589777863	-23.741767111379836	-10.41854330448826	-5.222784044584577	-26.787425837086957	-7.372884578781211	-19.114856004717904	-0.6063047981404175	3	correct	1.0
378.30700060003414	8.339247899945121	go_punish	0.5222006000112742	378.368474800023	379.721831899951	382.25797149993014	1.3533570999279618	379.3733642000009	381.2491762000134	385.3034151999741	0.3484676999501062	1.0087952999167555	1.4043074999940472	384.2966188000282	0.3577055999776348	383.2701214000117	2	1	44	1	go_punish	1	0	-1	1	1	1	0	0.0	1.0	0	0.5222006000112742	0.3577055999776348	1450.0979831999866	1828.4664580000097	1829.4713473999875	1829.8198150999376	1831.3471594	1832.3559546999168	1833.3681045999983	1834.3946020000149	1835.4013983999607	1836.8057058999548	2020-09-10 10:38:02.682191	-0.889448018202996	-0.163557062618952	-0.199113269896178	-0.29321827561935	-1.08856128809917	-0.199113269896178	0.889448018202996	-0.163557062618952	-0.199113269896178	-1.08856128809917	-0.199113269896178	0.163557062618952	-19.397850479860335	-9.29406910631947	-10.41854330448826	-19.58174248055415	-23.72507633293445	-10.41854330448826	-5.231332436635106	-26.77073505864157	-7.372884578781211	-19.106307612667376	-0.6063047981404175	3	correct	1.0
386.69632550003007	8.330233099986799	nogo_punish	1.0	386.75779970001895	388.7561884999741	391.2704140000278	1.998388799955137	387.7615476000358	390.26095739996526	394.31535950000375	0.9946408999383038	1.0094566000625491	0.7726733000019976	393.3079778000249	0.3603663999820128	392.2824670999544	2	1	45	2	nogo_punish	1	-1	0	0	0	1	0	0.0	1.0	0	1.0	0.3603663999820128	1450.0979831999866	1836.8557829000056	1837.8595308000224	1838.8541716999607	1840.358940599952	1841.3683972000144	1842.380450299941	1843.4059610000115	1844.4133426999904	1845.1860159999924	2020-09-10 10:38:02.682191	0.702989504415057	0.0	-0.136216238174345	-0.136216238174345	-0.839205742589402	-0.136216238174345	-0.702989504415057	-0.136216238174345	0.0	-0.136216238174345	-0.839205742589402	0.136216238174345	-17.805412957242282	-9.130512043700517	-10.355646272766426	-19.424740443109147	-23.47572078742468	-10.355646272766426	-5.2586732610797124	-25.818390008716744	-8.012977051474435	-19.07896678822277	-0.40719152824423954	3	correct	1.0
395.08023530000355	7.949982099933777	nogo_punish	1.0	395.14170949999243	396.6437333000358	399.1568837999371	1.5020238000433892	396.14575609995495	398.14801539992936	402.1995791000081	0.497977200080868	1.0088684000077137	0.8921124999180847	401.19236440001987	0.3695529999677092	400.16920689994026	2	1	46	2	nogo_punish	1	-1	0	0	0	1	0	0.0	1.0	0	1.0	0.3695529999677092	1450.0979831999866	1845.239692699979	1846.2437392999416	1846.7417165000224	1848.245998599916	1849.2548669999237	1850.267190099927	1851.2903476000065	1852.2975622999948	1853.1896747999128	2020-09-10 10:38:02.682191	0.70600503547554	0.0	-0.129661213000398	-0.129661213000398	-0.835666248475938	-0.129661213000398	-0.70600503547554	-0.129661213000398	0.0	-0.129661213000398	-0.835666248475938	0.129661213000398	-17.8023974261818	-9.130512043700517	-10.34909124759248	-19.4181854179352	-23.472181293311216	-10.34909124759248	-5.2652282862536595	-25.811834983542795	-8.009437557360972	-19.07241176304882	-0.40719152824423954	3	correct	1.0
403.0770219999829	9.464517800021667	go_reward	1.0	403.13849619997177	405.6560935999735	408.1705470000161	2.517597400001705	404.14328019996174	407.1608136999421	411.21761359996185	1.512813400011737	1.0097333000740036	1.3854004000315854	410.2100387000246	0.4139370999764651	409.18384219997097	2	1	47	3	go_reward	1	1	0	1	0	0	0	0.0	1.0	0	1.0	0.4139370999764651	1450.0979831999866	1853.2364793999584	1854.2412633999484	1855.75407679996	1857.2587968999287	1858.2685302000027	1859.2818253999576	1860.3080219000112	1861.3155967999485	1862.70099719998	2020-09-10 10:38:02.682191	5.51546112804082	0.0	10.3903167874707	10.3903167874707	4.87485565942989	10.3903167874707	-5.51546112804082	10.3903167874707	0.0	10.3903167874707	4.87485565942989	-10.3903167874707	-12.992941333616521	-9.130512043700517	0.17088675287861932	-8.898207417464102	-17.761659385405387	0.17088675287861932	-15.785206286724758	-15.291856983071698	-2.298915649455143	-8.552433762577722	-0.40719152824423954	3	correct	1.0
412.57091859995853	8.367397300084349	nogo_reward	0.7066584998974577	412.6323927999474	414.02441069995984	416.5632548999274	1.3920179000124335	413.63756379997335	415.55468609998934	419.6082961999341	0.38684689998649446	1.0085687999380752	1.3914939000976574	418.60072999994736	0.539116199943237	417.5746642999584	2	1	48	4	nogo_reward	1	0	1	0	1	0	0	0.0	1.0	0	0.7066584998974577	0.539116199943237	1450.0979831999866	1862.730375999934	1863.73554699996	1864.1223938999465	1865.652669299976	1866.661238099914	1867.672647499945	1868.698713199934	1869.7062793999207	1871.0977733000184	2020-09-10 10:38:02.682191	1.8072727175959	3.08602138431268	3.77509120330316	6.02319137857278	5.58236392089906	3.77509120330316	-1.8072727175959	3.08602138431268	3.77509120330316	5.58236392089906	3.77509120330316	-3.08602138431268	-16.70112974406144	-6.0444906593878365	-6.444338831288921	-13.265332826362023	-17.05415112393622	-6.444338831288921	-8.480910883566738	-20.09980984964334	-3.3986801055818736	-15.856729165735743	3.3678996750589203	3	correct	1.0
420.97241729998495	8.302565600024536	go_punish	0.3416064999764785	421.03389149997383	422.7582887000174	425.29706340003736	1.7243972000435406	422.0393618999515	424.2882093000221	428.34047259995737	0.7189268000659013	1.0088541000152418	0.9959845000410041	427.3329840999793	0.4094856999581679	426.30943809996825	2	1	49	1	go_punish	1	0	-1	1	1	1	0	0.0	1.0	0	0.3416064999764785	0.4094856999581679	1450.0979831999866	1871.1318746999605	1872.137345099938	1872.856271900004	1874.3861925000087	1875.395046600024	1876.4074212999549	1877.430967299966	1878.438455799944	1879.434440299985	2020-09-10 10:38:02.682191	-0.8736807598861	-0.155486408547107	-0.199113269896178	-0.278950157632317	-1.07279402978228	-0.199113269896178	0.8736807598861	-0.155486408547107	-0.199113269896178	-1.07279402978228	-0.199113269896178	0.155486408547107	-19.38208322154344	-9.285998452247624	-10.41854330448826	-19.56747436256712	-23.709309074617558	-10.41854330448826	-5.239403090706951	-26.75496780032468	-7.372884578781211	-19.09823695859553	-0.6063047981404175	3	correct	1.0
429.3081317000324	8.244699099916033	go_punish	0.6379906999645755	429.36960590002127	430.6459171000174	433.18278050003573	1.2763111999961438	430.3751352999823	432.1740076999413	436.2258987999521	0.2707818000351381	1.008772800094448	1.3884061999851838	435.2185376000125	0.418126399978064	434.1948329999577	2	1	50	1	go_punish	1	0	-1	1	1	1	0	0.0	1.0	0	0.6379906999645755	0.418126399978064	1450.0979831999866	1879.467589100008	1880.473118499969	1880.743900300004	1882.271990899928	1883.2807637000224	1884.2928161999444	1885.3165207999991	1886.3238819999387	1887.712288199924	2020-09-10 10:38:02.682191	-0.858781490336452	-0.147864549763195	-0.199113269896178	-0.26546714497204	-1.05789476023263	-0.199113269896178	0.858781490336452	-0.147864549763195	-0.199113269896178	-1.05789476023263	-0.199113269896178	0.147864549763195	-19.36718395199379	-9.278376593463712	-10.41854330448826	-19.55399134990684	-23.69440980506791	-10.41854330448826	-5.2470249494908625	-26.74006853077503	-7.372884578781211	-19.090615099811618	-0.6063047981404175	3	correct	1.0
437.5823371999429	9.306663900031936	nogo_reward	0.2855151999974623	437.6438113999318	440.0814210999524	442.6229866000358	2.43760970002063	438.64912560000107	441.60944939998444	445.6670702999693	1.4322954999513513	1.0135372000513598	1.2834049999944455	444.6588845000374	0.4344524999614805	443.6344686000373	2	1	51	4	nogo_reward	0	1	0	0	1	0	0	0.0	1.0	1	0.2855151999974623	0.4344524999614805	1450.0979831999866	1887.7417945999184	1888.7471087999877	1890.179404299939	1891.707432599971	1892.7209698000224	1893.732451800024	1894.756867700024	1895.765053499956	1897.0484584999504	2020-09-10 10:38:02.682191	1.50443781386276	2.9371699942601	3.77509120330316	5.73372958041505	5.27952901716592	3.77509120330316	-1.50443781386276	2.9371699942601	3.77509120330316	5.27952901716592	3.77509120330316	91.265793992925	-17.00396464779458	-6.1933420494404166	-6.444338831288921	-13.554794624519753	-17.356986027669357	-6.444338831288921	85.87090449367093	-20.402644753376478	-3.3986801055818736	-16.005580555788324	3.3678996750589203	3	correct	1.0
446.9212299999781	7.951096500037238	nogo_reward	0.5151926999678835	446.982704199967	448.3028179999674	450.84119159996044	1.3201138000003994	447.9882150000194	449.8319276999682	453.8873316999525	0.31460299994796515	1.00926389999222	1.0464690000517294	452.87982199992985	0.2975116000743583	451.8535486999897	2	1	52	4	nogo_reward	1	0	1	0	1	0	0	0.0	1.0	0	0.5151926999678835	0.2975116000743583	1450.0979831999866	1897.0806873999536	1898.086198200006	1898.400801199954	1899.9299108999548	1900.939174799947	1901.9515318999763	1902.9778051999165	1903.985314899939	1905.0317838999908	2020-09-10 10:38:02.682191	7.02910010547779	6.57165078945811	3.77509120330316	9.23534150874659	10.8041913087809	3.77509120330316	-7.02910010547779	6.57165078945811	3.77509120330316	10.8041913087809	3.77509120330316	-6.57165078945811	-11.47930235617955	-2.558861254242406	-6.444338831288921	-10.053182696188212	-11.832323736054377	-6.444338831288921	-11.966540288712167	-14.877982461761498	-3.3986801055818736	-12.371099760590312	3.3678996750589203	3	correct	1.0
454.92187590000685	8.338585800025612	nogo_punish	1.0	454.98335009999573	456.4486391999526	458.9624753999524	1.4652890999568626	455.98720480001066	457.9534790000182	462.0064846000171	0.46143439994193614	1.0089963999341762	1.3154513000042698	460.99971979996167	0.3148293999256566	459.97401390003506	2	1	53	2	nogo_punish	1	-1	0	0	0	1	0	0.0	1.0	0	1.0	0.3148293999256566	1450.0979831999866	1905.0813332999824	1906.0851879999973	1906.5466223999392	1908.0514622000048	1909.060458599939	1910.0719971000217	1911.0977029999483	1912.1044678000037	1913.419919100008	2020-09-10 10:38:02.682191	0.708854076111023	0.0	-0.123463749085211	-0.123463749085211	-0.832317825196234	-0.123463749085211	-0.708854076111023	-0.123463749085211	0.0	-0.123463749085211	-0.832317825196234	0.123463749085211	-17.799548385546316	-9.130512043700517	-10.342893783677292	-19.411987954020013	-23.468832870031513	-10.342893783677292	-5.271425750168847	-25.80563751962761	-8.006089134081268	-19.066214299133634	-0.40719152824423954	3	correct	1.0
463.32085030002054	8.56896810000785	go_reward	1.0	463.3823245000094	465.4313708000118	467.9467268999433	2.0490463000023738	464.3871552000053	466.93632049998246	470.9890621999509	1.0442156000065097	1.010406399960857	0.9622304000663462	469.98189159994945	0.4003992000361904	468.95735819998663	2	1	54	3	go_reward	1	1	0	1	0	0	0	0.0	1.0	0	1.0	0.4003992000361904	1450.0979831999866	1913.480307699996	1914.485138399992	1915.5293539999984	1917.034303699969	1918.04471009993	1919.0553413999733	1920.079874799936	1921.0870453999376	1922.049275800004	2020-09-10 10:38:02.682191	5.28733633658128	0.0	9.90171553747932	9.90171553747932	4.61437920089804	9.90171553747932	-5.28733633658128	9.90171553747932	0.0	9.90171553747932	4.61437920089804	-9.90171553747932	-13.22106612507606	-9.130512043700517	-0.31771449711276034	-9.386808667455481	-18.02213584393724	-0.31771449711276034	-15.296605036733379	-15.780458233063078	-2.5593921079869935	-9.041035012569102	-0.40719152824423954	3	correct	1.0
471.9377440999965	8.229098799987696	nogo_punish	1.0	471.9992182999854	473.43214219994843	475.9461978999898	1.4329238999630434	473.0040941999757	474.93709639995336	478.99209640000504	0.42804799997270493	1.0091015000364223	1.2362206999680438	477.9845981999533	0.3201868999749422	476.9587566000414	2	1	55	2	nogo_punish	1	-1	0	0	0	1	1	1.0	1.0	0	1.0	0.3201868999749422	1450.0979831999866	1922.097201499972	1923.1020773999624	1923.530125399935	1925.03507959994	1926.0441810999764	1927.056739800028	1928.08258139994	1929.0900795999917	1930.3263002999597	2020-09-10 10:38:02.682191	0.711546608841728	0.0	-0.117602595208845	-0.117602595208845	-0.829149204050573	-0.117602595208845	-0.711546608841728	-0.117602595208845	0.0	-0.117602595208845	-0.829149204050573	0.117602595208845	-17.79685585281561	-9.130512043700517	-10.337032629800927	-19.406126800143646	-23.46566424888585	-10.337032629800927	-5.277286904045213	-25.799776365751242	-8.002920512935606	-19.060353145257267	-0.40719152824423954	3	correct	1.0
480.20179009996355	8.899674099986214	go_punish	0.3491674000397324	480.2632642999524	482.1668051999293	484.7089932999809	1.9035408999768606	481.26806719996966	483.6955742000139	487.75193229992897	0.8987379999596214	1.0134190999669954	1.411006100009672	486.7446780999894	0.5888886000029743	485.7201028999409	2	1	56	1	go_punish	0	-1	0	1	1	1	0	0.0	1.0	-1	0.3491674000397324	0.5888886000029743	1450.0979831999866	1930.361247499939	1931.3660503999563	1932.264788399916	1933.7935574000005	1934.8069764999675	1935.8180860999275	1936.842661299976	1937.8499154999156	1939.2609215999253	2020-09-10 10:38:02.682191	-0.844698225994744	-0.140664403323768	-0.199113269896178	-0.252722247833151	-1.04381149589092	-0.199113269896178	0.844698225994744	-0.140664403323768	-0.199113269896178	-1.04381149589092	-0.199113269896178	-2.263261734113942	-19.353100687652084	-9.271176447024285	-10.41854330448826	-19.541246452767954	-23.6803265407262	-10.41854330448826	-7.658151233368	-26.72598526643332	-7.372884578781211	-19.08341495337219	-0.6063047981404175	3	correct	1.0
489.15123319998406	8.614090300048474	nogo_punish	1.0	489.21270739997294	491.0574546999999	493.5753290000139	1.8447473000269383	490.21733729995344	492.5620534999762	496.6202207999304	0.840117400046438	1.0132755000377074	1.2065769000910223	495.6125416000141	0.3065794000867754	494.5877424000064	2	1	57	2	nogo_punish	0	0	-1	0	0	1	1	1.0	1.0	-1	1.0	0.3065794000867754	1450.0979831999866	1939.3106905999596	1940.31532049994	1941.1554378999865	1942.6600366999628	1943.6733122000005	1944.685725599993	1945.7105248000007	1946.718203999917	1947.924780900008	2020-09-10 10:38:02.682191	0.714091980634627	0.0	-0.112057844509383	-0.112057844509383	-0.82614982514401	-0.112057844509383	-0.714091980634627	-0.112057844509383	0.0	-0.112057844509383	-0.82614982514401	-2.291868292928327	-17.794310481022713	-9.130512043700517	-10.331487879101465	-19.400582049444186	-23.46266486997929	-10.331487879101465	-7.686757792182385	-25.794231615051782	-7.9999211340290435	-19.054808394557806	-0.40719152824423954	3	correct	1.0
497.81477589998417	8.953128200024366	go_reward	1.0	497.87625009997305	499.9216655000341	502.43687169998907	2.0454154000610743	498.88137249997817	501.42651559994533	505.4803117000263	1.0402930000559536	1.0103561000437367	1.3490665999711382	504.4731628999582	0.5097302000503987	503.4482943000037	2	1	58	3	go_reward	1	1	0	1	0	0	0	0.0	1.0	0	1.0	0.5097302000503987	1450.0979831999866	1947.9742332999597	1948.9793556999648	1950.0196487000208	1951.524498799932	1952.5348548999757	1953.5462774999903	1954.5711460999448	1955.578294900013	1956.927361499984	2020-09-10 10:38:02.682191	5.07179783454539	0.0	9.43966730033926	9.43966730033926	4.36786946579387	9.43966730033926	-5.07179783454539	9.43966730033926	0.0	9.43966730033926	4.36786946579387	-9.43966730033926	-13.43660462711195	-9.130512043700517	-0.7797627342528219	-9.848856904595543	-18.268645579041408	-0.7797627342528219	-14.834556799593317	-16.24250647020314	-2.8059018430911635	-9.503083249709164	-0.40719152824423954	3	correct	1.0
506.8183348999594	8.757854200084694	go_reward	1.0	506.87980909994826	509.09530739998445	511.61404030001745	2.215498300036188	507.8844678000314	510.5999110999983	514.6601282999618	1.210839599953033	1.0141292000191697	0.9775350000711569	513.6529046000214	0.3688579000299796	512.6270798000041	2	1	59	3	go_reward	0	0	1	1	0	0	0	0.0	1.0	1	1.0	0.3688579000299796	1450.0979831999866	1956.977792299935	1957.982451000018	1959.193290599971	1960.697894299985	1961.712023500004	1962.7250629999908	1963.750887800008	1964.7581114999484	1965.7356465000196	2020-09-10 10:38:02.682191	4.86808508415124	0.0	9.00258523495652	9.00258523495652	4.13450015080528	9.00258523495652	-4.86808508415124	9.00258523495652	0.0	9.00258523495652	4.13450015080528	85.20037875222857	-13.6403173775061	-9.130512043700517	-1.2168447996355614	-10.285938969978282	-18.502014894029998	-1.2168447996355614	79.80548925297451	-16.67958853558588	-3.039271158079753	-9.940165315091903	-0.40719152824423954	3	correct	1.0
515.6138343999628	7.742712400038727	nogo_reward	0.6705547999590635	515.6753085999517	517.0335691999644	519.5707394999918	1.358260600012727	516.680166800041	518.5620472999294	522.6132094999773	0.35340239992342504	1.0086922000623417	0.804811500013102	521.6067156000063	0.3744773999787867	520.5825323000317	2	1	60	4	nogo_reward	1	0	1	0	1	0	0	0.0	1.0	0	0.6705547999590635	0.3744773999787867	1450.0979831999866	1965.7732917999383	1966.7781500000276	1967.131552399951	1968.660030499916	1969.6687226999784	1970.6805155000184	1971.704698799993	1972.711192699964	1973.516004199977	2020-09-10 10:38:02.682191	6.47155661481352	6.25124100760051	3.77509120330316	8.78933721583448	10.2466478181167	3.77509120330316	-6.47155661481352	6.25124100760051	3.77509120330316	10.2466478181167	3.77509120330316	-6.25124100760051	-12.036845846843821	-2.8792710361000067	-6.444338831288921	-10.499186989100322	-12.389867226718579	-6.444338831288921	-11.646130506854568	-15.4355259524257	-3.3986801055818736	-12.691509542447914	3.3678996750589203	3	correct	1.0
