onset	duration	trial_type	response_time	cueOnset	targetOnset	fbOnset	cueRT	firstfixOnset	secondfixOnset	waitOnset	firstfixdur	secondfixdur	waitdur	nback_fbOnset	nback_response_time	nback_targetOnset	block	wm	trial	cue	cond	is_common	outcome_go	outcome_nogo	key_correct	key_pressed	is_correct	key_correct_nback	key_pressed_nback	is_correct_nback	outcome	rt	rt_nback	time_scan	time_onset	time_isi1	time_circle	time_isi2	time_feedback	time_same	time_correct	time_iti	time_done	timestamp_scan	DV	Qgo	Qnogo	SV	Wgo	Wnogo	mDV	Qchosen	Qunchosen	Wchosen	Wunchosen	PE	DVC	QgoC	QnogoC	SVC	WgoC	WnogoC	PEC	WchosenC	WunchosenC	QchosenC	QunchosenC	run	outcome_nback	nback_targetResp
0.0	9.017627299996093	nogo_punish	0.6413530999561772	0.029062699992209673	2.0290138999698684	4.583526299975347	1.9999511999776587	1.0297692999592982	3.5597290999721736	7.647462999972049	0.9992446000105701	1.0237972000031732	1.3992270000162534	6.637932299985323	0.5548146999790333	5.610545100003947	1	1	61	3	nogo_punish	1	-1	0	0	1	0	0	0.0	1.0	-1	0.6413530999561772	0.5548146999790333	1174.7552864000318	1174.784349100024	1175.785055699991	1176.7843003000016	1178.315015500004	1179.338812700007	1180.3658315000357	1181.393218700017	1182.4027494000038	1183.80197640002	2020-06-09 09:28:26.332664	-0.413205898410296	-3.34389660905766	-1.96208822991715	-2.80338780042037	-2.37529412832745	-1.96208822991715	0.413205898410296	-3.34389660905766	-1.96208822991715	-2.37529412832745	-1.96208822991715	-3.5676557952086605	-2.884218768120037	-3.88995016706819	-2.1826638746889557	-4.075750253966479	-4.133054379747456	-2.1826638746889557	-3.685858154674819	-4.5999685112782265	-1.7157497431581856	-4.830439338430176	-1.2421747033269712	2	correct	1.0
9.05843899998581	8.290611599979457	nogo_punish	1.0	9.08750169997802	10.93258239998272	13.462604300002567	1.8450807000047007	10.097743299964122	12.448946099961177	16.51041549997194	0.8348391000185984	1.013658200041391	0.8676977999855353	15.497096100007184	0.4071568999788724	14.480176199984271	1	1	62	3	nogo_punish	1	-1	0	0	0	1	0	0.0	1.0	0	1.0	0.4071568999788724	1174.7552864000318	1183.8427881000098	1184.853029699996	1185.6878688000145	1187.204232499993	1188.2178907000343	1189.235462600016	1190.252382500039	1191.2657019000037	1192.1333996999892	2020-06-09 09:28:26.332664	1.0165864712647	-3.93331503382998	-1.96208822991715	-3.51458563548848	-2.97867470118185	-1.96208822991715	-1.0165864712647	-1.96208822991715	-3.93331503382998	-1.96208822991715	-2.97867470118185	1.96208822991715	-1.4544263984450412	-4.47936859184051	-2.1826638746889557	-4.78694808903459	-4.736434952601856	-2.1826638746889557	1.8438858704509915	-4.186762612867927	-2.7323362144228858	-3.4486309592896656	-3.213401507239801	2	correct	1.0
17.391987000009976	8.521726199949626	go_reward	0.4100334999966435	17.421049700002186	19.28620639996393	21.83313789998647	1.8651566999617444	18.429661299975123	20.813861100003123	24.89326829998754	0.8565450999888071	1.019276799983345	1.0495075999642722	23.879653199983295	0.3078984000021592	22.85132789995987	1	1	63	2	go_reward	0	0	1	1	1	1	0	0.0	1.0	0	0.4100334999966435	0.3078984000021592	1174.7552864000318	1192.176336100034	1193.184947700007	1194.0414927999957	1195.569147500035	1196.5884243000182	1197.6066142999916	1198.634939600015	1199.6485547000193	1200.6980622999836	2020-06-09 09:28:26.332664	5.98999978980109	4.79972548156489	0.0	4.79972548156489	5.98999978980109	0.0	-5.98999978980109	4.79972548156489	0.0	5.98999978980109	0.0	-4.79972548156489	3.5189869200913493	4.25367192355436	-0.22057564477180566	3.52736302801878	4.2322395383810845	-0.22057564477180566	-4.917927841031048	3.7653254068503137	0.24633848675896436	3.3131827521923745	0.7199135265901789	2	correct	1.0
25.953830200014636	9.116566399985459	nogo_punish	1.0	25.982892900006846	28.03906919999281	30.56594469997799	2.056176299985964	26.99425299995346	29.548176599957515	33.62259179999819	1.0448162000393495	1.0177681000204757	1.476867499994114	32.60941479995381	0.4015353999566287	31.5808291999856	1	1	64	3	nogo_punish	0	0	-1	0	0	1	1	1.0	1.0	-1	1.0	0.4015353999566287	1174.7552864000318	1200.7381793000386	1201.7495393999852	1202.7943556000246	1204.3034629999893	1205.3212311000098	1206.3361156000174	1207.3647011999856	1208.37787820003	1209.854745700024	2020-06-09 09:28:26.332664	1.36119948785058	-3.93331503382998	-1.60544166445563	-2.89138604008057	-2.96664115230621	-1.60544166445563	-1.36119948785058	-1.60544166445563	-3.93331503382998	-1.60544166445563	-2.96664115230621	-5.30611073981069	-1.1098133818591611	-4.47936859184051	-1.8260173092274357	-4.16374849362668	-4.724401403726216	-1.8260173092274357	-5.424313099276849	-3.8301160474064067	-2.7203026655472455	-3.0919843938281453	-3.213401507239801	2	correct	1.0
35.11127240001224	8.743165799998678	nogo_punish	1.0	35.14033510000445	37.050391800003126	39.587210199970286	1.9100566999986768	36.14589839999098	38.56668039999204	42.64050609996775	0.904493400012143	1.0205297999782488	1.242994800035376	41.62914889998501	0.6986728000338189	40.596740199951455	1	1	65	3	nogo_punish	1	-1	0	0	0	1	0	1.0	0.0	0	1.0	0.6986728000338189	1174.7552864000318	1209.8956215000362	1210.9011848000227	1211.805678200035	1213.3219668000238	1214.342496600002	1215.3520265999832	1216.3844353000168	1217.3957924999995	1218.638787300035	2020-06-09 09:28:26.332664	0.463773212553351	-3.93331503382998	-2.51645812189559	-3.587175133162	-2.98023133444894	-2.51645812189559	-0.463773212553351	-2.51645812189559	-3.93331503382998	-2.51645812189559	-2.98023133444894	2.51645812189559	-2.00723965715639	-4.47936859184051	-2.7370337666673956	-4.859537586708109	-4.737991585868946	-2.7370337666673956	2.398255762429432	-4.741132504846367	-2.7338928476899755	-4.003000851268106	-3.213401507239801	2	wrong	1.0
43.89546699996572	8.6811607000418	nogo_reward	1.0	43.92452969995793	46.10730579996016	48.64276199997403	2.182776100002229	44.934221699950285	47.61899859999539	51.70552689995384	1.1730841000098735	1.023763399978634	0.9001635000458919	50.69145059998846	0.7999308999860659	49.6563896999578	1	1	66	1	nogo_reward	1	0	1	0	0	1	0	0.0	1.0	1	1.0	0.7999308999860659	1174.7552864000318	1218.6798160999897	1219.689508099982	1220.862592199992	1222.3742850000272	1223.3980484000058	1224.4116760999896	1225.4467370000202	1226.4608132999856	1227.3609768000315	2020-06-09 09:28:26.332664	-0.947961099896189	2.6087243902766	2.79230629160712	3.27691529637281	3.74026739150331	2.79230629160712	0.947961099896189	2.79230629160712	2.6087243902766	2.79230629160712	3.74026739150331	5.1418282979828	-3.41897396960593	2.0626708322660696	2.5717306468353147	2.0045528428267003	1.9825071400833039	2.5717306468353147	5.023625938516641	0.5676319086563435	3.9866058782622744	1.3057635622346047	3.328637916866779	2	correct	1.0
52.6146035999991	9.77217989997007	go_reward	0.2923615999752655	52.64366629999131	55.35782269999618	57.90669669996714	2.7141564000048675	53.656522599980235	56.88297009997768	60.96134609996807	1.701300100015942	1.023726599989459	1.4545000999933109	59.948913000000175	0.4090612000436522	58.920301399950404	1	1	67	2	go_reward	1	1	0	1	1	1	0	0.0	1.0	1	0.2923615999752655	0.4090612000436522	1174.7552864000318	1227.398952700023	1228.411809000012	1230.113109100028	1231.6382565000094	1232.661983099999	1233.6755877999822	1234.704199400032	1235.7166324999998	1237.1711325999931	2020-06-09 09:28:26.332664	5.06902406617928	3.91527619881362	0.0	3.91527619881362	5.06902406617928	0.0	-5.06902406617928	3.91527619881362	0.0	5.06902406617928	0.0	4.0188583907763	2.5980111964695385	3.36922264080309	-0.22057564477180566	2.6429137452675104	3.3112638147592737	-0.22057564477180566	3.9006560313101417	2.844349683228503	0.24633848675896436	2.428733469441105	0.7199135265901789	2	correct	1.0
62.42314779997105	8.591669399989769	nogo_reward	1.0	62.45221049996326	64.42745139996987	66.97080509999068	1.975240900006611	63.46779510000488	65.94599639996886	70.02536929998314	0.9596562999649905	1.024808700021822	1.0185105999698862	69.01229599997168	0.4038847000338137	67.98340529995039	1	1	68	1	nogo_reward	1	0	1	0	0	1	1	1.0	1.0	1	1.0	0.4038847000338137	1174.7552864000318	1237.207496899995	1238.2230815000366	1239.1827378000016	1240.7012828000006	1241.7260915000224	1242.7386916999822	1243.7675824000034	1244.780655700015	1245.7991662999848	2020-06-09 09:28:26.332664	-0.0955561332907335	2.6087243902766	3.67774546128706	4.09919823491946	3.7733015945778	3.67774546128706	0.0955561332907335	3.67774546128706	2.6087243902766	3.67774546128706	3.7733015945778	4.25638912830286	-2.5665690030004744	2.0626708322660696	3.4571698165152545	2.8268357813733505	2.0155413431577935	3.4571698165152545	4.138186768836702	1.4530710783362832	4.019640081336764	2.1912027319145446	3.328637916866779	2	correct	1.0
71.06744359998265	8.173129200004269	nogo_reward	1.0	71.09650629997486	72.38997129997006	74.9305549999699	1.2934649999951944	72.11011319997488	73.90718559996458	77.9852900999831	0.27985809999518096	1.023369400005322	1.2843453999960275	76.97165209997911	0.3850808999850414	75.93928579997737	1	1	69	1	nogo_reward	1	0	1	0	0	1	0	0.0	1.0	1	1.0	0.3850808999850414	1174.7552864000318	1245.8517927000066	1246.8653996000066	1247.1452577000018	1248.6624719999963	1249.6858414000017	1250.6945722000091	1251.7269385000109	1252.7405765000149	1254.024921900011	2020-06-09 09:28:26.332664	0.594508379210723	2.6087243902766	4.39334178035963	4.75956733668519	3.79883340114891	4.39334178035963	-0.594508379210723	4.39334178035963	2.6087243902766	4.39334178035963	3.79883340114891	3.5407928092302905	-1.876504490499018	2.0626708322660696	4.172766135587824	3.48720488313908	2.041073149728904	4.172766135587824	3.422590449764132	2.168667397408853	4.045171887907874	2.9067990509871144	3.328637916866779	2	correct	1.0
79.2826197000104	9.181312599976081	go_reward	0.3567468000110239	79.31168240000261	81.92657059995713	84.4838608999853	2.614888199954521	80.31539770000381	83.45940379996318	87.53111270000227	1.611172899953317	1.0244571000221185	0.9618822999764234	86.51796460000332	0.5400687999790534	85.49723669997184	1	1	70	2	go_reward	1	1	0	1	1	1	0	1.0	0.0	1	0.3567468000110239	0.5400687999790534	1174.7552864000318	1254.0669688000344	1255.0706841000356	1256.681856999989	1258.214690199995	1259.239147300017	1260.2525231000036	1261.273251000035	1262.286399100034	1263.2482814000105	2020-06-09 09:28:26.332664	5.80563251003416	4.6232873327377	0.0	4.6232873327377	5.80563251003416	0.0	-5.80563251003416	4.6232873327377	0.0	5.80563251003416	0.0	3.3108472568522203	3.334619640324419	4.07723377472717	-0.22057564477180566	3.35092487919159	4.047872258614154	-0.22057564477180566	3.192644897386062	3.5809581270833832	0.24633848675896436	3.1367446033651847	0.7199135265901789	2	wrong	1.0
88.50083739997353	9.459427200024948	nogo_reward	1.0	88.52990009996574	91.02166389999911	93.55470459995536	2.491763800033368	89.54406679997919	92.5301424000063	96.58994350000285	1.4775971000199206	1.0245621999490595	1.3993837999878451	95.58967719995417	0.7244885999825783	94.56882769998629	1	1	71	1	nogo_reward	1	0	1	0	0	1	1	1.0	1.0	1	1.0	0.7244885999825783	1174.7552864000318	1263.2851864999975	1264.299353200011	1265.7769503000309	1267.285428800038	1268.3099909999871	1269.324114100018	1270.344963599986	1271.3452299000346	1272.7446137000225	2020-06-09 09:28:26.332664	1.15634255935649	2.6087243902766	4.97510800003211	5.29327518975201	3.81876544067562	4.97510800003211	-1.15634255935649	4.97510800003211	2.6087243902766	4.97510800003211	3.81876544067562	2.9590265895578103	-1.314670310353251	2.0626708322660696	4.754532355260304	4.020912736205901	2.0610051892556136	4.754532355260304	2.840824230091652	2.7504336170813333	4.065103927434584	3.4885652706595947	3.328637916866779	2	correct	1.0
98.00574329995993	7.97196180000924	nogo_reward	1.0	98.03480599995214	99.61462399997981	102.15050669998163	1.5798180000276716	99.05282589996932	101.12627259996952	105.19194719998632	0.5617981000104919	1.0242341000121087	0.8148205999750644	104.17729999998119	0.4404668000061065	103.16379389999202	1	1	72	1	nogo_reward	1	0	1	0	0	1	0	0.0	1.0	1	1.0	0.4404668000061065	1174.7552864000318	1272.790092399984	1273.808112300001	1274.3699104000116	1275.8815590000013	1276.9057931000134	1277.9190803000238	1278.932586400013	1279.947233600018	1280.7620541999931	2020-06-09 09:28:26.332664	1.61614566796795	2.6087243902766	5.45060858548789	5.72708451555798	3.83446291751994	5.45060858548789	-1.61614566796795	5.45060858548789	2.6087243902766	5.45060858548789	3.83446291751994	2.48352600410203	-0.8548672017417911	2.0626708322660696	5.230032940716084	4.45472206201187	2.0767026660999335	5.230032940716084	2.365323644635872	3.2259342025371134	4.080801404278904	3.9640658561153748	3.328637916866779	2	correct	1.0
106.01910629996564	9.416190800024197	nogo_reward	1.0	106.04816899995785	108.46390189998783	110.99791340000229	2.4157329000299796	107.05832939996617	109.98095509997802	114.04894329997455	1.4055725000216626	1.016958300024271	1.4154165000074954	113.03515569999581	0.4714026000001468	112.0067987999646	1	1	73	1	nogo_reward	1	0	1	0	0	1	1	1.0	1.0	1	1.0	0.4714026000001468	1174.7552864000318	1280.8034553999896	1281.813615799998	1283.2191883000196	1284.7362415000098	1285.753199800034	1286.7620851999964	1287.7904421000276	1288.8042297000063	1290.2196462000138	2020-06-09 09:28:26.332664	1.99426298718729	2.6087243902766	5.8411895520947	6.08156650152759	3.84692656490741	5.8411895520947	-1.99426298718729	5.8411895520947	2.6087243902766	5.8411895520947	3.84692656490741	2.0929450374952205	-0.4767498825224512	2.0626708322660696	5.620613907322894	4.8092040479814795	2.0891663134874037	5.620613907322894	1.974742678029062	3.616515169143923	4.093265051666374	4.354646822722184	3.328637916866779	2	correct	1.0
115.47627499996452	8.828275400039274	go_reward	0.4820667000021785	115.50533769995673	117.7352124999743	120.28879269998288	2.229874800017569	116.51839069998823	119.26805879996391	123.34052349999547	1.2168217999860644	1.0207339000189677	0.9930896000005305	122.32726759999059	0.4225158999906853	121.29768769996008	1	1	74	2	go_reward	0	0	1	1	1	1	0	0.0	1.0	0	0.4820667000021785	0.4225158999906853	1174.7552864000318	1290.2606240999885	1291.27367710002	1292.490498900006	1294.0233451999957	1295.0440791000146	1296.0529740999918	1297.0825540000224	1298.0958099000272	1299.0888995000278	2020-06-09 09:28:26.332664	6.39621272638353	5.19178477670602	0.0	5.19178477670602	6.39621272638353	0.0	-6.39621272638353	5.19178477670602	0.0	6.39621272638353	0.0	-5.19178477670602	3.9251998566737885	4.64573121869549	-0.22057564477180566	3.91942232315991	4.638452474963524	-0.22057564477180566	-5.309987136172178	4.171538343432752	0.24633848675896436	3.7052420473335044	0.7199135265901789	2	correct	1.0
124.34767200000351	8.58312389999628	go_reward	0.2857047999859787	124.37673469999572	126.1724666999653	128.70660659996793	1.7957319999695756	125.38471670000581	127.68458959995792	131.74623249995057	0.7877499999594875	1.0220170000100097	1.213626100041438	130.73125219997019	0.9369065000209956	129.71023409999907	1	1	75	2	go_reward	1	1	0	1	1	1	0	0.0	1.0	1	0.2857047999859787	0.9369065000209956	1174.7552864000318	1299.1320211000275	1300.1400031000376	1300.927753099997	1302.4398759999897	1303.4618929999997	1304.4655205000308	1305.486538600002	1306.5015188999823	1307.7151450000238	2020-06-09 09:28:26.332664	5.40334538664251	4.23827946646337	0.0	4.23827946646337	5.40334538664251	0.0	-5.40334538664251	4.23827946646337	0.0	5.40334538664251	0.0	3.6958551231265506	2.9323325169327688	3.6922259084528393	-0.22057564477180566	2.96591701291726	3.645585135222504	-0.22057564477180566	3.5776527636603923	3.178671003691733	0.24633848675896436	2.7517367370908543	0.7199135265901789	2	correct	1.0
132.9726292999694	8.476645099988673	go_reward	0.6131484000361525	133.00169199996162	134.69493169995258	137.21598399995128	1.6932396999909543	134.0101827000035	136.20589429995744	140.2710303000058	0.684748999949079	1.0100896999938414	1.2073067999444902	139.25762369995937	0.4682067999965511	138.2290146999876	1	1	76	2	go_reward	1	1	0	1	1	1	1	1.0	1.0	1	0.6131484000361525	0.4682067999965511	1174.7552864000318	1307.7569783999934	1308.7654691000353	1309.4502180999843	1310.9611806999892	1311.971270399983	1312.9843011000194	1314.0129100999911	1315.0263167000376	1316.233623499982	2020-06-09 09:28:26.332664	6.08242723937962	4.89093785508179	0.0	4.89093785508179	6.08242723937962	0.0	-6.08242723937962	4.89093785508179	0.0	6.08242723937962	0.0	3.04319673450813	3.611414369669879	4.3448842970712604	-0.22057564477180566	3.6185754015356806	4.324666987959614	-0.22057564477180566	2.9249943750419716	3.8577528564288435	0.24633848675896436	3.404395125709275	0.7199135265901789	2	correct	1.0
141.49137349997181	8.835518900013994	nogo_punish	1.0	141.52043619996402	143.8843416000018	146.401272099989	2.3639054000377655	142.52965849998873	145.3858840999892	149.4568247999996	1.3546831000130624	1.0153879999998026	0.8991302999784239	148.44265579996863	0.3827559000346809	147.41366570000537	1	1	77	3	nogo_punish	1	-1	0	0	0	1	0	0.0	1.0	0	1.0	0.3827559000346809	1174.7552864000318	1316.2757225999958	1317.2849449000205	1318.6396280000336	1320.141170500021	1321.1565585000208	1322.1689521000371	1323.1979422000004	1324.2121112000314	1325.1112415000098	2020-06-09 09:28:26.332664	0.911946070632438	-3.93331503382998	-2.05597253941129	-2.95168624574212	-2.96791861004373	-2.05597253941129	-0.911946070632438	-2.05597253941129	-3.93331503382998	-2.05597253941129	-2.96791861004373	2.05597253941129	-1.559066799077303	-4.47936859184051	-2.2765481841830955	-4.22404869928823	-4.725678861463736	-2.2765481841830955	1.9377701799451315	-4.280646922362067	-2.7215801232847654	-3.5425152687838057	-3.213401507239801	2	correct	1.0
150.37071469996613	8.208775200007722	nogo_punish	1.0	150.39977739995834	151.82108929997776	154.35946700000204	1.4213119000194183	151.4012565999874	153.3381534999935	157.4120736999903	0.41983269999036565	1.0213135000085458	1.196478899975773	156.39910300000338	0.4767284999834373	155.37573779997183	1	1	78	3	nogo_punish	1	-1	0	0	0	1	0	0.0	1.0	0	1.0	0.4767284999834373	1174.7552864000318	1325.15506379999	1326.1565430000192	1326.5763757000095	1328.0934399000253	1329.1147534000338	1330.1310242000036	1331.1543894000351	1332.167360100022	1333.3638389999978	2020-06-09 09:28:26.332664	1.26965002999111	-3.93331503382998	-1.68896186231791	-2.44154218585554	-2.95861189230902	-1.68896186231791	-1.26965002999111	-1.68896186231791	-3.93331503382998	-1.68896186231791	-2.95861189230902	1.68896186231791	-1.2013628397186311	-4.47936859184051	-1.9095375070897156	-3.7139046394016497	-4.716372143729026	-1.9095375070897156	1.5707595028517514	-3.9136362452686866	-2.7122734055500555	-3.1755045916904256	-3.213401507239801	2	correct	1.0
158.6338636999717	8.138736299996026	go_reward	0.3717917000176385	158.6629263999639	160.0333466999582	162.5834906999953	1.3704202999942936	159.67527449998306	161.56609719997505	165.6418875999516	0.3580721999751404	1.0173935000202619	1.1597751000083463	164.6291323999758	0.4281334999832324	163.5961167999776	1	1	79	2	go_reward	1	1	0	1	1	1	0	0.0	1.0	1	0.3717917000176385	0.4281334999832324	1174.7552864000318	1333.4182127999957	1334.4305609000148	1334.78863309999	1336.3213836000068	1337.338777100027	1338.3514032000094	1339.3844188000076	1340.3971739999834	1341.5569490999917	2020-06-09 09:28:26.332664	6.62661456060756	5.41473068362757	0.0	5.41473068362757	6.62661456060756	0.0	-6.62661456060756	5.41473068362757	0.0	6.62661456060756	0.0	2.51940390596235	4.15560169089782	4.86867712561704	-0.22057564477180566	4.142368230081461	4.8688543091875545	-0.22057564477180566	2.4012015464961918	4.401940177656783	0.24633848675896436	3.928187954255055	0.7199135265901789	2	correct	1.0
166.81209600000875	9.276552599971183	go_punish	0.3265343999955803	166.84115870000096	169.30265169998165	171.84918439999456	2.461492999980692	167.83596619998593	170.83490849996474	174.90823790000286	1.4666854999957195	1.0142759000298156	1.2094733999692835	173.89513550000265	0.4214468999998644	172.86667449999368	1	1	80	4	go_punish	1	0	-1	1	1	1	0	0.0	1.0	0	0.3265343999955803	0.4214468999998644	1174.7552864000318	1341.5964451000327	1342.5912526000177	1344.0579381000134	1345.5901948999965	1346.6044708000263	1347.6219609000254	1348.6504219000344	1349.6635243000346	1350.872997700004	2020-06-09 09:28:26.332664	4.3767429728524	-1.42972815146027	-4.83784442333654	-2.88405150773082	-0.461101450484134	-4.83784442333654	-4.3767429728524	-1.42972815146027	-4.83784442333654	-0.461101450484134	-4.83784442333654	1.42972815146027	1.9057301031426586	-1.9757817094708003	-5.0584200681083455	-4.15641396127693	-2.21886170190414	-5.0584200681083455	1.3115257919941115	-2.685775833434911	-4.591505936577575	-2.9162708808327853	-4.117930896746361	2	correct	1.0
176.13148879999062	9.116617699968629	go_punish	0.8718963999999687	176.16055149998283	178.7423033999512	181.3045989999664	2.581751899968367	177.17151959997136	180.2746503999806	184.3626211999799	1.5707837999798357	1.0299485999858007	0.9145479999715462	183.34890909999376	0.4256078000180423	182.322537	1	1	81	4	go_punish	1	0	-1	1	1	1	0	0.0	1.0	0	0.8718963999999687	0.4256078000180423	1174.7552864000318	1350.9158379000146	1351.9268060000031	1353.497589799983	1355.0299368000124	1356.0598853999982	1357.0778234000318	1358.1041955000255	1359.1179076000117	1360.0324555999832	2020-06-09 09:28:26.332664	4.63412700851075	-1.18048826006829	-4.83784442333654	-2.39849960958508	-0.203717414825786	-4.83784442333654	-4.63412700851075	-1.18048826006829	-4.83784442333654	-0.203717414825786	-4.83784442333654	1.18048826006829	2.1631141388010087	-1.7265418180788203	-5.0584200681083455	-3.6708620631311897	-1.9614776662457922	-5.0584200681083455	1.0622859006021315	-2.4283917977765626	-4.591505936577575	-2.6670309894408053	-4.117930896746361	2	correct	1.0
185.2918675999972	8.218007299990859	go_reward	0.2412899000337347	185.3209302999894	186.99284129997272	189.53262909996533	1.6719109999833108	186.33645669999532	188.50856139999814	192.58165069995448	0.6563845999774003	1.0240676999671905	0.9572869000257924	191.56730309996055	0.4579558999976143	190.54618589999154	1	1	82	2	go_reward	1	1	0	1	1	1	0	0.0	1.0	1	0.2412899000337347	0.4579558999976143	1174.7552864000318	1360.0762167000212	1361.091743100027	1361.7481277000045	1363.26384780003	1364.287915499997	1365.3014723000233	1366.3225894999923	1367.3369370999862	1368.294224000012	2020-06-09 09:28:26.332664	7.06565264792628	5.83786202070032	0.0	5.83786202070032	7.06565264792628	0.0	-7.06565264792628	5.83786202070032	0.0	7.06565264792628	0.0	2.0962725688896002	4.594639778216539	5.29180846268979	-0.22057564477180566	4.565499567154211	5.307892396506274	-0.22057564477180566	1.9780702094234417	4.840978264975503	0.24633848675896436	4.351319291327805	0.7199135265901789	2	correct	1.0
193.54878109996207	8.581400100025348	go_punish	0.6338514999952167	193.57784379995428	195.28421660000458	197.8300734999939	1.7063728000503033	194.58171110000694	196.8100477999542	200.89011819998268	0.7025054999976419	1.020025700039696	1.2691256999969482	199.8769530999707	0.3845321999979205	198.84861059999093	1	1	83	4	go_punish	1	0	-1	1	1	1	1	1.0	1.0	0	0.6338514999952167	0.3845321999979205	1174.7552864000318	1368.333130199986	1369.3369975000387	1370.0395030000363	1371.565334199986	1372.5853599000257	1373.6038970000227	1374.6322395000025	1375.6454046000144	1376.9145303000114	2020-06-09 09:28:26.332664	4.84188454791686	-0.979116258333	-4.83784442333654	-2.00325575496671	0.0040401245803262	-4.83784442333654	-4.84188454791686	-0.979116258333	-4.83784442333654	0.0040401245803262	-4.83784442333654	0.979116258333	2.3708716782071186	-1.52516981634353	-5.0584200681083455	-3.2756182085128196	-1.75372012683968	-5.0584200681083455	0.8609138988668416	-2.2206342583704504	-4.591505936577575	-2.4656589877055155	-4.117930896746361	2	correct	1.0
202.16803509998113	8.454507999995485	go_punish	0.3220393999945372	202.19709779997333	203.70797389996005	206.2604985999642	1.5108760999867172	203.21004809997976	205.2406242999714	209.30622059997404	0.49792579998029396	1.0198742999928072	1.3453851999947801	208.29339690000074	0.377444599987939	207.27164479997032	1	1	84	4	go_punish	1	0	-1	1	1	1	0	0.0	1.0	0	0.3220393999945372	0.377444599987939	1174.7552864000318	1376.952384200005	1377.9653345000115	1378.4632602999918	1379.9959107000032	1381.015784999996	1382.026931200002	1383.0486833000325	1384.0615070000058	1385.4068922000006	2020-06-09 09:28:26.332664	5.01049317410438	-0.815572687012322	-4.83784442333654	-1.67993320257709	0.172648750767843	-4.83784442333654	-5.01049317410438	-0.815572687012322	-4.83784442333654	0.172648750767843	-4.83784442333654	0.815572687012322	2.539480304394639	-1.3616262450228522	-5.0584200681083455	-2.9522956561231997	-1.5851115006521632	-5.0584200681083455	0.6973703275461636	-2.0520256321829335	-4.591505936577575	-2.3021154163848374	-4.117930896746361	2	correct	1.0
210.66877739998745	9.614373699994758	nogo_punish	1.0	210.69784009997966	213.24459809996188	215.78128159994935	2.546757999982219	211.69758449995425	214.76151619997108	218.83485459996155	1.5470136000076309	1.0197653999782688	1.4773592000128701	217.82152599998517	0.4554652000078931	216.79266639996786	1	1	85	3	nogo_punish	1	-1	0	0	0	1	0	0.0	1.0	0	1.0	0.4554652000078931	1174.7552864000318	1385.4531265000114	1386.452870899986	1387.9998844999936	1389.5168026000028	1390.5365679999811	1391.5479527999996	1392.576812400017	1393.5901409999933	1395.0675002000062	2020-06-09 09:28:26.332664	1.55702766124915	-3.93331503382998	-1.39442664761519	-2.02932371343406	-2.95145430886434	-1.39442664761519	-1.55702766124915	-1.39442664761519	-3.93331503382998	-1.39442664761519	-2.95145430886434	1.39442664761519	-0.9139852084605911	-4.47936859184051	-1.6150022923869958	-3.30168616698017	-4.709214560284346	-1.6150022923869958	1.2762242881490315	-3.6191010305659668	-2.7051158221053755	-2.8809693769877054	-3.213401507239801	2	correct	1.0
220.32579139998393	8.852203699993197	nogo_punish	1.0	220.35485409997614	222.27649349998683	224.8125910999952	1.9216394000106902	221.3633722999948	223.79304989997763	227.854415699956	0.9131211999920197	1.0195412000175565	1.3526421000133269	226.84542969998415	0.5094094999949448	225.8236712999642	1	1	86	3	nogo_punish	1	-1	0	0	0	1	0	0.0	1.0	0	1.0	0.5094094999949448	1174.7552864000318	1395.110140500008	1396.1186587000266	1397.0317799000186	1398.5483363000094	1399.567877500027	1400.578957699996	1401.600716100016	1402.6097020999878	1403.962344200001	2020-06-09 09:28:26.332664	1.78923328159198	-3.93331503382998	-1.15663750753196	-1.69430764002927	-2.94587078912393	-1.15663750753196	-1.78923328159198	-1.15663750753196	-3.93331503382998	-1.15663750753196	-2.94587078912393	1.15663750753196	-0.6817795881177611	-4.47936859184051	-1.3772131523037656	-2.96667009357538	-4.703631040543936	-1.3772131523037656	1.0384351480658014	-3.3813118904827366	-2.6995323023649656	-2.6431802369044757	-3.213401507239801	2	correct	1.0
229.22027280001203	9.803018099977635	nogo_reward	1.0	229.24933550000424	232.01808849995723	234.55719959997805	2.7687529999529943	230.25788210000633	233.5325205999543	237.59085609996714	1.7602063999509028	1.0246790000237525	1.4614975000147297	236.58316689997446	0.431018800009042	235.57014709996292	1	1	87	1	nogo_reward	1	0	1	0	0	1	0	0.0	1.0	1	1.0	0.431018800009042	1174.7552864000318	1404.004621900036	1405.013168500038	1406.773374899989	1408.287806999986	1409.3124860000098	1410.3254334999947	1411.3384533000062	1412.346142499999	1413.8076400000136	2020-06-09 09:28:26.332664	2.30661891193626	2.6087243902766	6.1635185062188	6.37267209229076	3.85689959428254	6.1635185062188	-2.30661891193626	6.1635185062188	2.6087243902766	6.1635185062188	3.85689959428254	1.7706160833711202	-0.16439395777348098	2.0626708322660696	5.942942861446994	5.100309638744649	2.099139342862534	5.942942861446994	1.6524137239049617	3.9388441232680234	4.103238081041504	4.676975776846285	3.328637916866779	2	correct	1.0
239.06625739997253	8.898794200038537	go_reward	0.2525387000059709	239.09532009996474	241.1606397999567	243.71325289999368	2.06531969999196	240.11244729999453	242.69241959997453	246.74955379997846	1.0481924999621697	1.0208333000191487	1.2445605000248179	245.74409649998415	0.5690639000386	244.7300097999978	1	1	88	2	go_reward	0	0	1	1	1	1	0	0.0	1.0	0	0.2525387000059709	0.5690639000386	1174.7552864000318	1413.8506064999965	1414.8677337000263	1415.9159261999885	1417.4477060000063	1418.4685393000254	1419.4852962000296	1420.499382900016	1421.5048402000102	1422.749400700035	2020-06-09 09:28:26.332664	7.42199278605905	6.18168302344616	0.0	6.18168302344616	7.42199278605905	0.0	-7.42199278605905	6.18168302344616	0.0	7.42199278605905	0.0	-6.18168302344616	4.95097991634931	5.63562946543563	-0.22057564477180566	4.90932056990005	5.664232534639044	-0.22057564477180566	-6.2998853829123185	5.197318403108273	0.24633848675896436	4.695140294073645	0.7199135265901789	2	correct	1.0
248.00185409997357	8.978650800010655	go_reward	0.2701303000212647	248.03091679996578	250.47993529995415	253.02907869999763	2.4490184999883695	249.04521929996554	252.00529989995994	256.08539560000645	1.4347159999886117	1.0237788000376895	0.9241719999699853	255.07167049997952	0.5453574999701232	254.04273970000213	1	1	89	2	go_reward	1	1	0	1	1	1	0	0.0	1.0	1	0.2701303000212647	0.5453574999701232	1174.7552864000318	1422.7862031999975	1423.8005056999973	1425.235221699986	1426.7605862999917	1427.7843651000294	1428.798026100034	1429.8269569000113	1430.8406820000382	1431.7648540000082	2020-06-09 09:28:26.332664	6.2432513680108	5.04959994998983	0.0	5.04959994998983	6.2432513680108	0.0	-6.2432513680108	5.04959994998983	0.0	6.2432513680108	0.0	2.8845346396000906	3.7722384983010593	4.5035463919793	-0.22057564477180566	3.77723749644372	4.4854911165907945	-0.22057564477180566	2.7663322801339323	4.018576985060024	0.24633848675896436	3.5630572206173143	0.7199135265901789	2	correct	1.0
257.02275409997674	9.1240235000148	nogo_punish	1.0	257.05181679996895	259.8328282999573	262.3572857999827	2.781011499988381	258.0604653999908	261.34326349996263	265.4173298999667	1.772362899966538	1.0140223000200876	0.7585104000170304	264.403511099983	0.3613138999789953	263.3747821999714	1	1	90	3	nogo_punish	1	-1	0	0	0	1	0	0.0	1.0	0	1.0	0.3613138999789953	1174.7552864000318	1431.8071032000007	1432.8157518000226	1434.588114699989	1436.0985498999944	1437.1125722000145	1438.1300686000031	1439.1587975000148	1440.1726162999985	1440.9311267000155	2020-06-09 09:28:26.332664	1.97784482443326	-3.93331503382998	-0.96361436145976	-1.42059535137157	-2.94145918589302	-0.96361436145976	-1.97784482443326	-0.96361436145976	-3.93331503382998	-0.96361436145976	-2.94145918589302	0.96361436145976	-0.49316804527648106	-4.47936859184051	-1.1841900062315656	-2.69295780491768	-4.699219437313026	-1.1841900062315656	0.8454120019936016	-3.188288744410537	-2.6951206991340557	-2.4501570908322754	-3.213401507239801	2	correct	1.0
266.1888758999994	8.287509899993893	nogo_reward	1.0	266.2179385999916	267.6561493999907	270.1975917999516	1.4382107999990694	267.22096509998664	269.17372789996443	273.2623290999911	0.43518430000403896	1.023863899987191	1.2431193999943844	272.24936679995153	0.5479601999977604	271.21198309998726	1	1	91	1	nogo_reward	1	0	1	0	0	1	0	0.0	1.0	1	1.0	0.5479601999977604	1174.7552864000318	1440.9732250000234	1441.9762515000184	1442.4114358000224	1443.9290142999962	1444.9528781999834	1445.967269500019	1447.0046531999833	1448.0176155000229	1449.2607349000173	2020-06-09 09:28:26.332664	2.56575975436755	2.6087243902766	6.43069911072285	6.61285897781343	3.8649393563553	6.43069911072285	-2.56575975436755	6.43069911072285	2.6087243902766	6.43069911072285	3.8649393563553	1.50343547886707	0.094746884657809	2.0626708322660696	6.210123465951044	5.340496524267321	2.1071791049352937	6.210123465951044	1.3852331194009115	4.206024727772073	4.111277843114264	4.944156381350335	3.328637916866779	2	correct	1.0
274.5246614000059	8.47976879996736	nogo_punish	1.0	274.55372409999813	276.2202037999523	278.73822549998295	1.6664796999541522	275.54955860000337	277.72193459997675	281.7974549999926	0.6706451999489218	1.0162909000061973	1.236037899972871	280.78411889995914	0.4149071000283584	279.75521400000434	1	1	92	3	nogo_punish	1	-1	0	0	0	1	1	1.0	1.0	0	1.0	0.4149071000283584	1174.7552864000318	1449.30901050003	1450.3048450000351	1450.975490199984	1452.4772210000085	1453.4935119000147	1454.510500400036	1455.539405299991	1456.5527414000244	1457.7887792999973	2020-06-09 09:28:26.332664	2.13179632574246	-3.93331503382998	-0.806135354244927	-1.19586814381384	-2.93793167998739	-0.806135354244927	-2.13179632574246	-0.806135354244927	-3.93331503382998	-0.806135354244927	-2.93793167998739	0.806135354244927	-0.33921654396728096	-4.47936859184051	-1.0267109990167327	-2.46823059735995	-4.695691931407396	-1.0267109990167327	0.6879329947787686	-3.0308097371957037	-2.6915931932284254	-2.2926780836174423	-3.213401507239801	2	correct	1.0
283.0485820999602	8.120645900024329	go_reward	0.7865247000008821	283.0776447999524	284.64550709998	287.18012029997794	1.5678623000276275	284.08442709996575	286.16173130000243	290.2364631999519	0.5610800000142717	1.0183889999755138	0.9618275000248104	289.22146470000735	0.482462799991481	288.1935720999609	1	1	93	2	go_reward	1	1	0	1	1	1	0	0.0	1.0	1	0.7865247000008821	0.482462799991481	1174.7552864000318	1457.8329311999842	1458.8397134999975	1459.4007935000118	1460.9170177000342	1461.9354067000097	1462.9488584999926	1463.976751100039	1464.9917495999837	1465.9535771000085	2020-06-09 09:28:26.332664	6.77382948671358	5.55937577673393	0.0	5.55937577673393	6.77382948671358	0.0	-6.77382948671358	5.55937577673393	0.0	6.77382948671358	0.0	2.3747588128559904	4.302816617003838	5.0133222187234	-0.22057564477180566	4.28701332318782	5.016069235293574	-0.22057564477180566	2.256556453389832	4.5491551037628035	0.24633848675896436	4.0728330473614145	0.7199135265901789	2	correct	1.0
291.2144541000016	9.82633369998075	go_reward	0.2925405999994837	291.2435167999938	294.0954634999507	296.65174770000135	2.8519466999568976	292.25814980000723	295.6276061999961	299.68543939996744	1.8373136999434792	1.0241415000052712	1.384411100007128	298.68127719999734	0.8460101999808103	297.6577084999881	1	1	94	2	go_reward	1	1	0	1	1	1	0	0.0	1.0	1	0.2925405999994837	0.8460101999808103	1174.7552864000318	1465.9988032000256	1467.013436200039	1468.8507498999825	1470.3828926000278	1471.4070341000331	1472.4129949000198	1473.436563600029	1474.4407257999992	1475.8251369000063	2020-06-09 09:28:26.332664	7.19863625194691	5.96815637357201	0.0	5.96815637357201	7.19863625194691	0.0	-7.19863625194691	5.96815637357201	0.0	7.19863625194691	0.0	1.96597821601791	4.727623382237169	5.42210281556148	-0.22057564477180566	4.695793920025901	5.440876000526904	-0.22057564477180566	1.8477758565517515	4.973961868996133	0.24633848675896436	4.481613644199495	0.7199135265901789	2	correct	1.0
301.07879130000947	8.08917469996959	go_reward	0.3358908999944106	301.1078540000017	302.69108249997953	305.24852689995896	1.5832284999778494	302.120919399953	304.2239924999885	308.28266869997606	0.5701631000265479	1.0245343999704346	0.914359999995213	307.27454339998053	0.6482980999862775	306.26160909997975	1	1	95	2	go_reward	1	1	0	1	1	1	1	1.0	1.0	1	0.3358908999944106	0.6482980999862775	1174.7552864000318	1475.8631404000334	1476.8762057999847	1477.4463689000113	1478.9792789000203	1480.0038132999907	1481.0168955000115	1482.0298298000123	1483.0379551000078	1483.952315100003	2020-06-09 09:28:26.332664	7.54115446510215	6.29819014876559	0.0	6.29819014876559	7.54115446510215	0.0	-7.54115446510215	6.29819014876559	0.0	7.54115446510215	0.0	1.6359444408243302	5.070141595392409	5.75213659075506	-0.22057564477180566	5.02582769521948	5.783394213682144	-0.22057564477180566	1.5177420813581717	5.316480082151374	0.24633848675896436	4.811647419393075	0.7199135265901789	2	correct	1.0
309.2101345999981	8.581502899993211	nogo_punish	1.0	309.23919729999034	311.214811199985	313.75077589997113	1.9756138999946415	310.24813679995714	312.7244056999916	316.803635499964	0.9666744000278413	1.0263701999795103	1.0170647000195459	315.7902150999871	0.4976669999887235	314.76328389998525	1	1	96	3	nogo_punish	0	0	-1	0	0	1	0	0.0	1.0	-1	1.0	0.4976669999887235	1174.7552864000318	1483.994483700022	1485.003423199989	1485.9700976000167	1487.4796921000234	1488.506062300003	1489.518570300017	1490.5455015000189	1491.5589218999958	1492.5759866000153	2020-06-09 09:28:26.332664	2.25803509148621	-3.93331503382998	-0.677043950330214	-1.01050654665492	-2.93507904181643	-0.677043950330214	-2.25803509148621	-0.677043950330214	-3.93331503382998	-0.677043950330214	-2.93507904181643	-6.234508453936106	-0.21297777822353092	-4.47936859184051	-0.8976195951020197	-2.2828690002010297	-4.692839293236436	-0.8976195951020197	-6.352710813402265	-2.9017183332809906	-2.6887405550574655	-2.1635866797027297	-3.213401507239801	2	correct	1.0
317.83690240001306	8.265813299978618	nogo_punish	1.0	317.86596510000527	319.21430209995015	321.7487432999769	1.3483369999448769	318.8730098999804	320.73154209996574	324.81069660000503	0.34129219996975735	1.0172012000111863	1.321081799978856	323.7891995999962	0.4387313000042923	322.75933889998123	1	1	97	3	nogo_punish	1	-1	0	0	0	1	0	0.0	1.0	0	1.0	0.4387313000042923	1174.7552864000318	1492.621251500037	1493.6282963000122	1493.969588499982	1495.4868284999975	1496.5040297000087	1497.514625300013	1498.544486000028	1499.5659830000368	1500.8870648000157	2020-06-09 09:28:26.332664	1.18863633411467	-3.93331503382998	-1.76679430775292	-2.0529946425481	-2.95543064186759	-1.76679430775292	-1.18863633411467	-1.76679430775292	-3.93331503382998	-1.76679430775292	-2.95543064186759	1.76679430775292	-1.2823765355950711	-4.47936859184051	-1.9873699525247257	-3.32535709609421	-4.713190893287596	-1.9873699525247257	1.6485919482867615	-3.9914686907036967	-2.7090921551086256	-3.2533370371254353	-3.213401507239801	2	correct	1.0
326.14811239996925	8.07989350002049	nogo_reward	1.0	326.17717509996146	327.6604920999962	330.19434399995953	1.4833170000347309	327.19355279998854	329.1703887999756	333.2474086000002	0.4669393000076525	1.0239551999839023	1.00965999998175	332.2413266999647	0.5335412999847904	331.20642399997473	1	1	98	1	nogo_reward	1	0	1	0	0	1	0	0.0	1.0	1	1.0	0.5335412999847904	1174.7552864000318	1500.9324614999932	1501.9488392000203	1502.415778500028	1503.9256752000074	1504.9496303999913	1505.9617104000065	1506.9966130999965	1508.002695000032	1509.0123550000137	2020-06-09 09:28:26.332664	2.78162877961468	2.6087243902766	6.653096062693	6.81191915441758	3.87146728307832	6.653096062693	-2.78162877961468	6.653096062693	2.6087243902766	6.653096062693	3.87146728307832	1.2810385268969204	0.3106159099049388	2.0626708322660696	6.432520417921194	5.53955670087147	2.113707031658314	6.432520417921194	1.162836167430762	4.428421679742224	4.117805769837284	5.1665533333204845	3.328637916866779	2	correct	1.0
334.2680306999828	7.691782500012778	go_punish	0.4972707999986596	334.297093399975	335.6346736999694	338.1799014999999	1.3375802999944426	335.30714499996975	337.16618729999755	341.2169248999562	0.32752869999967515	1.0137142000023687	0.7719510000315495	340.21005979995243	0.4165669999783858	339.19738319999306	1	1	99	4	go_punish	1	0	-1	1	1	1	0	0.0	1.0	0	0.4972707999986596	0.4165669999783858	1174.7552864000318	1509.0523798000067	1510.0624314000015	1510.3899601000012	1511.9214737000293	1512.9351879000317	1513.9526696000248	1514.9653461999842	1515.972211299988	1516.7441623000195	2020-06-09 09:28:26.332664	5.14802562359409	-0.682102691847809	-4.83784442333654	-1.41421479343587	0.310181200257558	-4.83784442333654	-5.14802562359409	-0.682102691847809	-4.83784442333654	0.310181200257558	-4.83784442333654	0.682102691847809	2.6770127538843487	-1.2281562498583392	-5.0584200681083455	-2.6865772469819795	-1.4475790511624482	-5.0584200681083455	0.5639003323816506	-1.9144931826932186	-4.591505936577575	-2.1686454212203246	-4.117930896746361	2	correct	1.0
341.9982863999903	8.173336500010919	go_punish	1.0	342.02734909998253	343.49358529999154	346.02059109997936	1.466236200009007	343.0337864999892	344.99675699998625	349.0671205999679	0.4597988000023179	1.0238340999931097	1.1335650000255555	348.055530899961	0.8885177999618463	347.0314101999975	1	1	100	4	go_punish	1	0	-1	1	0	0	0	0.0	1.0	-1	1.0	0.8885177999618463	1174.7552864000318	1516.7826355000143	1517.789072900021	1518.2488717000233	1519.752043400018	1520.7758775000111	1521.7866966000292	1522.8108172999928	1523.8224069999997	1524.9559720000252	2020-06-09 09:28:26.332664	-5.26074756204059	-0.572673909430853	-4.83784442333654	-1.19487804862283	0.422903138704055	-4.83784442333654	5.26074756204059	-4.83784442333654	-0.572673909430853	-4.83784442333654	0.422903138704055	-2.0737079809297807	-7.731760431750331	-1.1187274674413832	-5.0584200681083455	-2.4672405021689396	-1.3348571127159512	-5.0584200681083455	-2.191910340395939	-7.062518806287317	0.6692416254630194	-6.324387152709055	0.147239617159326	2	correct	1.0
350.209433699958	8.581092300009914	nogo_reward	1.0	350.23849639995024	351.7495241999859	354.2831368999907	1.511027800035663	351.25152769999113	353.2597992999945	357.3324040999871	0.4979964999947697	1.023337599996239	1.487184599973034	356.3199514999869	0.8557094999705441	355.29729219997535	1	1	101	1	nogo_reward	1	0	1	0	0	1	0	0.0	1.0	1	1.0	0.8557094999705441	1174.7552864000318	1524.993782799982	1526.006814100023	1526.5048106000177	1528.0150857000262	1529.0384233000225	1530.052578600007	1531.0752379000187	1532.0876905000189	1533.574875099992	2020-06-09 09:28:26.332664	2.96214942549132	2.6087243902766	6.83895386166628	6.97759500452248	3.87680443617495	6.83895386166628	-2.96214942549132	6.83895386166628	2.6087243902766	6.83895386166628	3.87680443617495	1.0951807279236405	0.491136555781579	2.0626708322660696	6.618378216894474	5.705232550976371	2.1190441847549435	6.618378216894474	0.9769783684574821	4.614279478715503	4.123142922933914	5.352411132293764	3.328637916866779	2	correct	1.0
358.8347611000065	8.71688299998641	go_reward	0.2100916000199504	358.8638237999987	360.63380379998125	363.17328149999935	1.7699799999825245	359.870488399989	362.1619422999793	366.2281623999588	0.7633153999922797	1.0113392000200747	1.3525444000263178	365.21509379998315	0.4079017000040039	364.1860221999814	1	1	102	2	go_reward	1	1	0	1	1	1	0	0.0	1.0	1	0.2100916000199504	0.4079017000040039	1174.7552864000318	1533.6191102000305	1534.6257748000207	1535.389090200013	1536.917228700011	1537.928567900031	1538.9413086000131	1539.970380200015	1540.9834487999906	1542.335993200017	2020-06-09 09:28:26.332664	7.81903671248641	6.5662552546674	0.0	6.5662552546674	7.81903671248641	0.0	-7.81903671248641	6.5662552546674	0.0	7.81903671248641	0.0	1.3678793349225202	5.348023842776669	6.02020169665687	-0.22057564477180566	5.29389280112129	6.061276461066404	-0.22057564477180566	1.2496769754563617	5.594362329535633	0.24633848675896436	5.079712525294885	0.7199135265901789	2	correct	1.0
367.5909962999867	8.816278300015256	go_reward	0.2728416000027209	367.62005899997894	369.43612649996066	371.99321729998337	1.8160674999817275	368.62568369996734	370.96931620000373	375.0373075999669	0.810442799993325	1.0239010999796392	1.399029700027313	374.0298383999616	0.4098435000050813	373.00013489997946	1	1	103	2	go_reward	1	1	0	1	1	1	0	0.0	1.0	1	0.2728416000027209	0.4098435000050813	1174.7552864000318	1542.3753454000107	1543.380970099999	1544.1914128999924	1545.7246026000355	1546.7485037000151	1547.7554213000112	1548.7851247999934	1549.7925939999986	1551.191623700026	2020-06-09 09:28:26.332664	8.04576434752983	6.78519660868968	0.0	6.78519660868968	8.04576434752983	0.0	-8.04576434752983	6.78519660868968	0.0	8.04576434752983	0.0	1.1489379809002402	5.57475147782009	6.23914305067915	-0.22057564477180566	5.512834155143571	6.288004096109825	-0.22057564477180566	1.0307356214340817	5.821089964579054	0.24633848675896436	5.298653879317165	0.7199135265901789	2	correct	1.0
376.45383919996675	9.145907199999783	nogo_punish	1.0	376.48290189995896	378.81167219998315	381.34873289999086	2.328770300024189	377.4877554999548	380.3290429000044	384.4013128999504	1.3239167000283487	1.01968999998644	1.2274962000083178	383.3882272999617	0.6215262000332586	382.3673956999555	1	1	104	3	nogo_punish	1	-1	0	0	0	1	0	0.0	1.0	0	1.0	0.6215262000332586	1174.7552864000318	1551.2381882999907	1552.2430418999866	1553.566958600015	1555.0843293000362	1556.1040193000226	1557.1226820999873	1558.1435136999935	1559.1565992999822	1560.3840954999905	2020-06-09 09:28:26.332664	1.50057460750485	-3.93331503382998	-1.44760932342936	-1.69397105790168	-2.94818393093421	-1.44760932342936	-1.50057460750485	-1.44760932342936	-3.93331503382998	-1.44760932342936	-2.94818393093421	1.44760932342936	-0.970438262204891	-4.47936859184051	-1.6681849682011658	-2.9663335114477896	-4.705944182354216	-1.6681849682011658	1.3294069639632016	-3.672283706380137	-2.7018454441752455	-2.934152052801876	-3.213401507239801	2	correct	1.0
385.64220750000095	7.719408100005239	nogo_punish	1.0	385.67127019999316	387.03766189998714	389.55901819997234	1.366391699993983	386.67981899995334	388.5470948999864	392.6224911999889	0.3578429000338019	1.0119232999859378	0.7681871000095271	391.6153779999586	0.4558704999508336	390.57806349999737	1	1	105	3	nogo_punish	1	-1	0	0	0	1	0	0.0	1.0	0	1.0	0.4558704999508336	1174.7552864000318	1560.426556600025	1561.435105399985	1561.792948300019	1563.3023813000182	1564.314304600004	1565.3333499000291	1566.3706643999903	1567.3777776000206	1568.1459647000302	2020-06-09 09:28:26.332664	1.74976783251891	-3.93331503382998	-1.19295643979032	-1.40562283802132	-2.94272427230923	-1.19295643979032	-1.74976783251891	-1.19295643979032	-3.93331503382998	-1.19295643979032	-2.94272427230923	1.19295643979032	-0.721245037190831	-4.47936859184051	-1.4135320845621258	-2.67798529156743	-4.700484523729236	-1.4135320845621258	1.0747540803241615	-3.4176308227410965	-2.6963857855502655	-2.6794991691628356	-3.213401507239801	2	correct	1.0
393.41471639997326	8.487791099993274	go_punish	0.393772599985823	393.44377909996547	394.84512369998265	397.3992564000073	1.4013446000171825	394.4573103999719	396.3788332999684	400.43592809996335	0.3878133000107482	1.0204231000388972	1.4956420999953934	399.42306949995714	0.3956939000054262	398.4082631999627	1	1	106	4	go_punish	1	0	-1	1	1	1	0	0.0	1.0	0	0.393772599985823	0.3956939000054262	1174.7552864000318	1568.1990654999972	1569.2125968000037	1569.6004101000144	1571.1341197000002	1572.154542800039	1573.1635495999944	1574.178355899989	1575.191214499995	1576.6868565999905	2020-06-09 09:28:26.332664	5.54980668596596	-0.572673909430853	-5.14689007243746	-2.20911944170311	0.402916613528491	-5.14689007243746	-5.54980668596596	-0.572673909430853	-5.14689007243746	0.402916613528491	-5.14689007243746	0.572673909430853	3.0787938162562187	-1.1187274674413832	-5.367465717209266	-3.4814818952492197	-1.3548436378915152	-5.367465717209266	0.4544715499646945	-1.8217577694222857	-4.900551585678496	-2.0592166388033686	-4.426976545847282	2	correct	1.0
401.9472257999589	8.112691800051607	nogo_reward	1.0	401.9762884999511	403.5420476999716	406.06930609996175	1.5657592000204659	402.9885019999929	405.05251479998697	409.102717999951	0.553545699978713	1.0167912999747841	0.9862623000517488	408.1030731999783	0.5554695000173524	407.088413999998	1	1	107	1	nogo_reward	1	0	1	0	0	1	0	0.0	1.0	1	1.0	0.5554695000173524	1174.7552864000318	1576.731574899983	1577.7437884000246	1578.2973341000034	1579.8078012000187	1580.8245924999935	1581.8437004000298	1582.85835960001	1583.8580043999827	1584.8442667000345	2020-06-09 09:28:26.332664	3.11366809524058	2.6087243902766	6.99486524607816	7.11604240539012	3.88119715083758	6.99486524607816	-3.11366809524058	6.99486524607816	2.6087243902766	6.99486524607816	3.88119715083758	0.9392693435117598	0.6426552255308389	2.0626708322660696	6.7742896013063545	5.84367995184401	2.123436899417574	6.7742896013063545	0.8210669840456014	4.770190863127384	4.127535637596544	5.508322516705645	3.328637916866779	2	correct	1.0
410.09715290000895	7.906072199984919	go_punish	0.7457211000146344	410.12621560000116	411.4572169999592	414.00965449999785	1.3310013999580406	411.1401837999583	412.98659970000153	417.0695360999671	0.3170332000008784	1.0230547999963164	0.9627517000189982	416.05679129995406	0.4371631999965757	415.0277206999599	1	1	108	4	go_punish	1	0	-1	1	1	1	1	1.0	1.0	0	0.7457211000146344	0.4371631999965757	1174.7552864000318	1584.881502000033	1585.89547019999	1586.212503399991	1587.7418861000333	1588.7649409000296	1589.7830070999917	1590.8120776999858	1591.8248224999988	1592.7875742000178	2020-06-09 09:28:26.332664	5.64746779494262	-0.482564048619262	-5.14689007243746	-1.82654081358325	0.500577722505159	-5.14689007243746	-5.64746779494262	-0.482564048619262	-5.14689007243746	0.500577722505159	-5.14689007243746	0.482564048619262	3.176454925232879	-1.0286176066297923	-5.367465717209266	-3.0989032671293595	-1.2571825289148473	-5.367465717209266	0.3643616891531035	-1.7240966604456176	-4.900551585678496	-1.9691067779917775	-4.426976545847282	2	correct	1.0
418.05723500001477	9.074132399982773	go_punish	0.2961582000134513	418.086297700007	420.60361559997546	423.16608559997985	2.517317899968475	419.09093669999857	422.14541860000463	426.21439059998374	1.5126788999768905	1.0206669999752194	0.9460395000060089	425.2008827999816	0.5044608999742195	424.1786677999771	1	1	109	4	go_punish	1	0	-1	1	1	1	0	0.0	1.0	0	0.2961582000134513	0.5044608999742195	1174.7552864000318	1592.8415841000387	1593.8462231000303	1595.3589020000072	1596.9007050000364	1597.9213720000116	1598.9339542000089	1599.9561692000134	1600.9696770000155	1601.9157165000215	2020-06-09 09:28:26.332664	5.72769254492994	-0.408054655516068	-5.14689007243746	-1.51849200736277	0.580802472492476	-5.14689007243746	-5.72769254492994	-0.408054655516068	-5.14689007243746	0.580802472492476	-5.14689007243746	0.408054655516068	3.2566796752201985	-0.9541082135265982	-5.367465717209266	-2.7908544609088795	-1.1769577789275303	-5.367465717209266	0.2898522960499096	-1.6438719104583006	-4.900551585678496	-1.8945973848885835	-4.426976545847282	2	correct	1.0
427.1732345999917	8.886036999989301	nogo_reward	1.0	427.2022972999839	429.4842856999603	431.99858519999543	2.281988399976399	428.2111604999518	430.98636629997054	435.0483861999819	1.2731252000085078	1.012218900024891	1.0399480999913067	434.0339399999939	0.4377272999845445	433.01214189996244	1	1	110	1	nogo_reward	1	0	1	0	0	1	0	0.0	1.0	1	1.0	0.4377272999845445	1174.7552864000318	1601.9575837000157	1602.9664468999836	1604.239572099992	1605.7416527000023	1606.7538716000272	1607.7674282999942	1608.7892264000257	1609.8036726000137	1610.843620700005	2020-06-09 09:28:26.332664	3.24129280094653	2.6087243902766	7.12612851942515	7.23218160578972	3.88483571847862	7.12612851942515	-3.24129280094653	7.12612851942515	2.6087243902766	7.12612851942515	3.88483571847862	0.8080060701647707	0.770279931236789	2.0626708322660696	6.905552874653344	5.959819152243611	2.1270754670586136	6.905552874653344	0.6898037106986122	4.9014541364743724	4.131174205237584	5.639585790052634	3.328637916866779	2	correct	1.0
436.1021150999586	9.768315400054917	nogo_reward	1.0	436.1311777999508	438.8932711999514	441.41646199999377	2.7620934000005946	437.1364384999615	440.39612950000446	444.4532742999727	1.7568326999899	1.0203324999893084	1.4462189000330454	443.44642539997585	0.3799340999685228	442.43391239998164	1	1	111	1	nogo_reward	0	1	0	0	0	1	0	0.0	1.0	0	1.0	0.3799340999685228	1174.7552864000318	1610.8864641999826	1611.8917248999933	1613.6485575999832	1615.1514159000362	1616.1717484000255	1617.1891988000134	1618.2017118000076	1619.2085607000045	1620.6547796000375	2020-06-09 09:28:26.332664	3.34915384017235	2.6087243902766	7.23702195046549	7.3299649243271	3.88786811029315	7.23702195046549	-3.34915384017235	7.23702195046549	2.6087243902766	7.23702195046549	3.88786811029315	-7.23702195046549	0.8781409704626091	2.0626708322660696	7.016446305693684	6.05760247078099	2.130107858873144	7.016446305693684	-7.355224309931648	5.012347567514713	4.134206597052114	5.7504792210929745	3.328637916866779	2	correct	1.0
445.90646669996204	9.971099900023546	nogo_reward	1.0	445.93552939995425	448.91819159995066	451.44613120000577	2.982662199996412	446.950419300003	450.42654819996096	454.4973994999891	1.9677722999476828	1.019583000044804	1.4092297999886796	453.48879339999985	0.5346971999970265	452.46012939995853	1	1	112	1	nogo_reward	1	0	1	0	0	1	1	1.0	1.0	1	1.0	0.5346971999970265	1174.7552864000318	1620.690815799986	1621.7057057000347	1623.6734779999824	1625.1818345999927	1626.2014176000375	1627.2154157999903	1628.2440798000316	1629.2526859000209	1630.6619157000096	2020-06-09 09:28:26.332664	2.08422345226075	2.6087243902766	5.9180396914918	5.99960619575503	3.83381623923105	5.9180396914918	-2.08422345226075	5.9180396914918	2.6087243902766	5.9180396914918	3.83381623923105	2.01609489809812	-0.3867894174489912	2.0626708322660696	5.697464046719994	4.72724374220892	2.076055987811044	5.697464046719994	1.8978925386319616	3.6933653085410234	4.080154725990014	4.431496962119285	3.328637916866779	2	correct	1.0
455.9192755999977	8.674839399987604	go_punish	0.6749407000024803	455.9483382999899	457.79501899995375	460.3427664999617	1.8466806999638266	456.952050199965	459.322016399994	463.4017292999779	0.8429687999887392	1.0207500999676995	1.2214483999996446	462.3884971999796	0.424502499983646	461.3603656999767	1	1	113	4	go_punish	1	0	-1	1	1	1	0	0.0	1.0	0	0.6749407000024803	0.424502499983646	1174.7552864000318	1630.7036247000217	1631.7073365999968	1632.5503053999855	1634.0773028000258	1635.0980528999935	1636.1156521000084	1637.1437836000114	1638.1570157000097	1639.3784641000093	2020-06-09 09:28:26.332664	5.79396306265702	-0.346201615416427	-5.14689007243746	-1.26866415625549	0.647072990219559	-5.14689007243746	-5.79396306265702	-0.346201615416427	-5.14689007243746	0.647072990219559	-5.14689007243746	0.346201615416427	3.3229501929472787	-0.8922551734269573	-5.367465717209266	-2.5410266098016	-1.110687261200447	-5.367465717209266	0.22799925595026857	-1.5776013927312178	-4.900551585678496	-1.8327443447889427	-4.426976545847282	2	correct	1.0
464.6320277999621	8.36286580003798	go_reward	0.6353172000381164	464.6610904999543	466.32250759995054	468.8768521999591	1.6614170999962425	465.6685190999997	467.85201999999117	471.9209178999881	0.6539884999508558	1.024832199967932	1.1030384000041522	470.91403649997665	0.4358214999665506	469.88494919997174	1	1	114	2	go_reward	1	1	0	1	1	1	0	0.0	1.0	1	0.6353172000381164	0.4358214999665506	1174.7552864000318	1639.416376899986	1640.4238055000314	1641.0777939999823	1642.607306400023	1643.6321385999909	1644.6402356000035	1645.6693229000084	1646.67620430002	1647.779242700024	2020-06-09 09:28:26.332664	8.23173927893093	6.96494567446584	0.0	6.96494567446584	8.23173927893093	0.0	-8.23173927893093	6.96494567446584	0.0	8.23173927893093	0.0	0.9691889151240805	5.7607264092211885	6.41889211645531	-0.22057564477180566	5.69258322091973	6.473979027510923	-0.22057564477180566	0.850986555657922	6.007064895980152	0.24633848675896436	5.4784029450933245	0.7199135265901789	2	correct	1.0
473.0318710000138	9.209269299986545	nogo_reward	1.0	473.060933700006	475.79923519998533	478.33679029997415	2.738301499979343	474.0747969999793	477.3121253999998	481.3863407999743	1.724438200006034	1.0246648999743684	0.8838622000182568	480.3733435999602	0.5318752999883145	479.3440120999587	1	1	115	1	nogo_reward	1	0	1	0	0	1	0	0.0	1.0	1	1.0	0.5318752999883145	1174.7552864000318	1647.8162201000378	1648.830083400011	1650.554521600017	1652.0674118000316	1653.092076700006	1654.0992984999905	1655.128629999992	1656.141627200006	1657.0254894000243	2020-06-09 09:28:26.332664	2.42827208583148	2.6087243902766	6.27708559894497	6.3487685986486	3.84881351311349	6.27708559894497	-2.42827208583148	6.27708559894497	2.6087243902766	6.27708559894497	3.84881351311349	1.6570489906449506	-0.04274078387826119	2.0626708322660696	6.056509954173164	5.07640614510249	2.0910532616934843	6.056509954173164	1.538846631178792	4.0524112159941925	4.095151999872455	4.790542869572454	3.328637916866779	2	correct	1.0
482.279071500001	8.78674010001123	nogo_reward	1.0	482.3081341999932	484.7504951999872	487.29226059996313	2.44236099999398	483.3210618000012	486.26800280000316	490.33616509998683	1.42943339998601	1.024257799959969	0.7587092000176199	489.32152890000725	0.4197816000087186	488.30003270000475	1	1	116	1	nogo_reward	1	0	1	0	0	1	0	0.0	1.0	1	1.0	0.4197816000087186	1174.7552864000318	1657.063420600025	1658.076348200033	1659.505781600019	1661.023289200035	1662.047546999995	1663.0553191000365	1664.076815300039	1665.0914515000186	1665.8501607000362	2020-06-09 09:28:26.332664	2.70347158513087	2.6087243902766	6.56372084945439	6.62680686707631	3.86024926432352	6.56372084945439	-2.70347158513087	6.56372084945439	2.6087243902766	6.56372084945439	3.86024926432352	1.3704137401355299	0.23245871542112884	2.0626708322660696	6.3431452046825845	5.354444413530199	2.102489012903514	6.3431452046825845	1.2522113806693713	4.339046466503614	4.106587751082484	5.077178120081875	3.328637916866779	2	correct	1.0
491.1031989000039	8.436036099970806	go_punish	0.5814610000234097	491.1322615999961	492.5055389999761	495.03968619997613	1.3732773999799974	492.14600639999844	494.02093989995774	498.07927029998973	0.3595325999776833	1.0187463000183925	1.4890273999772035	497.0665632999735	0.4461061000474728	496.0527928999509	1	1	117	4	go_punish	0	-1	0	1	1	1	0	0.0	1.0	-1	0.5814610000234097	0.4461061000474728	1174.7552864000318	1665.887548000028	1666.9012928000302	1667.260825400008	1668.7762262999895	1669.794972600008	1670.8080792999826	1671.8218497000053	1672.8345567000215	1674.3235840999987	2020-06-09 09:28:26.332664	5.84897322222237	-0.294661811571739	-5.14689007243746	-1.06480928574527	0.702083149784907	-5.14689007243746	-5.84897322222237	-0.294661811571739	-5.14689007243746	0.702083149784907	-5.14689007243746	-6.616890592694581	3.377960352512629	-0.8407153695822692	-5.367465717209266	-2.33717173929138	-1.0556771016350992	-5.367465717209266	-6.735092952160739	-1.5225912331658695	-4.900551585678496	-1.7812045409442545	-4.426976545847282	2	correct	1.0
499.59513979998883	8.289762299973518	go_reward	0.3400974000105634	499.62420249998104	501.47762349998834	504.0268720999593	1.8534210000073017	500.635855600005	503.0098400999559	507.07680479995906	0.8417678999833242	1.0170320000033826	0.8371599999954924	506.06385279999813	0.5895420000306331	505.03517399996053	1	1	118	2	go_reward	1	1	0	1	1	1	0	0.0	1.0	1	0.3400974000105634	0.5895420000306331	1174.7552864000318	1674.3794889000128	1675.3911420000368	1676.23290990002	1677.7651264999877	1678.782158499991	1679.7904603999923	1680.81913920003	1681.8320911999908	1682.6692511999863	2020-06-09 09:28:26.332664	8.38505186710792	7.11324126701131	0.0	7.11324126701131	8.38505186710792	0.0	-8.38505186710792	7.11324126701131	0.0	8.38505186710792	0.0	0.8208933225786099	5.91403899739818	6.56718770900078	-0.22057564477180566	5.840878813465201	6.6272916156879145	-0.22057564477180566	0.7026909631124515	6.160377484157143	0.24633848675896436	5.626698537638795	0.7199135265901789	2	correct	1.0
507.9257724999916	8.504533200000878	nogo_punish	0.5913339999970049	507.9548351999838	509.4983901999658	512.0573224999825	1.5435549999820068	508.96053789998405	511.0327373999753	515.1070009999673	0.5378522999817505	1.0245851000072435	1.3523674000173287	514.0985972000053	0.4693201999762095	513.0704483999871	1	1	119	3	nogo_punish	1	-1	0	0	1	0	0	0.0	1.0	-1	0.5913339999970049	0.4693201999762095	1174.7552864000318	1682.7101216000156	1683.7158243000158	1684.2536765999976	1685.788023800007	1686.8126089000143	1687.8257348000188	1688.853883600037	1689.862287399999	1691.2146548000164	2020-06-09 09:28:26.332664	-1.95027830250797	-3.93331503382998	-0.988244553654249	-1.17231919490258	-2.93852285616222	-0.988244553654249	1.95027830250797	-3.93331503382998	-0.988244553654249	-2.93852285616222	-0.988244553654249	-2.9782373704363403	-4.421291172217711	-4.47936859184051	-1.2088201984260547	-2.4446816484486895	-4.696283107582226	-1.2088201984260547	-3.0964397299024986	-5.163197239112996	-0.7419060668952846	-5.419857763202495	-0.2683310270640701	2	correct	1.0
516.4746448000078	8.767349299974512	nogo_punish	1.0	516.5037075	518.2977527999903	520.8267690999783	1.79404529999033	517.51047009998	519.8096850999862	523.8773289999808	0.7872827000103371	1.01708399999211	1.3937277999937123	522.8649284999703	0.4394633999909274	521.8342083999887	1	1	120	3	nogo_punish	0	0	-1	0	0	1	0	0.0	1.0	-1	1.0	0.4394633999909274	1174.7552864000318	1691.2589939000318	1692.2657565000118	1693.053039200022	1694.564971500018	1695.58205550001	1696.5894948000205	1697.620214900002	1698.6326154000126	1700.0263432000063	2020-06-09 09:28:26.332664	2.449250964694	-4.4128910189492	-0.988244553654249	-2.17840955657176	-3.43749551834824	-0.988244553654249	-2.449250964694	-0.988244553654249	-4.4128910189492	-0.988244553654249	-3.43749551834824	-5.923307850612071	-0.021761905015741156	-4.95894457695973	-1.2088201984260547	-3.45077201011787	-5.195255769768246	-1.2088201984260547	-6.041510210078229	-3.2129189366050257	-3.1911570315892757	-2.4747872830267648	-3.6929774923590206	2	correct	1.0
