onset	duration	trial_type	response_time	cueOnset	targetOnset	fbOnset	cueRT	firstfixOnset	secondfixOnset	waitOnset	firstfixdur	secondfixdur	waitdur	nback_fbOnset	nback_response_time	nback_targetOnset	block	wm	trial	cue	cond	is_common	outcome_go	outcome_nogo	key_correct	key_pressed	is_correct	key_correct_nback	key_pressed_nback	is_correct_nback	outcome	rt	rt_nback	time_scan	time_onset	time_isi1	time_circle	time_isi2	time_feedback	time_same	time_correct	time_iti	time_done	timestamp_scan	DV	Qgo	Qnogo	SV	Wgo	Wnogo	mDV	Qchosen	Qunchosen	Wchosen	Wunchosen	PE	DVC	QgoC	QnogoC	SVC	WgoC	WnogoC	PEC	WchosenC	WunchosenC	QchosenC	QunchosenC	run	outcome_nback	nback_targetResp
0.0	7.40808630001311	nogo_punish	1.0	0.02929440001025796	2.4934077000361867	5.030358000018168	2.4641133000259288	1.032639500044752	4.010116400022525	6.0369781000190414	1.4607681999914348	1.020241599995643	1.4004026000043268	n/a	1.0	n/a	2	0	61	3	nogo_punish	1	-1	0	0	0	1	0	n/a	n/a	0	1.0	1.0	2318.1838668999844	2318.2131612999947	2319.216506400029	2320.6772746000206	2322.193983300007	2323.2142249000026	n/a	n/a	2324.2208450000035	2325.621247600008	2020-06-09 09:47:29.769414	1.3349347533219	-4.47460308376292	-2.81039895488934	-5.10561426338341	-4.14533370821124	-2.81039895488934	-1.3349347533219	-2.81039895488934	-4.47460308376292	-2.81039895488934	-4.14533370821124	2.81039895488934	-1.136078116387841	-5.02065664177345	-3.0309745996611457	-6.3779767169295205	-5.903093959631246	-3.0309745996611457	2.692196595423182	-5.035073337840117	-3.8989952214522754	-4.2969416842618555	-3.754689557172741	4	missed	0.0
7.453902100038249	6.128724799957126	nogo_punish	1.0	7.483196500048507	8.822788700053934	11.344891100015957	1.339592200005427	8.481566700036637	10.325169000017922	12.358314100012649	0.3412220000172965	1.0197220999980345	1.2536071999929845	n/a	1.0	n/a	2	0	62	3	nogo_punish	1	-1	0	0	0	1	0	n/a	n/a	0	1.0	1.0	2318.1838668999844	2325.667063400033	2326.665433600021	2327.0066556000384	2328.5090359000023	2329.5287580000004	n/a	n/a	2330.542180999997	2331.79578819999	2020-06-09 09:47:29.769414	1.88650414074078	-4.47460308376292	-2.08617501435961	-3.85252504016909	-3.97267915510039	-2.08617501435961	-1.88650414074078	-2.08617501435961	-4.47460308376292	-2.08617501435961	-3.97267915510039	2.08617501435961	-0.584508728968961	-5.02065664177345	-2.3067506591314153	-5.1248874937152	-5.7304394065203965	-2.3067506591314153	1.9679726548934513	-4.3108493973103865	-3.7263406683414257	-3.5727177437321256	-3.754689557172741	4	missed	0.0
13.62816780002322	6.309416799980681	nogo_punish	1.0	13.657462200033478	14.989144200051669	17.518888799997512	1.3316820000181906	14.662823300051969	16.499082900001667	18.521095300035086	0.3263208999997005	1.0198058999958448	1.4457836999790743	n/a	1.0	n/a	2	0	63	3	nogo_punish	1	-1	0	0	0	1	1	n/a	n/a	0	1.0	1.0	2318.1838668999844	2331.841329100018	2332.8466902000364	2333.173011100036	2334.682949799986	2335.702755699982	n/a	n/a	2336.7049622000195	2338.1507458999986	2020-06-09 09:47:29.769414	2.27491656168736	-4.47460308376292	-1.57362061283397	-2.94529438922208	-3.84853717452133	-1.57362061283397	-2.27491656168736	-1.57362061283397	-4.47460308376292	-1.57362061283397	-3.84853717452133	1.57362061283397	-0.1960963080223812	-5.02065664177345	-1.7941962576057757	-4.217656842768189	-5.606297425941336	-1.7941962576057757	1.4554182533678115	-3.7982949957847465	-3.6021986877623657	-3.0601633422064856	-3.754689557172741	4	missed	0.0
19.96927370002959	7.271021900000051	go_punish	0.323790900001768	19.998568100039847	22.213468400004786	24.779133900010493	2.2149002999649383	20.997314300039307	23.755987300013658	25.790992700029165	1.216154099965479	1.023146599996835	1.4785973000107333	n/a	1.0	n/a	2	0	64	4	go_punish	0	-1	0	1	1	1	0	n/a	n/a	-1	0.323790900001768	1.0	2318.1838668999844	2338.1824350000243	2339.1811812000237	2340.397335299989	2341.939854199998	2342.963000799995	n/a	n/a	2343.9748596000136	2345.4534569000243	2020-06-09 09:47:29.769414	2.32426856328833	-1.27298647710809	-2.81039895488934	-1.71537345304104	-0.486130391601015	-2.81039895488934	-2.32426856328833	-1.27298647710809	-2.81039895488934	-0.486130391601015	-2.81039895488934	-5.63856592715823	-0.1467443064214109	-1.8190400351186202	-3.0309745996611457	-2.98773590658715	-2.2438906430210213	-3.0309745996611457	-5.756768286624388	-2.7108047745517916	-2.564060468130376	-2.7595292064806056	-2.090485428299161	4	missed	0.0
27.269397100026254	6.300277100002859	go_punish	0.4040505000157282	27.29869150003651	28.722314500016637	31.276604700018652	1.4236229999801253	28.301263400004245	30.255125000025146	32.28364680003142	0.42105110001239154	1.021479699993506	1.3153218000079505	n/a	1.0	n/a	2	0	65	4	go_punish	1	0	-1	1	1	1	0	n/a	n/a	0	0.4040505000157282	1.0	2318.1838668999844	2345.482558400021	2346.4851302999887	2346.906181400001	2348.4389919000096	2349.460471600003	n/a	n/a	2350.467513700016	2351.782835500024	2020-06-09 09:47:29.769414	0.854693544394786	-2.57796862792981	-2.81039895488934	-2.92504525067298	-1.95570541049456	-2.81039895488934	-0.854693544394786	-2.57796862792981	-2.81039895488934	-1.95570541049456	-2.81039895488934	2.57796862792981	-1.6163193253149553	-3.1240221859403405	-3.0309745996611457	-4.19740770421909	-3.713465661914566	-3.0309745996611457	2.459766268463652	-4.180379793445336	-2.564060468130376	-4.064511357302326	-2.090485428299161	4	missed	0.0
33.59973300003912	7.922363399993628	go_punish	0.2789850000408478	33.62902740004938	36.605453000054695	39.144837600004394	2.9764256000053138	34.641041700029746	38.14344190002885	40.15430390002439	1.964411300024949	1.0013956999755464	1.3970869000186212	n/a	1.0	n/a	2	0	66	4	go_punish	1	0	-1	1	1	1	1	n/a	n/a	0	0.2789850000408478	1.0	2318.1838668999844	2351.812894300034	2352.824908600014	2354.789319900039	2356.3273088000133	2357.328704499989	n/a	n/a	2358.338170800009	2359.7352577000274	2020-06-09 09:47:29.769414	1.60786106866859	-1.92494547920525	-2.81039895488934	-2.19906442028031	-1.20253788622075	-2.81039895488934	-1.60786106866859	-1.92494547920525	-2.81039895488934	-1.20253788622075	-2.81039895488934	1.92494547920525	-0.8631518010411512	-2.47099903721578	-3.0309745996611457	-3.47142687382642	-2.9602981376407564	-3.0309745996611457	1.8067431197390915	-3.4272122691715268	-2.564060468130376	-3.4114882085777656	-2.090485428299161	4	missed	0.0
41.555558199994266	6.313141000049654	nogo_reward	0.5506290999474004	41.584852600004524	42.97563610004772	45.508979900041595	1.3907835000431987	42.58614930004114	44.489319700049236	46.522609900043335	0.38948680000657987	1.0196601999923587	1.3753837000108433	n/a	1.0	n/a	2	0	67	1	nogo_reward	1	0	1	0	1	0	0	n/a	n/a	0	0.5506290999474004	1.0	2318.1838668999844	2359.768719499989	2360.7700162000256	2361.159503000032	2362.6731866000337	2363.692846800026	n/a	n/a	2364.7064768000278	2366.0818605000386	2020-06-09 09:47:29.769414	-1.63652020672005	1.23934594394593	4.2536968266826	1.93034331993444	2.61717661996254	4.2536968266826	1.63652020672005	1.23934594394593	4.2536968266826	2.61717661996254	4.2536968266826	-1.23934594394593	-4.107533076429791	0.6932923859353998	4.033121181910794	0.6579808663883302	0.859416368542534	4.033121181910794	-1.3575483034120885	0.39250223701176346	4.500035313441565	-0.24719678542658552	4.973610353272779	4	missed	0.0
47.9157983000041	6.681112300022505	nogo_punish	1.0	47.94509270001436	49.59654620004585	52.12464200000977	1.6514535000314936	48.94318729999941	51.1073378000292	53.13830990000861	0.6533589000464417	1.0173041999805719	1.487895100028254	n/a	1.0	n/a	2	0	68	3	nogo_punish	1	-1	0	0	0	1	0	n/a	n/a	0	1.0	1.0	2318.1838668999844	2366.128959599999	2367.127054199984	2367.7804131000303	2369.2912047000136	2370.308508899994	n/a	n/a	2371.322176799993	2372.8100719000213	2020-06-09 09:47:29.769414	2.55592986127592	-4.47460308376292	-1.20143835040831	-2.27490707917503	-3.75736821168424	-1.20143835040831	-2.55592986127592	-1.20143835040831	-4.47460308376292	-1.20143835040831	-3.75736821168424	1.20143835040831	0.08491699156617871	-5.02065664177345	-1.4220139951801156	-3.5472695327211397	-5.515128463104246	-1.4220139951801156	1.0832359909421514	-3.4261127333590866	-3.5110297249252755	-2.6879810797808252	-3.754689557172741	4	missed	0.0
54.62762980000116	7.877625100023579	go_punish	0.2867644999641925	54.65692420001142	57.48753120005176	60.028522500011604	2.830607000040345	55.66203030000861	59.014633500017226	61.04166770004667	1.8255009000431528	1.0138889999943785	1.4928815999883227	n/a	1.0	n/a	2	0	69	4	go_punish	1	0	-1	1	1	1	0	n/a	n/a	0	0.2867644999641925	1.0	2318.1838668999844	2372.840791099996	2373.845897199993	2375.671398100036	2377.1985004000016	2378.212389399996	n/a	n/a	2379.225534600031	2380.7184162000194	2020-06-09 09:47:29.769414	2.14466409232195	-1.45956007476695	-2.81039895488934	-1.67736335521033	-0.665734862567396	-2.81039895488934	-2.14466409232195	-1.45956007476695	-2.81039895488934	-0.665734862567396	-2.81039895488934	1.45956007476695	-0.3263487773877909	-2.00561363277748	-3.0309745996611457	-2.9497258087564395	-2.423495113987402	-3.0309745996611457	1.3413577153007914	-2.890409245518173	-2.564060468130376	-2.9461028041394655	-2.090485428299161	4	missed	0.0
62.539132500009146	6.911626800021168	nogo_reward	1.0	62.5684269000194	65.04543160001049	67.57377440005075	2.4770046999910846	63.56231840001419	66.56283910002094	68.5707130000228	1.4831131999962963	1.0109353000298142	0.9093407000177649	n/a	1.0	n/a	2	0	70	1	nogo_reward	1	0	1	0	0	1	0	n/a	n/a	1	1.0	1.0	2318.1838668999844	2380.752293800004	2381.7461852999986	2383.229298499995	2384.7467060000054	2385.757641300035	n/a	n/a	2386.7545799000072	2387.663920600025	2020-06-09 09:47:29.769414	1.99637120619522	0.958950283123882	4.2536968266826	1.50882651582127	2.25732562048738	4.2536968266826	-1.99637120619522	4.2536968266826	0.958950283123882	4.2536968266826	2.25732562048738	3.68043776290732	-0.4746416635145212	0.41289672511335174	4.033121181910794	0.23646406227516015	0.4995653690673738	4.033121181910794	3.5622354034411616	2.0290224437318236	2.5036641072463444	2.767154097310085	1.678863809714061	4	missed	0.0
69.48204169998644	5.7322111000539735	go_punish	0.3772772999946028	69.5113360999967	70.7880822000443	73.33424590004142	1.2767461000476032	70.5166806000052	72.3232330000028	74.3560734000057	0.2714016000390984	1.0110129000386223	0.8874738000449724	n/a	1.0	n/a	2	0	71	4	go_punish	1	0	-1	1	1	1	1	n/a	n/a	0	0.3772772999946028	1.0	2318.1838668999844	2387.695202999981	2388.7005474999896	2388.9719491000287	2390.507099899987	2391.518112800026	n/a	n/a	2392.53994029999	2393.427414100035	2020-06-09 09:47:29.769414	2.53678404889445	-1.11962264709274	-2.81039895488934	-1.29363434380706	-0.273614905994892	-2.81039895488934	-2.53678404889445	-1.11962264709274	-2.81039895488934	-0.273614905994892	-2.81039895488934	1.11962264709274	0.0657711791847091	-1.6656762051032703	-3.0309745996611457	-2.56599679735317	-2.031375157414898	-3.0309745996611457	1.0014202876265814	-2.498289288945669	-2.564060468130376	-2.6061653764652553	-2.090485428299161	4	missed	0.0
75.26682920003032	6.455781999975898	nogo_punish	1.0	75.29612360004057	77.1303303000168	79.6345602000365	1.834206699976221	76.3037028000108	78.62966269999743	80.6491283000214	0.8266275000059977	1.0048975000390783	1.1027772999950685	n/a	1.0	n/a	2	0	72	3	nogo_punish	1	-1	0	0	0	1	0	n/a	n/a	0	1.0	1.0	2318.1838668999844	2393.479990500025	2394.487569699995	2395.314197200001	2396.813529599982	2397.818427100021	n/a	n/a	2398.832995200006	2399.935772500001	2020-06-09 09:47:29.769414	2.76310086631963	-4.47460308376292	-0.926307660308759	-1.77216338547761	-3.68940852662839	-0.926307660308759	-2.76310086631963	-0.926307660308759	-4.47460308376292	-0.926307660308759	-3.68940852662839	0.926307660308759	0.2920879966098888	-5.02065664177345	-1.1468833050805647	-3.04452583902372	-5.447168778048396	-1.1468833050805647	0.8081053008426006	-3.1509820432595355	-3.4430700398694256	-2.4128503896812745	-3.754689557172741	4	missed	0.0
81.76496060000545	6.593983200029015	nogo_punish	1.0	81.79425500001571	83.64557610003976	86.1687364000245	1.8513211000240517	82.8016304000048	85.14902569999686	87.17430390004301	0.8439457000349648	1.0197107000276446	1.2139343000017107	n/a	1.0	n/a	2	0	73	3	nogo_punish	1	-1	0	0	0	1	0	n/a	n/a	0	1.0	1.0	2318.1838668999844	2399.9781219	2400.985497299989	2401.829443000024	2403.3328925999813	2404.352603300009	n/a	n/a	2405.3581708000274	2406.572105100029	2020-06-09 09:47:29.769414	2.91802855902275	-4.47460308376292	-0.720140008476295	-1.39075339433209	-3.63816856749905	-0.720140008476295	-2.91802855902275	-0.720140008476295	-4.47460308376292	-0.720140008476295	-3.63816856749905	0.720140008476295	0.44701568931300883	-5.02065664177345	-0.9407156532481007	-2.6631158478782	-5.395928818919056	-0.9407156532481007	0.6019376490101366	-2.9448143914270717	-3.3918300807400854	-2.2066827378488103	-3.754689557172741	4	missed	0.0
88.3915250000423	5.968091399991408	nogo_reward	1.0	88.42081940005255	90.10222040000372	92.62408470001537	1.6814009999511654	89.41679960000374	91.60420510004042	93.63765840005362	0.6854207999999744	1.0198795999749564	0.7512523999903351	n/a	1.0	n/a	2	0	74	1	nogo_reward	0	1	0	0	0	1	0	n/a	n/a	0	1.0	1.0	2318.1838668999844	2406.604686300037	2407.600666499988	2408.286087299988	2409.788072000025	2410.8079516	n/a	n/a	2411.821525300038	2412.5727777000284	2020-06-09 09:47:29.769414	2.48442728152027	0.958950283123882	5.02995314562607	3.05516231107594	2.5455258641058	5.02995314562607	-2.48442728152027	5.02995314562607	0.958950283123882	5.02995314562607	2.5455258641058	-5.02995314562607	0.013414411810528826	0.41289672511335174	4.809377500854264	1.78279985752983	0.7877656126857937	4.809377500854264	-5.1481555050922285	2.8052787626752935	2.7918643508647643	3.543410416253555	1.678863809714061	4	missed	0.0
94.38909860001831	6.124852099980217	go_punish	0.3472973000025376	94.41839300002857	95.78299190005055	98.32017960003577	1.3645989000219743	95.42639770003734	97.3006946000387	99.32922050001798	0.3565942000132054	1.0194849999970756	1.2140245999908075	n/a	1.0	n/a	2	0	75	4	go_punish	1	0	-1	1	1	1	0	n/a	n/a	0	0.3472973000025376	1.0	2318.1838668999844	2412.602259900013	2413.6102646000218	2413.966858800035	2415.484561500023	2416.50404650002	n/a	n/a	2417.5130874000024	2418.727111999993	2020-06-09 09:47:29.769414	2.82816111216173	-0.867012167883781	-2.81039895488934	-1.00674481201146	0.0177621572723829	-2.81039895488934	-2.82816111216173	-0.867012167883781	-2.81039895488934	0.0177621572723829	-2.81039895488934	0.867012167883781	0.35714824245198873	-1.4130657258943113	-3.0309745996611457	-2.2791072655575695	-1.7399980941476232	-3.0309745996611457	0.7488098084176226	-2.2069122256783937	-2.564060468130376	-2.3535548972562967	-2.090485428299161	4	missed	0.0
100.54569460003404	6.524168299976282	nogo_reward	1.0	100.5749890000443	102.15761880000355	104.67883879999863	1.5826297999592498	101.58955570001854	103.66133309999714	105.68915550003294	0.5680630999850109	1.017505700001493	1.41000179998764	n/a	1.0	n/a	2	0	76	1	nogo_reward	1	0	1	0	0	1	1	n/a	n/a	1	1.0	1.0	2318.1838668999844	2418.7588559000287	2419.773422600003	2420.341485699988	2421.8451999999816	2422.862705699983	n/a	n/a	2423.8730224000174	2425.283024200005	2020-06-09 09:47:29.769414	1.3535120186634	0.958950283123882	3.75965566653342	2.30668028223234	2.40614364787002	3.75965566653342	-1.3535120186634	3.75965566653342	0.958950283123882	3.75965566653342	2.40614364787002	4.1744789230565	-1.1175008510463411	0.41289672511335174	3.5390800217616145	1.03431782868623	0.6483833964500139	3.5390800217616145	4.056276563590342	1.5349812835826433	2.6524821346289844	2.2731129371609047	1.678863809714061	4	missed	0.0
107.09805790003156	6.318978999974206	go_punish	0.6679257999639958	107.12735230004182	108.91628270002548	111.47392720001562	1.7889303999836557	108.12885590002406	110.45069120003609	112.4839269000222	0.7874268000014126	1.0232359999795335	0.9624043999938294	n/a	1.0	n/a	2	0	77	4	go_punish	0	-1	0	1	1	1	1	n/a	n/a	-1	0.6679257999639958	1.0	2318.1838668999844	2425.3112192000262	2426.3127228000085	2427.10014960001	2428.6345581000205	2429.6577941	n/a	n/a	2430.6677938000066	2431.6301982000005	2020-06-09 09:47:29.769414	3.04751126970642	-0.676821156811623	-2.81039895488934	-0.789558806024274	0.237112314817077	-2.81039895488934	-3.04751126970642	-0.676821156811623	-2.81039895488934	0.237112314817077	-2.81039895488934	-6.234731247454698	0.5764983999966788	-1.2228747148221533	-3.0309745996611457	-2.0619212595703837	-1.520647936602929	-3.0309745996611457	-6.352933606920856	-1.9875620681336996	-2.564060468130376	-2.1633638861841384	-2.090485428299161	4	missed	0.0
113.46598420001101	6.244438700028695	nogo_punish	1.0	113.49527860002127	114.84903580002765	117.37865030003013	1.3537572000063847	114.49199020001106	116.35899410001002	118.39208430005237	0.35704560001659047	1.0196562000201084	1.347632999997586	n/a	1.0	n/a	2	0	78	3	nogo_punish	1	-1	0	0	0	1	0	n/a	n/a	0	1.0	1.0	2318.1838668999844	2431.6791455000057	2432.6758570999955	2433.032902700012	2434.5428609999944	2435.5625172000146	n/a	n/a	2436.575951200037	2437.9235842000344	2020-06-09 09:47:29.769414	3.035232176081	-4.47460308376292	-0.563943465308748	-1.098607730058	-3.59917564138975	-0.563943465308748	-3.035232176081	-0.563943465308748	-4.47460308376292	-0.563943465308748	-3.59917564138975	0.563943465308748	0.564219306371259	-5.02065664177345	-0.7845191100805536	-2.3709701836041095	-5.356935892809756	-0.7845191100805536	0.4457411058425895	-2.7886178482595247	-3.3528371546307856	-2.0504861946812634	-3.754689557172741	4	missed	0.0
119.74210969998967	7.569427500013262	nogo_reward	1.0	119.77140409999993	122.34949059999781	124.8656292000087	2.5780864999978803	120.77417660003994	123.84467500000028	125.8789210000541	1.5753139999578707	1.0209542000084184	1.461910599959083	n/a	1.0	n/a	2	0	79	1	nogo_reward	0	1	0	0	0	1	0	n/a	n/a	0	1.0	1.0	2318.1838668999844	2437.9552709999844	2438.9580435000244	2440.5333574999822	2442.0285418999847	2443.049496099993	n/a	n/a	2444.0627879000385	2445.5246984999976	2020-06-09 09:47:29.769414	2.06991787274848	0.958950283123882	4.72467369643119	3.63894452127711	2.6547558236827	4.72467369643119	-2.06991787274848	4.72467369643119	0.958950283123882	4.72467369643119	2.6547558236827	-4.72467369643119	-0.40109499696126116	0.41289672511335174	4.504098051659384	2.366582067731	0.8969955722626939	4.504098051659384	-4.8428760558973485	2.4999993134804135	2.9010943104416644	3.238130967058675	1.678863809714061	4	missed	0.0
127.3611094999942	6.53917270002421	nogo_punish	1.0	127.39040390000446	129.25867500004824	131.7959493000526	1.8682711000437848	128.40729590004776	130.7765389000415	132.80401970003732	0.8513791000004858	1.019410400011111	1.1255568999913521	n/a	1.0	n/a	2	0	80	3	nogo_punish	1	-1	0	0	0	1	1	n/a	n/a	0	1.0	1.0	2318.1838668999844	2445.574270799989	2446.591162800032	2447.4425419000327	2448.960405800026	2449.979816200037	n/a	n/a	2450.9878866000217	2452.113443500013	2020-06-09 09:47:29.769414	3.12476596614831	-4.47460308376292	-0.444503505913856	-0.872984022584056	-3.56926947206217	-0.444503505913856	-3.12476596614831	-0.444503505913856	-4.47460308376292	-0.444503505913856	-3.56926947206217	0.444503505913856	0.6537530964385687	-5.02065664177345	-0.6650791506856617	-2.145346476130166	-5.327029723482176	-0.6650791506856617	0.3263011464476976	-2.669177888864633	-3.3229309853032056	-1.9310462352863715	-3.754689557172741	4	missed	0.0
133.9451324000256	5.797844499989878	go_reward	0.4521780000068247	133.97442680003587	135.4480553000467	137.9996096000541	1.4736285000108182	134.98166190000484	136.98112560005393	139.0021706999978	0.46639340004185215	1.0184840000001714	0.7701006000279449	n/a	1.0	n/a	2	0	81	2	go_reward	1	1	0	1	1	1	0	n/a	n/a	1	0.4521780000068247	1.0	2318.1838668999844	2452.1582937000203	2453.1655287999893	2453.631922200031	2455.1649925000384	2456.1834765000385	n/a	n/a	2457.1860375999822	2457.95613820001	2020-06-09 09:47:29.769414	7.79990456186893	6.85786342900803	1.36515705172464	6.89924542315462	9.16506161359357	1.36515705172464	-7.79990456186893	6.85786342900803	1.36515705172464	9.16506161359357	1.36515705172464	1.0762711605818902	5.328891692159189	6.3118098709975	1.1445814069528344	5.626882969608511	7.407301362173564	1.1445814069528344	0.9580688011157318	6.940387230642793	1.6114955384836045	5.371320699635515	2.085070578314819	4	missed	0.0
139.79228250001324	6.4741926999995485	go_reward	0.4592129000229761	139.8215769000235	141.2590509000006	143.79986420000205	1.437473999977101	140.82408530003158	142.77742260001833	144.8183990000398	0.4349655999690185	1.022441599983722	1.47737059998326	n/a	1.0	n/a	2	0	82	2	go_reward	1	1	0	1	1	1	0	n/a	n/a	1	0.4592129000229761	1.0	2318.1838668999844	2458.005443800008	2459.007952200016	2459.442917799985	2460.9612895000027	2461.9837310999865	n/a	n/a	2463.002265900024	2464.4796365000075	2020-06-09 09:47:29.769414	8.07138955282971	7.08780809426015	1.36515705172464	7.12184478457764	9.43654660455435	1.36515705172464	-8.07138955282971	7.08780809426015	1.36515705172464	9.43654660455435	1.36515705172464	0.8463264953297704	5.60037668311997	6.54175453624962	1.1445814069528344	5.849482331031529	7.678786353134344	1.1445814069528344	0.728124135863612	7.211872221603572	1.6114955384836045	5.6012653648876345	2.085070578314819	4	missed	0.0
146.29905520001194	6.307199499977287	nogo_reward	1.0	146.3283496000222	148.18781260005198	150.7062212000019	1.8594630000297911	147.3312036000425	149.69091040000785	151.70355780003592	0.8566090000094846	1.0153107999940403	0.9319912999635562	n/a	1.0	n/a	2	0	83	1	nogo_reward	1	0	1	0	0	1	0	n/a	n/a	1	1.0	1.0	2318.1838668999844	2464.5122165000066	2465.515070500027	2466.3716795000364	2467.8747772999923	2468.8900880999863	n/a	n/a	2469.8874247000203	2470.819415999984	2020-06-09 09:47:29.769414	1.07558444771263	0.958950283123882	3.56345327879445	2.74259556535733	2.48786883108182	3.56345327879445	-1.07558444771263	3.56345327879445	0.958950283123882	3.56345327879445	2.48786883108182	4.3706813107954705	-1.3954284219971111	0.41289672511335174	3.3428776340226447	1.4702331118112202	0.7301085796618139	3.3428776340226447	4.252478951329312	1.3387788958436735	2.7342073178407844	2.0769105494219344	1.678863809714061	4	missed	0.0
152.64018149999902	7.405759499990381	nogo_reward	1.0	152.66947590000927	155.20935580000514	157.72093450004468	2.539879899995867	153.68651770002862	156.7117688000435	158.72174110001652	1.522838099976525	1.0091657000011764	1.35349429998314	n/a	1.0	n/a	2	0	84	1	nogo_reward	0	1	0	0	0	1	0	n/a	n/a	0	1.0	1.0	2318.1838668999844	2470.8533427999937	2471.870384600013	2473.3932226999896	2474.895635700028	2475.904801400029	n/a	n/a	2476.905608000001	2478.259102299984	2020-06-09 09:47:29.769414	1.87899207927032	0.958950283123882	4.59574355631906	3.96925234517065	2.71675147704874	4.59574355631906	-1.87899207927032	4.59574355631906	0.958950283123882	4.59574355631906	2.71675147704874	-4.59574355631906	-0.592020790439421	0.41289672511335174	4.375167911547254	2.69688989162454	0.9589912256287338	4.375167911547254	-4.713945915785218	2.371069173368283	2.9630899638077044	3.1092008269465445	1.678863809714061	4	missed	0.0
160.08152010000776	6.787113600002613	nogo_reward	1.0	160.11081450001802	162.15850370004773	164.66450270003406	2.0476892000297084	161.11398040002678	163.66734790004557	165.68143240001564	1.0445233000209555	0.9971547999884933	1.216495700004998	n/a	1.0	n/a	2	0	85	1	nogo_reward	1	0	1	0	0	1	1	n/a	n/a	1	1.0	1.0	2318.1838668999844	2478.2946814000024	2479.297847300011	2480.342370600032	2481.85121480003	2482.8483696000185	n/a	n/a	2483.8652993	2485.081795000005	2020-06-09 09:47:29.769414	0.942325915809855	0.958950283123882	3.47772842377676	2.99575658515461	2.53540250796691	3.47772842377676	-0.942325915809855	3.47772842377676	0.958950283123882	3.47772842377676	2.53540250796691	4.45640616581316	-1.5286869538998862	0.41289672511335174	3.2571527790049544	1.7233941316085004	0.7776422565469037	3.2571527790049544	4.338203806347002	1.2530540408259832	2.781740994725874	1.9911856944042443	1.678863809714061	4	missed	0.0
166.89881849999074	6.8919926000526175	go_punish	0.4976084999507293	166.928112900001	168.8926229000208	171.41850920004072	1.9645100000198	167.92739450000226	170.4117411000193	172.42527720000362	0.9652284000185318	1.006768100021418	1.3948283000499941	n/a	1.0	n/a	2	0	86	4	go_punish	1	0	-1	1	1	1	0	n/a	n/a	0	0.4976084999507293	1.0	2318.1838668999844	2485.1119797999854	2486.1112613999867	2487.076489800005	2488.5956080000037	2489.602376100025	n/a	n/a	2490.609144099988	2492.003972400038	2020-06-09 09:47:29.769414	1.37551557348038	-2.1504136456611	-2.81039895488934	-2.24177458504305	-1.43488338140896	-2.81039895488934	-1.37551557348038	-2.1504136456611	-2.81039895488934	-1.43488338140896	-2.81039895488934	2.1504136456611	-1.0954972962293612	-2.6964672036716304	-3.0309745996611457	-3.5141370385891597	-3.1926436328289665	-3.0309745996611457	2.0322112861949417	-3.659557764359737	-2.564060468130376	-3.6369563750336154	-2.090485428299161	4	missed	0.0
173.836799599987	6.076890300028026	nogo_punish	1.0	173.86609399999725	175.35649250005372	177.87822160002543	1.4903985000564717	174.85921350005128	176.85884970001644	178.89178560004802	0.4972790000024361	1.0193719000089914	1.051198699977249	n/a	1.0	n/a	2	0	87	3	nogo_punish	1	-1	0	0	0	1	0	n/a	n/a	0	1.0	1.0	2318.1838668999844	2492.0499608999817	2493.0430804000357	2493.540359400038	2495.042716600001	2496.06208850001	n/a	n/a	2497.0756525000324	2498.1268512000097	2020-06-09 09:47:29.769414	3.1937452129466	-4.47460308376292	-0.35243077070486	-0.697464846797052	-3.54617598365146	-0.35243077070486	-3.1937452129466	-0.35243077070486	-4.47460308376292	-0.35243077070486	-3.54617598365146	0.35243077070486	0.7227323432368591	-5.02065664177345	-0.5730064154766656	-1.969827300343162	-5.3039362350714665	-0.5730064154766656	0.23422841123870156	-2.5771051536556366	-3.2998374968924957	-1.8389735000773755	-3.754689557172741	4	missed	0.0
179.94588270003442	6.325953999999911	nogo_reward	1.0	179.97517710004468	181.89218470000196	184.42315500002587	1.9170075999572873	180.97816080000484	183.4054388000518	185.43303840002045	0.9140238999971189	1.0177161999740747	0.8680927000241354	n/a	1.0	n/a	2	0	88	1	nogo_reward	1	0	1	0	0	1	0	n/a	n/a	1	1.0	1.0	2318.1838668999844	2498.159044000029	2499.1620276999893	2500.0760515999864	2501.589305700036	2502.6070219000103	n/a	n/a	2503.616905300005	2504.484998000029	2020-06-09 09:47:29.769414	1.78497168993566	0.958950283123882	4.53848743407035	4.16511911309096	2.75351574413469	4.53848743407035	-1.78497168993566	4.53848743407035	0.958950283123882	4.53848743407035	2.75351574413469	3.39564715551957	-0.6860411797740811	0.41289672511335174	4.317911789298544	2.8927566595448506	0.9957554927146839	4.317911789298544	3.2774447960534117	2.3138130511195736	2.9998542308936544	3.051944704697835	1.678863809714061	4	missed	0.0
186.32089150004322	6.474514299945895	go_reward	0.4714292999706231	186.35018590005348	188.25581210001837	190.80608820001362	1.9056261999648996	187.35228360001975	189.78294400003506	191.81602300005034	0.9035284999986288	1.0231441999785602	1.0086771999490338	n/a	1.0	n/a	2	0	89	2	go_reward	1	1	0	1	1	1	0	n/a	n/a	1	0.4714292999706231	1.0	2318.1838668999844	2504.534052800038	2505.536150500004	2506.439679000003	2507.9668109000195	2508.989955099998	n/a	n/a	2509.9998899000348	2511.008567099984	2020-06-09 09:47:29.769414	8.27804327461371	7.2628884409316	1.36515705172464	7.29097063881434	9.64320032633835	1.36515705172464	-8.27804327461371	7.2628884409316	1.36515705172464	9.64320032633835	1.36515705172464	0.6712461486583203	5.807030404903969	6.71683488292107	1.1445814069528344	6.01860818526823	7.885440074918344	1.1445814069528344	0.5530437891921619	7.418525943387573	1.6114955384836045	5.776345711559085	2.085070578314819	4	missed	0.0
192.82865189999575	6.3384127000463195	go_punish	0.718410599976778	192.857946300006	194.35064130002866	196.90465090004773	1.4926950000226498	193.85998160002055	195.88523400004487	197.9116064000409	0.4906597000081092	1.0194169000028523	1.2847526000114158	n/a	1.0	n/a	2	0	90	4	go_punish	1	0	-1	1	1	1	0	n/a	n/a	0	0.718410599976778	1.0	2318.1838668999844	2511.0418131999904	2512.043848500005	2512.534508200013	2514.0691009000293	2515.088517800032	n/a	n/a	2516.0954733000253	2517.3802259000367	2020-06-09 09:47:29.769414	1.98921892465328	-1.61305637492729	-2.81039895488934	-1.68740264007238	-0.821180030236065	-2.81039895488934	-1.98921892465328	-1.61305637492729	-2.81039895488934	-0.821180030236065	-2.81039895488934	1.61305637492729	-0.481793945056461	-2.1591099329378203	-3.0309745996611457	-2.95976509361849	-2.578940281656071	-3.0309745996611457	1.4948540154611314	-3.0458544131868415	-2.564060468130376	-3.0995991042998057	-2.090485428299161	4	missed	0.0
199.21225280000363	5.856174700020347	go_reward	0.3721728000091389	199.24154720001388	200.7159948000335	203.27249750000192	1.47444760001963	200.25569180003367	202.2496677000313	204.29048250004416	0.4603029999998398	1.0228297999706228	0.8072393999900669	n/a	1.0	n/a	2	0	91	2	go_reward	1	1	0	1	1	1	1	n/a	n/a	1	0.3721728000091389	1.0	2318.1838668999844	2517.4254140999983	2518.439558700018	2518.899861700018	2520.4335346000157	2521.4563643999863	n/a	n/a	2522.4743494000286	2523.2815888000187	2020-06-09 09:47:29.769414	8.43728731045274	7.39785245065496	1.36515705172464	7.42109075341225	9.80244436217739	1.36515705172464	-8.43728731045274	7.39785245065496	1.36515705172464	9.80244436217739	1.36515705172464	0.5362821389349604	5.966274440743	6.85179889264443	1.1445814069528344	6.148728299866141	8.044684110757384	1.1445814069528344	0.4180797794688019	7.577769979226613	1.6114955384836045	5.911309721282445	2.085070578314819	4	missed	0.0
205.10248030000366	7.213901299983263	nogo_reward	1.0	205.13177470001392	207.85061490000226	210.3693176000379	2.7188401999883354	206.14880110003287	209.35557520005386	211.38336500001606	1.7018137999693863	1.0137423999840394	0.9623109999811277	n/a	1.0	n/a	2	0	92	1	nogo_reward	1	0	1	0	0	1	0	n/a	n/a	1	1.0	1.0	2318.1838668999844	2523.3156415999983	2524.3326680000173	2526.0344817999867	2527.5394421000383	2528.5531845000223	n/a	n/a	2529.5672319000005	2530.5295428999816	2020-06-09 09:47:29.769414	2.3938327243803	0.958950283123882	5.30662855822268	5.01560574942996	2.91279583384238	5.30662855822268	-2.3938327243803	5.30662855822268	0.958950283123882	5.30662855822268	2.91279583384238	2.62750603136724	-0.07718014532944117	0.41289672511335174	5.0860529134508745	3.74324329588385	1.155035582422374	5.0860529134508745	2.5093036719010815	3.0819541752719037	3.1591343206013445	3.820085828850165	1.678863809714061	4	missed	0.0
212.34939069999382	7.166145900031552	nogo_reward	1.0	212.37868510000408	214.8003013000125	217.32750320003834	2.4216162000084296	213.381021600042	216.3044496000516	218.33747040003072	1.4192796999705024	1.0230535999867243	1.207360600004904	n/a	1.0	n/a	2	0	93	1	nogo_reward	1	0	1	0	0	1	0	n/a	n/a	1	1.0	1.0	2318.1838668999844	2530.5625519999885	2531.5648885000264	2532.984168199997	2534.488316500036	2535.5113701000228	n/a	n/a	2536.521337300015	2537.72869790002	2020-06-09 09:47:29.769414	2.84644699085659	0.958950283123882	5.87836971530009	5.65026754778766	3.0319227244435	5.87836971530009	-2.84644699085659	5.87836971530009	0.958950283123882	5.87836971530009	3.0319227244435	2.0557648742898307	0.3754341211468488	0.41289672511335174	5.657794070528284	4.37790509424155	1.274162473023494	5.657794070528284	1.9375625148236721	3.653695332349313	3.2782612112024645	4.391826985927574	1.678863809714061	4	missed	0.0
219.5595583000104	6.705401699990034	go_reward	0.3591059999889694	219.58885270002065	221.35901340004057	223.90915449999738	1.7701607000199147	220.59715940000024	222.8854766000295	224.91026870004134	0.76185400004033	1.023677899967879	1.3839856999693438	n/a	1.0	n/a	2	0	94	2	go_reward	1	1	0	1	1	1	0	n/a	n/a	1	0.3591059999889694	1.0	2318.1838668999844	2537.772719600005	2538.7810262999847	2539.542880300025	2541.069343500014	2542.093021399982	n/a	n/a	2543.0941356000258	2544.478121299995	2020-06-09 09:47:29.769414	8.56121432693848	7.50293308089951	1.36515705172464	7.52221783412817	9.92637137866312	1.36515705172464	-8.56121432693848	7.50293308089951	1.36515705172464	9.92637137866312	1.36515705172464	0.4312015086904104	6.090201457228739	6.95687952288898	1.1445814069528344	6.24985538058206	8.168611127243114	1.1445814069528344	0.312999149224252	7.701696995712343	1.6114955384836045	6.0163903515269945	2.085070578314819	4	missed	0.0
226.29281020001508	6.329026499995962	go_punish	0.3444214999908581	226.32210460002534	228.13868730003014	230.68136210000375	1.8165827000048012	227.32932570000412	229.66724890004843	231.68745060003175	0.8093616000260226	1.0141131999553181	0.9636804999895503	n/a	1.0	n/a	2	0	95	4	go_punish	1	0	-1	1	1	1	0	n/a	n/a	0	0.3444214999908581	1.0	2318.1838668999844	2544.5059715000098	2545.5131925999885	2546.3225542000146	2547.851115800033	2548.865228999988	n/a	n/a	2549.871317500016	2550.8349980000057	2020-06-09 09:47:29.769414	2.42748160821482	-1.22907333012823	-2.81039895488934	-1.28981203043765	-0.382917346674521	-2.81039895488934	-2.42748160821482	-1.22907333012823	-2.81039895488934	-0.382917346674521	-2.81039895488934	1.22907333012823	-0.043531261494921036	-1.77512688813876	-3.0309745996611457	-2.5621744839837595	-2.140677598094527	-3.0309745996611457	1.1108709706620714	-2.6075917296252977	-2.564060468130376	-2.7156160595007455	-2.090485428299161	4	missed	0.0
232.65191780001624	6.85537290002685	go_punish	0.2645795000134967	232.6812122000265	235.01556369999935	237.5722317000036	2.334351499972854	233.68048780004028	236.54890790005447	238.58229300001403	1.3350758999590653	1.0233237999491394	0.9542921000393108	n/a	1.0	n/a	2	0	96	4	go_punish	0	-1	0	1	1	1	0	n/a	n/a	-1	0.2645795000134967	1.0	2318.1838668999844	2550.865079100011	2551.8643547000247	2553.1994305999838	2554.732774800039	2555.756098599988	n/a	n/a	2556.7661598999985	2557.7204520000378	2020-06-09 09:47:29.769414	2.74869780977205	-0.947493353372689	-2.81039895488934	-0.997300521418077	-0.0617011451172942	-2.81039895488934	-2.74869780977205	-0.947493353372689	-2.81039895488934	-0.0617011451172942	-2.81039895488934	-5.964059050893631	0.2776849400623087	-1.4935469113832194	-3.0309745996611457	-2.269662974964187	-1.8194613965373003	-3.0309745996611457	-6.08226141035979	-2.286375528068071	-2.564060468130376	-2.4340360827452043	-2.090485428299161	4	missed	0.0
239.55627870000944	6.5863891000039985	go_reward	0.3484590000007301	239.5855731000197	241.3836337000248	243.92210150003666	1.7980606000051012	240.60469180002065	242.90153790003387	244.92817440000363	0.7789419000041562	1.020563600002788	1.2437878000200726	n/a	1.0	n/a	2	0	97	2	go_reward	0	0	1	1	1	1	0	n/a	n/a	0	0.3484590000007301	1.0	2318.1838668999844	2557.769440000004	2558.788558700005	2559.567500600009	2561.0854048000183	2562.105968400021	n/a	n/a	2563.112041299988	2564.355829100008	2020-06-09 09:47:29.769414	8.65846027061855	7.58543600761672	1.36515705172464	7.60148365694289	10.0236173223432	1.36515705172464	-8.65846027061855	7.58543600761672	1.36515705172464	10.0236173223432	1.36515705172464	-7.58543600761672	6.187447400908809	7.03938244960619	1.1445814069528344	6.329121203396781	8.265857070923195	1.1445814069528344	-7.7036383670828785	7.798942939392424	1.6114955384836045	6.098893278244205	2.085070578314819	4	missed	0.0
246.17558560002362	6.601883600000292	go_punish	0.3489351999596692	246.20488000003388	247.76017230004072	250.30004980001831	1.5552923000068404	247.19999410002492	249.28572640003404	251.31387210002868	0.5601782000157982	1.0143233999842778	1.4928915000054985	n/a	1.0	n/a	2	0	98	4	go_punish	1	0	-1	1	1	1	1	n/a	n/a	0	0.3489351999596692	1.0	2318.1838668999844	2564.3887469000183	2565.3838610000093	2565.944039200025	2567.4695933000185	2568.4839167000027	n/a	n/a	2569.497739000013	2570.9906305000186	2020-06-09 09:47:29.769414	1.14946295552586	-2.35563875905589	-2.81039895488934	-2.39662707259698	-1.66093599936349	-2.81039895488934	-1.14946295552586	-2.35563875905589	-2.81039895488934	-1.66093599936349	-2.81039895488934	2.35563875905589	-1.3215499141838811	-2.9016923170664204	-3.0309745996611457	-3.66898952614309	-3.418696250783496	-3.0309745996611457	2.2374363995897317	-3.8856103823142667	-2.564060468130376	-3.8421814884284053	-2.090485428299161	4	missed	0.0
252.82770389999496	6.523827099998471	go_reward	0.3461198000004515	252.85699830000522	254.91494290000992	257.471711900027	2.057944600004703	253.8726311000064	256.4486850000103	258.481479900016	1.0423118000035174	1.0230269000167027	0.8993454999877031	n/a	1.0	n/a	2	0	99	2	go_reward	1	1	0	1	1	1	1	n/a	n/a	1	0.3461198000004515	1.0	2318.1838668999844	2571.0408651999896	2572.056497999991	2573.0988097999943	2574.6325518999947	2575.6555788000114	n/a	n/a	2576.6653468000004	2577.564692299988	2020-06-09 09:47:29.769414	6.51948766150167	5.78360030002138	1.36515705172464	5.7969894065453	7.88464471322631	1.36515705172464	-6.51948766150167	5.78360030002138	1.36515705172464	7.88464471322631	1.36515705172464	2.15053428956854	4.048474791791929	5.23754674201085	1.1445814069528344	4.52462695299919	6.126884461806304	1.1445814069528344	2.032331930102382	5.659970330275533	1.6114955384836045	4.297057570648865	2.085070578314819	4	missed	0.0
259.40016150003066	7.524624999961816	go_reward	0.3421983000007458	259.4294559000409	262.20282300002873	264.74701670004333	2.7733670999878086	260.43982349999715	263.7302087999997	265.7578133000061	1.762999500031583	1.0168079000436592	1.196267599996645	n/a	1.0	n/a	2	0	100	2	go_reward	1	1	0	1	1	1	0	n/a	n/a	1	0.3421983000007458	1.0	2318.1838668999844	2577.6133228000253	2578.6236903999816	2580.386689900013	2581.914075699984	2582.9308836000278	n/a	n/a	2583.9416801999905	2585.137947799987	2020-06-09 09:47:29.769414	7.17535808195944	6.33746787777812	1.36515705172464	6.34866723711375	8.54051513368408	1.36515705172464	-7.17535808195944	6.33746787777812	1.36515705172464	8.54051513368408	1.36515705172464	1.5966667118118005	4.704345212249699	5.79141431976759	1.1445814069528344	5.07630478356764	6.782754882264074	1.1445814069528344	1.478464352345642	6.315840750733303	1.6114955384836045	4.850925148405604	2.085070578314819	4	missed	0.0
266.9611151000131	5.917123600026116	go_punish	0.3258451999863609	266.99040950002336	268.5652537000133	271.1234322000528	1.5748441999899114	268.004725900013	270.0999978000182	272.132891700021	0.5605278000002727	1.0234344000346027	0.7746414000284858	n/a	1.0	n/a	2	0	101	4	go_punish	0	-1	0	1	1	1	0	n/a	n/a	-1	0.3258451999863609	1.0	2318.1838668999844	2585.174276400008	2586.1885927999974	2586.7491205999977	2588.2838647000026	2589.307299100037	n/a	n/a	2590.3167586000054	2591.091400000034	2020-06-09 09:47:29.769414	1.81623571506311	-1.77043659793153	-2.81039895488934	-1.80428201892862	-0.994163239826229	-2.81039895488934	-1.81623571506311	-1.77043659793153	-2.81039895488934	-0.994163239826229	-2.81039895488934	-5.14111580633479	-0.654777154646631	-2.31649015594206	-3.0309745996611457	-3.0766444724747295	-2.7519234912462354	-3.0309745996611457	-5.2593181658009485	-3.2188376227770057	-2.564060468130376	-3.2569793273040455	-2.090485428299161	4	missed	0.0
272.9126445000293	6.467781199957244	go_punish	0.5004071000148542	272.94193890003953	274.49070590001065	277.04013180005177	1.5487669999711215	273.94639330002246	276.0160372000537	278.04941010003677	0.5443125999881886	1.0240945999980795	1.360309999960009	n/a	1.0	n/a	2	0	102	4	go_punish	0	-1	0	1	1	1	0	n/a	n/a	-1	0.5004071000148542	1.0	2318.1838668999844	2591.125805800024	2592.130260200007	2592.674572799995	2594.199904100038	2595.223998700036	n/a	n/a	2596.233277000021	2597.593586999981	2020-06-09 09:47:29.769414	0.454955669907174	-2.96923922070956	-2.81039895488934	-2.99727728648231	-2.35544328498217	-2.81039895488934	-0.454955669907174	-2.96923922070956	-2.81039895488934	-2.35544328498217	-2.81039895488934	-3.9423131835567604	-2.016057199802567	-3.5152927787200903	-3.0309745996611457	-4.26963974002842	-4.113203536402176	-3.0309745996611457	-4.060515543022919	-4.580117667932947	-2.564060468130376	-4.455781950082075	-2.090485428299161	4	missed	0.0
279.4162492000032	7.066419399983715	nogo_reward	1.0	279.4455436000135	281.7288402999984	284.2696906000492	2.2832966999849305	280.4556859000004	283.2459334000014	285.268503600033	1.2731543999980204	1.0237572000478394	1.2434593999641947	n/a	1.0	n/a	2	0	103	1	nogo_reward	1	0	1	0	0	1	0	n/a	n/a	1	1.0	1.0	2318.1838668999844	2597.629410499998	2598.639552799985	2599.912707199983	2601.429800299986	2602.4535575000336	n/a	n/a	2603.4523705000174	2604.6958298999816	2020-06-09 09:47:29.769414	3.1891704053115	0.958950283123882	6.31160257297846	6.13190811401893	3.12243216766695	6.31160257297846	-3.1891704053115	6.31160257297846	0.958950283123882	6.31160257297846	3.12243216766695	1.6225320166114603	0.7181575356017591	0.41289672511335174	6.091026928206654	4.85954566047282	1.3646719162469438	6.091026928206654	1.5043296571453018	4.086928190027683	3.3687706544259144	4.825059843605945	1.678863809714061	4	missed	0.0
286.5166674000211	6.894602300017141	nogo_reward	1.0	286.54596180003136	288.9815784000093	291.51524090004386	2.4356165999779478	287.54692819999764	290.4916543000145	292.5249604000128	1.4346502000116743	1.0235866000293754	0.9156037000357173	n/a	1.0	n/a	2	0	104	1	nogo_reward	1	0	1	0	0	1	0	n/a	n/a	1	1.0	1.0	2318.1838668999844	2604.729828700016	2605.730795099982	2607.1654452999937	2608.675521199999	2609.6991078000283	n/a	n/a	2610.708827299997	2611.624431000033	2020-06-09 09:47:29.769414	3.4521620509451	0.958950283123882	6.64415202757394	6.50192912743401	3.19198997662884	6.64415202757394	-3.4521620509451	6.64415202757394	0.958950283123882	6.64415202757394	3.19198997662884	1.2899825620159806	0.981149181235359	0.41289672511335174	6.423576382802134	5.2295666738879	1.4342297252088338	6.423576382802134	1.171780202549822	4.4194776446231625	3.4383284633878044	5.157609298201424	1.678863809714061	4	missed	0.0
293.4413671999937	6.96634179999819	nogo_reward	1.0	293.47066160000395	295.8960871000313	298.424299300008	2.425425500027359	294.4752015999984	297.4000778000336	299.433934700035	1.4208855000329095	1.0242214999743737	1.0030686999671161	n/a	1.0	n/a	2	0	105	1	nogo_reward	1	0	1	0	0	1	1	n/a	n/a	1	1.0	1.0	2318.1838668999844	2611.6545284999884	2612.659068499983	2614.0799540000157	2615.583944700018	2616.6081661999924	n/a	n/a	2617.6178016000194	2618.6208702999866	2020-06-09 09:47:29.769414	3.65608783569482	0.958950283123882	6.90201546313643	6.7889609487738	3.24592762744161	6.90201546313643	-3.65608783569482	6.90201546313643	0.958950283123882	6.90201546313643	3.24592762744161	1.0321191264534901	1.1850749659850788	0.41289672511335174	6.681439818364624	5.51659849522769	1.4881673760216036	6.681439818364624	0.9139167669873317	4.677341080185654	3.492266114200574	5.415472733763915	1.678863809714061	4	missed	0.0
300.44029340002453	6.039721600012854	nogo_reward	1.0	300.4695878000348	302.20417500002077	304.7452826000517	1.734587199985981	301.4720627000206	303.72138220001943	305.74944260000484	0.7321123000001535	1.0239004000322893	0.7598668000428006	n/a	1.0	n/a	2	0	106	1	nogo_reward	1	0	1	0	0	1	1	n/a	n/a	1	1.0	1.0	2318.1838668999844	2618.653454700019	2619.655929600005	2620.388041900005	2621.905249100004	2622.929149500036	n/a	n/a	2623.9333094999893	2624.693176300032	2020-06-09 09:47:29.769414	3.81558736825467	0.958950283123882	7.10365157227757	7.01341871412781	3.2880642040229	7.10365157227757	-3.81558736825467	7.10365157227757	0.958950283123882	7.10365157227757	3.2880642040229	0.8304830173123499	1.344574498544929	0.41289672511335174	6.8830759275057645	5.741056260581701	1.5303039526028936	6.8830759275057645	0.7122806578461914	4.878977189326793	3.534402690781864	5.617108842905055	1.678863809714061	4	missed	0.0
306.53559750004206	6.562302999955136	nogo_punish	1.0	306.5648919000523	308.56360960000893	311.09595010004705	1.9987176999566145	307.58148470002925	310.07413020002423	312.10105320002185	0.9821248999796808	1.0218199000228196	1.026141699985601	n/a	1.0	n/a	2	0	107	3	nogo_punish	1	-1	0	0	0	1	0	n/a	n/a	0	1.0	1.0	2318.1838668999844	2624.7487588000367	2625.7653516000137	2626.7474764999934	2628.2579971000087	2629.2798170000315	n/a	n/a	2630.2849201000063	2631.311061799992	2020-06-09 09:47:29.769414	3.24729112193917	-4.47460308376292	-0.280944262035546	-0.560030298793688	-3.52823538397472	-0.280944262035546	-3.24729112193917	-0.280944262035546	-4.47460308376292	-0.280944262035546	-3.52823538397472	0.280944262035546	0.7762782522294289	-5.02065664177345	-0.5015199068073517	-1.8323927523397978	-5.285995635394726	-0.5015199068073517	0.16274190256938756	-2.5056186449863227	-3.2818968972157556	-1.7674869914080615	-3.754689557172741	4	missed	0.0
313.13125219999347	7.308998199994676	go_punish	0.6538843999733217	313.1605466000037	315.5041995000206	318.0475798000116	2.3436529000168775	314.1567822000361	317.0308576000393	319.06028279999737	1.3474172999844996	1.0167221999722642	1.4092620000010356	n/a	1.0	n/a	2	0	108	4	go_punish	1	0	-1	1	1	1	0	n/a	n/a	0	0.6538843999733217	1.0	2318.1838668999844	2631.344413499988	2632.3406491000205	2633.688066400005	2635.2147245000237	2636.231446699996	n/a	n/a	2637.244149699982	2638.653411699983	2020-06-09 09:47:29.769414	-0.547563336460475	-3.85301751496394	-2.81039895488934	-3.87631702589404	-3.35796229134982	-2.81039895488934	0.547563336460475	-3.85301751496394	-2.81039895488934	-3.35796229134982	-2.81039895488934	3.85301751496394	-3.018576206170216	-4.39907107297447	-3.0309745996611457	-5.148679479440149	-5.115722542769826	-3.0309745996611457	3.7348151554977815	-5.582636674300597	-2.564060468130376	-5.339560244336456	-2.090485428299161	4	missed	0.0
320.4884230000316	7.333201200002804	nogo_punish	1.0	320.5177174000419	323.2835420000483	325.8169056000188	2.7658246000064537	321.5206494000158	324.801153300039	326.82678440003656	1.762892600032501	1.0157522999797948	1.0241342000081204	n/a	1.0	n/a	2	0	109	3	nogo_punish	0	0	-1	0	0	1	1	n/a	n/a	-1	1.0	1.0	2318.1838668999844	2638.7015843000263	2639.7045163000003	2641.4674089000328	2642.9850202000234	2644.000772500003	n/a	n/a	2645.010651300021	2646.034785500029	2020-06-09 09:47:29.769414	3.28914079005913	-4.47460308376292	-0.225081326912311	-0.451776607933918	-3.51422211697144	-0.225081326912311	-3.28914079005913	-0.225081326912311	-4.47460308376292	-0.225081326912311	-3.51422211697144	-6.6864710773540095	0.8181279203493887	-5.02065664177345	-0.44565697168411667	-1.7241390614800278	-5.271982368391446	-0.44565697168411667	-6.804673436820168	-2.4497557098630875	-3.2678836302124754	-1.7116240562848266	-3.754689557172741	4	missed	0.0
327.8670345999999	7.56734080001479	go_reward	0.4022654999862425	327.89632900001016	330.66466570005286	333.2212247000425	2.7683367000427097	328.8967959000147	332.1982417000113	334.24123090005014	1.76786980003817	1.0229830000312177	1.2224388999748044	n/a	1.0	n/a	2	0	110	2	go_reward	1	1	0	1	1	1	0	n/a	n/a	1	0.4022654999862425	1.0	2318.1838668999844	2646.0801958999946	2647.080662799999	2648.8485326000373	2650.3821085999957	2651.405091600027	n/a	n/a	2652.4250978000346	2653.6475367000094	2020-06-09 09:47:29.769414	7.63199577578767	6.7227560748361	1.36515705172464	6.73214677040222	8.99715282751232	1.36515705172464	-7.63199577578767	6.7227560748361	1.36515705172464	8.99715282751232	1.36515705172464	1.2113785147538199	5.16098290607793	6.1767025168255705	1.1445814069528344	5.45978431685611	7.239392576092314	1.1445814069528344	1.0931761552876613	6.772478444561543	1.6114955384836045	5.236213345463585	2.085070578314819	4	missed	0.0
335.4831723000384	6.881176199997299	nogo_punish	1.0	335.51246670004866	337.68410260003293	340.21758500003534	2.171635899984267	336.51489240000956	339.20143000001553	341.2288025000016	1.1692102000233717	1.0161550000198076	1.1648404000443406	n/a	1.0	n/a	2	0	111	3	nogo_punish	0	0	-1	0	0	1	1	n/a	n/a	-1	1.0	1.0	2318.1838668999844	2653.696333600033	2654.698759299994	2655.8679695000174	2657.3852969	2658.4014519000198	n/a	n/a	2659.412669399986	2660.5775098000304	2020-06-09 09:47:29.769414	1.92429004052107	-4.47460308376292	-1.79948612424522	-1.98435896270014	-3.72377616476629	-1.79948612424522	-1.92429004052107	-1.79948612424522	-4.47460308376292	-1.79948612424522	-3.72377616476629	-5.1120662800211	-0.546722829188671	-5.02065664177345	-2.0200617690170257	-3.2567214162462497	-5.481536416186296	-2.0200617690170257	-5.230268639487258	-4.0241605071959965	-3.4774376780073255	-3.2860288536177356	-3.754689557172741	4	missed	0.0
342.39513600000646	5.709348100004718	nogo_reward	1.0	342.4244304000167	343.7476057000458	346.27814460004447	1.3231753000291064	343.42884450004203	345.25219130003825	347.2864895000239	0.3187612000037916	1.025953300006222	0.847288999997545	n/a	1.0	n/a	2	0	112	1	nogo_reward	1	0	1	0	0	1	0	n/a	n/a	1	1.0	1.0	2318.1838668999844	2660.608297300001	2661.6127114000265	2661.9314726000302	2663.4360582000227	2664.462011500029	n/a	n/a	2665.4703564000083	2666.317645400006	2020-06-09 09:47:29.769414	3.94127159681143	0.958950283123882	7.26246351381915	7.19017133971224	3.32119191700772	7.26246351381915	-3.94127159681143	7.26246351381915	0.958950283123882	7.26246351381915	3.32119191700772	0.67167107577077	1.470258727101689	0.41289672511335174	7.041887869047344	5.91780888616613	1.563431665587714	7.041887869047344	0.5534687163046116	5.037789130868374	3.5675304037666846	5.775920784446635	1.678863809714061	4	missed	0.0
348.16590480000013	6.376556500035804	go_reward	1.0	348.1951992000104	349.7543241000385	352.2847131000017	1.5591249000281096	349.19466340000463	351.2643973000231	353.2972988000256	0.5596607000338736	1.0203157999785617	1.2744569000205956	n/a	1.0	n/a	2	0	113	2	go_reward	1	1	0	1	0	0	0	n/a	n/a	0	1.0	1.0	2318.1838668999844	2666.379066099995	2667.378530299989	2667.938191000023	2669.4482642000075	2670.468579999986	n/a	n/a	2671.48116570001	2672.7556226000306	2020-06-09 09:47:29.769414	-7.96242666644879	7.00142723346608	1.36515705172464	7.00932000629926	9.32758371817343	1.36515705172464	7.96242666644879	1.36515705172464	7.00142723346608	1.36515705172464	9.32758371817343	-1.36515705172464	-10.43343953615853	6.45537367545555	1.1445814069528344	5.73695755275315	7.569823466753425	1.1445814069528344	-1.4833594111907986	-0.8595173312261366	9.573922204932394	-0.12138567764787545	7.7213407600562585	4	missed	0.0
354.585968600004	6.562010299996473	go_reward	0.2551740999915637	354.61526300001424	356.2707519000396	358.8081893000053	1.6554889000253752	355.61711880000075	357.78814540000167	359.82181300001685	0.65363310003886	1.0200439000036567	1.3554602999938652	n/a	1.0	n/a	2	0	114	2	go_reward	0	0	1	1	1	1	0	n/a	n/a	0	0.2551740999915637	1.0	2318.1838668999844	2672.7991298999987	2673.800985699985	2674.454618800024	2675.972012299986	2676.9920561999897	n/a	n/a	2678.0056799000013	2679.361140199995	2020-06-09 09:47:29.769414	7.99580716539221	7.00142723346608	1.021454318338	5.34753469774581	9.01726148373022	1.021454318338	-7.99580716539221	7.00142723346608	1.021454318338	9.01726148373022	1.021454318338	-7.00142723346608	5.524794295682469	6.45537367545555	0.8008786735661944	4.075172244199701	7.259501232310214	0.8008786735661944	-7.119629592932238	6.792587100779443	1.2677928050969645	5.514884504093565	1.7413678449281789	4	missed	0.0
361.1867235000245	6.997476399992593	nogo_reward	1.0	361.2160179000348	363.76906280004187	366.30422950000457	2.5530449000070803	362.2295591000002	365.2797046000487	367.3145013000467	1.5395037000416778	1.0245248999558498	0.8989929999806918	n/a	1.0	n/a	2	0	115	1	nogo_reward	1	0	1	0	0	1	0	n/a	n/a	1	1.0	1.0	2318.1838668999844	2679.399884800019	2680.4134259999846	2681.9529297000263	2683.463571500033	2684.488096399989	n/a	n/a	2685.498368200031	2686.397361200012	2020-06-09 09:47:29.769414	4.04096312825459	0.958950283123882	7.38834645606355	7.33022022758192	3.34738332780897	7.38834645606355	-4.04096312825459	7.38834645606355	0.958950283123882	7.38834645606355	3.34738332780897	0.5457881335263703	1.5699502585448486	0.41289672511335174	7.167770811291744	6.05785777403581	1.5896230763889638	7.167770811291744	0.4275857740602119	5.163672073112773	3.5937218145679344	5.901803726691035	1.678863809714061	4	missed	0.0
368.2190372000332	6.499952799989842	nogo_reward	1.0	368.24833160004346	370.26941580005223	372.78983130003326	2.0210842000087723	369.26423040003283	371.7680180000025	373.80234850000124	1.0051854000193998	1.0218133000307716	0.9459359000320546	n/a	1.0	n/a	2	0	116	1	nogo_reward	0	1	0	0	0	1	0	n/a	n/a	0	1.0	1.0	2318.1838668999844	2686.432198500028	2687.4480973000173	2688.4532827000367	2689.951884899987	2690.9736982000177	n/a	n/a	2691.9862153999857	2692.9321513000177	2020-06-09 09:47:29.769414	4.12050650650323	0.958950283123882	7.48870168263278	7.44180711337169	3.36819517612954	7.48870168263278	-4.12050650650323	7.48870168263278	0.958950283123882	7.48870168263278	3.36819517612954	-7.48870168263278	1.6494936367934891	0.41289672511335174	7.268126037860974	6.169444659825579	1.6104349247095338	7.268126037860974	-7.606904042098939	5.264027299682004	3.6145336628885043	6.002158953260265	1.678863809714061	4	missed	0.0
374.77418300003046	7.131788199999846	nogo_punish	1.0	374.8034774000407	377.419898400025	379.94982610002626	2.616420999984257	375.8134661000222	378.9303234000108	380.9578059000196	1.6064323000027798	1.0195027000154369	0.9774597000209724	n/a	1.0	n/a	2	0	117	3	nogo_punish	1	-1	0	0	0	1	0	n/a	n/a	0	1.0	1.0	2318.1838668999844	2692.987344300025	2693.9973330000066	2695.6037653000094	2697.1141902999952	2698.1336930000107	n/a	n/a	2699.141672800004	2700.119132500025	2020-06-09 09:47:29.769414	0.919414398123436	-4.47460308376292	-2.95686209330554	-3.1081973520114	-3.87627649142897	-2.95686209330554	-0.919414398123436	-2.95686209330554	-4.47460308376292	-2.95686209330554	-3.87627649142897	2.95686209330554	-1.5515984715863052	-5.02065664177345	-3.1774377380773453	-4.38055980555751	-5.634036742848976	-3.1774377380773453	2.8386597338393815	-5.1815364762563165	-3.6299380046700054	-4.443404822678056	-3.754689557172741	4	missed	0.0
381.9489504999947	7.3223069999949075	nogo_punish	1.0	381.97824490000494	384.71794210001826	387.24737920000916	2.7396972000133246	382.98613470001146	386.2276244000532	388.2607747000293	1.731807400006801	1.0197547999559902	1.0397771999705583	n/a	1.0	n/a	2	0	118	3	nogo_punish	1	-1	0	0	0	1	0	n/a	n/a	0	1.0	1.0	2318.1838668999844	2700.1621117999894	2701.170001599996	2702.9018090000027	2704.4114913000376	2705.4312460999936	n/a	n/a	2706.4446416000137	2707.4844187999843	2020-06-09 09:47:29.769414	1.56376722324181	-4.47460308376292	-2.20506955377135	-2.32939602868837	-3.76883677701317	-2.20506955377135	-1.56376722324181	-2.20506955377135	-4.47460308376292	-2.20506955377135	-3.76883677701317	2.20506955377135	-0.907245646467931	-5.02065664177345	-2.4256451985431555	-3.6017584822344797	-5.5265970284331765	-2.4256451985431555	2.0868671943051917	-4.429743936722127	-3.5224982902542057	-3.691612283143866	-3.754689557172741	4	missed	0.0
389.31646540004294	6.483406399958767	go_reward	0.2795093000167981	389.3457598000532	391.01543550001225	393.57129900000336	1.6696756999590434	390.3526251000003	392.5483460000246	394.57549590000417	0.6628104000119492	1.02295299997877	1.2536703000077978	n/a	1.0	n/a	2	0	119	2	go_reward	1	1	0	1	1	1	0	n/a	n/a	1	0.2795093000167981	1.0	2318.1838668999844	2707.5296267000376	2708.5364919999847	2709.1993023999967	2710.732212900009	2711.755165899988	n/a	n/a	2712.7593627999886	2714.0130330999964	2020-06-09 09:47:29.769414	6.1083087364499	5.34088571281197	1.021454318338	4.13704112163464	7.1297630547879	1.021454318338	-6.1083087364499	5.34088571281197	1.021454318338	7.1297630547879	1.021454318338	2.59324887677795	3.637295866740159	4.7948321548014405	0.8008786735661944	2.8646786680885303	5.372002803367894	0.8008786735661944	2.4750465173117915	4.905088671837124	1.2677928050969645	3.854342983439455	1.7413678449281789	4	missed	0.0
395.8438347000051	6.3867490999978145	go_reward	0.3661199000198394	395.8731291000154	397.2436736000236	399.78437010000926	1.3705445000082364	396.88681009999664	398.76104650000343	400.79659000004176	0.3568635000269751	1.0233236000058241	1.46328819997143	n/a	1.0	n/a	2	0	120	2	go_reward	1	1	0	1	1	1	0	n/a	n/a	1	0.3661199000198394	1.0	2318.1838668999844	2714.056996	2715.070676999981	2715.427540500008	2716.944913399988	2717.9682369999937	n/a	n/a	2718.980456900026	2720.4437450999976	2020-06-09 09:47:29.769414	6.94489379411338	5.99851294831672	1.021454318338	5.10068827280684	7.96634811245138	1.021454318338	-6.94489379411338	5.99851294831672	1.021454318338	7.96634811245138	1.021454318338	1.9356216412732001	4.473880924403639	5.45245939030619	0.8008786735661944	3.8283258192607303	6.208587861031374	0.8008786735661944	1.8174192818070416	5.741673729500603	1.2677928050969645	4.511970218944205	1.7413678449281789	4	missed	0.0
