onset	duration	trial_type	response_time	cueOnset	targetOnset	fbOnset	cueRT	firstfixOnset	secondfixOnset	waitOnset	firstfixdur	secondfixdur	waitdur	nback_fbOnset	nback_response_time	nback_targetOnset	block	wm	trial	cue	cond	is_common	outcome_go	outcome_nogo	key_correct	key_pressed	is_correct	key_correct_nback	key_pressed_nback	is_correct_nback	outcome	rt	rt_nback	time_scan	time_onset	time_isi1	time_circle	time_isi2	time_feedback	time_same	time_correct	time_iti	time_done	timestamp_scan	DV	Qgo	Qnogo	SV	Wgo	Wnogo	mDV	Qchosen	Qunchosen	Wchosen	Wunchosen	PE	DVC	QgoC	QnogoC	SVC	WgoC	WnogoC	PEC	WchosenC	WunchosenC	QchosenC	QunchosenC	run	outcome_nback	nback_targetResp
0.0	8.014950399985537	nogo_reward	0.7033113000215963	0.022245100000873208	1.500208700075632	4.051268300041443	1.4779636000747587	1.0310502999926712	3.0404484000754337	7.073744400055034	0.4691584000829607	1.010819899966009	0.9634510999313761	6.07564809999883	1.0	5.066935800015813	2	1	1	4	nogo_reward	1	0	1	0	1	0	0	n/a	0.0	1	0.7033113000215963	1.0	1007.892729299958	1007.9149743999589	1008.9237795999506	1009.3929380000336	1010.9331777000334	1011.9439975999994	1012.9596650999738	1013.9683773999568	1014.966473700013	1015.9299247999444	2020-03-31 18:02:45.580544	3.3063309874516	0.0	0.0	0.0	3.3063309874516	0.0	-3.3063309874516	0.0	0.0	3.3063309874516	0.0	0.0	-1.3653445065456586	3.6781747554135125	2.6376108743584523	2.1193542247637547	4.710083457348788	2.6376108743584523	0.3961017284638164	2.9911749125807914	4.356519419126451	1.7828605692147521	4.532925060557216	3	missed	0.0
8.062971699982768	8.207907999981899	nogo_punish	0.3493596999906003	8.085216799983641	9.856848499970397	12.406717000063395	1.7716316999867558	9.092054200009215	11.382580699981077	15.456095100031234	0.7647942999611814	1.0241363000823185	0.8370296999343054	14.453890500008015	0.8022089001024142	13.418206800008079	2	1	2	2	nogo_punish	1	-1	0	0	1	0	0	0.0	1.0	-1	0.3493596999906003	0.8022089001024142	1007.892729299958	1015.9779460999416	1016.9847834999672	1017.7495777999284	1019.275309999939	1020.2994463000214	1021.310936099966	1022.346619799966	1023.3488243999892	1024.1858540999235	2020-03-31 18:02:45.580544	3.3063309874516	0.0	0.0	0.0	3.3063309874516	0.0	-3.3063309874516	0.0	0.0	3.3063309874516	0.0	-18.6720810611386	-1.3653445065456586	3.6781747554135125	2.6376108743584523	2.1193542247637547	4.710083457348788	2.6376108743584523	-18.275979332674783	2.9911749125807914	4.356519419126451	1.7828605692147521	4.532925060557216	3	correct	1.0
16.318866900052058	7.915077999932464	go_reward	0.382592299953103	16.34111200005293	17.674733299994728	20.220093099982364	1.3336212999417967	17.346505700028388	19.205365300062	23.242071100044882	0.32822759996633977	1.0147277999203652	1.014118899940513	22.23600240005169	1.0	21.225199299980773	2	1	3	3	go_reward	1	1	0	1	1	1	0	n/a	0.0	0	0.382592299953103	1.0	1007.892729299958	1024.233841300011	1025.2392349999864	1025.5674625999527	1027.09809460002	1028.1128223999403	1029.1179285999388	1030.1287317000097	1031.1348004000029	1032.1489192999434	2020-03-31 18:02:45.580544	3.3063309874516	0.0	0.0	0.0	3.3063309874516	0.0	-3.3063309874516	0.0	0.0	3.3063309874516	0.0	2.48739944596888	-1.3653445065456586	3.6781747554135125	2.6376108743584523	2.1193542247637547	4.710083457348788	2.6376108743584523	2.8835011744326966	2.9911749125807914	4.356519419126451	1.7828605692147521	4.532925060557216	3	missed	0.0
24.258192499983238	7.841302799991809	nogo_reward	0.3358190000290051	24.28043759998411	25.568611799972018	28.108676800038324	1.2881741999879068	25.288383400067573	27.085000999970248	31.175181700033022	0.2802283999044448	1.0236758000680766	0.9465586999428979	30.160725099965816	0.7801927999826148	29.12927829998091	2	1	4	4	nogo_reward	0	1	0	0	1	0	0	0.0	1.0	1	0.3358190000290051	0.7801927999826148	1007.892729299958	1032.173166899942	1033.1811127000256	1033.46134109993	1034.9777302999282	1036.0014060999963	1037.022007599939	1038.0534543999238	1039.067910999991	1040.014469699934	2020-03-31 18:02:45.580544	6.27440580211468	2.07222538519454	0.0	2.07222538519454	6.27440580211468	0.0	-6.27440580211468	2.07222538519454	0.0	6.27440580211468	0.0	0.41517406077434016	1.6027303081174216	5.750400140608052	2.6376108743584523	4.1915796099582945	7.678158272011869	2.6376108743584523	0.8112757892381566	5.959249727243872	4.356519419126451	3.855085954409292	4.532925060557216	3	correct	1.0
32.14181499998074	8.758052000077441	go_reward	0.374959500040859	32.16406009998161	33.955594800063295	36.51562129997171	1.7915347000816837	33.17211420007504	35.49156740005117	39.571444300003236	0.7834805999882519	1.0240538999205455	1.3506678000558168	38.55815729999438	0.5721493000164628	37.529360100044755	2	1	5	3	go_reward	1	1	0	1	1	1	1	1.0	1.0	1	0.374959500040859	0.5721493000164628	1007.892729299958	1040.0567893999396	1041.064843500033	1041.8483241000213	1043.3842967000091	1044.4083505999297	1045.4220894000027	1046.4508865999524	1047.4641735999612	1048.814841400017	2020-03-31 18:02:45.580544	3.3063309874516	0.0	0.0	0.0	3.3063309874516	0.0	-3.3063309874516	0.0	0.0	3.3063309874516	0.0	2.48739944596888	-1.3653445065456586	3.6781747554135125	2.6376108743584523	2.1193542247637547	4.710083457348788	2.6376108743584523	2.8835011744326966	2.9911749125807914	4.356519419126451	1.7828605692147521	4.532925060557216	3	correct	1.0
40.943519599968454	9.35267560009379	go_reward	0.2999901999719441	40.96576469996933	43.73652600008052	46.29719349998038	2.7707613001111895	41.97274520003691	45.273409700021034	49.34999440005038	1.7637808000436053	1.0237837999593467	0.968445900012739	48.33651739999152	0.5446137000108138	47.317915100022105	2	1	6	3	go_reward	1	1	0	1	1	1	0	0.0	1.0	1	0.2999901999719441	0.5446137000108138	1007.892729299958	1048.8584939999273	1049.865474499995	1051.6292553000385	1053.166138999979	1054.1899227999384	1055.21064439998	1056.2292466999495	1057.2427237000084	1058.211169600021	2020-03-31 18:02:45.580544	6.27440580211468	2.07222538519454	0.0	2.07222538519454	6.27440580211468	0.0	-6.27440580211468	2.07222538519454	0.0	6.27440580211468	0.0	0.41517406077434016	1.6027303081174216	5.750400140608052	2.6376108743584523	4.1915796099582945	7.678158272011869	2.6376108743584523	0.8112757892381566	5.959249727243872	4.356519419126451	3.855085954409292	4.532925060557216	3	correct	1.0
50.33958000002883	8.92466100002639	nogo_punish	1.0	50.361825100029705	52.805348300025685	55.32125779998012	2.4435231999959797	51.35998690000258	54.31078080006398	58.355553900007976	1.4453614000231028	1.0104769999161363	0.9309322000481188	57.34280290000595	0.3804854000918567	56.32996940007422	2	1	7	2	nogo_punish	1	-1	0	0	0	1	0	0.0	1.0	0	1.0	0.3804854000918567	1007.892729299958	1058.2545543999877	1059.2527161999606	1060.6980775999837	1062.203510100022	1063.213987099938	1064.2226987000322	1065.235532199964	1066.248283199966	1067.179215400014	2020-03-31 18:02:45.580544	19.3853569482875	-16.2052981006994	0.0	-16.2052981006994	-19.3853569482875	0.0	-19.3853569482875	0.0	-16.2052981006994	0.0	-19.3853569482875	0.0	14.713681454290242	-12.52712334528589	2.6376108743584523	-14.085943875935648	-17.981604478390313	2.6376108743584523	0.3961017284638164	-0.31515607487080854	-15.02883752916105	1.7828605692147521	-11.672373040142187	3	correct	1.0
59.308213600074055	9.44082689995389	go_reward	0.3112508999183774	59.33045870007493	61.68761390005227	64.2394693000241	2.357155199977342	60.32650890003413	63.223243999993315	67.27787620003812	1.3611050000181422	1.0162253000307828	1.4934093999906963	66.27174330002151	0.5195122000295669	65.25308170006599	2	1	8	3	go_reward	1	1	0	1	1	1	1	1.0	1.0	1	0.3112508999183774	0.5195122000295669	1007.892729299958	1067.223188000033	1068.219238199992	1069.5803432000102	1071.1159732999513	1072.132198599982	1073.145811000024	1074.1644725999795	1075.170605499996	1076.6640148999868	2020-03-31 18:02:45.580544	6.73636153542917	2.38958215060839	0.0	2.38958215060839	6.73636153542917	0.0	-6.73636153542917	2.38958215060839	0.0	6.73636153542917	0.0	0.09781729536048989	2.0646860414319113	6.067756906021902	2.6376108743584523	4.508936375372144	8.140114005326359	2.6376108743584523	0.4939190238243063	6.421205460558362	4.356519419126451	4.172442719823142	4.532925060557216	3	correct	1.0
68.77883339999232	9.159019500017166	go_punish	0.3600333000067621	68.8010784999932	70.98755960003461	73.52035610005248	2.1864811000414193	69.81026290007833	72.50814569997613	76.56800770002872	1.1772966999562868	1.0122104000763557	1.3920902999816462	75.55739149998396	0.6265582999913022	74.52991799998551	2	1	9	1	go_punish	1	0	-1	1	1	1	0	0.0	1.0	0	0.3600333000067621	0.6265582999913022	1007.892729299958	1076.6938077999512	1077.7029922000363	1078.8802888999926	1080.400874999934	1081.4130854000105	1082.4226472999435	1083.450120799942	1084.4607369999867	1085.8528272999683	2020-03-31 18:02:45.580544	3.3063309874516	0.0	0.0	0.0	3.3063309874516	0.0	-3.3063309874516	0.0	0.0	3.3063309874516	0.0	0.0	-1.3653445065456586	3.6781747554135125	2.6376108743584523	2.1193542247637547	4.710083457348788	2.6376108743584523	0.3961017284638164	2.9911749125807914	4.356519419126451	1.7828605692147521	4.532925060557216	3	correct	1.0
77.96084750001307	8.480915499967523	nogo_reward	0.3593797999201342	77.98309260001395	79.90797579998605	82.44948660000193	1.9248831999721006	78.99521389999393	81.4299726000753	85.51137000008009	0.9127618999921197	1.0195139999266303	0.9526380999013782	84.49261040007684	0.4490033999318257	83.46458660007909	2	1	10	4	nogo_reward	1	0	1	0	1	0	0	0.0	1.0	0	0.3593797999201342	0.4490033999318257	1007.892729299958	1085.875821899972	1086.887943199952	1087.800705099944	1089.3227019000333	1090.34221589996	1091.357315900037	1092.3853397000348	1093.404099300038	1094.3567373999394	2020-03-31 18:02:45.580544	6.73636153542917	2.38958215060839	0.0	2.38958215060839	6.73636153542917	0.0	-6.73636153542917	2.38958215060839	0.0	6.73636153542917	0.0	-2.38958215060839	2.0646860414319113	6.067756906021902	2.6376108743584523	4.508936375372144	8.140114005326359	2.6376108743584523	-1.9934804221445737	6.421205460558362	4.356519419126451	4.172442719823142	4.532925060557216	3	correct	1.0
86.46775650000188	8.85498180007562	go_punish	0.2506767000304535	86.49000160000276	88.97284270008083	91.53075709997199	2.482841100078076	87.49901640007727	90.50694430002466	94.57030839996867	1.4738263000035658	1.0238127999473363	0.7746750001097098	93.5613753000506	0.4612447000108659	92.53731230006076	2	1	11	1	go_punish	1	0	-1	1	1	1	1	0.0	0.0	0	0.2506767000304535	0.4612447000108659	1007.892729299958	1094.3827308999607	1095.3917457000352	1096.8655720000388	1098.3996735999826	1099.42348639993	1100.4300416000187	1101.4541046000086	1102.4630376999266	1103.2377127000364	2020-03-31 18:02:45.580544	3.3063309874516	0.0	0.0	0.0	3.3063309874516	0.0	-3.3063309874516	0.0	0.0	3.3063309874516	0.0	0.0	-1.3653445065456586	3.6781747554135125	2.6376108743584523	2.1193542247637547	4.710083457348788	2.6376108743584523	0.3961017284638164	2.9911749125807914	4.356519419126451	1.7828605692147521	4.532925060557216	3	wrong	1.0
95.345975800068	8.973928599967621	nogo_reward	0.3166737999999895	95.36822090006888	97.79287540004577	100.34441939997475	2.4246544999768957	96.37097920000076	99.32030859997019	103.37986400001671	1.421896200045012	1.0241108000045642	0.9622855000197887	102.37514710007224	0.5181115999585018	101.34938969998609	2	1	12	4	nogo_reward	0	1	0	0	1	0	1	1.0	1.0	1	0.3166737999999895	0.5181115999585018	1007.892729299958	1103.2609502000269	1104.2637084999587	1105.6856047000038	1107.2130378999282	1108.2371486999327	1109.242118999944	1110.2678764000302	1111.2725932999747	1112.2348787999945	2020-03-31 18:02:45.580544	3.86953517145566	0.385316618741803	0.0	0.385316618741803	3.86953517145566	0.0	-3.86953517145566	0.385316618741803	0.0	3.86953517145566	0.0	2.102082827227077	-0.8021403225415988	4.063491374155316	2.6376108743584523	2.504670843505558	5.273287641352848	2.6376108743584523	2.4981845556908935	3.554379096584851	4.356519419126451	2.1681771879565552	4.532925060557216	3	correct	1.0
104.36195980000764	8.672584300045855	nogo_punish	1.0	104.38420490000851	106.07869530003506	108.61470370006293	1.6944904000265524	105.38406309997652	107.59137240005646	111.6677851000569	0.6946322000585496	1.0233313000064754	1.3890040999974644	110.64894700003754	0.520862799952738	109.63568200008001	2	1	13	2	nogo_punish	0	0	-1	0	0	1	0	0.0	1.0	-1	1.0	0.520862799952738	1007.892729299958	1112.2769341999665	1113.2767923999345	1113.971424599993	1115.4841017000144	1116.507433000021	1117.528411300038	1118.5416762999955	1119.5605144000149	1120.9495185000123	2020-03-31 18:02:45.580544	13.7247311007528	-16.2052981006994	0.0	-1.99099702676632	-13.7247311007528	0.0	-13.7247311007528	0.0	-16.2052981006994	0.0	-13.7247311007528	-18.6720810611386	9.053055606755542	-12.52712334528589	2.6376108743584523	0.12835719799743472	-12.320978630855612	2.6376108743584523	-18.275979332674783	-0.31515607487080854	-9.368211681626349	1.7828605692147521	-11.672373040142187	3	correct	1.0
113.07838820002496	8.503549900022108	go_reward	0.3278614999726414	113.10063330002583	114.54676820000157	117.08892650005862	1.446134899975732	114.10882760002266	116.06809910002619	120.14724359998911	0.43794059997890145	1.0208274000324309	1.4569396000588313	119.13440149999212	0.6101711000083014	118.10632540006179	2	1	14	3	go_reward	0	0	1	1	1	1	0	0.0	1.0	0	0.3278614999726414	0.6101711000083014	1007.892729299958	1120.9933625999838	1122.0015568999806	1122.4394974999595	1123.9608283999842	1124.9816558000166	1125.9990547000198	1127.02713079995	1128.039972899947	1129.496912500006	2020-03-31 18:02:45.580544	6.83760998611874	2.45754200393635	0.0	2.45754200393635	6.83760998611874	0.0	-6.83760998611874	2.45754200393635	0.0	6.83760998611874	0.0	-2.45754200393635	2.1659344921214814	6.1357167593498625	2.6376108743584523	4.576896228700105	8.241362456015928	2.6376108743584523	-2.061440275472534	6.522453911247932	4.356519419126451	4.240402573151102	4.532925060557216	3	correct	1.0
121.62357439997106	8.172007000074018	go_reward	0.395619299961254	121.64581949997194	123.12291600008018	125.66964950005047	1.477096500108246	122.65087470004812	124.64505639998231	128.7147438999965	0.47204130003206046	1.0245931000681594	1.1030826000494471	127.70153459999699	0.519259599968791	126.68826089997299	2	1	15	3	go_reward	1	1	0	1	1	1	0	0.0	1.0	1	0.395619299961254	0.519259599968791	1007.892729299958	1129.53854879993	1130.543604000006	1131.0156453000382	1132.5377856999403	1133.5623788000084	1134.580990199931	1135.594263899955	1136.6074731999545	1137.710555800004	2020-03-31 18:02:45.580544	3.89820504006181	0.404099875728469	0.0	0.404099875728469	3.89820504006181	0.0	-3.89820504006181	0.404099875728469	0.0	3.89820504006181	0.0	2.083299570240411	-0.7734704539354489	4.082274631141981	2.6376108743584523	2.5234541004922235	5.3019575099589975	2.6376108743584523	2.4794012987042278	3.583048965191001	4.356519419126451	2.186960444943221	4.532925060557216	3	correct	1.0
129.82041769998602	9.14848550001625	go_punish	0.2175479000434279	129.8426627999869	131.88383090007108	134.44273500004772	2.041168100084178	130.84232140006486	133.4225430000805	137.49140579998482	1.0415095000062138	1.02019199996721	1.4997425000183284	136.4783076000166	0.5205959000159055	135.4610394000773	2	1	16	1	go_punish	1	0	-1	1	1	1	0	0.0	1.0	0	0.2175479000434279	0.5205959000159055	1007.892729299958	1137.7353920999449	1138.7350507000228	1139.776560200029	1141.3152723000385	1142.3354643000057	1143.3537687000353	1144.3710368999746	1145.3841350999428	1146.8838775999611	2020-03-31 18:02:45.580544	3.3063309874516	0.0	0.0	0.0	3.3063309874516	0.0	-3.3063309874516	0.0	0.0	3.3063309874516	0.0	0.0	-1.3653445065456586	3.6781747554135125	2.6376108743584523	2.1193542247637547	4.710083457348788	2.6376108743584523	0.3961017284638164	2.9911749125807914	4.356519419126451	1.7828605692147521	4.532925060557216	3	correct	1.0
139.01541580003675	8.25667929998599	go_reward	0.2248953999951481	139.03766090003762	140.8395043000345	143.38036900002032	1.8018433999968693	140.04798679996713	142.3650799000169	146.42552819999412	0.7915175000673571	1.0152891000034288	0.868812000029493	145.42296160000853	0.4805163000710308	144.3940658000064	2	1	17	3	go_reward	1	1	0	1	1	1	1	1.0	1.0	1	0.2248953999951481	0.4805163000710308	1007.892729299958	1146.9303901999956	1147.940716099925	1148.7322335999925	1150.2578091999749	1151.2730982999783	1152.2867950999644	1153.3156908999665	1154.318257499952	1155.1870694999816	2020-03-31 18:02:45.580544	6.41422605725032	2.16531496218267	0.0	2.16531496218267	6.41422605725032	0.0	-6.41422605725032	2.16531496218267	0.0	6.41422605725032	0.0	0.32208448378621	1.7425505632530616	5.843489717596182	2.6376108743584523	4.284669186946425	7.817978527147508	2.6376108743584523	0.7181862122500264	6.099069982379512	4.356519419126451	3.948175531397422	4.532925060557216	3	correct	1.0
147.29703969997365	9.477610700065043	nogo_reward	0.4050295000197366	147.31928479997453	150.29754329996638	152.84698989999004	2.9782584999918527	148.32954439998127	151.82815459999244	155.88059239997517	1.9679988999851048	1.0188352999975905	0.9163031000643969	154.87774700007833	0.4970080000348389	153.85949030006293	2	1	18	4	nogo_reward	1	0	1	0	1	0	0	0.0	1.0	0	0.4050295000197366	0.4970080000348389	1007.892729299958	1155.2120140999325	1156.2222736999393	1158.1902725999244	1159.7208838999504	1160.739719199948	1161.752219600021	1162.7704763000363	1163.7733216999331	1164.6896247999975	2020-03-31 18:02:45.580544	6.4043241214104	2.15896849550917	0.0	2.15896849550917	6.4043241214104	0.0	-6.4043241214104	2.15896849550917	0.0	6.4043241214104	0.0	-2.15896849550917	1.7326486274131412	5.837143250922683	2.6376108743584523	4.278322720272925	7.808076591307588	2.6376108743584523	-1.7628667670453535	6.089168046539592	4.356519419126451	3.941829064723922	4.532925060557216	3	correct	1.0
156.79987210000388	8.41418820002582	go_punish	0.6642294999910519	156.82211720000475	158.3952197000616	160.92633020004712	1.573102500056848	157.83248930005345	159.91736099997058	163.99304079997808	0.5627304000081494	1.0089692000765353	1.2432646000524983	162.9736350000602	0.6558207001071423	161.94584890000954	2	1	19	1	go_punish	1	0	-1	1	1	1	0	0.0	1.0	0	0.6642294999910519	0.6558207001071423	1007.892729299958	1164.7148464999627	1165.7252186000114	1166.2879490000196	1167.8100902999286	1168.819059500005	1169.8385781999675	1170.8663643000182	1171.885770099936	1173.1290346999886	2020-03-31 18:02:45.580544	3.3063309874516	0.0	0.0	0.0	3.3063309874516	0.0	-3.3063309874516	0.0	0.0	3.3063309874516	0.0	0.0	-1.3653445065456586	3.6781747554135125	2.6376108743584523	2.1193542247637547	4.710083457348788	2.6376108743584523	0.3961017284638164	2.9911749125807914	4.356519419126451	1.7828605692147521	4.532925060557216	3	correct	1.0
165.24003480002273	8.128519200021401	go_punish	0.4346905000275001	165.2622799000236	166.59074969997152	169.14149180008087	1.328469799947925	166.26293049997173	168.12196290004033	172.17223570006888	0.32781919999979436	1.019528900040541	1.2185633999761194	171.16818370006501	0.3417468999978155	170.1586098000406	2	1	20	1	go_punish	1	0	-1	1	1	1	0	0.0	1.0	0	0.4346905000275001	0.3417468999978155	1007.892729299958	1173.1550091999816	1174.1556597999297	1174.4834789999295	1176.0146921999983	1177.0342211000388	1178.0513390999986	1179.060913000023	1180.0649650000269	1181.283528400003	2020-03-31 18:02:45.580544	3.3063309874516	0.0	0.0	0.0	3.3063309874516	0.0	-3.3063309874516	0.0	0.0	3.3063309874516	0.0	0.0	-1.3653445065456586	3.6781747554135125	2.6376108743584523	2.1193542247637547	4.710083457348788	2.6376108743584523	0.3961017284638164	2.9911749125807914	4.356519419126451	1.7828605692147521	4.532925060557216	3	correct	1.0
173.41309889999673	8.329818999976851	go_reward	0.2727381000295281	173.4353439999976	175.18182649998914	177.7411195000169	1.7464824999915436	174.45443949999742	176.71768280002277	180.79673790000368	0.7273869999917224	1.0234366999941358	0.9684250999707729	179.78368370002124	0.4354701000265777	178.75710519996926	2	1	21	3	go_reward	1	1	0	1	1	1	0	0.0	1.0	1	0.2727381000295281	0.4354701000265777	1007.892729299958	1181.3280732999556	1182.3471687999554	1183.0745557999471	1184.6104120999807	1185.6338487999749	1186.6498344999272	1187.6764129999792	1188.6894671999617	1189.6578922999324	2020-03-31 18:02:45.580544	6.77890531920925	2.41721166532851	0.0	2.41721166532851	6.77890531920925	0.0	-6.77890531920925	2.41721166532851	0.0	6.77890531920925	0.0	0.0701877806403699	2.1072298252119914	6.095386420742022	2.6376108743584523	4.536565890092264	8.182657789106438	2.6376108743584523	0.4662895091041863	6.463749244338442	4.356519419126451	4.200072234543262	4.532925060557216	3	correct	1.0
181.76679120003234	8.798135099932324	nogo_reward	0.2985055999597534	181.78903630003322	183.64997620007478	186.18478440004412	1.8609399000415578	182.80035809997923	185.18073710007582	189.23434750002332	0.8496181000955403	1.004047299968306	1.3528238999422229	188.22084139997594	0.6204683999530971	187.1911039999685	2	1	22	4	nogo_reward	1	0	1	0	1	0	0	0.0	1.0	0	0.2985055999597534	0.6204683999530971	1007.892729299958	1189.6817655999912	1190.6930873999372	1191.5427055000328	1193.0734664000338	1194.077513700002	1195.0838332999265	1196.113570699934	1197.1270767999813	1198.4799006999235	2020-03-31 18:02:45.580544	3.80685852521216	0.342486489074016	0.0	0.342486489074016	3.80685852521216	0.0	-3.80685852521216	0.342486489074016	0.0	3.80685852521216	0.0	-0.342486489074016	-0.8648169687850986	4.0206612444875285	2.6376108743584523	2.4618407138377707	5.210610995109349	2.6376108743584523	0.053615239389800395	3.4917024503413514	4.356519419126451	2.125347058288768	4.532925060557216	3	correct	1.0
190.60876950004592	9.489374199998338	go_reward	0.3167145999614149	190.6310146000468	193.3247406000736	195.86925410001993	2.6937260000267997	191.63109909999173	194.8439735000719	198.93366950005282	1.693641500081867	1.0252805999480188	1.186719299992319	197.92043349996663	0.557407799991779	196.8883065000408	2	1	23	3	go_reward	1	1	0	1	1	1	1	0.0	0.0	1	0.3167145999614149	0.557407799991779	1007.892729299958	1198.5237439000048	1199.5238283999497	1201.2174699000316	1202.73670280003	1203.761983399978	1204.7810357999988	1205.8131627999246	1206.8263988000108	1208.013118100003	2020-03-31 18:02:45.580544	6.85326106731327	2.46749075881663	0.0	2.46749075881663	6.85326106731327	0.0	-6.85326106731327	2.46749075881663	0.0	6.85326106731327	0.0	0.019908687152249804	2.1815855733160117	6.145665514230142	2.6376108743584523	4.586844983580384	8.257013537210458	2.6376108743584523	0.4160104156160662	6.538104992442462	4.356519419126451	4.250351328031382	4.532925060557216	3	wrong	1.0
200.14086829998985	9.60354250005912	go_reward	0.2523158999392763	200.16311339999072	202.9273154999829	205.4770272000461	2.7642020999921897	201.16005910001684	204.4528841000282	208.52335040003516	1.7672563999660724	1.024143100017909	1.243305500014685	207.51014550006914	0.5750961999874562	206.48138040001493	2	1	24	3	go_reward	1	1	0	1	1	1	0	0.0	1.0	1	0.2523158999392763	0.5750961999874562	1007.892729299958	1208.0558426999487	1209.0527883999748	1210.820044799941	1212.3456133999862	1213.369756500004	1214.374109699973	1215.4028748000271	1216.4160796999931	1217.6593852000078	2020-03-31 18:02:45.580544	6.87288929071636	2.48045534461035	0.0	2.48045534461035	6.87288929071636	0.0	-6.87288929071636	2.48045534461035	0.0	6.87288929071636	0.0	0.006944101358529853	2.2012137967191014	6.158630100023863	2.6376108743584523	4.599809569374105	8.276641760613549	2.6376108743584523	0.40304582982234627	6.557733215845552	4.356519419126451	4.263315913825102	4.532925060557216	3	correct	1.0
209.76902200002212	8.060960900038708	go_punish	0.3541217000456527	209.791267100023	211.35438250005234	213.91658690001339	1.5631154000293463	210.80159410007752	212.8881575000704	216.95105959998898	0.5527883999748155	1.0284293999429792	0.90116840007272	215.94303009996645	0.4926207999233156	214.93110669997952	2	1	25	1	go_punish	0	-1	0	1	1	1	0	0.0	1.0	-1	0.3541217000456527	0.4926207999233156	1007.892729299958	1217.683996399981	1218.6943234000355	1219.2471118000103	1220.7808868000284	1221.8093161999714	1222.8238359999375	1223.8357593999244	1224.843788899947	1225.7449573000197	2020-03-31 18:02:45.580544	3.3063309874516	0.0	0.0	0.0	3.3063309874516	0.0	-3.3063309874516	0.0	0.0	3.3063309874516	0.0	-18.6720810611386	-1.3653445065456586	3.6781747554135125	2.6376108743584523	2.1193542247637547	4.710083457348788	2.6376108743584523	-18.275979332674783	2.9911749125807914	4.356519419126451	1.7828605692147521	4.532925060557216	3	correct	1.0
217.8570374000118	8.219938599970192	go_punish	0.3441565000684932	217.87928250001266	219.7505375000179	222.2952406000112	1.8712550000052488	218.8874393000732	221.2743438000324	225.33513410005241	0.8630981999447158	1.0208967999788001	0.7640869999304414	224.32227660005435	0.3363630999810993	223.3011213999706	2	1	26	1	go_punish	1	0	-1	1	1	1	0	0.0	1.0	0	0.3441565000684932	0.3363630999810993	1007.892729299958	1225.7720117999706	1226.7801686000312	1227.643266799976	1229.1670730999904	1230.1879698999692	1231.1938506999286	1232.2150059000123	1233.2278634000104	1233.9919503999408	2020-03-31 18:02:45.580544	-19.3853569482875	-16.2052981006994	0.0	-16.2052981006994	-19.3853569482875	0.0	19.3853569482875	-16.2052981006994	0.0	-19.3853569482875	0.0	16.2052981006994	-24.05703244228476	-12.52712334528589	2.6376108743584523	-14.085943875935648	-17.981604478390313	2.6376108743584523	16.601399829163217	-19.70051302315831	4.356519419126451	-14.42243753148465	4.532925060557216	3	correct	1.0
226.10293809999723	8.561608000076149	go_punish	0.2928047999739647	226.1251831999981	227.6887009000635	230.24346050003066	1.563517700065404	227.126069299993	229.21894940000482	233.27081600006193	0.5626316000705174	1.0245111000258476	1.4159752000123262	232.26756379997812	0.4446861000033095	231.24693929997727	2	1	27	1	go_punish	0	-1	0	1	1	1	1	1.0	1.0	-1	0.2928047999739647	0.4446861000033095	1007.892729299958	1234.017912499956	1235.018798599951	1235.5814302000215	1237.1116786999628	1238.1361897999886	1239.1396685999352	1240.160293099936	1241.16354530002	1242.5795205000322	2020-03-31 18:02:45.580544	0.489569973180217	-1.99099702676632	0.0	-1.99099702676632	0.489569973180217	0.0	-0.489569973180217	-1.99099702676632	0.0	0.489569973180217	0.0	-16.68108403437228	-4.182105520817042	1.6871777286471925	2.6376108743584523	0.12835719799743472	1.8933224430774052	2.6376108743584523	-16.284982305908464	0.17441389830940845	4.356519419126451	-0.20813645755156784	4.532925060557216	3	correct	1.0
234.68932830006804	9.582168699940667	go_punish	0.304045099997893	234.71157340006891	237.24345020006865	239.78461360000063	2.5318767999997362	235.72244300006412	238.76478880003572	242.83153530000698	1.521007200004533	1.0198247999649084	1.4622068000026047	241.8182846000417	0.3842583999503404	240.79341819998797	2	1	28	1	go_punish	1	0	-1	1	1	1	1	1.0	1.0	0	0.304045099997893	0.3842583999503404	1007.892729299958	1242.604302700027	1243.615172300022	1245.1361795000266	1246.6575180999937	1247.6773428999586	1248.686147499946	1249.7110138999997	1250.724264599965	1252.1864713999676	2020-03-31 18:02:45.580544	-19.8964124009388	-16.5590737598043	0.0	-16.5590737598043	-19.8964124009388	0.0	19.8964124009388	-16.5590737598043	0.0	-19.8964124009388	0.0	16.5590737598043	-24.56808789493606	-12.880899004390788	2.6376108743584523	-14.439719535040545	-18.49265993104161	2.6376108743584523	16.955175488268114	-20.21156847580961	4.356519419126451	-14.776213190589548	4.532925060557216	3	correct	1.0
244.31655790004868	8.854864599998109	go_reward	0.3589785000076517	244.33880300004955	246.17972640006326	248.73724200006097	1.8409234000137076	245.34478140005365	247.7127351000671	251.78226540004823	0.8349450000096112	1.0245068999938667	1.4114021999994293	250.7795284000457	0.4165056999772787	249.75220490002528	2	1	29	3	go_reward	1	1	0	1	1	1	0	0.0	1.0	1	0.3589785000076517	0.4165056999772787	1007.892729299958	1252.2315323000075	1253.2375107000116	1254.0724557000212	1255.605464400025	1256.629971300019	1257.6449341999833	1258.6722577000037	1259.6749947000062	1261.0863969000056	2020-03-31 18:02:45.580544	6.87926024275336	2.48457025962089	0.0	2.48457025962089	6.87926024275336	0.0	-6.87926024275336	2.48457025962089	0.0	6.87926024275336	0.0	0.0028291863479901203	2.2075847487561013	6.162745015034402	2.6376108743584523	4.6039244843846445	8.283012712650548	2.6376108743584523	0.39893091481180654	6.564104167882552	4.356519419126451	4.267430828835642	4.532925060557216	3	correct	1.0
253.21389929996792	9.084005600074306	go_reward	0.417945499997586	253.2361443999688	255.67372870002862	258.2310822000726	2.437584300059825	254.24601620004967	257.2106264000755	261.26290349999897	1.427712499978952	1.0204557999970802	1.0572465000441298	260.2606860999948	0.4911708999425173	259.24729670002114	2	1	30	3	go_reward	0	0	1	1	1	1	0	0.0	1.0	0	0.417945499997586	0.4911708999425173	1007.892729299958	1261.1288736999268	1262.1387455000076	1263.5664579999866	1265.1033557000335	1266.1238115000306	1267.1400259999791	1268.1534153999528	1269.155632799957	1270.212879300001	2020-03-31 18:02:45.580544	6.88169096550623	2.4861100861219	0.0	2.4861100861219	6.88169096550623	0.0	-6.88169096550623	2.4861100861219	0.0	6.88169096550623	0.0	-2.4861100861219	2.2100154715089717	6.164284841535412	2.6376108743584523	4.6054643108856546	8.285443435403419	2.6376108743584523	-2.0900083576580837	6.566534890635422	4.356519419126451	4.268970655336652	4.532925060557216	3	correct	1.0
262.34173230000295	7.985737300012261	nogo_punish	1.0	262.3639774000038	264.0185396000742	266.5350121000082	1.6545622000703588	263.36042230005853	265.5242905999763	269.59052169998165	0.6581173000156468	1.0107215000318774	0.7591930000344291	268.58715979999386	0.6195238999789581	267.5521296000803	2	1	31	2	nogo_punish	1	-1	0	0	0	1	0	0.0	1.0	0	1.0	0.6195238999789581	1007.892729299958	1270.2567066999618	1271.2531516000165	1271.9112689000322	1273.4170198999343	1274.4277413999662	1275.4448589000383	1276.4798890999518	1277.4832509999396	1278.242443999974	2020-03-31 18:02:45.580544	3.33733864113449	-16.2052981006994	-16.2052981006994	-16.5590737598043	-19.5426367418339	-16.2052981006994	-3.33733864113449	-16.2052981006994	-16.2052981006994	-16.2052981006994	-19.5426367418339	16.2052981006994	-1.3343368528627688	-12.52712334528589	-13.567687226340949	-14.439719535040545	-18.13888427193671	-13.567687226340949	16.601399829163217	-16.52045417557021	-15.186117322707448	-14.42243753148465	-11.672373040142187	3	correct	1.0
270.3505808999761	9.03866340010427	nogo_reward	0.3003361000446602	270.37282599997695	272.3342673999722	274.86901859997295	1.9614413999952376	271.376240100013	273.85912050004106	277.93396439997	0.9580272999592125	1.0098980999318883	1.4775250001112	276.9207649000451	0.4064155000960454	275.8872778000076	2	1	32	4	nogo_reward	1	0	1	0	1	0	0	0.0	1.0	0	0.3003361000446602	0.4064155000960454	1007.892729299958	1278.265555299935	1279.268969399971	1280.2269966999302	1281.751849799999	1282.761747899931	1283.7800070999656	1284.813494200003	1285.826693699928	1287.3042187000392	2020-03-31 18:02:45.580544	3.42145335331511	0.0768061110614125	0.0	0.0768061110614125	3.42145335331511	0.0	-3.42145335331511	0.0768061110614125	0.0	3.42145335331511	0.0	-0.0768061110614125	-1.2502221406821485	3.754980866474925	2.6376108743584523	2.196160335825167	4.825205823212299	2.6376108743584523	0.3192956174024039	3.1062972784443015	4.356519419126451	1.8596666802761646	4.532925060557216	3	correct	1.0
279.43281250004645	8.001666800002795	nogo_punish	1.0	279.4550576000473	280.8526651000137	283.37081230001047	1.3976074999663979	280.46233600005496	282.3580653000389	286.40892900002643	0.3903290999587625	1.0127469999715686	1.0477954000236878	285.4050278000069	0.6127009999472648	284.38614139996923	2	1	33	2	nogo_punish	0	0	-1	0	0	1	1	0.0	0.0	-1	1.0	0.6127009999472648	1007.892729299958	1287.3477869000053	1288.355065300013	1288.7453943999717	1290.2507945999969	1291.2635415999684	1292.2788706999272	1293.2977570999649	1294.3016582999844	1295.349453700008	2020-03-31 18:02:45.580544	11.7734763062744	-16.2052981006994	-1.99099702676632	-2.07391189252276	-13.7644733330407	-1.99099702676632	-11.7734763062744	-1.99099702676632	-16.2052981006994	-1.99099702676632	-13.7644733330407	-16.68108403437228	7.101800812277141	-12.52712334528589	0.6466138475921324	0.0454423322409947	-12.360720863143511	0.6466138475921324	-16.284982305908464	-2.3061531016371286	-9.407953913914248	-0.20813645755156784	-11.672373040142187	3	wrong	1.0
287.47840889997326	8.388107000035006	go_reward	0.3757426000665873	287.50065399997413	289.0708211000309	291.61615120002523	1.5701671000567785	288.50812880008004	290.60133049997955	294.6611347000579	0.5626922999508679	1.014820700045675	1.2276262999512255	293.64783989998966	0.4658612000057474	292.6299443000461	2	1	34	3	go_reward	1	1	0	1	1	1	0	0.0	1.0	1	0.3757426000665873	0.4658612000057474	1007.892729299958	1295.393383299932	1296.400858100038	1296.963550399989	1298.4940597999375	1299.5088804999832	1300.522673600004	1301.5405691999476	1302.553864000016	1303.7814902999671	2020-03-31 18:02:45.580544	3.91466342998666	0.414537769526388	0.0	0.414537769526388	3.91466342998666	0.0	-3.91466342998666	0.414537769526388	0.0	3.91466342998666	0.0	2.072861676442492	-0.7570120640105986	4.0927125249399	2.6376108743584523	2.533891994290143	5.318415899883848	2.6376108743584523	2.468963404906308	3.5995073551158514	4.356519419126451	2.19739833874114	4.532925060557216	3	correct	1.0
295.8895817999727	8.884627100080252	nogo_reward	0.3777909999480471	295.91182689997356	297.88302110007487	300.4070449999998	1.9711942001013085	296.9149622999829	299.3991158000425	303.4431833999696	0.968058800091967	1.0079291999572888	1.3532706000842154	302.4346033000621	0.4838012000545859	301.4138292999704	2	1	35	4	nogo_reward	1	0	1	0	1	0	0	0.0	1.0	0	0.3777909999480471	0.4838012000545859	1007.892729299958	1303.8045561999315	1304.8076915999409	1305.7757504000328	1307.2918451000005	1308.2997742999578	1309.3065585999284	1310.32733260002	1311.3359126999276	1312.6891833000118	2020-03-31 18:02:45.580544	3.34075000141235	0.0223855451934427	0.0	0.0223855451934427	3.34075000141235	0.0	-3.34075000141235	0.0223855451934427	0.0	3.34075000141235	0.0	-0.0223855451934427	-1.3309254925849086	3.700560300606955	2.6376108743584523	2.1417397699571974	4.744502471309538	2.6376108743584523	0.3737161832703737	3.0255939265415415	4.356519419126451	1.8052461144081948	4.532925060557216	3	correct	1.0
304.8003924000076	8.42068450001534	go_punish	0.4101942999986931	304.82263750000845	306.19352710002556	308.7316989999962	1.370889600017108	305.83150690002356	307.71089310001105	311.7655116000677	0.3620202000020072	1.0208058999851346	1.4778103999560699	310.76251450006373	0.6618610000004992	309.7497146000386	2	1	36	1	go_punish	1	0	-1	1	1	1	0	0.0	1.0	0	0.4101942999986931	0.6618610000004992	1007.892729299958	1312.7153667999664	1313.7242361999815	1314.0862563999835	1315.603622399969	1316.6244282999542	1317.6424438999966	1318.6552438000217	1319.6582409000257	1321.1360512999818	2020-03-31 18:02:45.580544	0.366912875135903	-2.07391189252276	0.0	-2.07391189252276	0.366912875135903	0.0	-0.366912875135903	-2.07391189252276	0.0	0.366912875135903	0.0	2.07391189252276	-4.304762618861355	1.6042628628907525	2.6376108743584523	0.0454423322409947	1.7706653450330911	2.6376108743584523	2.4700136209865766	0.05175680026509444	4.356519419126451	-0.29105132330800787	4.532925060557216	3	correct	1.0
313.26352629996825	8.78714300005231	nogo_punish	1.0	313.2857713999691	315.112069100025	317.6406415000091	1.8262977000558749	314.2993833000072	316.6171412999971	320.68237060005765	0.812685800017789	1.0235002000119948	1.3905437999637797	319.6693439000518	0.4320655999472365	318.6447326000781	2	1	37	2	nogo_punish	0	0	-1	0	0	1	0	0.0	1.0	-1	1.0	0.4320655999472365	1007.892729299958	1321.178500699927	1322.1921125999652	1323.004798399983	1324.509870599955	1325.533370799967	1326.537461900036	1327.5620732000098	1328.5750999000156	1329.9656436999794	2020-03-31 18:02:45.580544	2.99601953779037	-16.2052981006994	-16.5590737598043	-16.5833309039533	-19.5550932975947	-16.5590737598043	-2.99601953779037	-16.5590737598043	-16.2052981006994	-16.5590737598043	-19.5550932975947	-2.1130073013342994	-1.6756559562068887	-12.52712334528589	-13.921462885445846	-14.463976679189546	-18.15134082769751	-13.921462885445846	-1.716905572870483	-16.87422983467511	-15.198573878468247	-14.776213190589548	-11.672373040142187	3	correct	1.0
322.07384840003203	9.771306099952199	nogo_reward	0.251148400013335	322.0960935000329	324.92557020008087	327.46785540005646	2.8294767000479624	323.1080561999696	326.4458916999864	330.51071629999194	1.8175140001112595	1.0219637000700459	1.3566832999931648	329.49793620000116	0.3521719999844208	328.4854273999807	2	1	38	4	nogo_reward	1	0	1	0	1	0	0	0.0	1.0	0	0.251148400013335	0.3521719999844208	1007.892729299958	1329.9888227999909	1331.0007854999276	1332.8182995000388	1334.3386209999444	1335.3605847000144	1336.3781566999387	1337.3906654999591	1338.40344559995	1339.760128899943	2020-03-31 18:02:45.580544	3.318870379949	0.0079767593008862	0.0	0.0079767593008862	3.318870379949	0.0	-3.318870379949	0.0079767593008862	0.0	3.318870379949	0.0	-0.0079767593008862	-1.3528051140482589	3.686151514714399	2.6376108743584523	2.127330984064641	4.7226228498461875	2.6376108743584523	0.3881249691629302	3.003714305078191	4.356519419126451	1.7908373285156383	4.532925060557216	3	correct	1.0
331.8709035000064	9.209215100039728	go_punish	0.2798243999714032	331.8931486000073	334.5156931000528	337.04737240006205	2.6225445000454783	332.9016595999709	336.0502194999716	340.0935804999898	1.6140335000818595	0.9971529000904411	1.0087832000572234	339.0889749000779	0.7063147999579087	338.0633697999873	2	1	39	1	go_punish	1	0	-1	1	1	1	0	1.0	0.0	0	0.2798243999714032	0.7063147999579087	1007.892729299958	1339.7858778999653	1340.794388899929	1342.4084224000107	1343.9429487999296	1344.94010170002	1345.9560990999453	1346.981704200036	1347.9863097999478	1348.995093000005	2020-03-31 18:02:45.580544	2.75856183489053	-0.378032803253917	0.0	-0.378032803253917	2.75856183489053	0.0	-2.75856183489053	-0.378032803253917	0.0	2.75856183489053	0.0	0.378032803253917	-1.9131136591067288	3.3001419521595956	2.6376108743584523	1.7413214215098376	4.162314304787718	2.6376108743584523	0.7741345317177335	2.443405760019721	4.356519419126451	1.404827765960835	4.532925060557216	3	wrong	1.0
341.1236429000272	9.35272750002332	go_reward	0.2718742000870406	341.1458880000281	343.4448905000462	345.97693340003013	2.299002500018105	342.15896100003727	344.96185950003553	349.0255129999713	1.2859295000089332	1.0150738999946043	1.473102500080131	348.01269400003355	0.6028596999822184	346.9859331999904	2	1	40	3	go_reward	0	0	1	1	1	1	0	0.0	1.0	0	0.2718742000870406	0.6028596999822184	1007.892729299958	1349.038617299986	1350.0516902999952	1351.3376198000042	1352.8545887999935	1353.869662699988	1354.8786624999484	1355.9054232999915	1356.9182422999293	1358.3913448000094	2020-03-31 18:02:45.580544	6.42127579284971	2.16971021468827	0.0	2.16971021468827	6.42127579284971	0.0	-6.42127579284971	2.16971021468827	0.0	6.42127579284971	0.0	-2.16971021468827	1.7496002988524513	5.8478849701017825	2.6376108743584523	4.289064439452025	7.825028262746898	2.6376108743584523	-1.7736084862244537	6.106119717978902	4.356519419126451	3.952570783903022	4.532925060557216	3	correct	1.0
350.5017634000395	9.35382680001203	go_punish	0.3138836999423802	350.5240085000404	353.07495719997667	355.6353576000546	2.5509486999362707	351.53761790005944	354.61141210002813	358.66599190002296	1.537339299917221	1.023945500026457	1.2118434000294656	357.6526063000782	0.4268370999488979	356.6397935000713	2	1	41	1	go_punish	0	-1	0	1	1	1	1	1.0	1.0	-1	0.3138836999423802	0.4268370999488979	1007.892729299958	1358.4167377999984	1359.4303472000174	1360.9676864999346	1362.504141399986	1363.5280869000126	1364.5325228000293	1365.5453356000362	1366.558721199981	1367.7705646000104	2020-03-31 18:02:45.580544	3.17060983770636	-0.0913747393441963	0.0	-0.0913747393441963	3.17060983770636	0.0	-3.17060983770636	-0.0913747393441963	0.0	3.17060983770636	0.0	-18.580706321794402	-1.5010656562908986	3.5868000160693163	2.6376108743584523	2.0279794854195585	4.574362307603549	2.6376108743584523	-18.184604593330587	2.8554537628355514	4.356519419126451	1.6914858298705557	4.532925060557216	3	correct	1.0
359.89985689998105	8.5246097000786	go_reward	0.4015145999146625	359.9221019999819	361.5971282999959	364.14102980005543	1.6750263000139967	360.9292001000141	363.1305961000031	367.1755657000466	0.6679281999818159	1.0104337000523174	1.271146000013914	366.1662826000246	0.3351888000033796	365.1554117000197	2	1	42	3	go_reward	0	0	1	1	1	1	1	1.0	1.0	0	0.4015145999146625	0.3351888000033796	1007.892729299958	1367.81483129994	1368.821929399972	1369.489857599954	1371.023325399961	1372.0337591000134	1373.0481409999777	1374.0590118999826	1375.0682950000046	1376.3394410000185	2020-03-31 18:02:45.580544	3.81415623307478	0.34703301638891	0.0	0.34703301638891	3.81415623307478	0.0	-3.81415623307478	0.34703301638891	0.0	3.81415623307478	0.0	-0.34703301638891	-0.8575192609224787	4.025207771802423	2.6376108743584523	2.4663872411526646	5.217908702971968	2.6376108743584523	0.04906871207490643	3.4990001582039714	4.356519419126451	2.129893585603662	4.532925060557216	3	correct	1.0
368.4487038999795	8.72399920003977	nogo_reward	0.3520287999417633	368.47094899998035	370.69761859998096	373.2551114000381	2.226669600000605	369.4830472000177	372.23534999997344	376.320380500052	1.2145713999632335	1.0197614000646809	0.8745676999681109	375.3072229999817	0.4070891999872401	374.27862590004213	2	1	43	4	nogo_reward	1	0	1	0	1	0	0	0.0	1.0	0	0.3520287999417633	0.4070891999872401	1007.892729299958	1376.3636782999383	1377.3757764999757	1378.590347899939	1380.1280792999314	1381.147840699996	1382.1713552	1383.1999522999397	1384.21310980001	1385.087677499978	2020-03-31 18:02:45.580544	3.31160425295357	0.0032958259375021	0.0	0.0032958259375021	3.31160425295357	0.0	-3.31160425295357	0.0032958259375021	0.0	3.31160425295357	0.0	-0.0032958259375021	-1.3600712410436886	3.6814705813510145	2.6376108743584523	2.1226500507012567	4.715356722850759	2.6376108743584523	0.3928059025263143	2.9964481780827614	4.356519419126451	1.786156395152254	4.532925060557216	3	correct	1.0
377.21685229998536	8.918597500072792	nogo_punish	0.5794843001058325	377.23909739998624	379.1511381000745	381.69709630007844	1.912040700088255	378.24575790006213	380.6828543000157	384.7424129999707	0.9053802000123596	1.0142420000627226	1.4152819000883028	383.7304931000109	0.5699979999335483	382.7118350000818	2	1	44	2	nogo_punish	1	-1	0	0	1	0	0	0.0	1.0	-1	0.5794843001058325	0.5699979999335483	1007.892729299958	1385.1318266999442	1386.13848720002	1387.0438674000325	1388.5755835999737	1389.5898256000364	1390.6045643000398	1391.6232223999689	1392.6351422999287	1394.050424200017	2020-03-31 18:02:45.580544	-1.97625735297148	-16.2052981006994	-18.2792099932221	-18.2876698668099	-20.2554673461936	-18.2792099932221	1.97625735297148	-16.2052981006994	-18.2792099932221	-20.2554673461936	-18.2792099932221	-2.466782960439197	-6.647932846968739	-12.52712334528589	-15.641599118863647	-16.168315642046146	-18.851714876296413	-15.641599118863647	-2.0706812319753807	-20.57062342106441	-13.922690574095649	-14.42243753148465	-13.746284932664885	3	correct	1.0
386.1611679000779	9.047671599895693	nogo_reward	0.428400499979034	386.18341300007876	388.24233280005853	390.79113320005115	2.058919799979776	387.1894185000564	389.77153680007893	393.84707080002397	1.0529143000021577	1.0195963999722153	1.3840137999504805	392.8422853000228	0.5152232999680564	391.80853849998664	2	1	45	4	nogo_reward	1	0	1	0	1	0	1	1.0	1.0	0	0.428400499979034	0.5152232999680564	1007.892729299958	1394.0761423000367	1395.0821478000144	1396.1350621000165	1397.664266100037	1398.6838625000091	1399.7012677999446	1400.7350145999808	1401.739800099982	1403.1238138999324	2020-03-31 18:02:45.580544	3.30878505844273	0.0015132691316952	0.0	0.0015132691316952	3.30878505844273	0.0	-3.30878505844273	0.0015132691316952	0.0	3.30878505844273	0.0	-0.0015132691316952	-1.3628904355545286	3.6796880245452077	2.6376108743584523	2.12086749389545	4.712537528339919	2.6376108743584523	0.3945884593321212	2.9936289835719214	4.356519419126451	1.7843738383464474	4.532925060557216	3	correct	1.0
395.25235580001015	8.047683399985317	go_reward	0.5173615999519825	395.274600900011	396.82040129997756	399.38113059999876	1.545800399966538	396.2722631000214	398.35651539999515	402.406855600071	0.5481381999561563	1.024615200003609	0.9154286999253145	401.4024427999974	0.6866750000044703	400.38408160000097	2	1	46	3	go_reward	1	1	0	1	1	1	0	0.0	1.0	1	0.5173615999519825	0.6866750000044703	1007.892729299958	1403.167330199969	1404.1649923999794	1404.7131305999355	1406.2492446999531	1407.2738598999567	1408.276810899959	1409.2951720999554	1410.299584900029	1411.2150135999543	2020-03-31 18:02:45.580544	3.4249099020047	0.0789320588743763	0.0	0.0789320588743763	3.4249099020047	0.0	-3.4249099020047	0.0789320588743763	0.0	3.4249099020047	0.0	2.4084673870945035	-1.2467655919925589	3.757106814287889	2.6376108743584523	2.198286283638131	4.828662371901888	2.6376108743584523	2.80456911555832	3.109753827133891	4.356519419126451	1.8617926280891284	4.532925060557216	3	correct	1.0
403.34359850001044	8.14639220002573	go_reward	0.5264896999578923	403.3658436000113	404.7227850999917	407.27512480004214	1.356941499980394	404.3788602000569	406.25364060001436	410.3159510999684	0.34392489993479103	1.0214842000277713	1.1962847000686452	409.3025644000153	0.4923989999806508	408.2904057999841	2	1	47	3	go_reward	1	1	0	1	1	1	0	0.0	1.0	1	0.5264896999578923	0.4923989999806508	1007.892729299958	1411.2585728999693	1412.271589500015	1412.6155143999497	1414.1463698999723	1415.1678541	1416.183135099942	1417.1952936999733	1418.2086803999264	1419.404965099995	2020-03-31 18:02:45.580544	6.31057579663874	2.09567747761814	0.0	2.09567747761814	6.31057579663874	0.0	-6.31057579663874	2.09567747761814	0.0	6.31057579663874	0.0	0.39172196835074	1.6389003026414812	5.773852233031652	2.6376108743584523	4.215031702381895	7.714328266535928	2.6376108743584523	0.7878236968145564	5.995419721767932	4.356519419126451	3.878538046832892	4.532925060557216	3	correct	1.0
411.53109479998227	9.476444800035097	nogo_punish	1.0	411.55333989998314	414.32618209999043	416.85177990002546	2.7728422000072896	412.55398670001875	415.8417766999918	419.9015560999977	1.7721953999716789	1.0100032000336796	1.1282286000205204	418.88781270000607	0.3145644000032916	417.86534000001836	2	1	48	2	nogo_punish	1	-1	0	0	0	1	0	0.0	1.0	0	1.0	0.3145644000032916	1007.892729299958	1419.4460691999411	1420.4467159999767	1422.2189113999484	1423.7345059999498	1424.7445091999834	1425.7580692999763	1426.780541999964	1427.7942853999557	1428.9225139999762	2020-03-31 18:02:45.580544	4.09457032086577	-18.1962951274657	-18.2792099932221	-18.5777052559029	-22.3737803140879	-18.2792099932221	-4.09457032086577	-18.2792099932221	-18.1962951274657	-18.2792099932221	-22.3737803140879	18.2792099932221	-0.5771051731314882	-14.518120372052188	-15.641599118863647	-16.458351031139145	-20.97002784419071	-15.641599118863647	18.675311721685915	-18.59436606809291	-18.017260894961446	-16.49634942400735	-13.663370066908485	3	correct	1.0
421.0333862999686	8.447296800091863	go_punish	0.5386366000166163	421.05563139996946	422.90514070005145	425.4456186000024	1.8495093000819907	422.0604128000558	424.4251065000425	428.47816689999297	0.8447278999956325	1.0205120999598876	1.0247613000683486	427.4701597000238	0.5481019000289962	426.45153550000384	2	1	49	1	go_punish	1	0	-1	1	1	1	0	0.0	1.0	0	0.5386366000166163	0.5481019000289962	1007.892729299958	1428.9483606999274	1429.9531421000138	1430.7978700000094	1432.3178358000005	1433.3383478999604	1434.3442647999618	1435.3628889999818	1436.370896199951	1437.3956575000193	2020-03-31 18:02:45.580544	-19.4273739756024	-16.2329325700317	0.0	-16.2329325700317	-19.4273739756024	0.0	19.4273739756024	-16.2329325700317	0.0	-19.4273739756024	0.0	16.2329325700317	-24.09904946959966	-12.554757814618188	2.6376108743584523	-14.113578345267946	-18.02362150570521	2.6376108743584523	16.629034298495515	-19.74253005047321	4.356519419126451	-14.450072000816949	4.532925060557216	3	correct	1.0
429.52530009998	7.8744636999908835	go_reward	0.4625041999388486	429.54754519998085	430.91237110004283	433.45407330000296	1.3648259000619873	430.55380640004284	432.4403935000299	436.5154416000004	0.3585646999999881	1.0136797999730334	0.906567299971357	435.50205750006705	0.4561222000047564	434.4735674000111	2	1	50	3	go_reward	1	1	0	1	1	1	0	0.0	1.0	1	0.4625041999388486	0.4561222000047564	1007.892729299958	1437.4402744999388	1438.4465357000008	1438.8051004000008	1440.333122799988	1441.346802599961	1442.366296699969	1443.394786800025	1444.4081708999583	1445.3147381999297	2020-03-31 18:02:45.580544	6.74983195057422	2.39812182331341	0.0	2.39812182331341	6.74983195057422	0.0	-6.74983195057422	2.39812182331341	0.0	6.74983195057422	0.0	0.0892776226554699	2.078156456576961	6.0762965787269225	2.6376108743584523	4.517476048077165	8.153584420471407	2.6376108743584523	0.4853793511192863	6.4346758757034115	4.356519419126451	4.180982392528162	4.532925060557216	3	correct	1.0
437.42354570003215	8.875019100029022	nogo_reward	0.5359946000389755	437.445790800033	439.4567555000541	441.99210659996595	2.010964700021077	438.4570700000039	440.9718704000114	445.0528147000583	0.999685500050191	1.0202361999545246	1.2679952000037247	444.0400514000793	0.4944344999967143	443.0164315999717	2	1	51	4	nogo_reward	1	0	1	0	1	0	0	0.0	1.0	0	0.5359946000389755	0.4944344999967143	1007.892729299958	1445.338520099991	1446.349799299962	1447.349484800012	1448.8645996999694	1449.884835899924	1450.9091608999297	1451.9327807000373	1452.9455440000163	1454.21353920002	2020-03-31 18:02:45.580544	3.30755759128773	0.0007486950012039	0.0	0.0007486950012039	3.30755759128773	0.0	-3.30755759128773	0.0007486950012039	0.0	3.30755759128773	0.0	-0.0007486950012039	-1.3641179027095287	3.6789234504147164	2.6376108743584523	2.1201029197649586	4.711310061184918	2.6376108743584523	0.3953530334626125	2.9924015164169213	4.356519419126451	1.783609264215956	4.532925060557216	3	correct	1.0
446.3420693000079	9.589497399982065	nogo_punish	1.0	446.36431440000877	448.9289633000734	451.4657771000635	2.5646489000646397	447.3630907000039	450.4463689000112	454.50714820006385	1.565872600069497	1.0194082000523395	1.4466635999269783	453.49452279997047	0.3222899000393227	452.47663270006876	2	1	52	2	nogo_punish	1	-1	0	0	0	1	0	0.0	1.0	0	1.0	0.3222899000393227	1007.892729299958	1454.2570436999667	1455.255819999962	1456.8216926000314	1458.3390981999692	1459.3585064000215	1460.3693620000267	1461.3872520999284	1462.3998775000218	1463.8465410999488	2020-03-31 18:02:45.580544	13.549207606591	-18.1962951274657	-2.36902983002024	-2.43764000194655	-15.9182374366112	-2.36902983002024	-13.549207606591	-2.36902983002024	-18.1962951274657	-2.36902983002024	-15.9182374366112	2.36902983002024	8.877532112593741	-14.518120372052188	0.2685810443382124	-0.3182857771827954	-14.514484966714011	0.2685810443382124	2.7651315584840566	-2.6841859048910486	-11.561718017484749	-0.5861692608054878	-13.663370066908485	3	correct	1.0
455.97384710004565	8.505367100005742	nogo_punish	1.0	455.9960922000465	457.66611250000994	460.20164470002044	1.6700202999634257	457.00416720006604	459.18169920006756	463.2514361999928	0.661945299943909	1.0199454999528825	1.2500231000594795	462.2370967000023	0.5975075999740511	461.2203024000629	2	1	53	2	nogo_punish	1	-1	0	0	0	1	0	0.0	1.0	0	1.0	0.5975075999740511	1007.892729299958	1463.8888215000045	1464.896896500024	1465.558841799968	1467.0744285000255	1468.0943739999784	1469.1130317000209	1470.1298259999603	1471.1441654999508	1472.3941886000102	2020-03-31 18:02:45.580544	14.6566518529166	-18.1962951274657	-0.445150398449105	-0.465036799076236	-15.1018022513657	-0.445150398449105	-14.6566518529166	-0.445150398449105	-18.1962951274657	-0.445150398449105	-15.1018022513657	0.445150398449105	9.98497635891934	-14.518120372052188	2.192460475909347	1.6543174256875186	-13.698049781468512	2.192460475909347	0.8412521269129214	-0.7603064733199135	-10.74528283223925	1.3377101707656471	-13.663370066908485	3	correct	1.0
464.5205188000108	8.307567700045183	nogo_punish	1.0	464.54276390001166	465.96465239999804	468.4865164000074	1.4218884999863803	465.5433183000422	467.4763436000793	471.5303306999848	0.4213340999558568	1.0101727999281138	1.3200009000720456	470.5168855000521	0.316223100060597	469.5045633000551	2	1	54	2	nogo_punish	1	-1	0	0	0	1	1	1.0	1.0	0	1.0	0.316223100060597	1007.892729299958	1472.4354931999696	1473.4360476000002	1473.857381699956	1475.3690729000373	1476.3792456999654	1477.397292600013	1478.40961480001	1479.4230599999428	1480.7430609000148	2020-03-31 18:02:45.580544	14.8373249821139	-18.1962951274657	-0.110549335088729	-0.117484035071031	-14.9478743172026	-0.110549335088729	-14.8373249821139	-0.110549335088729	-18.1962951274657	-0.110549335088729	-14.9478743172026	0.110549335088729	10.165649488116642	-14.518120372052188	2.5270615392697233	2.0018701896927236	-13.544121847305412	2.5270615392697233	0.5066510635525454	-0.42570540995953754	-10.59135489807615	1.6723112341260231	-13.663370066908485	3	correct	1.0
472.85399229999155	8.297092700028088	go_punish	0.8730137000093237	472.8762373999924	474.3766874000429	476.9196817000628	1.5004500000504777	473.8771329000591	475.9080701000056	479.96117949997995	0.49955449998378754	1.011611600057222	1.2121506000405589	478.9478262000483	0.6131290999474004	477.9296062000793	2	1	55	1	go_punish	1	0	-1	1	1	1	0	0.0	1.0	0	0.8730137000093237	0.6131290999474004	1007.892729299958	1480.7689666999504	1481.769862200017	1482.2694167000009	1483.8007993999636	1484.8124110000208	1485.8223355000373	1486.8405555000063	1487.853908799938	1489.0660593999785	2020-03-31 18:02:45.580544	0.47413023960356	-2.0009494770852	0.0	-2.0009494770852	0.47413023960356	0.0	-0.47413023960356	-2.0009494770852	0.0	0.47413023960356	0.0	2.0009494770852	-4.197545254393699	1.6772252783283124	2.6376108743584523	0.11840474767855458	1.8778827095007482	2.6376108743584523	2.3970512055490163	0.15897416473275144	4.356519419126451	-0.218088907870448	4.532925060557216	3	correct	1.0
481.17628200002935	9.338609399972711	go_punish	0.3207482999423519	481.1985271000302	483.6892435000044	486.2374725000701	2.4907163999741897	482.20422680000763	485.2196446000597	489.2871388000202	1.4850166999967769	1.0178279000103885	1.249997699982714	488.27395479998074	0.5468761000083759	487.2440532000036	2	1	56	1	go_punish	1	0	-1	1	1	1	0	0.0	1.0	0	0.3207482999423519	0.5468761000083759	1007.892729299958	1489.0912563999882	1490.0969560999656	1491.5819727999624	1493.1123739000177	1494.130201800028	1495.1367824999616	1496.1666840999387	1497.1798680999782	1498.429865799961	2020-03-31 18:02:45.580544	2.78882687497784	-0.357864789170791	0.0	-0.357864789170791	2.78882687497784	0.0	-2.78882687497784	-0.357864789170791	0.0	2.78882687497784	0.0	0.357864789170791	-1.8828486190194185	3.3203099662427213	2.6376108743584523	1.7614894355929636	4.192579344875028	2.6376108743584523	0.7539665176346074	2.4736708001070316	4.356519419126451	1.424995780043961	4.532925060557216	3	correct	1.0
490.5589491999707	8.715351300081238	nogo_punish	1.0	490.58119429997157	492.9119986000004	495.4438023000256	2.3308043000288308	491.5782831000396	494.4242827000561	498.48463690001506	1.3337154999608174	1.0195195999694988	0.8119087000377476	497.4789691000477	0.4852728999685496	496.46259530005034	2	1	57	2	nogo_punish	1	-1	0	0	0	1	0	0.0	1.0	0	1.0	0.4852728999685496	1007.892729299958	1498.4739235999295	1499.4710123999976	1500.8047278999584	1502.317012000014	1503.3365315999836	1504.3553246000083	1505.3716984000057	1506.377366199973	1507.1892749000108	2020-03-31 18:02:45.580544	14.8752953923865	-18.1962951274657	-0.0342095944678894	-0.0369960405430963	-14.9095049868544	-0.0342095944678894	-14.8752953923865	-0.0342095944678894	-18.1962951274657	-0.0342095944678894	-14.9095049868544	0.0342095944678894	10.203619898389242	-14.518120372052188	2.603401279890563	2.0823581842206584	-13.50575251695721	2.603401279890563	0.4303113229317058	-0.34936566933869795	-10.552985567727948	1.7486509747468628	-13.663370066908485	3	correct	1.0
499.3159199000801	7.724630499957129	nogo_punish	1.0	499.33816500008095	500.7108858000721	503.238754400052	1.372720799991157	500.3499996999743	502.22769349999714	506.2952582000288	0.36088610009778677	1.011060900054872	0.7675373000092804	505.28163590002794	0.5775075999554247	504.2473473000572	2	1	58	2	nogo_punish	1	-1	0	0	0	1	0	0.0	1.0	0	1.0	0.5775075999554247	1007.892729299958	1507.230894300039	1508.2427289999323	1508.60361510003	1510.1204227999551	1511.13148370001	1512.1400766000152	1513.174365199986	1514.1879874999868	1514.955524799996	2020-03-31 18:02:45.580544	14.8851195153291	-18.1962951274657	-0.0125490036536417	-0.0137932197750461	-14.8976685189828	-0.0125490036536417	-14.8851195153291	-0.0125490036536417	-18.1962951274657	-0.0125490036536417	-14.8976685189828	0.0125490036536417	10.213444021331842	-14.518120372052188	2.6250618707048106	2.105561004988709	-13.49391604908561	2.6250618707048106	0.4086507321174581	-0.32770507852445024	-10.541149099856348	1.7703115655611104	-13.663370066908485	3	correct	1.0
507.0645753999705	8.09992000006605	nogo_reward	0.6212663999758661	507.0868204999714	508.60361039999395	511.1541739000239	1.5167899000225589	508.1034873999889	510.1349759000585	514.191991199972	0.5001230000050327	1.0191979999653995	0.9947493000654504	513.1907186000609	0.5083247000584379	512.1726309000513	2	1	59	4	nogo_reward	1	0	1	0	1	0	0	0.0	1.0	0	0.6212663999758661	0.5083247000584379	1007.892729299958	1514.9795497999294	1515.996216699947	1516.496339699952	1518.0277052000165	1519.046903199982	1520.0653602000093	1521.0834479000189	1522.08472049993	1523.0794697999954	2020-03-31 18:02:45.580544	3.30697637315115	0.0003908756273814	0.0	0.0003908756273814	3.30697637315115	0.0	-3.30697637315115	0.0003908756273814	0.0	3.30697637315115	0.0	-0.0003908756273814	-1.3646991208461086	3.678565631040894	2.6376108743584523	2.1197451003911363	4.710728843048338	2.6376108743584523	0.39571085283643503	2.9918202982803415	4.356519419126451	1.7832514448421335	4.532925060557216	3	correct	1.0
515.191414700006	9.49298069998622	go_punish	0.3369082999415695	515.2136598000069	517.9449438999872	520.4933892000698	2.7312840999802575	516.212842100067	519.4734342000446	523.5511972999665	1.7321017999202013	1.0199550000252202	1.1554432000266388	522.5456683000085	0.5248480999143794	521.5109003999968	2	1	60	1	go_punish	1	0	-1	1	1	1	0	0.0	1.0	0	0.3369082999415695	0.5248480999143794	1007.892729299958	1523.1063890999649	1524.105571400025	1525.8376731999451	1527.3661635000026	1528.3861185000278	1529.4036296999548	1530.4383975999665	1531.4439265999245	1532.599369799951	2020-03-31 18:02:45.580544	3.18071452680278	-0.0847670173342634	0.0	-0.0847670173342634	3.18071452680278	0.0	-3.18071452680278	-0.0847670173342634	0.0	3.18071452680278	0.0	0.0847670173342634	-1.4909609671944786	3.5934077380792493	2.6376108743584523	2.0345872074294915	4.584466996699968	2.6376108743584523	0.4808687457980798	2.8655584519319715	4.356519419126451	1.6980935518804887	4.532925060557216	3	correct	1.0
