onset	duration	trial_type	response_time	cueOnset	targetOnset	fbOnset	cueRT	firstfixOnset	secondfixOnset	waitOnset	firstfixdur	secondfixdur	waitdur	nback_fbOnset	nback_response_time	nback_targetOnset	block	wm	trial	cue	cond	is_common	outcome_go	outcome_nogo	key_correct	key_pressed	is_correct	key_correct_nback	key_pressed_nback	is_correct_nback	outcome	rt	rt_nback	time_scan	time_onset	time_isi1	time_circle	time_isi2	time_feedback	time_same	time_correct	time_iti	time_done	timestamp_scan	DV	Qgo	Qnogo	SV	Wgo	Wnogo	mDV	Qchosen	Qunchosen	Wchosen	Wunchosen	PE	DVC	QgoC	QnogoC	SVC	WgoC	WnogoC	PEC	WchosenC	WunchosenC	QchosenC	QunchosenC	run	outcome_nback	nback_targetResp
0.0	8.286894400138408	nogo_reward	1.0	0.012802899815142155	1.8310912996530533	4.350623100064695	1.8182883998379111	1.0174334999176153	3.3360676998270264	7.4068064000457525	0.813657799735438	1.0145554002376684	0.8928908999077976	6.39964359998703	0.4350609998218715	5.3680328000336885	2	1	61	4	nogo_reward	1	0	1	0	0	1	0	0.0	1.0	1	1.0	0.4350609998218715	2003.9104154002853	2003.9232183001004	2004.927848900203	2005.7415066999383	2007.2464831001123	2008.26103850035	2009.278448200319	2010.3100590002723	2011.317221800331	2012.2101127002388	2020-10-07 10:28:31.729344	19.9963710373801	0.0	26.4369728679519	26.4369728679519	6.44060183057183	26.4369728679519	-19.9963710373801	26.4369728679519	0.0	26.4369728679519	6.44060183057183	0.3359891959812984	11.288297867140196	-4.2924707722465225	21.42012469711511	17.378158480531614	0.9471113894455154	21.42012469711511	-1.2284397628559647	16.82776697685039	5.539469109710228	17.408932661479888	-0.2812787366113038	4	correct	1.0
8.314453199971695	8.394734700210392	go_punish	0.4399151001125574	8.327256099786837	9.603264299687226	12.195242600049824	1.2760081999003887	9.331598599907238	11.17514539975673	15.240935199894238	0.27166569977998734	1.020097200293094	1.4810556001029909	14.234085300005972	0.5329354000277817	13.208216999657452	2	1	62	1	go_punish	1	0	-1	1	1	1	1	0.0	0.0	0	0.4399151001125574	0.5329354000277817	2003.9104154002853	2012.237671500072	2013.2420140001925	2013.5136796999725	2015.085560800042	2016.105658000335	2017.1186323999427	2018.1445007002912	2019.1513506001795	2020.6324062002825	2020-10-07 10:28:31.729344	-0.250388681859622	-0.165660338620183	-0.859173284812053	-0.137280714121556	-1.10956196667167	-0.859173284812053	0.250388681859622	-0.165660338620183	-0.859173284812053	-1.10956196667167	-0.859173284812053	0.165660338620183	-8.958461852099527	-4.458131110866706	-5.876021455648845	-9.196095101541843	-6.603052407797985	-5.876021455648845	-1.3987686202170801	-10.71876785777318	-1.7603060056736552	-9.193700545092195	-1.1404520214233569	4	wrong	1.0
16.810530300252367	9.207541499752324	go_reward	0.2605312997475266	16.82333320006751	19.244538699742634	21.790431099943817	2.421205499675125	17.82786459987983	20.775137399789173	24.81995410006516	1.416674099862803	1.0152937001546434	1.2109205997546724	23.81202120007947	1.0	22.803321199957054	2	1	63	3	go_reward	1	1	0	1	1	1	0	n/a	0.0	0	0.2605312997475266	1.0	2003.9104154002853	2020.7337486003528	2021.738280000165	2023.154954100028	2024.6855528000744	2025.700846500229	2026.7137366002423	2027.7224366003647	2028.7303695003504	2029.941290100105	2020-10-07 10:28:31.729344	32.6447633437549	26.2405982495382	0.0	26.2405982495382	32.6447633437549	0.0	-32.6447633437549	26.2405982495382	0.0	32.6447633437549	0.0	0.5323638143950014	23.936690173514997	21.948127477291678	-5.016848170836791	17.18178386211791	27.151272902628588	-5.016848170836791	-1.0320651444422617	23.035557452653393	-0.9011327208616021	17.21255804306619	-0.2812787366113038	4	missed	0.0
26.129033700097125	8.157902400009561	nogo_punish	1.0	26.141836599912267	27.63992840005062	30.155377099755924	1.4980918001383543	27.146669699810673	29.145107599906623	33.19703909987584	0.49325870023994867	1.0102694998493007	1.102699900045991	32.19028679979965	0.4975561997853219	31.167503600008786	2	1	64	2	nogo_punish	1	-1	0	0	0	1	0	0.0	1.0	0	1.0	0.4975561997853219	2003.9104154002853	2030.0522520001975	2031.057085100096	2031.550343800336	2033.055523000192	2034.0657925000412	2035.077919000294	2036.100702200085	2037.107454500161	2038.210154400207	2020-10-07 10:28:31.729344	0.820479241542581	0.0	-0.118538859477232	-0.107741022093984	-0.939018101019813	-0.118538859477232	-0.820479241542581	-0.118538859477232	0.0	-0.118538859477232	-0.939018101019813	0.118538859477232	-7.887593928697323	-4.2924707722465225	-5.135387030314023	-9.166555409514272	-6.432508542146127	-5.135387030314023	-1.445890099360031	-9.727744750578742	-1.840150821881415	-9.146579065949243	-0.2812787366113038	4	correct	1.0
34.31192240025848	9.078800399787497	nogo_reward	1.0	34.324725300073624	36.49323630006984	39.01320010004565	2.168510999996215	35.32881739968434	37.99858299968764	42.05461339978524	1.164418900385499	1.0146171003580093	1.348912300075881	41.04790630005323	0.5321324001997709	40.0248492998071	2	1	65	4	nogo_reward	1	0	1	0	0	1	0	0.0	1.0	1	1.0	0.5321324001997709	2003.9104154002853	2038.235140700359	2039.2392327999696	2040.403651700355	2041.908998399973	2042.923615500331	2043.9352647000924	2044.9583217003385	2045.9650288000705	2047.3139411001464	2020-10-07 10:28:31.729344	20.0364673667448	0.0	26.4835212669488	26.4835212669488	6.44705390020394	26.4835212669488	-20.0364673667448	26.4835212669488	0.0	26.4835212669488	6.44705390020394	0.28944079698440106	11.328394196504897	-4.2924707722465225	21.466673096112007	17.42470687952851	0.9535634590776256	21.466673096112007	-1.274988161852862	16.87431537584729	5.545921179342338	17.455481060476785	-0.2812787366113038	4	correct	1.0
43.41798789985478	8.508019000291824	go_punish	0.2697534998878836	43.43079079966992	45.35122870001942	47.89404909964651	1.9204379003494978	44.43463240005076	46.8847491000779	50.937598899938166	0.9165962999686599	1.0092999995686114	1.0012109000235796	49.929737600031785	0.4083112999796867	48.90673319995449	2	1	66	1	go_punish	1	0	-1	1	1	1	0	0.0	1.0	0	0.2697534998878836	0.4083112999796867	2003.9104154002853	2047.3412061999552	2048.345047800336	2049.2616441003047	2050.795164500363	2051.804464499932	2052.8171486002398	2053.840153000317	2054.8480143002234	2055.849225200247	2020-10-07 10:28:31.729344	-0.195279896747974	-0.119077656688049	-0.859173284812053	-0.10167448154503	-1.05445318156003	-0.859173284812053	0.195279896747974	-0.119077656688049	-0.859173284812053	-1.05445318156003	-0.859173284812053	0.119077656688049	-8.90335306698788	-4.411548428934571	-5.876021455648845	-9.160488868965318	-6.547943622686344	-5.876021455648845	-1.4453513021492141	-10.66365907266154	-1.7603060056736552	-9.14711786316006	-1.1404520214233569	4	correct	1.0
51.97187709994614	8.34156819991722	go_reward	0.5944499000906944	51.98467999976128	53.984507999848574	56.52781079988927	1.999828000087291	52.989068899769336	55.51830470003188	59.569924199953675	0.9954391000792384	1.00950609985739	0.7563239997248274	58.56299349991605	0.7651117998175323	57.53893639985472	2	1	67	3	go_reward	0	0	1	1	1	1	0	0.0	1.0	0	0.5944499000906944	0.7651117998175323	2003.9104154002853	2055.8950954000466	2056.8994843000546	2057.894923400134	2059.428720100317	2060.4382262001745	2061.44935180014	2062.4734089002013	2063.480339600239	2064.236663599964	2020-10-07 10:28:31.729344	19.7421124977986	16.3432670508102	0.0	16.3432670508102	19.7421124977986	0.0	-19.7421124977986	16.3432670508102	0.0	19.7421124977986	0.0	-16.3432670508102	11.034039327558697	12.050796278563679	-5.016848170836791	7.284452663389914	14.248622056672286	-5.016848170836791	-17.907696009647463	10.132906606697091	-0.9011327208616021	7.31522684433819	-0.2812787366113038	4	correct	1.0
60.33894440019503	9.485726399812847	nogo_reward	1.0	60.351747300010175	63.059770399704576	65.57336619962007	2.708023099694401	61.35618990007788	64.56482119997963	68.6151278000325	1.703580499626696	1.008544999640435	1.2223458997905254	67.60837619984522	0.3318097000010311	66.58603229979053	2	1	68	4	nogo_reward	0	1	0	0	0	1	0	0.0	1.0	0	1.0	0.3318097000010311	2003.9104154002853	2064.2621627002954	2065.266605300363	2066.97018579999	2068.475236600265	2069.4837815999053	2070.496447700076	2071.5187916001305	2072.5255432003178	2073.7478891001083	2020-10-07 10:28:31.729344	20.0694531026095	0.0	26.5215401887893	26.5215401887893	6.45208708617984	26.5215401887893	-20.0694531026095	26.5215401887893	0.0	26.5215401887893	6.45208708617984	-26.5215401887893	11.361379932369596	-4.2924707722465225	21.504692017952507	17.46272580136901	0.9585966450535253	21.504692017952507	-28.08596914762656	16.91233429768779	5.550954365318238	17.49349998231729	-0.2812787366113038	4	correct	1.0
69.85475410008803	8.503490699920349	go_punish	1.0	69.86755699990317	71.84383390005678	74.36159650003538	1.9762769001536071	70.87258849991485	73.34871400007978	77.41682029981166	0.9712454001419246	1.0128824999555945	0.9542274000118596	76.41028209961951	0.4137502997182309	75.37839589966461	2	1	69	1	go_punish	1	0	-1	1	0	0	0	0.0	1.0	-1	1.0	0.4137502997182309	2003.9104154002853	2073.7779724001884	2074.7830039002	2075.754249300342	2077.259129400365	2078.2720119003206	2079.28881129995	2080.320697499905	2081.327235700097	2082.281463100109	2020-10-07 10:28:31.729344	0.157589518808811	-0.0871584548014645	-0.859173284812053	-0.0765074710457423	-1.01676280362086	-0.859173284812053	-0.157589518808811	-0.859173284812053	-0.0871584548014645	-0.859173284812053	-1.01676280362086	-1.9916331534816771	-8.550483651431094	-4.379629227047987	-5.876021455648845	-9.13532185846603	-6.510253244747174	-5.876021455648845	-3.55606211231894	-10.468379175913563	-1.917895524482462	-9.887213491284065	-0.3684371914127683	4	correct	1.0
78.40389259997755	8.8649943000637	nogo_punish	1.0	78.4166954997927	80.95799369970337	83.47349609993444	2.5412981999106705	79.4208911000751	82.46308199968189	86.51565899979323	1.5371025996282697	1.0104141002525466	0.766030800063163	85.50910869985819	0.2491548997350037	84.48598890006542	2	1	70	2	nogo_punish	1	-1	0	0	0	1	0	0.0	1.0	0	1.0	0.2491548997350037	2003.9104154002853	2082.327110900078	2083.3313065003604	2084.8684090999886	2086.373497399967	2087.3839115002197	2088.3964043003507	2089.4195241001435	2090.4260744000785	2091.1921052001417	2020-10-07 10:28:31.729344	0.845593299738049	0.0	-0.0859682184745576	-0.0781709977074446	-0.931561518212607	-0.0859682184745576	-0.845593299738049	-0.0859682184745576	0.0	-0.0859682184745576	-0.931561518212607	0.0859682184745576	-7.862479870501856	-4.2924707722465225	-5.102816389311349	-9.136985385127732	-6.425051959338922	-5.102816389311349	-1.4784607403627055	-9.695174109576067	-1.8326942390742091	-9.114008424946569	-0.2812787366113038	4	correct	1.0
87.31639670021832	9.449275000021316	go_reward	0.5522826001979411	87.32919960003346	89.84882889967412	92.39176589995577	2.5196292996406555	88.33377279993147	91.3782905000262	95.4331760997884	1.515056099742651	1.0134753999295754	1.3452985002663809	94.42634449992374	0.4592871000058949	93.40184389986098	2	1	71	3	go_reward	1	1	0	1	1	1	0	0.0	1.0	1	0.5522826001979411	0.4592871000058949	2003.9104154002853	2091.2396150003187	2092.2441882002167	2093.7592442999594	2095.2887059003115	2096.302181300241	2097.3122593001463	2098.336759900209	2099.3435915000737	2100.68889000034	2020-10-07 10:28:31.729344	12.3718691532654	10.6334703764431	0.0	10.6334703764431	12.3718691532654	0.0	-12.3718691532654	10.6334703764431	0.0	12.3718691532654	0.0	16.1394916874901	3.663795983025496	6.340999604196577	-5.016848170836791	1.574655989022812	6.878378712139086	-5.016848170836791	14.575062728652837	2.7626632621638905	-0.9011327208616021	1.605430169971088	-0.2812787366113038	4	correct	1.0
96.79349120007828	8.297741400077939	go_punish	1.0	96.80629409989342	98.27510980004445	100.79381449986295	1.4688157001510262	97.81049849977717	99.78052979987115	103.83584079984576	0.46461130026727915	1.0132846999918002	1.2681947001256049	102.82889699982479	0.64420250011608	101.80586299998686	2	1	72	1	go_punish	1	0	-1	1	0	0	0	0.0	1.0	-1	1.0	0.64420250011608	2003.9104154002853	2100.7167095001787	2101.7209139000624	2102.1855252003297	2103.6909452001564	2104.704229900148	2105.716278400272	2106.73931240011	2107.746256200131	2109.0144509002566	2020-10-07 10:28:31.729344	-0.245557427226909	-0.0871584548014645	-1.58688970776064	-1.10666725399802	-1.34133228053373	-1.58688970776064	0.245557427226909	-1.58688970776064	-0.0871584548014645	-1.58688970776064	-1.34133228053373	-1.26391673053309	-8.953630597466814	-4.379629227047987	-6.603737878597432	-10.165481641418308	-6.834822721660045	-6.603737878597432	-2.8283456893703534	-11.19609559886215	-2.242465001395332	-10.614929914232652	-0.3684371914127683	4	correct	1.0
105.11596650024876	7.895251199603081	nogo_reward	1.0	105.1287694000639	106.48189079994336	108.99699349980801	1.3531213998794556	106.13225429970771	107.98702779971063	112.0464101000689	0.34963650023564696	1.009965700097382	0.9776104995980859	111.03185079991817	0.2911296999081969	110.0089743998833	2	1	73	4	nogo_reward	0	1	0	0	0	1	0	0.0	1.0	0	1.0	0.2911296999081969	2003.9104154002853	2109.039184800349	2110.042669699993	2110.3923062002286	2111.897443199996	2112.9074089000933	2113.9193898001686	2114.9422662002034	2115.956825500354	2116.9344359999523	2020-10-07 10:28:31.729344	13.1281052285525	0.0	16.562380232116	16.562380232116	3.43427500356353	16.562380232116	-13.1281052285525	16.562380232116	0.0	16.562380232116	3.43427500356353	-16.562380232116	4.420032058312595	-4.2924707722465225	11.545532061279207	7.503565844695711	-2.0592154375627847	11.545532061279207	-18.12680919095326	6.953174341014488	2.533142282701928	7.534340025643987	-0.2812787366113038	4	correct	1.0
113.0575923002325	8.412490599788725	nogo_punish	1.0	113.07039520004764	114.46297820005566	116.97777329990686	1.3925830000080168	114.07446719985455	115.9685483998619	120.0269586998038	0.38851100020110607	1.0092249000449556	1.455927100032568	119.01477999985173	0.2688071001321077	117.9902642997913	2	1	74	2	nogo_punish	1	-1	0	0	0	1	0	0.0	1.0	0	1.0	0.2688071001321077	2003.9104154002853	2116.980810600333	2117.98488260014	2118.373393600341	2119.878963800147	2120.888188700192	2121.9006797000766	2122.925195400137	2123.937374100089	2125.3933012001216	2020-10-07 10:28:31.729344	0.86315612841025	0.0	-0.0634826826080198	-0.0577670423872844	-0.92663881101827	-0.0634826826080198	-0.86315612841025	-0.0634826826080198	0.0	-0.0634826826080198	-0.92663881101827	0.0634826826080198	-7.844917041829655	-4.2924707722465225	-5.080330853444811	-9.116581429807573	-6.4201292521445845	-5.080330853444811	-1.5009462762292434	-9.67268857370953	-1.827771531879872	-9.091522889080032	-0.2812787366113038	4	correct	1.0
121.51831539999694	7.930053099989891	go_reward	0.3847288000397384	121.53111829981208	122.89435959979892	125.44492339994758	1.3632412999868393	122.53686079988256	124.42604039981961	128.49804219976068	0.3574987999163568	1.0188830001279712	0.9631292000412941	127.48608509963378	0.3295630998909473	126.45636709965765	2	1	75	3	go_reward	0	0	1	1	1	1	0	0.0	1.0	0	0.3847288000397384	0.3295630998909473	2003.9104154002853	2125.4415337000974	2126.447276200168	2126.804775000084	2128.336455800105	2129.355338800233	2130.366782499943	2131.396500499919	2132.408457600046	2133.3715868000872	2020-10-07 10:28:31.729344	20.9628854620349	17.1648057705971	0.0	17.1648057705971	20.9628854620349	0.0	-20.9628854620349	17.1648057705971	0.0	20.9628854620349	0.0	-17.1648057705971	12.254812291794996	12.872334998350576	-5.016848170836791	8.10599138317681	15.469395020908586	-5.016848170836791	-18.72923472943436	11.35367957093339	-0.9011327208616021	8.136765564125087	-0.2812787366113038	4	correct	1.0
129.49245799984737	8.599528500345059	nogo_punish	1.0	129.50526089966252	131.28950349986553	133.80425189994276	1.7842426002030152	130.50941369961947	132.79446800006554	136.86239469982684	0.7800898002460599	1.0097838998772204	1.2423947001807392	135.85535519989207	0.3568390998989343	134.81723889987916	2	1	76	2	nogo_punish	1	-1	0	0	0	1	1	1.0	1.0	0	1.0	0.3568390998989343	2003.9104154002853	2133.415676299948	2134.4198290999047	2135.199918900151	2136.704883400351	2137.714667300228	2138.7276543001644	2139.7657706001773	2140.772810100112	2142.015204800293	2020-10-07 10:28:31.729344	0.87567636288365	0.0	-0.0476454791740021	-0.043397869271245	-0.923321842057652	-0.0476454791740021	-0.87567636288365	-0.0476454791740021	0.0	-0.0476454791740021	-0.923321842057652	0.0476454791740021	-7.832396807356255	-4.2924707722465225	-5.064493650010793	-9.102212256691534	-6.416812283183966	-5.064493650010793	-1.5167834796632609	-9.656851370275513	-1.8244545629192541	-9.075685685646015	-0.2812787366113038	4	correct	1.0
138.11936410004273	8.31177890021354	go_punish	0.2446917998604476	138.13216699985787	139.91521959984675	142.45678139990196	1.7830525999888778	139.13679279992357	141.44668280007318	145.5075121000409	0.7784267999231815	1.0100985998287797	0.9364338000304997	144.49465979961678	0.2916560997255146	143.46830739965662	2	1	77	1	go_punish	1	0	-1	1	1	1	0	0.0	1.0	0	0.2446917998604476	0.2916560997255146	2003.9104154002853	2142.042582400143	2143.047208200209	2143.825635000132	2145.3570982003585	2146.3671968001872	2147.378722799942	2148.405075199902	2149.417927500326	2150.3543613003567	2020-10-07 10:28:31.729344	0.491404097003492	-0.0871584548014645	-2.01511505805421	-1.71068730652944	-1.52371096105072	-2.01511505805421	-0.491404097003492	-0.0871584548014645	-2.01511505805421	-1.52371096105072	-2.01511505805421	0.0871584548014645	-8.216669073236412	-4.379629227047987	-7.0319632288910014	-10.769501693949728	-7.017201402177035	-7.0319632288910014	-1.4772705040357985	-11.13291685215223	-2.916247778915812	-9.115198661273476	-2.296393794665514	4	correct	1.0
146.45822260016575	8.645477899815887	go_punish	0.2671608999371528	146.4710254999809	148.51500729983672	151.05346910003573	2.0439817998558283	147.47603229992092	150.04383919993415	154.0983195998706	1.0389749999158084	1.0096299001015723	1.0181837999261916	153.0912249996327	0.3927349001169204	152.06627060007304	2	1	78	1	go_punish	1	0	-1	1	1	1	0	0.0	1.0	0	0.2671608999371528	0.3927349001169204	2003.9104154002853	2150.381440900266	2151.386447700206	2152.425422700122	2153.9542546002194	2154.963884500321	2155.9766860003583	2157.001640399918	2158.008735000156	2159.026918800082	2020-10-07 10:28:31.729344	0.735442034255629	-0.0648468539712208	-2.01511505805421	-1.0320531151207	-1.27967302379858	-2.01511505805421	-0.735442034255629	-0.0648468539712208	-2.01511505805421	-1.27967302379858	-2.01511505805421	0.0648468539712208	-7.972631135984275	-4.3573176262177435	-7.0319632288910014	-10.090867502540988	-6.773163464924894	-7.0319632288910014	-1.4995821048660423	-10.88887891490009	-2.916247778915812	-9.092887060443232	-2.296393794665514	4	correct	1.0
155.15100120007992	8.815647500101477	go_reward	0.2337118997238576	155.16380409989506	157.01066009979695	159.57901379978284	1.8468559999018908	156.1687217997387	158.56567819975317	162.63018970005214	0.8419383000582457	1.0133356000296772	1.3492618999443948	161.62312110001176	0.4493130999617278	160.59658619994298	2	1	79	3	go_reward	1	1	0	1	1	1	0	0.0	1.0	1	0.2337118997238576	0.4493130999617278	2003.9104154002853	2159.0742195001803	2160.079137200024	2160.921075500082	2162.4760936000384	2163.489429200068	2164.5070016002283	2165.533536500297	2166.5406051003374	2167.889867000282	2020-10-07 10:28:31.729344	12.6421911870595	10.7734063643942	0.0	10.7734063643942	12.6421911870595	0.0	-12.6421911870595	10.7734063643942	0.0	12.6421911870595	0.0	15.999555699539	3.934118016819596	6.480935592147677	-5.016848170836791	1.714591976973912	7.148700745933186	-5.016848170836791	14.435126740701737	3.0329852959579906	-0.9011327208616021	1.745366157922188	-0.2812787366113038	4	correct	1.0
164.01160660013556	9.236947299913027	nogo_punish	1.0	164.0244094999507	166.78696569986687	169.30252290004864	2.762556199916162	165.02913859998807	168.29175329999998	172.35911389999092	1.7578270998787957	1.0107696000486612	0.9022428998728174	171.34679399989545	0.3464268995448947	170.31459289975464	2	1	80	2	nogo_punish	1	-1	0	0	0	1	0	0.0	1.0	0	1.0	0.3464268995448947	2003.9104154002853	2167.934824900236	2168.9395540002733	2170.697381100152	2172.2021687002853	2173.212938300334	2174.22500830004	2175.2572094001807	2176.269529300276	2177.171772200149	2020-10-07 10:28:31.729344	0.884756605317856	0.0	-0.0362885456973674	-0.0330919720334686	-0.921045151015224	-0.0362885456973674	-0.884756605317856	-0.0362885456973674	0.0	-0.0362885456973674	-0.921045151015224	0.0362885456973674	-7.823316564922049	-4.2924707722465225	-5.0531367165341585	-9.091906359453757	-6.414535592141538	-5.0531367165341585	-1.5281404131398957	-9.645494436798877	-1.8221778718768262	-9.064328752169379	-0.2812787366113038	4	correct	1.0
173.27593000000343	10.034036499913782	go_punish	0.2935290997847914	173.28873289981857	176.25133629981474	178.79200650006533	2.962603399996169	174.29267439991236	177.78234309982508	181.8536022999324	1.9586618999023813	1.0096634002402425	1.4691670997999609	180.84069259976968	0.3160994001664221	179.8098345999606	2	1	81	1	go_punish	1	0	-1	1	1	1	0	0.0	1.0	0	0.2935290997847914	0.3160994001664221	2003.9104154002853	2177.199148300104	2178.2030898001976	2180.1617517001	2181.6927585001104	2182.7024219003506	2183.720250000246	2184.751108000055	2185.7640177002177	2187.2331848000176	2020-10-07 10:28:31.729344	0.871675650495811	-0.0489683025448892	-2.01511505805421	-0.649357765412535	-1.1434394075584	-2.01511505805421	-0.871675650495811	-0.0489683025448892	-2.01511505805421	-1.1434394075584	-2.01511505805421	0.0489683025448892	-7.836397519744094	-4.341439074791412	-7.0319632288910014	-9.708172152832823	-6.636929848684715	-7.0319632288910014	-1.5154606562923738	-10.75264529865991	-2.916247778915812	-9.0770085090169	-2.296393794665514	4	correct	1.0
183.35663970001042	8.922729900106788	go_reward	0.2717427997849881	183.36944259982556	185.84711520001292	188.41020509973168	2.4776726001873612	184.37357419962063	187.3967331997119	191.45391749963164	1.473541000392288	1.0134719000197947	0.8382550003007054	190.4472046997398	0.5147962002083659	189.4232453997247	2	1	82	3	go_reward	1	1	0	1	1	1	0	0.0	1.0	1	0.2717427997849881	0.5147962002083659	2003.9104154002853	2187.279858000111	2188.283989599906	2189.757530600298	2191.307148599997	2192.320620500017	2193.33366080001	2194.357620100025	2195.364332899917	2196.2025879002176	2020-10-07 10:28:31.729344	20.8996533243043	17.0721341418848	0.0	17.0721341418848	20.8996533243043	0.0	-20.8996533243043	17.0721341418848	0.0	20.8996533243043	0.0	9.7008279220484	12.191580154064395	12.779663369638277	-5.016848170836791	8.013319754464511	15.406162883177984	-5.016848170836791	8.136398963211137	11.29044743320279	-0.9011327208616021	8.044093935412787	-0.2812787366113038	4	correct	1.0
192.325501000043	8.569794300012745	go_reward	0.5518318000249565	192.33830389985815	193.8071017996408	196.3690597997047	1.4687978997826576	193.34229349996895	195.34267119970173	199.42292859964073	0.46480829967185855	1.0263886000029743	1.485169600230165	198.41605299990624	0.3702066000550985	197.38593930005982	2	1	83	3	go_reward	0	0	1	1	1	1	0	0.0	1.0	0	0.5518318000249565	0.3702066000550985	2003.9104154002853	2196.2487193001434	2197.252708900254	2197.717517199926	2199.253086599987	2200.27947519999	2201.296354700345	2202.3264684001915	2203.333343999926	2204.818513600156	2020-10-07 10:28:31.729344	25.490314342536	20.6067277082021	0.0	20.6067277082021	25.490314342536	0.0	-25.490314342536	20.6067277082021	0.0	25.490314342536	0.0	-20.6067277082021	16.782241172296096	16.314256935955576	-5.016848170836791	11.547913320781813	19.996823901409684	-5.016848170836791	-22.171156667039362	15.88110845143449	-0.9011327208616021	11.578687501730089	-0.2812787366113038	4	correct	1.0
200.92130800010636	8.520873900037259	nogo_reward	1.0	200.9341108999215	202.6603486998938	205.175416899845	1.7262377999722958	201.93880219990388	204.16433259984478	208.21671730000526	0.7215464999899268	1.0110843000002205	1.2382674999535084	207.21040740003855	0.4101722999475896	206.18689760006964	2	1	84	4	nogo_reward	0	1	0	0	0	1	0	0.0	1.0	0	1.0	0.4101722999475896	2003.9104154002853	2204.844526300207	2205.849217600189	2206.570764100179	2208.07474800013	2209.0858323001303	2210.097313000355	2211.120822800324	2212.1271327002905	2213.365400200244	2020-10-07 10:28:31.729344	9.04167214371793	0.0	10.8066377809647	10.8066377809647	1.76496563724678	10.8066377809647	-9.04167214371793	10.8066377809647	0.0	10.8066377809647	1.76496563724678	-10.8066377809647	0.3335989734780256	-4.2924707722465225	5.789789610127908	1.7478233935444116	-3.7285248038795347	5.789789610127908	-12.371066739801963	1.1974318898631893	0.8638329163851778	1.7785975744926876	-0.2812787366113038	4	correct	1.0
209.47607110021636	8.722144600003958	go_punish	0.2496428997255861	209.4888740000315	211.15636319993064	213.69966429984197	1.667489199899137	210.49288269970566	212.6895103999409	216.74213009979576	0.6634805002249777	1.01015389990107	1.4688885002397	215.73533870000392	0.3875639997422695	214.7110909000039	2	1	85	1	go_punish	1	0	-1	1	1	1	0	0.0	1.0	0	0.2496428997255861	0.3875639997422695	2003.9104154002853	2213.399289400317	2214.403298099991	2215.066778600216	2216.599925800226	2217.6100797001272	2218.621506300289	2219.645754100289	2220.652545500081	2222.1214340003207	2020-10-07 10:28:31.729344	0.951420363875054	-0.0374825679684059	-2.01511505805421	-0.423506957529245	-1.06369469417916	-2.01511505805421	-0.951420363875054	-0.0374825679684059	-2.01511505805421	-1.06369469417916	-2.01511505805421	0.0374825679684059	-7.75665280636485	-4.329953340214929	-7.0319632288910014	-9.482321344949533	-6.557185135305475	-7.0319632288910014	-1.5269463908688572	-10.67290058528067	-2.916247778915812	-9.065522774440417	-2.296393794665514	4	correct	1.0
218.22807259997353	8.102781800087087	go_punish	0.5953720002435148	218.24087549978867	219.80871769972146	222.3914479999803	1.5678421999327838	219.24553439999045	221.3816430997108	225.4338960996829	0.5631832997310084	1.0098049002695006	0.909761200192861	224.42703479994088	0.4282704000361264	223.40375489974394	2	1	86	1	go_punish	1	0	-1	1	1	1	0	1.0	0.0	0	0.5953720002435148	0.4282704000361264	2003.9104154002853	2222.151290900074	2223.1559498002757	2223.7191331000067	2225.292058499996	2226.3018634002656	2227.314170300029	2228.337450200226	2229.344311499968	2230.254072700161	2020-10-07 10:28:31.729344	1.00003632337092	-0.0290504210236412	-2.01511505805421	-0.284955290278449	-1.01507873468329	-2.01511505805421	-1.00003632337092	-0.0290504210236412	-2.01511505805421	-1.01507873468329	-2.01511505805421	0.0290504210236412	-7.708036846868985	-4.321521193270164	-7.0319632288910014	-9.343769677698736	-6.508569175809605	-7.0319632288910014	-1.5353785378136218	-10.6242846257848	-2.916247778915812	-9.057090627495652	-2.296393794665514	4	wrong	1.0
226.35943459998816	8.436735299881548	nogo_reward	1.0	226.3722374998033	227.8069034996438	230.3255678997375	1.4346659998404903	227.3771561998874	229.31211419962347	233.36959479982033	0.4297472997564	1.0134537001140416	1.4393779998645186	232.3637484000069	0.7084933998994529	231.33754369989083	2	1	87	4	nogo_reward	1	0	1	0	0	1	0	0.0	1.0	1	1.0	0.7084933998994529	2003.9104154002853	2230.2826529000886	2231.2875716001727	2231.717318899929	2233.2225295999087	2234.235983300023	2235.247959100176	2236.274163800292	2237.2800102001056	2238.71938819997	2020-10-07 10:28:31.729344	6.51635422114716	0.0	7.31284138613227	7.31284138613227	0.796487164985114	7.31284138613227	-6.51635422114716	7.31284138613227	0.0	7.31284138613227	0.796487164985114	19.46012067780093	-2.1917189490927447	-4.2924707722465225	2.2959932152954785	-1.745973001288018	-4.697003276141201	2.2959932152954785	17.89569171896367	-2.2963645049692403	-0.10464555587648816	-1.715198820339742	-0.2812787366113038	4	correct	1.0
234.8887926000166	8.474390699994728	go_reward	0.4067572001367807	234.90159549983173	236.46230820007577	239.05068339966283	1.5607127002440393	235.90591839980334	238.03709439979866	242.09181639971212	0.5563898002724272	1.0135889998641687	1.2841698001143413	241.0850462000817	0.728256800211966	240.06278469972312	2	1	88	3	go_reward	1	1	0	1	1	1	0	0.0	1.0	1	0.4067572001367807	0.728256800211966	2003.9104154002853	2238.812010900117	2239.8163338000886	2240.372723600361	2241.947509800084	2242.961098799948	2243.9732001000084	2244.995461600367	2246.0022317999974	2247.2864016001117	2020-10-07 10:28:31.729344	15.163858811663	12.7038035443135	0.0	12.7038035443135	15.163858811663	0.0	-15.163858811663	12.7038035443135	0.0	15.163858811663	0.0	14.0691585196197	6.455785641423095	8.411332772066977	-5.016848170836791	3.644989156893212	9.670368370536686	-5.016848170836791	12.504729560782437	5.554652920561489	-0.9011327208616021	3.675763337841488	-0.2812787366113038	4	correct	1.0
243.38719150004863	8.218137999996998	nogo_reward	1.0	243.39999439986377	245.249908299651	247.76942859962583	1.849913899787225	244.40485069993883	246.75568960001692	250.81246230006218	0.8450575997121632	1.0137389996089041	0.80567009979859	249.805675199721	0.4901334000751376	248.78186949994415	2	1	89	4	nogo_reward	1	0	1	0	0	1	1	1.0	1.0	1	1.0	0.4901334000751376	2003.9104154002853	2247.310409800149	2248.315266100224	2249.1603236999363	2250.666105000302	2251.679843999911	2252.6922849002294	2253.7160906000063	2254.7228777003475	2255.528547800146	2020-10-07 10:28:31.729344	11.860553978087	0.0	15.0941791555665	15.0941791555665	3.23362517747951	15.0941791555665	-11.860553978087	15.0941791555665	0.0	15.0941791555665	3.23362517747951	11.6787829083667	3.1524808078470947	-4.2924707722465225	10.07733098472971	6.035364768146213	-2.2598652636468044	10.07733098472971	10.114353949529436	5.4849732644649905	2.332492456617908	6.066138949094489	-0.2812787366113038	4	correct	1.0
251.634019699879	7.984615500085056	nogo_reward	1.0	251.64682259969413	253.1526393997483	255.67119779996574	1.5058168000541627	252.6514900000766	254.6577246999368	258.7048800997436	0.5011493996717036	1.013473100028932	0.926558000035584	257.69756249990314	1.0	256.68897299980745	2	1	90	4	nogo_reward	1	0	1	0	0	1	0	n/a	0.0	1	1.0	1.0	2003.9104154002853	2255.5572379999794	2256.561905400362	2257.0630548000336	2258.568140100222	2259.581613200251	2260.5993884000927	2261.6079779001884	2262.615295500029	2263.5418535000645	2020-10-07 10:28:31.729344	14.8888507313196	0.0	19.4299051916227	19.4299051916227	4.54105446030306	19.4299051916227	-14.8888507313196	19.4299051916227	0.0	19.4299051916227	4.54105446030306	7.343056872310498	6.180777561079696	-4.2924707722465225	14.41305702078591	10.371090804202414	-0.952435980823255	14.41305702078591	5.778627913473235	9.820699300521191	3.6399217394414576	10.40186498515069	-0.2812787366113038	4	missed	0.0
259.6710586999543	8.543721800204366	nogo_punish	1.0	259.68386159976944	261.246730200015	263.77125740004703	1.5628686002455652	260.68792619975284	262.7536486997269	266.8175890999846	0.558804000262171	1.0176087003201246	1.4099942999891937	265.811250299681	0.4226691001094877	264.783393799793	2	1	91	2	nogo_punish	1	-1	0	0	0	1	0	0.0	1.0	0	1.0	0.4226691001094877	2003.9104154002853	2263.5942770000547	2264.598341600038	2265.1571456003003	2266.664064100012	2267.6816728003323	2268.6938092000782	2269.7216656999663	2270.72800450027	2272.137998800259	2020-10-07 10:28:31.729344	0.891444750568722	0.0	-0.0280112579903849	-0.0255776346996359	-0.919456008559107	-0.0280112579903849	-0.891444750568722	-0.0280112579903849	0.0	-0.0280112579903849	-0.919456008559107	0.0280112579903849	-7.816628419671183	-4.2924707722465225	-5.044859428827176	-9.084392022119923	-6.412946449685421	-5.044859428827176	-1.5364177008468782	-9.637217149091896	-1.820588729420709	-9.056051464462398	-0.2812787366113038	4	correct	1.0
268.26278640003875	8.945731699932367	nogo_punish	1.0	268.2755892998539	270.70206839963794	273.2191289998591	2.4264790997840464	269.2804842996411	272.2072759000589	276.2623739996925	1.421584099996835	1.0118530998001916	0.9589470000937581	275.2557943998836	0.3361912001855671	274.23063710005954	2	1	92	2	nogo_punish	1	-1	0	0	0	1	0	0.0	1.0	0	1.0	0.3361912001855671	2003.9104154002853	2272.186004700139	2273.1908996999264	2274.612483799923	2276.117691300344	2277.1295444001444	2278.141052500345	2279.166209800169	2280.172789399978	2281.1317364000715	2020-10-07 10:28:31.729344	0.896440503554001	0.0	-0.0218891208902657	-0.0200164024557269	-0.918329624444266	-0.0218891208902657	-0.896440503554001	-0.0218891208902657	0.0	-0.0218891208902657	-0.918329624444266	0.0218891208902657	-7.811632666685903	-4.2924707722465225	-5.038737291727057	-9.078830789876015	-6.411820065570581	-5.038737291727057	-1.5425398379469974	-9.631095011991777	-1.819462345305868	-9.049929327362278	-0.2812787366113038	4	correct	1.0
277.238021499943	9.343780300114304	go_punish	0.2940238998271525	277.25082439975813	279.53168779984117	282.08809309965045	2.2808634000830352	278.2553466996178	281.0703549999748	285.13243249990046	1.2763411002233624	1.0177380996756256	1.462172199971974	284.1250140997581	0.4623972997069359	283.1003843997605	2	1	93	1	go_punish	1	0	-1	1	1	1	0	0.0	1.0	0	0.2940238998271525	0.4623972997069359	2003.9104154002853	2281.1612398000434	2282.165762099903	2283.4421032001264	2284.98077040026	2285.9985084999357	2287.010799800046	2288.0354295000434	2289.0428479001857	2290.5050201001577	2020-10-07 10:28:31.729344	1.03074588124535	-0.0227756847095189	-2.01511505805421	-0.197051758123917	-0.984369176808859	-2.01511505805421	-1.03074588124535	-0.0227756847095189	-2.01511505805421	-0.984369176808859	-2.01511505805421	0.0227756847095189	-7.6773272889945545	-4.315246456956041	-7.0319632288910014	-9.255866145544205	-6.477859617935174	-7.0319632288910014	-1.5416532741277442	-10.593575067910368	-2.916247778915812	-9.05081589118153	-2.296393794665514	4	correct	1.0
286.6586783998646	9.466644400265068	go_reward	0.203970099799335	286.6714812996797	289.2849087999198	291.85939109977335	2.61342750024005	287.67549509974197	290.84663759963587	294.9010613998398	1.6094137001778108	1.0127535001374781	1.2370643001049757	293.8943002000451	0.3862780998460948	292.8697631000541	2	1	94	3	go_reward	1	1	0	1	1	1	0	0.0	1.0	1	0.203970099799335	0.3862780998460948	2003.9104154002853	2290.581896699965	2291.5859105000272	2293.195324200205	2294.757052999921	2295.7698065000586	2296.7801785003394	2297.8047156003304	2298.811476800125	2300.04854110023	2020-10-07 10:28:31.729344	22.3617787115971	18.1992657066561	0.0	18.1992657066561	22.3617787115971	0.0	-22.3617787115971	18.1992657066561	0.0	22.3617787115971	0.0	8.5736963572771	13.653705541357196	13.906794934409577	-5.016848170836791	9.140451319235812	16.868288270470785	-5.016848170836791	7.009267398439837	12.75257282049559	-0.9011327208616021	9.171225500184088	-0.2812787366113038	4	correct	1.0
296.1516130999662	8.166349200066179	nogo_reward	1.0	296.16441599978134	297.85861249966547	300.37813299987465	1.6941964998841286	297.1684359000069	299.3637272999622	303.41902319993824	0.6901765996585709	1.0144056999124587	0.9117419999092817	302.41239249985665	0.4791779001243412	301.39074869966134	2	1	95	4	nogo_reward	1	0	1	0	0	1	0	0.0	1.0	1	1.0	0.4791779001243412	2003.9104154002853	2300.0748314000666	2301.078851300292	2301.7690278999507	2303.2741427002475	2304.28854840016	2305.3011640999466	2306.322807900142	2307.3294386002235	2308.241180600133	2020-10-07 10:28:31.729344	16.692959737307	0.0	21.9703725903759	21.9703725903759	5.27741285306884	21.9703725903759	-16.692959737307	21.9703725903759	0.0	21.9703725903759	5.27741285306884	4.802589473557301	7.984886567067095	-4.2924707722465225	16.953524419539107	12.91155820295561	-0.216077588057475	16.953524419539107	3.238160514720038	12.361166699274388	4.3762801322072375	12.942332383903887	-0.2812787366113038	4	correct	1.0
304.3505460000597	8.733981700148433	go_punish	0.304137300234288	304.36334889987484	306.41182459983975	309.00814149994403	2.0484756999649107	305.36819489998743	307.99230449972674	312.0510430000718	1.0436296998523176	1.0158370002172887	1.0462875999514836	311.0442414996214	0.622392799705267	310.01940590003505	2	1	96	1	go_punish	0	-1	0	1	1	1	0	0.0	1.0	-1	0.304137300234288	0.622392799705267	2003.9104154002853	2308.27376430016	2309.2786103002727	2310.322240000125	2311.902719900012	2312.9185569002293	2313.9298213003203	2314.9546568999067	2315.961458400357	2317.0077460003085	2020-10-07 10:28:31.729344	1.05076238211531	-0.0180480078668923	-2.01511505805421	-0.139607781665356	-0.9643526759389	-2.01511505805421	-1.05076238211531	-0.0180480078668923	-2.01511505805421	-0.9643526759389	-2.01511505805421	-2.832758430426838	-7.657310788124595	-4.310518780113415	-7.0319632288910014	-9.198422169085644	-6.457843117065215	-7.0319632288910014	-4.397187389264101	-10.57355856704041	-2.916247778915812	-9.046088214338903	-2.296393794665514	4	correct	1.0
313.1090263999067	9.386206700000912	nogo_reward	1.0	313.12182929972187	315.56158899981574	318.07935289991974	2.439759700093873	314.1253343997523	317.0671918997541	321.12255249964073	1.436254600063421	1.0121610001656336	1.3854835000820458	320.1158110997635	0.4498300002887845	319.09193559968844	2	1	97	4	nogo_reward	1	0	1	0	0	1	1	1.0	1.0	1	1.0	0.4498300002887845	2003.9104154002853	2317.032244700007	2318.0357498000376	2319.472004400101	2320.9776073000394	2321.989768300205	2323.0023509999737	2324.026226500049	2325.032967899926	2326.418451400008	2020-10-07 10:28:31.729344	17.8137432177011	0.0	23.5231145125242	23.5231145125242	5.70937129482312	23.5231145125242	-17.8137432177011	23.5231145125242	0.0	23.5231145125242	5.70937129482312	3.249847551409001	9.105670047461194	-4.2924707722465225	18.506266341687407	14.464300125103911	0.2158808536968051	18.506266341687407	1.685418592571738	13.913908621422689	4.808238573961518	14.495074306052187	-0.2812787366113038	4	correct	1.0
322.52613979997113	9.690940199885517	go_punish	0.3134798002429306	322.5389426997863	325.27242140006274	327.8715494996868	2.7334787002764642	323.54320539999753	326.84800009988294	330.91370579972863	1.7292160000652075	1.0235493998038692	1.316177099943161	329.9067891999148	0.6393340998329222	328.88264760002494	2	1	98	1	go_punish	1	0	-1	1	1	1	1	1.0	1.0	0	0.3134798002429306	0.6393340998329222	2003.9104154002853	2326.4493581000715	2327.453620800283	2329.182836800348	2330.758415500168	2331.781964899972	2332.79306300031	2333.8172046002	2334.824121200014	2336.140298299957	2020-10-07 10:28:31.729344	-0.312630196521544	-1.06270783828077	-2.01511505805421	-1.14933359489236	-2.32774525457576	-2.01511505805421	0.312630196521544	-1.06270783828077	-2.01511505805421	-2.32774525457576	-2.01511505805421	1.06270783828077	-9.020703366761449	-5.355178610527292	-7.0319632288910014	-10.208147982312648	-7.821235695702075	-7.0319632288910014	-0.5017211205564931	-11.93695114567727	-2.916247778915812	-10.090748044752782	-2.296393794665514	4	correct	1.0
332.29782600002363	8.38495589978993	nogo_punish	1.0	332.3106288998388	333.6427115998231	336.1623113998212	1.332082699984312	333.3142235996197	335.14760749973357	339.20640109991655	0.32848800020337876	1.0147039000876248	1.4891836997121572	338.19939239975065	0.5041458001360297	337.1746958997105	2	1	99	2	nogo_punish	0	0	-1	0	0	1	0	0.0	1.0	-1	1.0	0.5041458001360297	2003.9104154002853	2336.221044300124	2337.224638999905	2337.5531270001084	2339.058022900019	2340.0727268001065	2341.085111299996	2342.109807800036	2343.116816500202	2344.606000199914	2020-10-07 10:28:31.729344	0.900220024321907	0.0	-0.0172998957316976	-0.0158444017713943	-0.917519920053605	-0.0172998957316976	-0.900220024321907	-0.0172998957316976	0.0	-0.0172998957316976	-0.917519920053605	-2.8335065425620325	-7.807853145917997	-4.2924707722465225	-5.034148066568489	-9.074658789191682	-6.41101036117992	-5.034148066568489	-4.397935501399296	-9.626505786833208	-1.8186526409152073	-9.04534010220371	-0.2812787366113038	4	correct	1.0
340.7081157001667	9.330637299921364	nogo_reward	1.0	340.7209185999818	343.29492119979113	345.81232179980725	2.574002599809319	341.7267296998757	344.79975489992694	348.8534730998799	1.5681914999154287	1.0125668998803121	1.1980828000232577	347.8465224998072	0.0835018996149301	346.82329229963943	2	1	100	4	nogo_reward	1	0	1	0	0	1	0	0.0	1.0	1	1.0	0.0835018996149301	2003.9104154002853	2344.631334000267	2345.637145100161	2347.2053366000764	2348.710170300212	2349.7227372000925	2350.7337076999247	2351.7569379000925	2352.763888500165	2353.9619713001885	2020-10-07 10:28:31.729344	18.5353742764592	0.0	24.5070973270484	24.5070973270484	5.97172305058913	24.5070973270484	-18.5353742764592	24.5070973270484	0.0	24.5070973270484	5.97172305058913	2.265864736884801	9.827301106219297	-4.2924707722465225	19.490249156211608	15.448282939628111	0.47823260946281554	19.490249156211608	0.7014357780475378	14.897891435946889	5.070590329727528	15.479057120576387	-0.2812787366113038	4	correct	1.0
350.0664829001762	9.181848299689591	go_punish	1.0	350.07928579999134	352.45478199981153	354.97376760002226	2.3754961998201907	351.08370399987325	353.96011999994516	358.0182181997229	1.3710779999382794	1.0136476000770926	1.2429158999580068	357.01129759987816	0.5530436001718044	355.9858690998517	2	1	101	1	go_punish	1	0	-1	1	0	0	0	0.0	1.0	-1	1.0	0.5530436001718044	2003.9104154002853	2353.9897012002766	2354.9941194001585	2356.365197400097	2357.8705354002304	2358.8841830003075	2359.896284500137	2360.9217130001634	2361.928633600008	2363.171549499966	2020-10-07 10:28:31.729344	-0.270985133514291	-0.628919728863044	-2.01511505805421	-0.691854488859809	-1.74412992453992	-2.01511505805421	0.270985133514291	-2.01511505805421	-0.628919728863044	-2.01511505805421	-1.74412992453992	-0.83569138023952	-8.979058303754195	-4.921390501109567	-7.0319632288910014	-9.750668876280097	-7.237620365666235	-7.0319632288910014	-2.400120339076783	-11.62432094915572	-2.6452626454015222	-11.043155264526222	-0.9101984654743478	4	correct	1.0
359.34348719986156	8.566555500030518	nogo_punish	1.0	359.3562900996767	361.2193538998249	363.7501121996902	1.8630638001482112	360.3608144996688	362.72496809996665	366.7933976999484	0.8585394001561326	1.0251440997235477	1.1294478997588158	365.78666519979015	0.3105194000527262	364.7612844998948	2	1	102	2	nogo_punish	1	-1	0	0	0	1	0	0.0	1.0	0	1.0	0.3105194000527262	2003.9104154002853	2363.266705499962	2364.271229899954	2365.12976930011	2366.635383500252	2367.6605275999755	2368.67169990018	2369.6970806000754	2370.7038131002337	2371.8332609999925	2020-10-07 10:28:31.729344	0.18339588564781	0.0	-1.06208017631719	-1.06093841472272	-1.245476061965	-1.06208017631719	-0.18339588564781	-1.06208017631719	0.0	-1.06208017631719	-1.245476061965	1.06208017631719	-8.524677284592094	-4.2924707722465225	-6.0789283471539814	-10.119752802143008	-6.738966503091315	-6.0789283471539814	-0.502348782520073	-10.6712860674187	-2.1466087828266023	-10.090120382789202	-0.2812787366113038	4	correct	1.0
367.9590023001656	9.80101809976577	nogo_punish	1.0	367.97180519998074	370.80644299974665	373.3246494997293	2.8346377997659147	368.9767064996995	372.312069399748	376.3687280998565	1.8297365000471473	1.0125800999812782	1.40409519988998	375.3608618997969	0.4177041002549231	374.33707679994404	2	1	103	2	nogo_punish	0	0	-1	0	0	1	0	0.0	1.0	-1	1.0	0.4177041002549231	2003.9104154002853	2371.882220600266	2372.887121899985	2374.716858400032	2376.2224848000333	2377.2350649000145	2378.2474922002293	2379.271277300082	2380.279143500142	2381.683238700032	2020-10-07 10:28:31.729344	0.473264227451095	0.0	-0.62839444067282	-0.62749097747635	-1.10165866812392	-0.62839444067282	-0.473264227451095	-0.62839444067282	0.0	-0.62839444067282	-1.10165866812392	-2.22241199762091	-8.23480894278881	-4.2924707722465225	-5.6452426115096115	-9.686305364896638	-6.595149109250235	-5.6452426115096115	-3.786840956458173	-10.23760033177433	-2.0027913889855222	-9.656434647144831	-0.2812787366113038	4	correct	1.0
377.8047112999484	9.73388889990747	nogo_punish	1.0	377.81751419976354	380.58665159996644	383.1128471996635	2.769137400202908	378.8215688997875	382.0945498999208	386.1554958000779	1.7650827001789366	1.0182972997426987	1.395907299593091	385.1484536998905	0.6153159001842141	384.12453569984064	2	1	104	2	nogo_punish	1	-1	0	0	0	1	1	1.0	1.0	0	1.0	0.6153159001842141	2003.9104154002853	2381.727929600049	2382.731984300073	2384.4970670002517	2386.004965300206	2387.023262599949	2388.034951100126	2389.058869100176	2390.065911200363	2391.4618184999563	2020-10-07 10:28:31.729344	-0.0832561965439354	0.0	-1.43677195279007	-1.43605119663728	-1.35351575624614	-1.43677195279007	0.0832561965439354	-1.43677195279007	0.0	-1.43677195279007	-1.35351575624614	1.43677195279007	-8.79132936678384	-4.2924707722465225	-6.4536201236268615	-10.494865584057568	-6.847006197372455	-6.4536201236268615	-0.1276570060471931	-11.04597784389158	-2.254648477107742	-10.464812159262081	-0.2812787366113038	4	correct	1.0
387.56708380021155	9.489002199843526	nogo_reward	1.0	387.5798867000267	390.350629999768	392.8689538999465	2.770743299741298	388.58342649973974	391.8551964000799	395.9109187000431	1.767203500028245	1.0137574998666423	1.1579701998271048	394.9047350999899	0.4341623997315764	393.8816034998749	2	1	105	4	nogo_reward	1	0	1	0	0	1	0	0.0	1.0	1	1.0	0.4341623997315764	2003.9104154002853	2391.490302100312	2392.493841900025	2394.2610454000533	2395.765611800365	2396.779369300232	2397.79201890016	2398.815150500275	2399.8213341003284	2400.9793043001555	2020-10-07 10:28:31.729344	19.0146357636997	0.0	25.1505759529449	25.1505759529449	6.13594018924524	25.1505759529449	-19.0146357636997	25.1505759529449	0.0	25.1505759529449	6.13594018924524	1.6223861109882982	10.306562593459796	-4.2924707722465225	20.13372778210811	16.091761565524614	0.6424497481189251	20.13372778210811	0.05795715215103514	15.541370061843391	5.234807468383638	16.12253574647289	-0.2812787366113038	4	correct	1.0
397.13103910023347	8.077233399730176	go_reward	0.2714871000498533	397.1438420000486	398.51435539964586	401.1225922997105	1.3705133995972574	398.14823759999126	400.1093452000059	404.1777776996605	0.366117799654603	1.0132470997045857	1.0432977001182735	403.171550499741	0.4507275000214576	402.14608159987256	2	1	106	3	go_reward	1	1	0	1	1	1	0	0.0	1.0	1	0.2714871000498533	0.4507275000214576	2003.9104154002853	2401.054257400334	2402.0586530002765	2402.424770799931	2404.019760600291	2405.033007699996	2406.056497000158	2407.0819659000263	2408.088193099946	2409.131490800064	2020-10-07 10:28:31.729344	26.3678733480607	21.2880185386943	0.0	21.2880185386943	26.3678733480607	0.0	-26.3678733480607	21.2880185386943	0.0	26.3678733480607	0.0	5.484943525238901	17.6598001778208	16.99554776644778	-5.016848170836791	12.229204151274011	20.874382906934386	-5.016848170836791	3.9205145664016374	16.75866745695919	-0.9011327208616021	12.259978332222287	-0.2812787366113038	4	correct	1.0
405.2578302999027	9.34914400009393	go_reward	0.3628859003074467	405.27063319971785	407.6018985998817	410.18712879996747	2.3312654001638293	406.27495059976354	409.16227469965816	413.2310208999552	1.3269480001181364	1.0248541003093123	1.3887562998565954	412.22442159987986	0.3987230998463928	411.2001399998553	2	1	107	3	go_reward	0	0	1	1	1	1	0	0.0	1.0	0	0.3628859003074467	0.3987230998463928	2003.9104154002853	2409.181048600003	2410.185366000049	2411.512314000167	2413.0726900999434	2414.0975442002527	2415.1105554001406	2416.134837000165	2417.1414363002405	2418.530192600097	2020-10-07 10:28:31.729344	28.7190166107366	23.1188009927793	0.0	23.1188009927793	28.7190166107366	0.0	-28.7190166107366	23.1188009927793	0.0	28.7190166107366	0.0	-23.1188009927793	20.010943440496696	18.826330220532775	-5.016848170836791	14.059986605359011	23.225526169610283	-5.016848170836791	-24.68322995161656	19.10981071963509	-0.9011327208616021	14.090760786307287	-0.2812787366113038	4	correct	1.0
414.6547854002565	9.24124509980902	nogo_punish	1.0	414.66758830007166	417.1383626000029	419.6573584997095	2.470774299931236	415.6724948999472	418.6434565996751	422.69965269975364	1.4658677000556963	1.0139019000343978	1.2091807001270354	421.69281189981893	0.507362499833107	420.66855099983513	2	1	108	2	nogo_punish	0	0	-1	0	0	1	0	0.0	1.0	-1	1.0	0.507362499833107	2003.9104154002853	2418.578003700357	2419.5829103002325	2421.048778000288	2422.5538719999604	2423.567773899995	2424.5789664001204	2425.603227300104	2426.610068100039	2427.819248800166	2020-10-07 10:28:31.729344	0.300702773488713	0.0	-0.866621508685061	-0.866042069517935	-1.16732428217377	-0.866621508685061	-0.300702773488713	-0.866621508685061	0.0	-0.866621508685061	-1.16732428217377	-1.984184929608669	-8.407370396751192	-4.2924707722465225	-5.883469679521852	-9.924856456938222	-6.660814723300085	-5.883469679521852	-3.5486138884459324	-10.47582739978657	-2.068457003035372	-9.894661715157072	-0.2812787366113038	4	correct	1.0
423.9799144999124	8.233595999889076	go_reward	0.2373509001918137	423.99271739972755	425.8314310996793	428.41191649995744	1.838713699951768	424.99705839995295	427.3865279997699	431.45412869984284	0.834372699726373	1.025388500187546	0.7721846997737885	430.44743949966505	0.4167312998324632	429.4240593998693	2	1	109	3	go_reward	0	0	1	1	1	1	1	1.0	1.0	0	0.2373509001918137	0.4167312998324632	2003.9104154002853	2427.903132800013	2428.907473800238	2429.7418464999646	2431.296943400055	2432.3223319002427	2433.3344748001546	2434.3578548999503	2435.364544100128	2436.136728799902	2020-10-07 10:28:31.729344	17.14880234086	14.2623469608394	0.0	14.2623469608394	17.14880234086	0.0	-17.14880234086	14.2623469608394	0.0	17.14880234086	0.0	-14.2623469608394	8.440729170620097	9.969876188592877	-5.016848170836791	5.203532573419112	11.655311899733686	-5.016848170836791	-15.826775919676663	7.539596449758491	-0.9011327208616021	5.234306754367388	-0.2812787366113038	4	correct	1.0
432.2617591000162	8.535507299937308	nogo_punish	1.0	432.27456199983135	434.4925985997543	437.0132459998131	2.2180365999229252	433.2787285000086	435.99822419974953	440.0569458999671	1.2138700997456908	1.0150218000635505	0.7531233998015523	439.0499008996412	0.5399197000078857	438.0249596000649	2	1	110	2	nogo_punish	0	0	-1	0	0	1	1	1.0	1.0	-1	1.0	0.5399197000078857	2003.9104154002853	2436.1849774001166	2437.189143900294	2438.4030140000395	2439.908639600035	2440.9236614000984	2441.93537500035	2442.9603162999265	2443.9673613002524	2444.720484700054	2020-10-07 10:28:31.729344	-0.19838971182817	0.0	-1.59305522128452	-1.59258598665168	-1.39466550945635	-1.59305522128452	0.19838971182817	-1.59305522128452	0.0	-1.59305522128452	-1.39466550945635	-1.2577512170092102	-8.906462882068075	-4.2924707722465225	-6.6099033921213115	-10.651400374071969	-6.888155950582664	-6.6099033921213115	-2.8221801758464733	-11.20226111238603	-2.2957982303179523	-10.621095427756531	-0.2812787366113038	4	correct	1.0
440.8750037001446	8.206518999767013	go_reward	0.3869552002288401	440.88780659995973	442.45360209979117	445.0317186997272	1.565795499831438	441.8928457000293	444.0189815000631	448.0740567999892	0.5607563997618854	1.012737199664116	1.0202687997375506	447.06674969987944	0.4774381997995078	446.0442957999189	2	1	111	3	go_reward	1	1	0	1	1	1	1	1.0	1.0	1	0.3869552002288401	0.4774381997995078	2003.9104154002853	2444.798222000245	2445.8032611003146	2446.3640175000764	2447.9293969003484	2448.9421341000125	2449.954711200204	2450.9771651001647	2451.9844722002745	2453.004741000012	2020-10-07 10:28:31.729344	10.6127335063611	9.20972886210998	0.0	9.20972886210998	10.6127335063611	0.0	-10.6127335063611	9.20972886210998	0.0	10.6127335063611	0.0	17.56323320182322	1.9046603361211947	4.9172580898634575	-5.016848170836791	0.1509144746896922	5.119243065234785	-5.016848170836791	15.998804242985956	1.0035276152595891	-0.9011327208616021	0.1816886556379682	-0.2812787366113038	4	correct	1.0
449.1124770999886	8.315263600088656	go_punish	0.336978499777615	449.12527999980375	450.6666616997677	453.2082626000047	1.5413816999639494	450.12963209999725	452.1986163998954	456.2515623997897	0.5370295997704488	1.0096462001092732	1.1889812001027167	455.24426799965977	0.5454468000680208	454.21941829985053	2	1	112	1	go_punish	1	0	-1	1	1	1	0	0.0	1.0	0	0.336978499777615	0.5454468000680208	2003.9104154002853	2453.035695400089	2454.0400475002825	2454.577077100053	2456.1090318001807	2457.11867800029	2458.129833700136	2459.154683399945	2460.161977800075	2461.3509590001777	2020-10-07 10:28:31.729344	0.286781087363942	-0.628919728863044	-2.27877115816612	-1.48374202893888	-1.99199007080218	-2.27877115816612	-0.286781087363942	-0.628919728863044	-2.27877115816612	-1.99199007080218	-2.27877115816612	0.628919728863044	-8.421292082875963	-4.921390501109567	-7.295619329002911	-10.542556416359169	-7.485480511928495	-7.295619329002911	-0.935509229974219	-11.60119596190369	-3.179903879027722	-9.656959935335056	-2.560049894777424	4	correct	1.0
457.4958739001304	8.305511400103569	nogo_punish	1.0	457.50867679994553	458.87095519993454	461.38716599997133	1.362278399989009	458.513350199908	460.37626169994473	464.42972059966996	0.35760500002652407	1.0109043000265956	1.3844676003791392	463.4235938997008	0.433752900455147	462.4000005000271	2	1	113	2	nogo_punish	1	-1	0	0	0	1	0	0.0	1.0	0	1.0	0.433752900455147	2003.9104154002853	2461.419092200231	2462.4237656001933	2462.78137060022	2464.28667710023	2465.2975814002566	2466.3104159003124	2467.334009299986	2468.3401359999552	2469.7246036003344	2020-10-07 10:28:31.729344	-0.497898896763819	0.0	-2.02025836309697	-2.01987573624938	-1.52235946633315	-2.02025836309697	0.497898896763819	-2.02025836309697	0.0	-2.02025836309697	-1.52235946633315	2.02025836309697	-9.205972067003724	-4.2924707722465225	-7.037106533933761	-11.078690123669668	-7.015849907459464	-7.037106533933761	0.45582940425970686	-11.62946425419848	-2.423492187194752	-11.048298569568981	-0.2812787366113038	4	correct	1.0
465.8273976999335	8.53500929987058	nogo_reward	1.0	465.84020059974864	467.6054603997618	470.1247800998385	1.7652598000131547	466.84436889970675	469.11068559996784	473.1678158999425	0.7610915000550449	1.01409449987068	1.2073939996766967	472.1600930998102	0.4959267000667751	471.1358177997172	2	1	114	4	nogo_reward	1	0	1	0	0	1	0	0.0	1.0	1	1.0	0.4959267000667751	2003.9104154002853	2469.750616000034	2470.754784299992	2471.515875800047	2473.021101000253	2474.035195500124	2475.0462332000025	2476.0705085000955	2477.078231300228	2478.2856252999045	2020-10-07 10:28:31.729344	19.3417024570112	0.0	25.5831957300246	25.5831957300246	6.24149327301347	25.5831957300246	-19.3417024570112	25.5831957300246	0.0	25.5831957300246	6.24149327301347	1.1897663339086009	10.633629286771294	-4.2924707722465225	20.566347559187808	16.52438134260431	0.7480028318871552	20.566347559187808	-0.3746626249286622	15.973989838923089	5.340360552151868	16.555155523552585	-0.2812787366113038	4	correct	1.0
474.39350790018216	8.695861599873751	go_punish	0.5292700002901256	474.4063107999973	476.0703831999558	478.6641150997025	1.6640723999585134	475.4102193997237	477.6433989997022	481.71026689978316	0.6601638002321124	1.0207161000002998	1.391905500087887	480.70322259981185	0.4834120003506541	479.6803346998058	2	1	115	1	go_punish	0	-1	0	1	1	1	0	0.0	1.0	-1	0.5292700002901256	0.4834120003506541	2003.9104154002853	2478.3167262002826	2479.320634800009	2479.980798600241	2481.5538143999875	2482.5745304999878	2483.590750100091	2484.613638000097	2485.6206823000684	2487.0125878001563	2020-10-07 10:28:31.729344	0.715652076817106	-0.38894848532983	-2.27877115816612	-0.901945682511583	-1.56311908134902	-2.27877115816612	-0.715652076817106	-0.38894848532983	-2.27877115816612	-1.56311908134902	-2.27877115816612	-2.4618579529639	-7.992421093422799	-4.681419257576352	-7.295619329002911	-9.96076006993187	-7.056609522475334	-7.295619329002911	-4.026286911801163	-11.17232497245053	-3.179903879027722	-9.416988691801842	-2.560049894777424	4	correct	1.0
483.1586958002299	7.974364299792796	nogo_punish	1.0	483.17149870004505	484.5936849997379	487.10953379981174	1.4221862996928394	484.17659169994295	486.0986774000339	490.1494840998198	0.41709329979494214	1.010856399777822	0.9963789000180441	489.14335600007325	0.5043871002271771	488.1203188998629	2	1	116	2	nogo_punish	1	-1	0	0	0	1	0	0.0	1.0	0	1.0	0.5043871002271771	2003.9104154002853	2487.0819141003303	2488.087007100228	2488.504100400023	2490.009092800319	2491.019949200097	2492.030734300148	2493.0537714003585	2494.059899500105	2495.056278400123	2020-10-07 10:28:31.729344	0.0339168449895929	0.0	-1.23483044499165	-1.23451637887122	-1.26874728998124	-1.23483044499165	-0.0339168449895929	-1.23483044499165	0.0	-1.23483044499165	-1.26874728998124	1.23483044499165	-8.674156325250312	-4.2924707722465225	-6.251678615828442	-10.293330766291508	-6.762237731107555	-6.251678615828442	-0.329598513845613	-10.84403633609316	-2.169880010842842	-10.262870651463661	-0.2812787366113038	4	correct	1.0
491.1803089999594	8.093954400159419	nogo_punish	1.0	491.1931118997745	492.8443708000709	495.3589536999352	1.6512589002963978	492.1977762999013	494.3498647999945	498.40320959966675	0.6465945001696127	1.009088899940707	0.883856700267188	497.39620739966676	0.2659450997598469	496.3708837996237	2	1	117	2	nogo_punish	1	-1	0	0	0	1	0	1.0	0.0	0	1.0	0.2659450997598469	2003.9104154002853	2495.10352730006	2496.1081917001866	2496.754786200356	2498.26028020028	2499.2693691002205	2500.281299199909	2501.306622799952	2502.313624999952	2503.197481700219	2020-10-07 10:28:31.729344	0.343656902925525	0.0	-0.785555927720277	-0.785296510731169	-1.1292128306458	-0.785555927720277	-0.343656902925525	-0.785555927720277	0.0	-0.785555927720277	-1.1292128306458	0.785555927720277	-8.364416267314379	-4.2924707722465225	-5.802404098557068	-9.844110898151456	-6.622703271772115	-5.802404098557068	-0.778873031116986	-10.394761818821788	-2.030345551507402	-9.813596134192288	-0.2812787366113038	4	wrong	1.0
499.2998585999012	8.807684600353241	nogo_reward	1.0	499.31266149971634	501.2173302997835	503.7330835000612	1.9046688000671566	500.3173326998949	502.7222571996972	506.77606729976833	0.899997599888593	1.0108263003639877	1.3442788003012538	505.7699646996334	0.3604389000684023	504.7453022999689	2	1	118	4	nogo_reward	0	1	0	0	0	1	0	1.0	0.0	0	1.0	0.3604389000684023	2003.9104154002853	2503.2230769000016	2504.22774810018	2505.1277457000688	2506.6326725999825	2507.6434989003465	2508.655717700254	2509.6803800999187	2510.6864827000536	2512.030761500355	2020-10-07 10:28:31.729344	19.5703440399569	0.0	25.881303830307	25.881303830307	6.31095979035003	25.881303830307	-19.5703440399569	25.881303830307	0.0	25.881303830307	6.31095979035003	-25.881303830307	10.862270869716996	-4.2924707722465225	20.86445565947021	16.822489442886713	0.8174693492237157	20.86445565947021	-27.445732789144262	16.27209793920549	5.409827069488428	16.85326362383499	-0.2812787366113038	4	wrong	1.0
508.1963104000315	8.551695799920708	go_reward	0.7735639000311494	508.20911329984665	510.1762926997617	512.7648870996195	1.9671793999150395	509.2133660996333	511.73813149984926	515.8073817999102	0.9629266001284122	1.0267555997702402	0.9534272998571396	514.8008470996283	0.3172414000146091	513.7774589997716	2	1	119	3	go_reward	1	1	0	1	1	1	0	0.0	1.0	1	0.7735639000311494	0.3172414000146091	2003.9104154002853	2512.119528700132	2513.1237814999186	2514.086708100047	2515.6485469001345	2516.675302499905	2517.687874400057	2518.7112624999136	2519.7177972001955	2520.6712245000526	2020-10-07 10:28:31.729344	19.7421623838663	16.1687511918811	0.0	16.1687511918811	19.7421623838663	0.0	-19.7421623838663	16.1687511918811	0.0	19.7421623838663	0.0	10.6042108720521	11.034089213626396	11.876280419634577	-5.016848170836791	7.109936804460812	14.248671942739985	-5.016848170836791	9.039781913214837	10.13295649276479	-0.9011327208616021	7.140710985409088	-0.2812787366113038	4	correct	1.0
516.7786848000246	7.756727499887802	go_punish	0.0353832999244332	516.7914876998398	518.1134131997828	520.6587540996265	1.3219254999430632	517.796210099943	519.6451334999874	523.6859645000659	0.31720309983984407	1.0136205996391254	0.8622506996616721	522.6787666999735	1.0	521.6697481996384	2	1	120	1	go_punish	0	-1	0	1	1	1	0	n/a	0.0	0	0.0353832999244332	1.0	2003.9104154002853	2520.701903100125	2521.7066255002283	2522.023828600068	2523.5555489002727	2524.569169499912	2525.5801635999237	2526.5891821002588	2527.596379900351	2528.458630600013	2020-10-07 10:28:31.729344	-0.418876357125285	-1.29800235387521	-2.27877115816612	-1.62001241365465	-2.69764751529141	-2.27877115816612	0.418876357125285	-1.29800235387521	-2.27877115816612	-2.69764751529141	-2.27877115816612	-1.5528040844185202	-9.12694952736519	-5.590473126121733	-7.295619329002911	-10.678826801074937	-8.191137956417725	-7.295619329002911	-3.1172330432557835	-12.30685340639292	-3.179903879027722	-10.326042560347222	-2.560049894777424	4	missed	0.0
