onset	duration	trial_type	response_time	cueOnset	targetOnset	fbOnset	cueRT	firstfixOnset	secondfixOnset	waitOnset	firstfixdur	secondfixdur	waitdur	nback_fbOnset	nback_response_time	nback_targetOnset	block	wm	trial	cue	cond	is_common	outcome_go	outcome_nogo	key_correct	key_pressed	is_correct	key_correct_nback	key_pressed_nback	is_correct_nback	outcome	rt	rt_nback	time_scan	time_onset	time_isi1	time_circle	time_isi2	time_feedback	time_same	time_correct	time_iti	time_done	timestamp_scan	DV	Qgo	Qnogo	SV	Wgo	Wnogo	mDV	Qchosen	Qunchosen	Wchosen	Wunchosen	PE	DVC	QgoC	QnogoC	SVC	WgoC	WnogoC	PEC	WchosenC	WunchosenC	QchosenC	QunchosenC	run	outcome_nback	nback_targetResp
0.0	6.574036899954081	go_reward	0.3275903998874128	0.08075059996923528	1.6676698997616768	4.2971553998067975	1.5869192997924415	1.0854051997885108	3.2658021999523044	5.305659999605268	0.582264699973166	1.0313531998544931	1.3491275003180476	n/a	1.0	n/a	1	0	1	3	go_reward	1	1	0	1	1	1	0	n/a	n/a	1	0.3275903998874128	1.0	363.5174414003268	363.598192000296	364.6028466001153	365.18511130008847	366.7832436002791	367.8145968001336	n/a	n/a	368.82310139993206	370.1722289002501	2020-10-07 10:01:11.336048	-0.915018364189558	0.0	0.0	0.0	-0.915018364189558	0.0	0.915018364189558	0.0	0.0	-0.915018364189558	0.0	26.7729620639332	-9.623091534429463	-4.2924707722465225	-5.016848170836791	-9.058814387420288	-6.408508805315872	-5.016848170836791	25.20853310509594	-10.524224255291069	-0.9011327208616021	-9.028040206472012	-0.2812787366113038	1	missed	0.0
6.693598899990263	7.763973099645227	nogo_reward	0.2526752999983728	6.774349499959499	9.535540099721402	12.075046699959785	2.7611905997619033	7.779378699604422	11.065138299949467	13.081241899635586	1.75616140011698	1.0099084000103176	1.45708069996914	n/a	1.0	n/a	1	0	2	4	nogo_reward	1	0	1	0	1	0	0	n/a	n/a	0	0.2526752999983728	1.0	363.5174414003268	370.2917909002863	371.2968200999312	373.0529815000482	374.58257970027626	375.5924881002866	n/a	n/a	376.5986832999624	378.0557639999315	2020-10-07 10:01:11.336048	-0.915018364189558	0.0	0.0	0.0	-0.915018364189558	0.0	0.915018364189558	0.0	0.0	-0.915018364189558	0.0	0.0	-9.623091534429463	-4.2924707722465225	-5.016848170836791	-9.058814387420288	-6.408508805315872	-5.016848170836791	-1.564428958837263	-10.524224255291069	-0.9011327208616021	-9.028040206472012	-0.2812787366113038	1	missed	0.0
14.53493059985334	6.145158099941909	go_reward	0.3291711998172104	14.615681199822575	16.182863699737936	18.727497600018978	1.5671824999153614	15.61944349994883	17.71326099988073	19.740512999706027	0.5634201997891068	1.014236600138247	1.020326300058457	n/a	1.0	n/a	1	0	3	3	go_reward	1	1	0	1	1	1	1	n/a	n/a	1	0.3291711998172104	1.0	363.5174414003268	378.13312260014936	379.1368849002756	379.7003051000647	381.2307024002075	382.24493900034577	n/a	n/a	383.2579544000328	384.2782807000913	2020-10-07 10:01:11.336048	6.937535430072	6.53378549897174	0.0	6.53378549897174	6.937535430072	0.0	-6.937535430072	6.53378549897174	0.0	6.937535430072	0.0	20.23917656496146	-1.7705377401679048	2.241314726725218	-5.016848170836791	-2.5250288884485474	1.4440449889456852	-5.016848170836791	18.6747476061242	-2.6716704610295103	-0.9011327208616021	-2.4942547075002715	-0.2812787366113038	1	missed	0.0
20.715947899967375	6.9911006996408105	nogo_reward	1.0	20.79669849993661	23.505917700007615	26.02474829973653	2.7092192000710043	21.80152909969911	25.010729299858212	27.031853099819273	1.704388600308505	1.0140189998783171	0.7559460997581482	n/a	1.0	n/a	1	0	4	4	nogo_reward	1	0	1	0	0	1	1	n/a	n/a	1	1.0	1.0	363.5174414003268	384.3141399002634	385.3189705000259	387.0233591003344	388.528170700185	389.5421897000633	n/a	n/a	390.54929450014606	391.3052405999042	2020-10-07 10:01:11.336048	0.915018364189558	0.0	0.0	0.0	-0.915018364189558	0.0	-0.915018364189558	0.0	0.0	0.0	-0.915018364189558	26.7729620639332	-7.793054806050346	-4.2924707722465225	-5.016848170836791	-9.058814387420288	-6.408508805315872	-5.016848170836791	25.20853310509594	-9.60920589110151	-1.81615108505116	-9.028040206472012	-0.2812787366113038	1	missed	0.0
27.749444299843105	7.444695500191244	go_reward	0.3053784999065101	27.83019489981234	30.59191589988768	33.138149899896234	2.7617210000753403	28.834844999946654	32.124039999675006	34.145446699578315	1.7570708999410272	1.0141099002212286	1.12944370042527	n/a	1.0	n/a	1	0	5	3	go_reward	1	1	0	1	1	1	1	n/a	n/a	1	0.3053784999065101	1.0	363.5174414003268	391.34763630013913	392.35228640027344	394.10935730021447	395.6414814000018	396.655591300223	n/a	n/a	397.6628880999051	398.7923318003304	2020-10-07 10:01:11.336048	12.6327231125501	11.3079287228945	0.0	11.3079287228945	12.6327231125501	0.0	-12.6327231125501	11.3079287228945	0.0	12.6327231125501	0.0	15.4650333410387	3.924649942310195	7.015457950647978	-5.016848170836791	2.2491143354742125	7.139232671423785	-5.016848170836791	13.900604382201436	3.0235172214485893	-0.9011327208616021	2.2798885164224885	-0.2812787366113038	1	missed	0.0
35.23480319976795	7.273774399887827	go_punish	0.3225457998923957	35.31555379973719	37.64668729994452	40.18779639992863	2.3311335002073292	36.320437999907824	39.17734960000962	41.205832900013775	1.326249300036693	1.0104467999190092	1.3834952996112406	n/a	1.0	n/a	1	0	6	1	go_punish	1	0	-1	1	1	1	0	n/a	n/a	0	0.3225457998923957	1.0	363.5174414003268	398.832995200064	399.8378794002346	401.1641287002713	402.6947910003364	403.7052378002554	n/a	n/a	404.72327430034056	406.1067695999518	2020-10-07 10:01:11.336048	-0.915018364189558	0.0	0.0	0.0	-0.915018364189558	0.0	0.915018364189558	0.0	0.0	-0.915018364189558	0.0	0.0	-9.623091534429463	-4.2924707722465225	-5.016848170836791	-9.058814387420288	-6.408508805315872	-5.016848170836791	-1.564428958837263	-10.524224255291069	-0.9011327208616021	-9.028040206472012	-0.2812787366113038	1	missed	0.0
42.545789599884245	5.950015599839389	go_punish	1.0	42.62654019985348	44.27774309972301	46.79708109982312	1.6512028998695314	43.630767500028014	45.782853399869055	47.80431089969352	0.6469755996949971	1.0142276999540627	0.7722448999993503	n/a	1.0	n/a	1	0	7	1	go_punish	1	0	-1	1	0	0	0	n/a	n/a	-1	1.0	1.0	363.5174414003268	406.14398160018027	407.1482089003548	407.7951845000498	409.30029480019584	410.3145225001499	n/a	n/a	411.3217523000203	412.09399720001966	2020-10-07 10:01:11.336048	0.915018364189558	0.0	0.0	0.0	-0.915018364189558	0.0	-0.915018364189558	0.0	0.0	0.0	-0.915018364189558	-2.85080643829373	-7.793054806050346	-4.2924707722465225	-5.016848170836791	-9.058814387420288	-6.408508805315872	-5.016848170836791	-4.415235397130993	-9.60920589110151	-1.81615108505116	-9.028040206472012	-0.2812787366113038	1	missed	0.0
48.53110039979214	6.2835621000267565	nogo_reward	1.0	48.61185099976137	50.446608499623835	52.96067249961203	1.8347574998624623	49.615691899787635	51.951140499673784	53.96794159989798	0.8309165998362005	1.0095319999382468	0.9274714998901459	n/a	1.0	n/a	1	0	8	4	nogo_reward	0	1	0	0	0	1	0	n/a	n/a	0	1.0	1.0	363.5174414003268	412.12929240008816	413.1331333001144	413.9640498999506	415.4685819000006	416.4781138999388	n/a	n/a	417.4853830002248	418.4128545001149	2020-10-07 10:01:11.336048	6.13003556787147	0.0	6.53378549897174	6.53378549897174	0.403749931100265	6.53378549897174	-6.13003556787147	6.53378549897174	0.0	6.53378549897174	0.403749931100265	-6.53378549897174	-2.5780376023684344	-4.2924707722465225	1.516937328134949	-2.5250288884485474	-5.08974051002605	1.516937328134949	-8.098214457809004	-3.07542039212977	-0.4973827897613371	-2.4942547075002715	-0.2812787366113038	1	missed	0.0
54.85735439974809	6.626590699888766	go_reward	0.2795719001442194	54.938104999717325	56.78646590001881	59.33325919974601	1.8483609003014863	55.943228299729526	58.31865279981872	60.34087449964136	0.8432376002892852	1.0146063999272883	1.223821199964732	n/a	1.0	n/a	1	0	9	3	go_reward	1	1	0	1	1	1	0	n/a	n/a	1	0.2795719001442194	1.0	363.5174414003268	418.4555464000441	419.4606697000563	420.3039073003456	421.8360942001455	422.8507006000728	n/a	n/a	423.85831589996815	425.0821370999329	2020-10-07 10:01:11.336048	16.8104997705644	14.8350426094777	0.0	14.8350426094777	16.8104997705644	0.0	-16.8104997705644	14.8350426094777	0.0	16.8104997705644	0.0	11.9379194544555	8.102426600324497	10.542571837231177	-5.016848170836791	5.776228222057412	11.317009329438086	-5.016848170836791	10.373490495618237	7.201293879462892	-0.9011327208616021	5.807002403005688	-0.2812787366113038	1	missed	0.0
61.530079499818385	6.2311684000304695	nogo_punish	1.0	61.61083009978762	62.9711886998266	65.49019709974527	1.3603586000389782	62.61587330000475	64.47684509959072	66.4967046999372	0.3553153998218477	1.0133520001545548	1.345293799880892	n/a	1.0	n/a	1	0	10	2	nogo_punish	0	0	-1	0	0	1	0	n/a	n/a	-1	1.0	1.0	363.5174414003268	425.1282715001144	426.13331470033154	426.4886301001534	427.9942864999175	429.00763850007206	n/a	n/a	430.014146100264	431.3594399001449	2020-10-07 10:01:11.336048	0.915018364189558	0.0	0.0	0.0	-0.915018364189558	0.0	-0.915018364189558	0.0	0.0	0.0	-0.915018364189558	-2.85080643829373	-7.793054806050346	-4.2924707722465225	-5.016848170836791	-9.058814387420288	-6.408508805315872	-5.016848170836791	-4.415235397130993	-9.60920589110151	-1.81615108505116	-9.028040206472012	-0.2812787366113038	1	missed	0.0
67.80300229974085	6.231482999864909	go_reward	0.2119883000850677	67.88375289971009	69.70027849962935	72.2466695997864	1.8165255999192595	68.88777929963544	71.23325999965891	73.25316490000114	0.8124991999939084	1.0134096001274884	0.8620709995738594	n/a	1.0	n/a	1	0	11	3	go_reward	1	1	0	1	1	1	1	n/a	n/a	1	0.2119883000850677	1.0	363.5174414003268	431.4011943000369	432.40522069996223	433.21771989995614	434.7507013999857	435.7641110001132	n/a	n/a	436.7706063003279	437.6326772999018	2020-10-07 10:01:11.336048	19.9089693849689	17.468695871298	0.0	17.468695871298	19.9089693849689	0.0	-19.9089693849689	17.468695871298	0.0	19.9089693849689	0.0	9.3042661926352	11.200896214728994	13.176225099051477	-5.016848170836791	8.409881483877712	14.415478943842583	-5.016848170836791	7.739837233797937	10.299763493867388	-0.9011327208616021	8.440655664825988	-0.2812787366113038	1	missed	0.0
74.07265109987924	6.988028199877647	go_reward	0.2830334999598562	74.15340169984847	76.2001704997383	78.7414269996807	2.0467687998898327	75.15741999959573	77.73138879984617	79.74967859964818	1.0427505001425743	1.0100381998345256	1.3917513000779422	n/a	1.0	n/a	1	0	12	3	go_reward	0	0	1	1	1	1	0	n/a	n/a	0	0.2830334999598562	1.0	363.5174414003268	437.67084310017526	438.6748613999225	439.7176119000651	441.24883020017296	442.2588684000075	n/a	n/a	443.26711999997497	444.6588713000529	2020-10-07 10:01:11.336048	22.231289976704	19.4553444885942	0.0	19.4553444885942	22.231289976704	0.0	-22.231289976704	19.4553444885942	0.0	22.231289976704	0.0	-19.4553444885942	13.523216806464097	15.162873716347677	-5.016848170836791	10.396530101173912	16.737799535577686	-5.016848170836791	-21.01977344743146	12.622084085602491	-0.9011327208616021	10.427304282122188	-0.2812787366113038	1	missed	0.0
81.09989879978815	7.01413459982723	go_punish	1.0	81.18064939975739	83.46013179980218	85.97948549967259	2.279482400044799	82.18513929983601	84.9653660999611	86.98606919962913	1.2749924999661744	1.0141193997114897	1.2087147999554873	n/a	1.0	n/a	1	0	13	1	go_punish	1	0	-1	1	0	0	0	n/a	n/a	-1	1.0	1.0	363.5174414003268	444.6980908000842	445.7025807001628	446.977573200129	448.4828075002879	449.4969268999994	n/a	n/a	450.5035105999559	451.7122253999114	2020-10-07 10:01:11.336048	0.382066231706985	0.0	-0.661762683460599	-0.661762683460599	-1.04382891516758	-0.661762683460599	-0.382066231706985	-0.661762683460599	0.0	-0.661762683460599	-1.04382891516758	-2.189043754833131	-8.32600693853292	-4.2924707722465225	-5.67861085429739	-9.720577070880887	-6.537319356293894	-5.67861085429739	-3.7534727136703943	-10.27096857456211	-1.944961636029182	-9.689802889932611	-0.2812787366113038	1	missed	0.0
88.14855929976324	5.924321100115776	go_punish	0.7675443002954125	88.22930989973247	89.62065499974409	92.16330019989982	1.3913451000116197	89.23360709985724	91.15282359998673	93.17591989971697	0.38704789988685206	1.0104765999130905	0.9777111001312733	n/a	1.0	n/a	1	0	14	1	go_punish	1	0	-1	1	1	1	0	n/a	n/a	0	0.7675443002954125	1.0	363.5174414003268	451.74675130005926	452.751048500184	453.1380964000709	454.6702650003135	455.6807416002266	n/a	n/a	456.69336130004376	457.67107240017503	2020-10-07 10:01:11.336048	0.0176133209241924	0.0	-1.15297425805139	-1.15297425805139	-1.13536093712719	-1.15297425805139	-0.0176133209241924	0.0	-1.15297425805139	-1.13536093712719	-1.15297425805139	0.0	-8.690459849315712	-4.2924707722465225	-6.169822428888182	-10.211788645471678	-6.628851378253504	-6.169822428888182	-1.564428958837263	-10.7445668282287	-2.054106978912992	-9.028040206472012	-1.4342529946626938	1	missed	0.0
94.10798659967253	6.452699000015855	nogo_punish	1.0	94.18873719964176	96.16590039990842	98.68067059991881	1.9771632002666593	95.1933973999694	97.67162919975817	99.68759059999138	0.9725029999390244	1.0090414001606405	0.9538455996662378	n/a	1.0	n/a	1	0	15	2	nogo_punish	1	-1	0	0	0	1	0	n/a	n/a	0	1.0	1.0	363.5174414003268	457.70617859996855	458.7108388002962	459.6833418002352	461.18907060008496	462.1981120002456	n/a	n/a	463.20503200031817	464.1588775999844	2020-10-07 10:01:11.336048	0.382066231706985	0.0	-0.661762683460599	-0.661762683460599	-1.04382891516758	-0.661762683460599	-0.382066231706985	-0.661762683460599	0.0	-0.661762683460599	-1.04382891516758	0.661762683460599	-8.32600693853292	-4.2924707722465225	-5.67861085429739	-9.720577070880887	-6.537319356293894	-5.67861085429739	-0.9026662753766641	-10.27096857456211	-1.944961636029182	-9.689802889932611	-0.2812787366113038	1	missed	0.0
100.59911859966809	6.728998600039574	nogo_punish	1.0	100.67986919963732	102.64467509975657	105.1591253997758	1.964805900119245	101.68511969968682	104.14928559958935	106.16581469960511	0.9595554000697462	1.0098398001864552	1.2430531000717906	n/a	1.0	n/a	1	0	16	2	nogo_punish	1	-1	0	0	0	1	0	n/a	n/a	0	1.0	1.0	363.5174414003268	464.1973105999641	465.2025611000136	466.16211650008336	467.66672699991614	468.6765668001026	n/a	n/a	469.6832560999319	470.9263092000037	2020-10-07 10:01:11.336048	0.515338811558381	0.0	-0.491211574590786	-0.491211574590786	-1.00655038614917	-0.491211574590786	-0.515338811558381	-0.491211574590786	0.0	-0.491211574590786	-1.00655038614917	0.491211574590786	-8.192734358681523	-4.2924707722465225	-5.508059745427578	-9.550025962011073	-6.500040827275485	-5.508059745427578	-1.073217384246477	-10.100417465692296	-1.9076831070107723	-9.519251781062797	-0.2812787366113038	1	missed	0.0
107.36408349964768	6.212862400337997	go_punish	0.6101460000500083	107.44483409961691	108.72115110000601	111.2642267998308	1.2763170003890991	108.44923709984869	110.25508649973199	112.2722022999078	0.2719140001573237	1.0091403000988066	1.3854942000471056	n/a	1.0	n/a	1	0	17	1	go_punish	1	0	-1	1	1	1	0	n/a	n/a	0	0.6101460000500083	1.0	363.5174414003268	470.9622754999437	471.9666785001755	472.2385925003328	473.7725279000588	474.7816682001576	n/a	n/a	475.7896437002346	477.1751379002817	2020-10-07 10:01:11.336048	0.0806463445853316	0.0	-1.15297425805139	-0.859734544055226	-1.07232791346605	-1.15297425805139	-0.0806463445853316	0.0	-1.15297425805139	-1.07232791346605	-1.15297425805139	0.0	-8.627426825654574	-4.2924707722465225	-6.169822428888182	-9.918548931475513	-6.5658183545923645	-6.169822428888182	-1.564428958837263	-10.681533804567561	-2.054106978912992	-9.028040206472012	-1.4342529946626938	1	missed	0.0
113.61466979980469	6.636351599823627	go_punish	1.0	113.69542039977392	115.91373359970748	118.43287869961932	2.2183131999335615	114.69996949983761	117.41942909965292	119.4394522998482	1.213764099869877	1.0134495999664068	0.8923196997493505	n/a	1.0	n/a	1	0	18	1	go_punish	1	0	-1	1	0	0	0	n/a	n/a	-1	1.0	1.0	363.5174414003268	477.2128618001007	478.2174109001644	479.4311750000343	480.9368704999797	481.9503200999461	n/a	n/a	482.956893700175	483.84921339992434	2020-10-07 10:01:11.336048	-0.124394422904319	0.0	-1.15297425805139	-0.647821637670314	-1.02857983514707	-1.15297425805139	0.124394422904319	-1.15297425805139	0.0	-1.15297425805139	-1.02857983514707	-1.6978321802423402	-8.832467593144223	-4.2924707722465225	-6.169822428888182	-9.706636025090601	-6.522070276273385	-6.169822428888182	-3.2622611390796035	-10.7621801491529	-1.9297125560086723	-10.181014464523402	-0.2812787366113038	1	missed	0.0
120.29521179990837	6.305661499965936	go_reward	1.0	120.37596239987761	121.69632279966032	124.2114802999422	1.3203603997827145	121.38038719957689	123.20159349963069	125.21898919995874	0.315935600083435	1.0098868003115058	1.462634699884802	n/a	1.0	n/a	1	0	19	3	go_reward	1	1	0	1	0	0	0	n/a	n/a	0	1.0	1.0	363.5174414003268	483.8934038002044	484.8978285999037	485.2137641999871	486.7190348999575	487.728921700269	n/a	n/a	488.73643060028553	490.19906530017033	2020-10-07 10:01:11.336048	-16.1369288635075	14.4347939709294	0.0	14.4347939709294	16.1369288635075	0.0	16.1369288635075	0.0	14.4347939709294	0.0	16.1369288635075	0.0	-24.845002033747406	10.142323198682877	-5.016848170836791	5.375979583509112	10.643438422381184	-5.016848170836791	-1.564428958837263	-9.60920589110151	15.235796142645897	-9.028040206472012	14.153515234318096	1	missed	0.0
126.63871959969396	7.0010871002450585	nogo_punish	1.0	126.71947019966319	129.29028909979394	131.80482759978622	2.570818900130746	127.72376079997048	130.7955653998069	132.8114020000212	1.5665282998234602	1.0092621999793323	0.9091552998870611	n/a	1.0	n/a	1	0	20	2	nogo_punish	1	-1	0	0	0	1	0	n/a	n/a	0	1.0	1.0	363.5174414003268	490.23691159999	491.24120220029727	492.8077305001207	494.3130068001337	495.322269000113	n/a	n/a	496.328843400348	497.23799870023504	2020-10-07 10:01:11.336048	0.612272922042005	0.0	-0.368522969464439	-0.368522969464439	-0.980795891506444	-0.368522969464439	-0.612272922042005	-0.368522969464439	0.0	-0.368522969464439	-0.980795891506444	0.368522969464439	-8.0958002481979	-4.2924707722465225	-5.38537114030123	-9.427337356884728	-6.474286332632759	-5.38537114030123	-1.195905989372824	-9.97772886056595	-1.881928612368046	-9.396563175936452	-0.2812787366113038	1	missed	0.0
133.68119479995215	6.290060899686068	go_reward	0.4940948998555541	133.7619453999214	135.30196539964527	137.84709719987586	1.5400199997238815	134.76639139978215	136.8332046996802	138.85370039986446	0.5355739998631179	1.0138925001956522	1.1983058997429907	n/a	1.0	n/a	1	0	21	3	go_reward	1	1	0	1	1	1	1	n/a	n/a	1	0.4940948998555541	1.0	363.5174414003268	497.2793868002482	498.28383280010894	498.81940679997206	500.350646100007	501.36453860020265	n/a	n/a	502.37114180019125	503.56944769993424	2020-10-07 10:01:11.336048	15.3964456560448	14.4347939709294	0.0	10.8239983856295	15.3964456560448	0.0	-15.3964456560448	14.4347939709294	0.0	15.3964456560448	0.0	12.3381680930038	6.688372485804896	10.142323198682877	-5.016848170836791	1.7651839982092117	9.902955214918485	-5.016848170836791	10.773739134166537	5.7872397649432905	-0.9011327208616021	5.406753764457388	-0.2812787366113038	1	missed	0.0
140.01061199977988	6.293746800161898	go_punish	1.0	140.09136259974912	141.6534525998868	144.1691431999206	1.5620900001376867	141.09552829992032	143.15940589969978	145.17781809996814	0.5579242999664871	1.00973730022082	1.2072912999428809	n/a	1.0	n/a	1	0	22	1	go_punish	0	-1	0	1	0	0	0	n/a	n/a	0	1.0	1.0	363.5174414003268	503.6088040000759	504.6129697002471	505.1708940002136	506.67684730002657	507.6865846002474	n/a	n/a	508.6952595002949	509.9025508002378	2020-10-07 10:01:11.336048	-0.394810313016937	0.0	-1.52149722751582	-1.15478725742864	-1.12668691449889	-1.52149722751582	0.394810313016937	-1.52149722751582	0.0	-1.52149722751582	-1.12668691449889	1.52149722751582	-9.102883483256841	-4.2924707722465225	-6.538345398352611	-10.213601644848929	-6.620177355625205	-6.538345398352611	-0.04293173132144301	-11.13070311861733	-2.0278196353604923	-10.549537433987831	-0.2812787366113038	1	missed	0.0
146.35933819971973	7.5373241999186575	go_reward	1.0	146.44008879968897	149.20908009959385	151.72783169988543	2.768991299904883	147.4444090998732	150.71423919964582	152.73456220002845	1.7646709997206358	1.0135925002396107	1.2428507995791733	n/a	1.0	n/a	1	0	23	3	go_reward	0	0	1	1	0	0	1	n/a	n/a	1	1.0	1.0	363.5174414003268	509.95753020001575	510.9618505002	512.7265214999206	514.2316805999726	515.2452731002122	n/a	n/a	516.2520036003552	517.4948543999344	2020-10-07 10:01:11.336048	-19.1219156158716	17.3577838846012	0.0	14.7329154665417	19.1219156158716	0.0	19.1219156158716	0.0	17.3577838846012	0.0	19.1219156158716	26.7729620639332	-27.829988786111507	13.065313112354678	-5.016848170836791	5.674101079121412	13.628425174745285	-5.016848170836791	25.20853310509594	-9.60920589110151	18.220782895009997	-9.028040206472012	17.0765051479899	1	missed	0.0
153.94804829964409	6.231730100233108	nogo_punish	1.0	154.02879889961332	155.4987553996034	158.0140274995938	1.4699564999900758	155.03300989978015	157.00403359998018	159.0216389996931	0.4657454998232424	1.0099938996136189	1.238890000153333	n/a	1.0	n/a	1	0	24	2	nogo_punish	1	-1	0	0	0	1	0	n/a	n/a	0	1.0	1.0	363.5174414003268	517.5462402999401	518.5504513001069	519.0161967999302	520.521475000307	521.5314688999206	n/a	n/a	522.5390804000199	523.7779704001732	2020-10-07 10:01:11.336048	0.683503639624305	0.0	-0.279298668205875	-0.279298668205875	-0.96280230783018	-0.279298668205875	-0.683503639624305	-0.279298668205875	0.0	-0.279298668205875	-0.96280230783018	0.279298668205875	-8.024569530615599	-4.2924707722465225	-5.296146839042667	-9.338113055626163	-6.4562927489564945	-5.296146839042667	-1.285130290631388	-9.888504559307385	-1.863935028691782	-9.307338874677887	-0.2812787366113038	1	missed	0.0
160.21749989967788	6.683354000095278	nogo_reward	1.0	160.2982504996471	162.22010649973527	164.7388371997513	1.9218560000881553	161.30321559961885	163.72514889994636	165.7452631997876	0.9168909001164138	1.013688299804926	1.2363412999548018	n/a	1.0	n/a	1	0	25	4	nogo_reward	1	0	1	0	0	1	0	n/a	n/a	1	1.0	1.0	363.5174414003268	523.8156918999739	524.8206569999456	525.737547900062	527.2425903002732	528.2562786000781	n/a	n/a	529.2627046001144	530.4990459000692	2020-10-07 10:01:11.336048	4.76811712955699	0.0	4.77414322392276	4.77414322392276	0.0060260943657735	4.77414322392276	-4.76811712955699	4.77414322392276	0.0	4.77414322392276	0.0060260943657735	21.99881884001044	-3.9399560406829144	-4.2924707722465225	-0.24270494691403144	-4.284671163497528	-5.487464346760541	-0.24270494691403144	20.43438988117318	-4.83506266717875	-0.8951066264958286	-4.253896982549252	-0.2812787366113038	1	missed	0.0
166.93655709968874	5.899831900373101	nogo_reward	1.0	167.01730769965798	168.37277599982917	170.89185569994152	1.3554683001711965	168.02270029997453	169.87822339963168	171.89939789986238	0.35007569985464215	1.0136323003098369	1.017741700168699	n/a	1.0	n/a	1	0	26	4	nogo_reward	1	0	1	0	0	1	0	n/a	n/a	1	1.0	1.0	363.5174414003268	530.5347490999848	531.5401417003013	531.890217400156	533.3956647999585	534.4092971002683	n/a	n/a	535.4168393001892	536.4345810003579	2020-10-07 10:01:11.336048	9.00648668302369	0.0	10.060899385555	10.060899385555	1.05441270253129	10.060899385555	-9.00648668302369	10.060899385555	0.0	10.060899385555	1.05441270253129	16.7120626783782	0.29841351278378525	-4.2924707722465225	5.044051214718209	1.0020849981347126	-4.439077738595024	5.044051214718209	15.147633719540936	0.4516934944534903	0.15327998166968781	1.0328591790829886	-0.2812787366113038	1	missed	0.0
172.87179319979617	6.440522899851203	go_punish	1.0	172.9525437997654	174.67747259978205	177.1966507998295	1.7249288000166416	173.95692299958318	176.1828348999843	178.20335319964215	0.7205496001988649	1.0138158998452127	1.1897134999744594	n/a	1.0	n/a	1	0	27	1	go_punish	1	0	-1	1	0	0	0	n/a	n/a	-1	1.0	1.0	363.5174414003268	536.4699852000922	537.47436439991	538.1949140001088	539.7002763003111	540.7140922001563	n/a	n/a	541.7207945999689	542.9105080999434	2020-10-07 10:01:11.336048	-0.0714085506393961	0.0	-1.1390332122611	-0.869983867294777	-1.0676246616217	-1.1390332122611	0.0714085506393961	-1.1390332122611	0.0	-1.1390332122611	-1.0676246616217	-1.7117732260326302	-8.7794817208793	-4.2924707722465225	-6.155881383097891	-9.928798254715065	-6.561115102748015	-6.155881383097891	-3.2762021848698932	-10.74823910336261	-1.968757382483302	-10.167073418733112	-0.2812787366113038	1	missed	0.0
179.3498813998885	6.356638900004327	nogo_reward	1.0	179.43063199985772	180.7935407999903	183.31219939980656	1.3629088001325727	180.43543769977987	182.29828099999577	184.31871060002595	0.35810310021042824	1.013918399810791	1.4685602998360991	n/a	1.0	n/a	1	0	28	4	nogo_reward	1	0	1	0	0	1	1	n/a	n/a	1	1.0	1.0	363.5174414003268	542.9480734001845	543.9528791001067	544.3109822003171	545.8157224003226	546.8296408001333	n/a	n/a	547.8361520003527	549.3047123001888	2020-10-07 10:01:11.336048	12.1519712424748	0.0	13.9415819847147	13.9415819847147	1.78961074223988	13.9415819847147	-12.1519712424748	13.9415819847147	0.0	13.9415819847147	1.78961074223988	12.8313800792185	3.443898072234896	-4.2924707722465225	8.924733813877909	4.8827675972944125	-3.7038796988864346	8.924733813877909	11.266951120381236	4.33237609361319	0.8884780213782778	4.9135417782426885	-0.2812787366113038	1	missed	0.0
185.74245949974278	7.2516940999776125	nogo_punish	1.0	185.823210099712	188.78649329999462	191.3021762999706	2.9632832002826035	186.8285752995871	190.2911022999324	192.30884369974956	1.957918000407517	1.0110740000382066	0.7660604999400675	n/a	1.0	n/a	1	0	29	2	nogo_punish	1	-1	0	0	0	1	0	n/a	n/a	0	1.0	1.0	363.5174414003268	549.3406515000388	550.3460166999139	552.3039347003214	553.8085437002592	554.8196177002974	n/a	n/a	555.8262851000763	556.5923456000164	2020-10-07 10:01:11.336048	0.736366514118074	0.0	-0.213725905762166	-0.213725905762166	-0.950092419880241	-0.213725905762166	-0.736366514118074	-0.213725905762166	0.0	-0.213725905762166	-0.950092419880241	0.213725905762166	-7.971706656121831	-4.2924707722465225	-5.230574076598957	-9.272540293182454	-6.443582861006556	-5.230574076598957	-1.350703053075097	-9.822931796863676	-1.851225140741843	-9.241766112234178	-0.2812787366113038	1	missed	0.0
193.07098789978767	7.645240500103682	go_reward	0.2357625998556614	193.1517384997569	195.69334049988538	198.29970789980143	2.541602000128478	194.15627339994535	197.28670759964734	199.30722589977086	1.5370670999400318	1.01300030015409	1.4897531000897288	n/a	1.0	n/a	1	0	30	3	go_reward	1	1	0	1	1	1	0	n/a	n/a	1	0.2357625998556614	1.0	363.5174414003268	556.6691799000837	557.6737148002721	559.2107819002122	560.8041489999741	561.8171493001282	n/a	n/a	562.8246673000976	564.3144204001874	2020-10-07 10:01:11.336048	13.1452744945824	17.3577838846012	6.53378549897174	17.5789893095484	19.6790599935542	6.53378549897174	-13.1452744945824	17.3577838846012	6.53378549897174	19.6790599935542	6.53378549897174	9.415178179331999	4.437201324342496	13.065313112354678	1.516937328134949	8.520174922128113	14.185569552427886	1.516937328134949	7.850749220494736	10.069854102452691	5.632652778110138	8.329743678129189	6.2525067623604365	1	missed	0.0
200.75726919993753	6.349888799712062	nogo_reward	1.0	200.83801979990676	202.62245219992474	205.13704960001633	1.7844324000179768	201.84273889986798	204.1273178998381	206.1444848999381	0.7797133000567555	1.0097317001782358	1.0434236996807158	n/a	1.0	n/a	1	0	31	4	nogo_reward	0	1	0	0	0	1	0	n/a	n/a	0	1.0	1.0	363.5174414003268	564.3554612002335	565.3601803001948	566.1398936002515	567.6447593001649	568.6544910003431	n/a	n/a	569.6619263002649	570.7053499999456	2020-10-07 10:01:11.336048	14.5105620912484	0.0	16.821691226774	16.821691226774	2.31112913552554	16.821691226774	-14.5105620912484	16.821691226774	0.0	16.821691226774	2.31112913552554	-16.821691226774	5.802488921008495	-4.2924707722465225	11.804843055937209	7.762876839353712	-3.1823613056007747	11.804843055937209	-18.38612018561126	7.21248533567249	1.4099964146639379	7.793651020301988	-0.2812787366113038	1	missed	0.0
207.1417338997125	5.956456700339913	go_punish	1.0	207.22248449968174	208.6905184998177	211.21067539975047	1.4680340001359582	208.2263944996521	210.1960287997499	212.21700389962643	0.4641240001656115	1.0146466000005603	0.9619373003952205	n/a	1.0	n/a	1	0	32	1	go_punish	1	0	-1	1	0	0	0	n/a	n/a	-1	1.0	1.0	363.5174414003268	570.7399259000085	571.7438358999789	572.2079599001445	573.7134702000767	574.7281168000773	n/a	n/a	575.7344452999532	576.6963826003484	2020-10-07 10:01:11.336048	-0.368248369599463	0.0	-1.52331022689308	-1.32388915194987	-1.15506185729362	-1.52331022689308	0.368248369599463	-1.52331022689308	0.0	-1.52331022689308	-1.15506185729362	-1.32749621140065	-9.076321539839368	-4.2924707722465225	-6.540158397729871	-10.382703539370159	-6.648552298419935	-6.540158397729871	-2.891925170237913	-11.13251611799459	-2.056194578155222	-10.551350433365092	-0.2812787366113038	1	missed	0.0
213.13276169961313	6.6187925999984145	go_punish	0.3226260002702474	213.21351229958236	214.8753670998849	217.42161809979007	1.6618548003025353	214.21731049986556	216.4085848997347	218.42856879997998	0.6580566000193357	1.0130332000553608	1.403736099600792	n/a	1.0	n/a	1	0	33	1	go_punish	1	0	-1	1	1	1	0	n/a	n/a	0	0.3226260002702474	1.0	363.5174414003268	576.7309536999092	577.7347519001924	578.3928085002117	579.9260263000615	580.9390595001169	n/a	n/a	581.9460102003068	583.3497462999076	2020-10-07 10:01:11.336048	0.593757914612998	0.0	-1.81104521896125	-1.66178200238796	-1.21728730434825	-1.81104521896125	-0.593757914612998	0.0	-1.81104521896125	-1.21728730434825	-1.81104521896125	0.0	-8.114315255626906	-4.2924707722465225	-6.827893389798041	-10.720596389808248	-6.710777745474564	-6.827893389798041	-1.564428958837263	-10.82649319544976	-2.712177939822852	-9.028040206472012	-2.092323955572554	1	missed	0.0
219.79052269970992	7.416466600261629	nogo_reward	1.0	219.87127329967916	222.35095819970593	224.87025789963081	2.4796849000267684	220.87560709984973	223.8559697996825	225.8773022997193	1.4753510998561978	1.0142880999483168	1.410437600221485	n/a	1.0	n/a	1	0	34	4	nogo_reward	1	0	1	0	0	1	0	n/a	n/a	1	1.0	1.0	363.5174414003268	583.388714700006	584.3930485001765	585.8683996000327	587.3734112000093	588.3876992999576	n/a	n/a	589.3947437000461	590.8051813002676	2020-10-07 10:01:11.336048	11.0816824354939	0.0	12.4481453536332	12.4481453536332	1.36646291813923	12.4481453536332	-11.0816824354939	12.4481453536332	0.0	12.4481453536332	1.36646291813923	14.3248167103	2.373609265253995	-4.2924707722465225	7.431297182796408	3.3893309662129116	-4.127027522987085	7.431297182796408	12.760387751462737	2.8389394625316893	0.4653301972776279	3.4201051471611876	-0.2812787366113038	1	missed	0.0
227.2493374999612	7.18676619976759	go_reward	0.0781458998098969	227.33008809993044	229.94215919962153	232.51386779965833	2.612071099691093	228.33459710003808	231.49951709993184	233.52051980001852	1.607562099583447	1.0143506997264922	0.9963344996795058	n/a	1.0	n/a	1	0	35	3	go_reward	1	1	0	1	1	1	0	n/a	n/a	1	0.0781458998098969	1.0	363.5174414003268	590.8475295002572	591.8520385003649	593.4596005999483	595.0169585002586	596.0313091999851	n/a	n/a	597.0379612003453	598.0342957000248	2020-10-07 10:01:11.336048	15.6859846465685	19.5070586904644	6.53378549897174	19.6755932349664	22.2197701455402	6.53378549897174	-15.6859846465685	19.5070586904644	6.53378549897174	22.2197701455402	6.53378549897174	7.265903373468799	6.977911476328595	15.214587918217878	1.516937328134949	10.616778847546112	16.726279704413884	1.516937328134949	5.7014744146315355	12.610564254438689	5.632652778110138	10.47901848399239	6.2525067623604365	1	missed	0.0
234.47664979984978	7.289388000033796	go_reward	0.2640887000598013	234.55740039981902	237.0279920999892	239.57053299993277	2.470591700170189	235.5625290996395	238.55714659998193	240.57695359969512	1.4654630003497005	1.0133863999508321	1.269834800157696	n/a	1.0	n/a	1	0	36	3	go_reward	1	1	0	1	1	1	0	n/a	n/a	1	0.2640887000598013	1.0	363.5174414003268	598.0748418001458	599.0799704999663	600.545433500316	602.0745880003087	603.0879744002596	n/a	n/a	604.0943950000219	605.3642298001796	2020-10-07 10:01:11.336048	17.5632675749674	21.1061031961317	6.53378549897174	21.2376193966468	24.0970530739391	6.53378549897174	-17.5632675749674	21.1061031961317	6.53378549897174	24.0970530739391	6.53378549897174	5.666858867801501	8.855194404727497	16.813632423885174	1.516937328134949	12.178805009226512	18.603562632812785	1.516937328134949	4.102429908964238	14.48784718283759	5.632652778110138	12.078062989659687	6.2525067623604365	1	missed	0.0
241.80823659989977	6.271250099875033	nogo_punish	1.0	241.888987199869	243.73703669989482	246.2500365995802	1.8480495000258088	242.89433929976076	245.24111019959673	247.2575486996211	0.8426974001340568	1.0089263999834657	0.9026886001229286	n/a	1.0	n/a	1	0	37	2	nogo_punish	1	-1	0	0	0	1	0	n/a	n/a	0	1.0	1.0	363.5174414003268	605.4064286001958	606.4117807000875	607.2544781002216	608.7585515999235	609.767477999907	n/a	n/a	610.7749900999479	611.6776787000708	2020-10-07 10:01:11.336048	0.775972197029588	0.0	-0.165046386941824	-0.165046386941824	-0.941018583971412	-0.165046386941824	-0.775972197029588	-0.165046386941824	0.0	-0.165046386941824	-0.941018583971412	0.165046386941824	-7.932100973210317	-4.2924707722465225	-5.181894557778615	-9.223860774362112	-6.434509025097727	-5.181894557778615	-1.3993825718954391	-9.774252278043335	-1.8421513048330143	-9.193086593413836	-0.2812787366113038	1	missed	0.0
248.11637239996338	6.498288299888372	nogo_punish	1.0	248.19712299993262	250.36414009984583	252.88293279986829	2.1670170999132097	249.20150029985234	251.86928239976987	253.8899133997038	1.1626397999934852	1.0136504000984132	0.8054979001171887	n/a	1.0	n/a	1	0	38	2	nogo_punish	0	0	-1	0	0	1	0	n/a	n/a	-1	1.0	1.0	363.5174414003268	611.7145644002594	612.7189417001791	613.8815815001726	615.3867238000967	616.4003742001951	n/a	n/a	617.4073548000306	618.2128527001478	2020-10-07 10:01:11.336048	0.805916447133841	0.0	-0.12855711208301	-0.12855711208301	-0.93447355921685	-0.12855711208301	-0.805916447133841	-0.12855711208301	0.0	-0.12855711208301	-0.93447355921685	-2.7222493262107204	-7.902156723106064	-4.2924707722465225	-5.145405282919802	-9.187371499503298	-6.427964000343165	-5.145405282919802	-4.286678285047984	-9.73776300318452	-1.8356062800784523	-9.156597318555022	-0.2812787366113038	1	missed	0.0
254.65032120002428	7.641136999707669	nogo_punish	1.0	254.73107179999352	257.5646702996455	260.08097189990804	2.8335984996519983	255.7361049996689	259.0702672996558	261.08835559990257	1.828565299976617	1.010704600252211	1.2838531997986138	n/a	1.0	n/a	1	0	39	2	nogo_punish	1	-1	0	0	0	1	1	n/a	n/a	0	1.0	1.0	363.5174414003268	618.2485132003203	619.2535463999957	621.0821116999723	622.5877086999826	623.5984133002348	n/a	n/a	624.6057970002294	625.889650200028	2020-10-07 10:01:11.336048	0.295801496212439	0.0	-0.762714647508289	-0.762714647508289	-1.05851614372073	-0.762714647508289	-0.295801496212439	-0.762714647508289	0.0	-0.762714647508289	-1.05851614372073	0.762714647508289	-8.412271674027465	-4.2924707722465225	-5.77956281834508	-9.821529034928577	-6.552006584847044	-5.77956281834508	-0.8017143113289741	-10.3719205386098	-1.959648864582332	-9.790754853980301	-0.2812787366113038	1	missed	0.0
262.3368913996964	7.466632500290871	go_reward	0.2237179996445775	262.41764199966565	264.85533239971846	267.4085633000359	2.4376904000528157	263.42198059987277	266.3995850998908	268.41636669961736	1.4333517998456955	1.0089782001450658	1.4679078003391623	n/a	1.0	n/a	1	0	40	3	go_reward	0	0	1	1	1	1	0	n/a	n/a	0	0.2237179996445775	1.0	363.5174414003268	625.9350833999924	626.9394220001996	628.3727738000453	629.9170265002176	630.9260047003627	n/a	n/a	631.9338080999441	633.4017159002833	2020-10-07 10:01:11.336048	18.9664480255757	22.3092464967866	6.53378549897174	22.4140443215715	25.5002335245474	6.53378549897174	-18.9664480255757	22.3092464967866	6.53378549897174	25.5002335245474	6.53378549897174	-22.3092464967866	10.258374855335797	18.016775724540075	1.516937328134949	13.355229934151211	20.006743083421085	1.516937328134949	-23.87367545562386	15.89102763344589	5.632652778110138	13.281206290314588	6.2525067623604365	1	missed	0.0
269.8444029996171	6.178499600384384	go_punish	1.0	269.92515359958634	271.61859349999577	274.13719619996846	1.6934399004094303	270.929198899772	273.1233761999756	275.14435329986736	0.6893946002237499	1.0138199999928474	0.9592999001033604	n/a	1.0	n/a	1	0	41	1	go_punish	1	0	-1	1	0	0	0	n/a	n/a	-1	1.0	1.0	363.5174414003268	633.4425949999131	634.4466403000988	635.1360349003226	636.6408176003024	637.6546376002952	n/a	n/a	638.6617947001942	639.6210946002975	2020-10-07 10:01:11.336048	-0.677775305833758	0.0	-1.81104521896125	-1.25429606978806	-1.13326991312749	-1.81104521896125	0.677775305833758	-1.81104521896125	0.0	-1.81104521896125	-1.13326991312749	-1.0397612193324801	-9.385848476073663	-4.2924707722465225	-6.827893389798041	-10.313110457208348	-6.626760354253804	-6.827893389798041	-2.604190178169743	-11.420251110062761	-2.034402633989092	-10.839085425433261	-0.2812787366113038	1	missed	0.0
276.0592731996439	6.788776600267738	nogo_reward	1.0	276.1400237996131	278.5678777997382	281.08347720000893	2.4278540001250803	277.1449745995924	280.0731001999229	282.09038739977404	1.4229032001458108	1.0103770000860095	0.8384130001068115	n/a	1.0	n/a	1	0	42	4	nogo_reward	0	1	0	0	0	1	0	n/a	n/a	0	1.0	1.0	363.5174414003268	639.6574651999399	640.6624159999192	642.085319200065	643.5905416002497	644.6009186003357	n/a	n/a	645.6078288001008	646.4462418002076	2020-10-07 10:01:11.336048	13.8090866226472	0.0	15.8445489032943	15.8445489032943	2.03546228064705	15.8445489032943	-13.8090866226472	15.8445489032943	0.0	15.8445489032943	2.03546228064705	-15.8445489032943	5.101013452407296	-4.2924707722465225	10.827700732457508	6.785734515874012	-3.4580281604792646	10.827700732457508	-17.40897786213156	6.235343012192789	1.134329559785448	6.816508696822288	-0.2812787366113038	1	missed	0.0
282.88740999996656	7.009265499655157	nogo_punish	0.6593695003539324	282.9681605999358	285.3217759998515	287.8688196996227	2.353615399915725	283.9731500996277	286.8550807996653	288.87537879962474	1.3486259002238512	1.0137388999573886	1.102047299966216	n/a	1.0	n/a	1	0	43	2	nogo_punish	1	-1	0	0	1	0	0	n/a	n/a	-1	0.6593695003539324	1.0	363.5174414003268	646.4856020002626	647.4905914999545	648.8392174001783	650.3725221999921	651.3862610999495	n/a	n/a	652.3928201999515	653.4948674999177	2020-10-07 10:01:11.336048	-0.446635871053011	0.0	-0.571095230513768	-0.571095230513768	-1.01773110156678	-0.571095230513768	0.446635871053011	0.0	-0.571095230513768	-1.01773110156678	-0.571095230513768	-2.85080643829373	-9.154709041292916	-4.2924707722465225	-5.587943401350559	-9.629909617934056	-6.511221542693095	-5.587943401350559	-4.415235397130993	-10.62693699266829	-1.4722279513753702	-9.028040206472012	-0.8523739671250719	1	missed	0.0
289.9361561997793	7.5087919998914	nogo_punish	0.2287393999285996	290.01690679974854	292.53737099980935	295.0787789998576	2.5204642000608146	291.0222393996082	294.0683713997714	296.08598520001397	1.51513160020113	1.0104076000861824	1.439713599625975	n/a	1.0	n/a	1	0	44	2	nogo_punish	0	0	-1	0	1	0	0	n/a	n/a	0	0.2287393999285996	1.0	363.5174414003268	653.5343482000753	654.539680799935	656.0548124001361	657.5858128000982	658.5962204001844	n/a	n/a	659.6034266003408	661.0431401999667	2020-10-07 10:01:11.336048	-1.20885235768325	-0.661762683460599	-0.571095230513768	-1.09395514504096	-1.77994758819702	-0.571095230513768	1.20885235768325	-0.661762683460599	-0.571095230513768	-1.77994758819702	-0.571095230513768	0.661762683460599	-9.916925527923155	-4.954233455707121	-5.587943401350559	-10.152769532461248	-7.2734380293233345	-5.587943401350559	-0.9026662753766641	-11.38915347929853	-1.4722279513753702	-9.689802889932611	-0.8523739671250719	1	missed	0.0
297.47991609992454	6.382571800146252	go_punish	1.0	297.5606666998938	299.46693849982694	301.9818274998106	1.9062717999331653	298.56540299998596	300.9725566999987	302.98939349967986	0.9015354998409748	1.0092707998119295	0.9538450003601611	n/a	1.0	n/a	1	0	45	1	go_punish	0	-1	0	1	0	0	0	n/a	n/a	0	1.0	1.0	363.5174414003268	661.0781081002206	662.0828444003128	662.9843799001537	664.4899981003255	665.4992689001374	n/a	n/a	666.5068349000067	667.4606799003668	2020-10-07 10:01:11.336048	-0.82567684872632	0.0	-2.02882663230283	-1.61818385611164	-1.20314978357651	-2.02882663230283	0.82567684872632	-2.02882663230283	0.0	-2.02882663230283	-1.20314978357651	2.02882663230283	-9.533750018966224	-4.2924707722465225	-7.0456748031396215	-10.676998243531928	-6.696640224702825	-7.0456748031396215	0.46439767346556704	-11.638032523404341	-2.104282504438112	-11.056866838774841	-0.2812787366113038	1	missed	0.0
303.9031043997965	6.382921100128442	nogo_punish	0.2476630001328885	303.98385499976575	305.7683432996273	308.3140216995962	1.7844882998615503	304.98817829973996	307.3005311000161	309.320577299688	0.7801649998873472	1.0134905995801091	1.0461988002061844	n/a	1.0	n/a	1	0	46	2	nogo_punish	1	-1	0	0	1	0	1	n/a	n/a	-1	0.2476630001328885	1.0	363.5174414003268	667.5012964000925	668.5056197000667	669.2857846999541	670.8179725003429	671.831463099923	n/a	n/a	672.8380187000148	673.884217500221	2020-10-07 10:01:11.336048	-0.981081251642949	-0.491211574590786	-0.571095230513768	-0.821602092252952	-1.55217648215672	-0.571095230513768	0.981081251642949	-0.491211574590786	-0.571095230513768	-1.55217648215672	-0.571095230513768	-2.3595948637029442	-9.689154421882854	-4.783682346837309	-5.587943401350559	-9.88041647967324	-7.045666923283035	-5.587943401350559	-3.9240238225402075	-11.161382373258231	-1.4722279513753702	-9.519251781062797	-0.8523739671250719	1	missed	0.0
310.3225166997872	5.893467499874532	nogo_punish	1.0	310.4032672997564	311.8382093999535	314.353002499789	1.4349421001970768	311.40745989978313	313.34354569995776	315.35953489970416	0.4307495001703501	1.0094567998312414	0.9371998999267817	n/a	1.0	n/a	1	0	47	2	nogo_punish	1	-1	0	0	0	1	0	n/a	n/a	0	1.0	1.0	363.5174414003268	673.9207087000832	674.9249013001099	675.3556508002803	676.8609871002845	677.8704439001158	n/a	n/a	678.876976300031	679.8141761999577	2020-10-07 10:01:11.336048	1.60903147609468	-1.03028565292504	-0.571095230513768	-1.28527317427299	-2.18012670660844	-0.571095230513768	-1.60903147609468	-0.571095230513768	-1.03028565292504	-0.571095230513768	-2.18012670660844	0.571095230513768	-7.099041694145225	-5.322756425171562	-5.587943401350559	-10.344087561693279	-7.673617147734754	-5.587943401350559	-0.9933337283234951	-10.180301121615278	-3.0812594274700422	-9.59913543698578	-1.3115643895363438	1	missed	0.0
316.2539209998212	6.450385500211269	nogo_reward	1.0	316.33467159979045	318.37746099988	320.89525049971417	2.042789400089532	317.33910929970443	319.8811778998934	321.9021075000055	1.0383517001755536	1.0140725998207927	0.8829495999962091	n/a	1.0	n/a	1	0	48	4	nogo_reward	1	0	1	0	0	1	0	n/a	n/a	1	1.0	1.0	363.5174414003268	679.8521130001172	680.8565507000312	681.8949024002068	683.3986193002202	684.412691900041	n/a	n/a	685.4195489003323	686.3024985003285	2020-10-07 10:01:11.336048	10.6240789094265	0.0	11.8099255528699	11.8099255528699	1.18584664344337	11.8099255528699	-10.6240789094265	11.8099255528699	0.0	11.8099255528699	1.18584664344337	14.963036511063299	1.9160057391865948	-4.2924707722465225	6.793077382033109	2.751111165449613	-4.307643797682944	6.793077382033109	13.398607552226036	2.2007196617683906	0.284713922581768	2.781885346397889	-0.2812787366113038	1	missed	0.0
322.7511168997734	6.6068489998579025	go_reward	0.3075609998777509	322.83186749974266	324.49754759995267	327.0428708996624	1.665680100210011	323.8367872997187	326.0334684997797	328.0502559999004	0.6607603002339602	1.0094023998826742	1.3884604997001588	n/a	1.0	n/a	1	0	49	3	go_reward	0	0	1	1	1	1	0	n/a	n/a	0	0.3075609998777509	1.0	363.5174414003268	686.3493089000694	687.3542287000455	688.0149890002795	689.5509099001065	690.5603122999892	n/a	n/a	691.5676974002272	692.9561578999273	2020-10-07 10:01:11.336048	12.1743217810869	16.6904825149713	6.53378549897174	16.7754855514525	18.7081072800587	6.53378549897174	-12.1743217810869	16.6904825149713	6.53378549897174	18.7081072800587	6.53378549897174	-16.6904825149713	3.4662486108469963	12.398011742724778	1.516937328134949	7.716671164032213	13.214616838932386	1.516937328134949	-18.254911473808562	9.098901388957191	5.632652778110138	7.662442308499289	6.2525067623604365	1	missed	0.0
329.4158342997543	6.526829500216991	nogo_reward	1.0	329.49658489972353	331.4971277997829	334.0159187000245	2.000542900059372	330.50093319965526	333.0027160998434	335.02287149988115	0.9961946001276374	1.0132026001811028	1.0005429000593722	n/a	1.0	n/a	1	0	50	4	nogo_reward	1	0	1	0	0	1	1	n/a	n/a	1	1.0	1.0	363.5174414003268	693.0140263000503	694.018374599982	695.0145692001097	696.5201575001702	697.5333601003513	n/a	n/a	698.5403129002079	699.5408558002673	2020-10-07 10:01:11.336048	13.5131946041528	0.0	15.4297145036852	15.4297145036852	1.91651989953239	15.4297145036852	-13.5131946041528	15.4297145036852	0.0	15.4297145036852	1.91651989953239	11.343247560247999	4.805121433912895	-4.2924707722465225	10.41286633284841	6.370900116264913	-3.5769705415939246	10.41286633284841	9.778818601410736	5.820508612583691	1.015387178670788	6.401674297213189	-0.2812787366113038	1	missed	0.0
335.97879359964276	6.290612100157887	go_punish	1.0	336.059544199612	337.47964239958674	339.99795399978757	1.4200981999747455	337.06360869994387	338.9846908999607	341.00538859982044	0.41603369964286685	1.0132630998268723	1.3447676999494433	n/a	1.0	n/a	1	0	51	1	go_punish	1	0	-1	1	0	0	0	n/a	n/a	-1	1.0	1.0	363.5174414003268	699.5769855999388	700.5810501002707	700.9970837999135	702.5021323002875	703.5153954001144	n/a	n/a	704.5228300001472	705.8675977000967	2020-10-07 10:01:11.336048	-0.409516054797772	0.0	-1.53358867533362	-1.22755460221405	-1.12407262053585	-1.53358867533362	0.409516054797772	-1.53358867533362	0.0	-1.53358867533362	-1.12407262053585	-1.31721776296011	-9.117589225037676	-4.2924707722465225	-6.550436846170411	-10.286368989634338	-6.617563061662165	-6.550436846170411	-2.881646721797373	-11.14279456643513	-2.0252053413974522	-10.561628881805632	-0.2812787366113038	1	missed	0.0
342.3136999998241	6.475930499844253	go_reward	0.2242335001938045	342.39445059979334	344.1587685998529	346.7048177998513	1.7643180000595748	343.39877619966865	345.69094439968467	347.7120075998828	0.7599924001842737	1.0138734001666307	1.1583734997548163	n/a	1.0	n/a	1	0	52	3	go_reward	1	1	0	1	1	1	0	n/a	n/a	1	0.2242335001938045	1.0	363.5174414003268	705.9118920001201	706.9162175999954	707.6762100001797	709.2083858000115	710.2222592001781	n/a	n/a	711.2294490002096	712.3878224999644	2020-10-07 10:01:11.336048	7.28896460421757	12.619350579984	6.53378549897174	12.6893217926212	13.8227501031893	6.53378549897174	-7.28896460421757	12.619350579984	6.53378549897174	13.8227501031893	6.53378549897174	14.1536114839492	-1.4191085660223344	8.326879807737477	1.516937328134949	3.6305074052009125	8.329259662062984	1.516937328134949	12.589182525111937	4.21354421208779	5.632652778110138	3.5913103735119876	6.2525067623604365	1	missed	0.0
348.82984289992595	6.259554099757224	nogo_punish	0.6677791001275182	348.9105934998952	350.40829829964787	352.9523175000213	1.4977047997526824	349.9149441998452	351.9393054000102	353.95903459982947	0.49335409980267286	1.0130121000111103	1.2111129998229444	n/a	1.0	n/a	1	0	53	2	nogo_punish	1	-1	0	0	1	0	0	n/a	n/a	-1	0.6677791001275182	1.0	363.5174414003268	712.428034900222	713.432385600172	713.9257396999747	715.456746800337	716.4697589003481	n/a	n/a	717.4764760001563	718.6875889999792	2020-10-07 10:01:11.336048	-1.68247029657369	-1.03028565292504	-0.432192461580363	-0.969080483647016	-2.11466275815405	-0.432192461580363	1.68247029657369	-1.03028565292504	-0.432192461580363	-2.11466275815405	-0.432192461580363	-1.8205207853686902	-10.390543466813595	-5.322756425171562	-5.449040632417154	-10.027894871067303	-7.608153199280364	-5.449040632417154	-3.3849497442059535	-11.72386864925556	-1.3333251824419652	-10.058325859397051	-0.7134711981916668	1	missed	0.0
355.1257484997622	6.431991800200194	nogo_punish	1.0	355.20649909973145	356.7638958999887	359.28351159999147	1.5573968002572656	356.2114142999053	358.2694455999881	360.2897283998318	0.5524816000834107	1.0140660000033677	1.3487625000998378	n/a	1.0	n/a	1	0	54	2	nogo_punish	0	0	-1	0	0	1	0	n/a	n/a	-1	1.0	1.0	363.5174414003268	718.7239405000582	719.7288557002321	720.2813373003155	721.7868870003149	722.8009530003183	n/a	n/a	723.8071698001586	725.1559323002584	2020-10-07 10:01:11.336048	2.16740220519447	-1.43227292625726	-0.432192461580363	-1.39996071677223	-2.59959466677483	-0.432192461580363	-2.16740220519447	-0.432192461580363	-1.43227292625726	-0.432192461580363	-2.59959466677483	-2.418613976713367	-6.540670965045434	-5.724743698503783	-5.449040632417154	-10.458775104192519	-8.093085107901144	-5.449040632417154	-3.98304293555063	-10.041398352681874	-3.500727387636432	-9.460232668052376	-1.7135516628685639	1	missed	0.0
361.6040224996395	6.215987400151789	go_reward	0.3903427999466657	361.6847730996087	363.03268909966573	365.57791189989075	1.3479160000570118	362.68936829967424	364.56463379971683	366.5849423999898	0.34332079999148846	1.0132781001739204	1.315818099770695	n/a	1.0	n/a	1	0	55	3	go_reward	1	1	0	1	1	1	0	n/a	n/a	1	0.3903427999466657	1.0	363.5174414003268	725.2022144999355	726.206809700001	726.5501304999925	728.0820752000436	729.0953533002175	n/a	n/a	730.1023838003166	731.4182019000873	2020-10-07 10:01:11.336048	11.5883512601865	16.1713615785411	6.53378549897174	16.2296585064055	18.1221367591582	6.53378549897174	-11.5883512601865	16.1713615785411	6.53378549897174	18.1221367591582	6.53378549897174	10.601600485392101	2.8802780899465947	11.878890806294576	1.516937328134949	7.170844118985212	12.628646318031883	1.516937328134949	9.037171526554838	8.512930868056689	5.632652778110138	7.143321372069087	6.2525067623604365	1	missed	0.0
367.8725379998795	7.429448300041258	nogo_reward	1.0	367.95328859984875	370.37502049980685	372.89370909985155	2.421731899958104	368.95771340001374	371.8807963998988	373.901490399614	1.4173070997931063	1.0129126999527216	1.481246500276029	n/a	1.0	n/a	1	0	56	4	nogo_reward	1	0	1	0	0	1	0	n/a	n/a	1	1.0	1.0	363.5174414003268	731.4707300001755	732.4751548003405	733.8924619001336	735.3982378002256	736.4111505001783	n/a	n/a	737.4189317999408	738.9001783002168	2020-10-07 10:01:11.336048	15.6505999647816	0.0	18.0765487292992	18.0765487292992	2.42594876451757	18.0765487292992	-15.6505999647816	18.0765487292992	0.0	18.0765487292992	2.42594876451757	8.696413334633998	6.9425267945416955	-4.2924707722465225	13.05970055846241	9.017734341878914	-3.0675416766087444	13.05970055846241	7.131984375796735	8.467342838197691	1.5248160436559681	9.04850852282719	-0.2812787366113038	1	missed	0.0
375.34563629981125	6.8964924002066255	go_reward	0.579328500200063	375.4263868997805	377.2875588997267	379.8307476998307	1.8611719999462366	376.4303955999203	378.8211383000016	380.8373654996976	0.857163299806416	1.0096093998290598	1.4855138002894819	n/a	1.0	n/a	1	0	57	3	go_reward	0	0	1	1	1	1	1	n/a	n/a	0	0.579328500200063	1.0	363.5174414003268	738.9438283001073	739.9478370002471	740.8050003000535	742.3385797003284	743.3481891001575	n/a	n/a	744.3548069000244	745.8403207003139	2020-10-07 10:01:11.336048	14.6713413636203	18.7387288356359	6.53378549897174	18.7877778499247	21.205126862592	6.53378549897174	-14.6713413636203	18.7387288356359	6.53378549897174	21.205126862592	6.53378549897174	-18.7387288356359	5.9632681933803955	14.446258063389378	1.516937328134949	9.728963462504414	15.711636421465684	1.516937328134949	-20.30315779447316	11.59592097149049	5.632652778110138	9.710688629163888	6.2525067623604365	1	missed	0.0
382.28378259995947	7.011674799956381	nogo_reward	1.0	382.3645331999287	385.0952802998945	387.61510309996083	2.7307470999658108	383.3689334997907	386.60074369981885	388.6222832999192	1.7263468001037836	1.0143594001419842	0.7539246999658644	n/a	1.0	n/a	1	0	58	4	nogo_reward	1	0	1	0	0	1	1	n/a	n/a	1	1.0	1.0	363.5174414003268	745.8819746002555	746.8863749001175	748.6127217002213	750.1181851001456	751.1325445002876	n/a	n/a	752.139724700246	752.8936494002119	2020-10-07 10:01:11.336048	17.2491151454605	0.0	20.0344760959918	20.0344760959918	2.78536095053133	20.0344760959918	-17.2491151454605	20.0344760959918	0.0	20.0344760959918	2.78536095053133	6.738485967941401	8.541041975220596	-4.2924707722465225	15.017627925155008	10.975661708571511	-2.7081294905949846	15.017627925155008	5.174057009104137	10.425270204890289	1.884228229669728	11.006435889519787	-0.2812787366113038	1	missed	0.0
389.3328098999336	6.250147999729961	nogo_punish	1.0	389.4135604999028	390.74449389986694	393.25954809971154	1.330933399964124	390.41827060002834	392.249956399668	394.2669032998383	0.32622329983860254	1.0095917000435293	1.3968051997944713	n/a	1.0	n/a	1	0	59	2	nogo_punish	1	-1	0	0	0	1	0	n/a	n/a	0	1.0	1.0	363.5174414003268	752.9310019002296	753.9357120003551	754.2619353001937	755.7673977999948	756.7769895000383	n/a	n/a	757.7843447001651	759.1811498999596	2020-10-07 10:01:11.336048	1.66647738530284	-1.43227292625726	-0.992153201122765	-1.72077312374169	-2.65863058642561	-0.992153201122765	-1.66647738530284	-0.992153201122765	-1.43227292625726	-0.992153201122765	-2.65863058642561	0.992153201122765	-7.041595784937065	-5.724743698503783	-6.009001371959556	-10.779587511161978	-8.152121027551924	-6.009001371959556	-0.5722757577144981	-10.601359092224275	-3.559763307287212	-10.020193407594777	-1.7135516628685639	1	missed	0.0
395.6190438000485	5.942842499818653	nogo_punish	1.0	395.6997944000177	397.20923709962517	399.72408679965883	1.5094426996074617	396.7049028999172	398.7143473997712	400.73029079986736	0.5043341997079551	1.0097393998876214	0.9123460999689996	n/a	1.0	n/a	1	0	60	2	nogo_punish	1	-1	0	0	0	1	0	n/a	n/a	0	1.0	1.0	363.5174414003268	759.2172358003445	760.222344300244	760.726678499952	762.231788800098	763.2415281999856	n/a	n/a	764.2477322001942	765.1600783001631	2020-10-07 10:01:11.336048	1.82612403632444	-1.43227292625726	-0.746199095938733	-1.30047949560946	-2.57232313226317	-0.746199095938733	-1.82612403632444	-0.746199095938733	-1.43227292625726	-0.746199095938733	-2.57232313226317	0.746199095938733	-6.881949133915464	-5.724743698503783	-5.763047266775525	-10.359293883029748	-8.065813573389484	-5.763047266775525	-0.8182298628985301	-10.355404987040243	-3.473455853124772	-9.774239302410745	-1.7135516628685639	1	missed	0.0
