onset	duration	trial_type	response_time	cueOnset	targetOnset	fbOnset	cueRT	firstfixOnset	secondfixOnset	waitOnset	firstfixdur	secondfixdur	waitdur	nback_fbOnset	nback_response_time	nback_targetOnset	block	wm	trial	cue	cond	is_common	outcome_go	outcome_nogo	key_correct	key_pressed	is_correct	key_correct_nback	key_pressed_nback	is_correct_nback	outcome	rt	rt_nback	time_scan	time_onset	time_isi1	time_circle	time_isi2	time_feedback	time_same	time_correct	time_iti	time_done	timestamp_scan	DV	Qgo	Qnogo	SV	Wgo	Wnogo	mDV	Qchosen	Qunchosen	Wchosen	Wunchosen	PE	DVC	QgoC	QnogoC	SVC	WgoC	WnogoC	PEC	WchosenC	WunchosenC	QchosenC	QunchosenC	run	outcome_nback	nback_targetResp
0.0	8.086557200004108	go_reward	0.583293900010176	0.04867400001967326	1.4291225000051782	4.0046541999909095	1.380448499985505	1.0607515000156127	2.9834694000310265	7.120807100029197	0.36837099998956546	1.021184799959883	1.014424099994585	6.1063454000398	0.9050633999868296	5.051413499983028	2	1	1	4	go_reward	0	0	1	1	1	1	0	0.0	1.0	0	0.583293900010176	0.9050633999868296	1444.018117300002	1444.0667913000216	1445.0788688000175	1445.447239800007	1447.001586700033	1448.0227714999928	1449.069530799985	1450.1244627000417	1451.138924400031	1452.1533485000257	2020-02-21 16:36:35.567440	0.618788687185366	0.0	0.0	0.0	0.618788687185366	0.0	-0.618788687185366	0.0	0.0	0.618788687185366	0.0	0.0	-6.032782007151873	-0.3734730219554922	-0.08858135797869157	-3.2256550160246023	-0.9427870421936827	-0.08858135797869157	-0.05131386817734466	-3.5320752036621244	2.500706803489741	-3.471087325099466	3.009032945165267	3	correct	1.0
8.145131499972194	8.055443099990953	nogo_punish	0.5578291999991052	8.193805499991868	9.549570800038055	12.128434200014453	1.355765300046187	9.205461899982993	11.112257900007535	15.224806300015189	0.3441089000550619	1.0161763000069186	1.0244422999676317	14.1999348999816	0.6309692999930121	13.151960799994413	2	1	2	1	nogo_punish	0	0	-1	0	1	0	0	0.0	1.0	0	0.5578291999991052	0.6309692999930121	1444.018117300002	1452.2119227999938	1453.223579199985	1453.56768810004	1455.1303752000094	1456.1465515000164	1457.1700780999963	1458.2180521999835	1459.242923600017	1460.2673658999847	2020-02-21 16:36:35.567440	0.618788687185366	0.0	0.0	0.0	0.618788687185366	0.0	-0.618788687185366	0.0	0.0	0.618788687185366	0.0	0.0	-6.032782007151873	-0.3734730219554922	-0.08858135797869157	-3.2256550160246023	-0.9427870421936827	-0.08858135797869157	-0.05131386817734466	-3.5320752036621244	2.500706803489741	-3.471087325099466	3.009032945165267	3	correct	1.0
16.240681600000244	9.672977200010791	nogo_punish	0.3669827000121586	16.289355600019917	19.078412700037006	21.654507100000046	2.7890571000170894	17.303422100027092	20.628930200007744	24.738650800020196	1.7749906000099145	1.025576899992302	1.2236820000105126	23.724882300011586	0.5692983000189997	22.679368200013187	2	1	3	1	nogo_punish	1	-1	0	0	1	0	0	0.0	1.0	-1	0.3669827000121586	0.5692983000189997	1444.018117300002	1460.3074729000218	1461.321539400029	1463.096530000039	1464.6470475000096	1465.672624400002	1466.697485500015	1467.7429996000135	1468.756768100022	1469.9804501000326	2020-02-21 16:36:35.567440	0.618788687185366	0.0	0.0	0.0	0.618788687185366	0.0	-0.618788687185366	0.0	0.0	0.618788687185366	0.0	-15.9346114525463	-6.032782007151873	-0.3734730219554922	-0.08858135797869157	-3.2256550160246023	-0.9427870421936827	-0.08858135797869157	-15.985925320723645	-3.5320752036621244	2.500706803489741	-3.471087325099466	3.009032945165267	3	correct	1.0
25.957097899983637	8.886930399981793	nogo_punish	1.0	26.00577190000331	28.50591439998243	31.036277999985032	2.5001424999791197	27.02444160002051	30.01817779999692	34.13550500001293	1.4814727999619208	1.0181001999881119	0.7571972999721766	33.12265070003923	0.4410444000386633	32.061370600014925	2	1	4	1	nogo_punish	1	-1	0	0	0	1	1	1.0	1.0	0	1.0	0.4410444000386633	1444.018117300002	1470.0238892000052	1471.0425589000224	1472.5240316999843	1474.0362950999988	1475.054395299987	1476.0794879000168	1477.1407680000411	1478.1536223000148	1478.910819599987	2020-02-21 16:36:35.567440	5.15800961699707	-4.14178103657143	0.0	-4.14178103657143	-5.15800961699707	0.0	-5.15800961699707	0.0	-4.14178103657143	0.0	-5.15800961699707	0.0	-1.4935610773401686	-4.5152540585269225	-0.08858135797869157	-7.367436052596032	-6.719585346376119	-0.08858135797869157	-0.05131386817734466	-4.15086389084749	-2.657302813507329	-3.471087325099466	-1.1327480914061634	3	correct	1.0
34.93488640000578	8.423375699960161	nogo_reward	0.2605302999727428	34.98356040002545	36.494218400039244	39.07795970002189	1.510658000013791	35.99884329998167	38.06355409999378	42.16687419998925	0.4953751000575721	1.0144056000281125	1.2400618999963626	41.15406390000135	0.7951137999771163	40.10924750001868	2	1	5	3	nogo_reward	1	0	1	0	1	0	0	0.0	1.0	0	0.2605302999727428	0.7951137999771163	1444.018117300002	1479.0016777000274	1480.0169605999836	1480.5123357000411	1482.0816713999957	1483.0960770000238	1484.1273648000206	1485.1721812000033	1486.1849914999912	1487.4250533999875	2020-02-21 16:36:35.567440	0.618788687185366	0.0	0.0	0.0	0.618788687185366	0.0	-0.618788687185366	0.0	0.0	0.618788687185366	0.0	0.0	-6.032782007151873	-0.3734730219554922	-0.08858135797869157	-3.2256550160246023	-0.9427870421936827	-0.08858135797869157	-0.05131386817734466	-3.5320752036621244	2.500706803489741	-3.471087325099466	3.009032945165267	3	correct	1.0
43.4275261000148	8.827800899976864	nogo_reward	1.0	43.476200100034475	45.1927387000178	47.72936679999111	1.7165385999833234	44.49453409999842	46.70594200002961	50.81395029998362	0.6982046000193805	1.0234247999615036	1.490050700027723	49.801382400037255	0.496563300024718	48.75395370001206	2	1	6	3	nogo_reward	1	0	1	0	0	1	0	0.0	1.0	1	1.0	0.496563300024718	1444.018117300002	1487.4943174000364	1488.5126514000003	1489.2108560000197	1490.7240593000315	1491.747484099993	1492.772071000014	1493.8194997000392	1494.8320675999855	1496.3221183000132	2020-02-21 16:36:35.567440	-0.618788687185366	0.0	0.0	0.0	0.618788687185366	0.0	0.618788687185366	0.0	0.0	0.0	0.618788687185366	14.5275557612253	-7.270359381522605	-0.3734730219554922	-0.08858135797869157	-3.2256550160246023	-0.9427870421936827	-0.08858135797869157	14.476241893047954	-4.15086389084749	3.119495490675107	-3.471087325099466	3.009032945165267	3	correct	1.0
52.292661599989515	8.959553699998423	go_reward	0.6725278999656439	52.34133560000919	54.220137700031046	56.81856759998482	1.8788021000218578	53.36156350001693	55.79445400001714	59.903726599994116	0.8585742000141181	1.0241135999676771	1.3971627000134959	58.87834530003602	0.9039504999527708	57.83838690002449	2	1	7	4	go_reward	1	1	0	1	1	1	0	0.0	1.0	1	0.6725278999656439	0.9039504999527708	1444.018117300002	1496.359452900011	1497.3796808000188	1498.238255000033	1499.812571300019	1500.8366848999867	1501.8565042000264	1502.896462600038	1503.921843899996	1505.3190066000095	2020-02-21 16:36:35.567440	0.618788687185366	0.0	0.0	0.0	0.618788687185366	0.0	-0.618788687185366	0.0	0.0	0.618788687185366	0.0	14.5275557612253	-6.032782007151873	-0.3734730219554922	-0.08858135797869157	-3.2256550160246023	-0.9427870421936827	-0.08858135797869157	14.476241893047954	-3.5320752036621244	2.500706803489741	-3.471087325099466	3.009032945165267	3	correct	1.0
61.32893119996879	9.436817100038752	go_punish	0.4149567999993451	61.377605199988466	63.91057519998867	66.51810009998735	2.532970000000205	62.38470049999887	65.48778490000404	69.61579750000965	1.5258746999897994	1.0303151999833062	1.1986248000175692	68.60004889999959	0.5048290999839082	67.54944790003378	2	1	8	2	go_punish	1	0	-1	1	1	1	0	0.0	1.0	0	0.4149567999993451	0.5048290999839082	1444.018117300002	1505.3957224999904	1506.4028178000008	1507.9286924999906	1509.505902200006	1510.5362173999893	1511.5675652000357	1512.6181662000015	1513.6339148000116	1514.8325396000291	2020-02-21 16:36:35.567440	0.618788687185366	0.0	0.0	0.0	0.618788687185366	0.0	-0.618788687185366	0.0	0.0	0.618788687185366	0.0	0.0	-6.032782007151873	-0.3734730219554922	-0.08858135797869157	-3.2256550160246023	-0.9427870421936827	-0.08858135797869157	-0.05131386817734466	-3.5320752036621244	2.500706803489741	-3.471087325099466	3.009032945165267	3	correct	1.0
70.80404809996253	9.441750000056345	go_reward	0.3522649999940768	70.8527220999822	73.15469960001042	75.75664580002194	2.301977500028215	71.86846339999465	74.73459539998998	78.82755590003217	1.2862362000157646	1.022050400031958	1.4669162000063807	77.8067260000389	1.0	76.79039750003722	2	1	9	4	go_reward	0	0	1	1	1	1	1	n/a	0.0	1	0.3522649999940768	1.0	1444.018117300002	1514.870839399984	1515.8865806999966	1517.1728169000123	1518.752712699992	1519.7747631000238	1520.8085148000391	1521.8248433000408	1522.845673200034	1524.3125894000405	2020-02-21 16:36:35.567440	5.87480113019258	3.74244416263713	0.0	3.74244416263713	5.87480113019258	0.0	-5.87480113019258	3.74244416263713	0.0	5.87480113019258	0.0	-3.74244416263713	-0.7767695641446588	3.3689711406816376	-0.08858135797869157	0.5167891466125276	4.313225400813531	-0.08858135797869157	-3.7937580308144745	1.7239372393450898	2.500706803489741	0.27135683753766404	3.009032945165267	3	missed	0.0
80.34559629997239	8.32315700000595	nogo_reward	0.3255638999980874	80.39427029999206	81.8498424999998	84.428008900024	1.4555722000077367	81.4003076000372	83.3986218000066	87.51793969998857	0.4495348999626003	1.0293871000174022	1.1994876000094337	86.50799970002845	0.3133039000094868	85.46041070000501	2	1	10	3	nogo_reward	1	0	1	0	1	0	0	0.0	1.0	0	0.3255638999980874	0.3133039000094868	1444.018117300002	1524.412387599994	1525.418424900039	1525.8679598000017	1527.4167391000085	1528.446126200026	1529.478528000007	1530.5261170000304	1531.5360569999905	1532.7355446	2020-02-21 16:36:35.567440	-1.61008719508169	0.0	3.74244416263713	3.74244416263713	2.13235696755545	3.74244416263713	1.61008719508169	0.0	3.74244416263713	2.13235696755545	3.74244416263713	0.0	-8.26165788941893	-0.3734730219554922	3.6538628046584383	0.5167891466125276	0.5707812381764015	3.6538628046584383	-0.05131386817734466	-2.01850692329204	6.243150966126871	-3.471087325099466	6.751477107802397	3	correct	1.0
88.7182270999765	8.255273099988699	go_reward	0.2707356000319123	88.76690109999618	90.35180210002	92.93419749999885	1.5849010000238195	89.77421150001442	91.9113733000122	96.03385340003297	0.5775906000055784	1.022824199986644	0.9883207999519072	95.01066919998266	0.7288361000246368	93.9586125999922	2	1	11	4	go_reward	0	0	1	1	1	1	1	0.0	0.0	0	0.2707356000319123	0.7288361000246368	1444.018117300002	1532.785018399998	1533.7923288000163	1534.369919400022	1535.929490600014	1536.9523148000007	1537.976729899994	1539.0287864999846	1540.0519707000349	1541.0402914999868	2020-02-21 16:36:35.567440	9.72489619804886	6.47783135358055	0.0	6.47783135358055	9.72489619804886	0.0	-9.72489619804886	6.47783135358055	0.0	9.72489619804886	0.0	-6.47783135358055	3.0733255037116214	6.104358331625058	-0.08858135797869157	3.2521763375559476	8.163320468669811	-0.08858135797869157	-6.5291452217578945	5.57403230720137	2.500706803489741	3.006744028481084	3.009032945165267	3	wrong	1.0
97.05720519996248	8.513482700044051	go_punish	0.3309947000234388	97.10587919998216	98.97648220002884	101.56350960000418	1.8706030000466853	98.11529159999918	100.54255880002165	104.6494574000244	0.8611906000296585	1.0209507999825291	0.9699045000018032	103.63229750003666	0.4046423000399954	102.58250910002971	2	1	12	2	go_punish	1	0	-1	1	1	1	0	0.0	1.0	0	0.3309947000234388	0.4046423000399954	1444.018117300002	1541.123996499984	1542.133408900001	1542.9945995000307	1544.5606761000236	1545.581626900006	1546.6006264000316	1547.6504148000386	1548.6675747000263	1549.637479200028	2020-02-21 16:36:35.567440	0.618788687185366	0.0	0.0	0.0	0.618788687185366	0.0	-0.618788687185366	0.0	0.0	0.618788687185366	0.0	0.0	-6.032782007151873	-0.3734730219554922	-0.08858135797869157	-3.2256550160246023	-0.9427870421936827	-0.08858135797869157	-0.05131386817734466	-3.5320752036621244	2.500706803489741	-3.471087325099466	3.009032945165267	3	correct	1.0
105.60904549999395	8.744780300010461	nogo_punish	1.0	105.65771950001363	107.5300226000254	110.05861390003702	1.8723031000117771	106.6737569000104	109.04146189999301	113.15345520002302	0.8562657000150011	1.0171520000440069	1.2490446000010706	112.13179630000377	0.5506810999941081	111.08187170000747	2	1	13	1	nogo_punish	1	-1	0	0	0	1	0	0.0	1.0	0	1.0	0.5506810999941081	1444.018117300002	1549.6758368000155	1550.6918742000123	1551.5481399000273	1553.059579199995	1554.076731200039	1555.0999890000094	1556.1499136000057	1557.171572500025	1558.420617100026	2020-02-21 16:36:35.567440	4.72358344168667	-4.14178103657143	0.0	-3.02036803786521	-4.72358344168667	0.0	-4.72358344168667	0.0	-4.14178103657143	0.0	-4.72358344168667	0.0	-1.9279872526505688	-4.5152540585269225	-0.08858135797869157	-6.246023053889813	-6.285159171065718	-0.08858135797869157	-0.05131386817734466	-4.15086389084749	-2.222876638196929	-3.471087325099466	-1.1327480914061634	3	correct	1.0
114.42713670001831	9.50395549996756	nogo_reward	0.4033887999830767	114.47581070003798	116.9489551000297	119.53347369999392	2.4731443999917246	115.48832669999683	118.5046439000289	122.62582850002218	1.4606284000328742	1.028829799965024	1.353937699983362	121.61305970000103	0.6966071000206284	120.56582740001613	2	1	14	3	nogo_reward	0	1	0	0	1	0	0	0.0	1.0	1	0.4033887999830767	0.6966071000206284	1444.018117300002	1558.49392800004	1559.5064439999987	1560.9670724000316	1562.5227612000308	1563.5515909999958	1564.583944700018	1565.631177000003	1566.643945800024	1567.9978835000074	2020-02-21 16:36:35.567440	-2.0089475985389	0.0	3.74244416263713	2.73538719094342	1.73349656409823	3.74244416263713	2.0089475985389	0.0	3.74244416263713	1.73349656409823	3.74244416263713	14.5275557612253	-8.660518292876139	-0.3734730219554922	3.6538628046584383	-0.4902678250811823	0.1719208347191814	3.6538628046584383	14.476241893047954	-2.41736732674926	6.243150966126871	-3.471087325099466	6.751477107802397	3	correct	1.0
124.00485119997757	9.872799600008875	nogo_reward	0.3800706999609247	124.05352519999724	126.80558370001359	129.37347960000625	2.7520585000163464	125.06743019999703	128.35286990000168	132.45208270003786	1.7381535000165513	1.0206097000045702	1.4742420999682508	131.4403447000077	0.5897547000204213	130.39561469998443	2	1	15	3	nogo_reward	1	0	1	0	1	0	0	0.0	1.0	0	0.3800706999609247	0.5897547000204213	1444.018117300002	1568.0716424999991	1569.085547499999	1570.8237010000155	1572.3709872000036	1573.3915969000082	1574.4137319999863	1575.4584620000096	1576.4702000000398	1577.944442100008	2020-02-21 16:36:35.567440	2.95793476555377	3.74244416263713	3.74244416263713	5.754790013453	6.7003789281909	3.74244416263713	-2.95793476555377	3.74244416263713	3.74244416263713	6.7003789281909	3.74244416263713	-3.74244416263713	-3.693635928783469	3.3689711406816376	3.6538628046584383	2.529134997428398	5.138803198811852	3.6538628046584383	-3.7937580308144745	2.5495150373434097	6.243150966126871	0.27135683753766404	6.751477107802397	3	correct	1.0
133.92303790000733	8.740191099990625	nogo_punish	1.0	133.971711900027	135.90223529998912	138.41528040001867	1.9305233999621123	134.9812485	137.3999812999973	141.5005162000307	0.920986799989123	1.015299100021366	1.2113867999869399	140.49007360002724	0.4384342000121251	139.43383580003865	2	1	16	1	nogo_punish	1	-1	0	0	0	1	0	0.0	1.0	0	1.0	0.4384342000121251	1444.018117300002	1577.989829200029	1578.999365800002	1579.920352599991	1581.4180985999992	1582.4333977000206	1583.4519531000406	1584.5081909000291	1585.5186335000326	1586.7300203000195	2020-02-21 16:36:35.567440	4.40925087644514	-4.14178103657143	0.0	-2.21584450013193	-4.40925087644514	0.0	-4.40925087644514	0.0	-4.14178103657143	0.0	-4.40925087644514	0.0	-2.242319817892099	-4.5152540585269225	-0.08858135797869157	-5.441499516156532	-5.970826605824188	-0.08858135797869157	-0.05131386817734466	-4.15086389084749	-1.9085440729553986	-3.471087325099466	-1.1327480914061634	3	correct	1.0
142.70301250001648	8.335476899985224	go_reward	0.5153495999984443	142.75168650003616	144.13409250002587	146.73956130002625	1.3824059999897145	143.76300550001906	145.71118650003336	149.81512049998855	0.37108700000680983	1.0283747999928892	1.2720429000328295	148.8002917999986	0.7624453000025824	147.75759270001458	2	1	17	4	go_reward	1	1	0	1	1	1	0	0.0	1.0	1	0.5153495999984443	0.7624453000025824	1444.018117300002	1586.769803800038	1587.781122800021	1588.1522098000278	1589.7293038000353	1590.7576786000282	1591.7757100000165	1592.8184091000005	1593.8332377999905	1595.1052807000233	2020-02-21 16:36:35.567440	7.30680740385584	4.74773304175929	0.0	4.74773304175929	7.30680740385584	0.0	-7.30680740385584	4.74773304175929	0.0	7.30680740385584	0.0	9.77982271946601	0.6552367095186016	4.374260019803797	-0.08858135797869157	1.5220780257346873	5.745231674476791	-0.08858135797869157	9.728508851288664	3.15594351300835	2.500706803489741	1.2766457166598237	3.009032945165267	3	correct	1.0
151.07795389997773	8.474390899995342	nogo_punish	1.0	151.1266278999974	153.1267939999816	155.6633386000176	2.000166099984199	152.14178910001647	154.640562399989	158.75316999998176	0.9850048999651335	1.022776200028602	0.8478488000109792	157.73448710003868	0.3394024000153877	156.68507400003728	2	1	18	1	nogo_punish	1	-1	0	0	0	1	1	1.0	1.0	0	1.0	0.3394024000153877	1444.018117300002	1595.1447451999993	1596.1599064000184	1597.1449112999835	1598.658679699991	1599.6814559000195	1600.7031913000392	1601.7526044000406	1602.7712872999837	1603.6191360999946	2020-02-21 16:36:35.567440	4.18040035072484	-4.14178103657143	0.0	-1.63453895467141	-4.18040035072484	0.0	-4.18040035072484	0.0	-4.14178103657143	0.0	-4.18040035072484	0.0	-2.471170343612399	-4.5152540585269225	-0.08858135797869157	-4.860193970696012	-5.741976080103889	-0.08858135797869157	-0.05131386817734466	-4.15086389084749	-1.679693547235099	-3.471087325099466	-1.1327480914061634	3	correct	1.0
159.62234609998995	8.760419600002933	go_punish	0.2708348999731242	159.67102010000963	161.21067220001714	163.8453505000216	1.5396521000075154	160.6899256000179	162.78840399999171	166.9359070000355	0.5207465999992564	1.0569465000298806	1.4955326999770477	165.91121330001602	0.5216786000528373	164.87594890000764	2	1	19	2	go_punish	1	0	-1	1	1	1	0	0.0	1.0	0	0.2708348999731242	0.5216786000528373	1444.018117300002	1603.6891374000115	1604.7080429000198	1605.228789500019	1606.8065212999936	1607.8634678000235	1608.8940662000095	1609.929330600018	1610.9540243000374	1612.4495570000145	2020-02-21 16:36:35.567440	0.618788687185366	0.0	0.0	0.0	0.618788687185366	0.0	-0.618788687185366	0.0	0.0	0.618788687185366	0.0	0.0	-6.032782007151873	-0.3734730219554922	-0.08858135797869157	-3.2256550160246023	-0.9427870421936827	-0.08858135797869157	-0.05131386817734466	-3.5320752036621244	2.500706803489741	-3.471087325099466	3.009032945165267	3	correct	1.0
168.436237899994	9.046975800010841	go_reward	1.0	168.48491190001369	170.55674790003104	173.09165970003232	2.071836000017356	169.49198240000987	172.0682911000331	176.17750759999058	1.064765500021167	1.0233685999992304	1.35438010003395	175.1652881000191	0.4979453000123612	174.1160380000365	2	1	20	4	go_reward	0	0	1	1	0	0	0	0.0	1.0	1	1.0	0.4979453000123612	1444.018117300002	1612.5030292000156	1613.5100997000118	1614.574865200033	1616.086408400035	1617.1097770000342	1618.1341553000384	1619.183405400021	1620.1956248999925	1621.5500050000264	2020-02-21 16:36:35.567440	-10.8163423776806	7.24385524928541	0.0	7.24385524928541	10.8163423776806	0.0	10.8163423776806	0.0	7.24385524928541	0.0	10.8163423776806	14.5275557612253	-17.46791307201784	6.870382227329918	-0.08858135797869157	4.018200233260808	9.254766648301551	-0.08858135797869157	14.476241893047954	-4.15086389084749	13.317049181170342	-3.471087325099466	10.252888194450676	3	correct	1.0
177.5701342999821	8.575077000015426	go_punish	0.3821428000228479	177.61880830000177	179.5066016000344	182.09751049999613	1.8877933000326266	178.6329284000094	181.07009220001055	185.18542390002403	0.8736732000249958	1.0274182999855839	1.0084613999931662	184.16191389999585	0.8395016000140458	183.12794400000712	2	1	21	2	go_punish	0	-1	0	1	1	1	1	1.0	1.0	-1	0.3821428000228479	0.8395016000140458	1444.018117300002	1621.6369256000037	1622.6510457000113	1623.5247189000363	1625.0882095000125	1626.115627799998	1627.146061300009	1628.1800311999978	1629.203541200026	1630.212002600019	2020-02-21 16:36:35.567440	0.618788687185366	0.0	0.0	0.0	0.618788687185366	0.0	-0.618788687185366	0.0	0.0	0.618788687185366	0.0	-15.9346114525463	-6.032782007151873	-0.3734730219554922	-0.08858135797869157	-3.2256550160246023	-0.9427870421936827	-0.08858135797869157	-15.985925320723645	-3.5320752036621244	2.500706803489741	-3.471087325099466	3.009032945165267	3	correct	1.0
186.19923349999613	9.76897500001337	nogo_punish	1.0	186.2479075000158	189.10053090000292	191.6201169000126	2.8526233999871238	187.25393140001688	190.6039843999897	194.6984656000277	1.8465994999860413	1.0161325000228771	1.3184169000014663	193.68927879998228	0.3129310000222176	192.63759030000074	2	1	22	1	nogo_punish	1	-1	0	0	0	1	0	0.0	1.0	0	1.0	0.3129310000222176	1444.018117300002	1630.2660248000177	1631.2720487000188	1633.1186482000048	1634.6221016999916	1635.6382342000145	1636.6557076000026	1637.7073960999842	1638.7165829000296	1640.034999800031	2020-02-21 16:36:35.567440	4.01284586886451	-4.14178103657143	0.0	-1.21181974870449	-4.01284586886451	0.0	-4.01284586886451	0.0	-4.14178103657143	0.0	-4.01284586886451	0.0	-2.638724825472729	-4.5152540585269225	-0.08858135797869157	-4.437474764729092	-5.574421598243559	-0.08858135797869157	-0.05131386817734466	-4.15086389084749	-1.5121390653747686	-3.471087325099466	-1.1327480914061634	3	correct	1.0
196.01578640000662	8.872828899998922	go_reward	0.5443391000153497	196.0644604000263	197.8710704999976	200.45529740001098	1.8066100999712944	197.07736470003147	199.42940210003871	203.544265500037	0.7937057999661192	1.0258952999722624	1.3930237999882138	202.5275478999829	0.6147213000222109	201.48882790002972	2	1	23	4	go_reward	1	1	0	1	1	1	0	0.0	1.0	1	0.5443391000153497	0.6147213000222109	1444.018117300002	1640.0825777000282	1641.0954820000334	1641.8891877999995	1643.4475194000406	1644.4734147000129	1645.5069452000316	1646.5456651999848	1647.562382800039	1648.9554066000271	2020-02-21 16:36:35.567440	7.82261916145558	7.24385524928541	3.74244416263713	9.07457063841584	11.5650633240927	3.74244416263713	-7.82261916145558	7.24385524928541	3.74244416263713	11.5650633240927	3.74244416263713	7.283700511939889	1.1710484671183412	6.870382227329918	3.6538628046584383	5.848915622391239	10.00348759471365	3.6538628046584383	7.232386643762545	7.4141994332452095	6.243150966126871	3.772767924185944	6.751477107802397	3	correct	1.0
204.93155410001032	7.840427999967005	go_reward	0.9847811000072396	204.98022810003	206.3596182999902	208.94515139999567	1.3793901999601985	205.99569439998618	207.91849980002735	212.0450036000111	0.36392390000401065	1.026651599968318	0.7756524999858811	211.02111090003746	0.3560643999953754	209.96747820003657	2	1	24	4	go_reward	1	1	0	1	1	1	0	0.0	1.0	1	0.9847811000072396	0.3560643999953754	1444.018117300002	1648.998345400032	1650.013811699988	1650.377735599992	1651.9366171000293	1652.9632686999976	1653.9855955000385	1655.0392282000394	1656.063120900013	1656.838773399999	2020-02-21 16:36:35.567440	10.2095318482851	9.07457063841584	3.74244416263713	10.4257906434197	13.9519760109222	3.74244416263713	-10.2095318482851	9.07457063841584	3.74244416263713	13.9519760109222	3.74244416263713	5.452985122809459	3.5579611539478604	8.701097616460348	3.6538628046584383	7.200135627395099	12.390400281543151	3.6538628046584383	5.401671254632114	9.801112120074709	6.243150966126871	5.603483313316374	6.751477107802397	3	correct	1.0
212.8557090999675	9.558727300027385	nogo_reward	1.0	212.90438309998717	215.35990239999978	217.89018680003937	2.455519300012611	213.923495099996	216.85909849999007	220.9863576000207	1.4364073000037934	1.031088300049305	1.4767527999938466	219.9608010000086	0.7190010999911465	218.91377210000041	2	1	25	3	nogo_reward	1	0	1	0	0	1	0	0.0	1.0	1	1.0	0.7190010999911465	1444.018117300002	1656.922500399989	1657.941612399998	1659.3780197000017	1660.877215799992	1661.9083041000413	1662.9318894000023	1663.9789183000105	1665.0044749000226	1666.4812277000165	2020-02-21 16:36:35.567440	-1.34099195524589	2.73538719094342	3.74244416263713	4.22445242677583	5.08343611788303	3.74244416263713	1.34099195524589	3.74244416263713	2.73538719094342	3.74244416263713	5.08343611788303	10.78511159858817	-7.992562649583129	2.3619141689879277	3.6538628046584383	0.9987974107512279	3.5218603885039816	3.6538628046584383	10.733797730410824	-0.4084197282103603	7.584142921372772	0.27135683753766404	5.744420136108687	3	correct	1.0
222.49335820000852	8.801468899997417	go_punish	1.0	222.5420322000282	224.30761040002108	226.8435263999852	1.7655781999928877	223.55259370000567	225.8071672000226	229.92017270001816	0.7550167000154033	1.0363591999625896	1.423328400007449	228.9071384000124	0.7331019999692217	227.8606509999952	2	1	26	2	go_punish	1	0	-1	1	0	0	0	0.0	1.0	-1	1.0	0.7331019999692217	1444.018117300002	1666.56014950003	1667.5707110000076	1668.325727700023	1669.8252845000245	1670.861643699987	1671.878768299997	1672.9252557000143	1673.93829000002	1675.3616184000275	2020-02-21 16:36:35.567440	5.15800961699707	-4.14178103657143	0.0	-4.14178103657143	-5.15800961699707	0.0	-5.15800961699707	0.0	-4.14178103657143	0.0	-5.15800961699707	-15.9346114525463	-1.4935610773401686	-4.5152540585269225	-0.08858135797869157	-7.367436052596032	-6.719585346376119	-0.08858135797869157	-15.985925320723645	-4.15086389084749	-2.657302813507329	-3.471087325099466	-1.1327480914061634	3	correct	1.0
231.33485529996688	9.00693080003839	nogo_punish	1.0	231.38352929998655	233.40888629999245	235.9417434000061	2.025357000005897	232.40008450002642	234.92001880001044	239.03934280003887	1.0088017999660224	1.0217245999956504	1.3511172999860719	238.01376539998455	0.375336299999617	236.97424800001318	2	1	27	1	nogo_punish	0	0	-1	0	0	1	0	0.0	1.0	-1	1.0	0.375336299999617	1444.018117300002	1675.4016465999885	1676.4182018000283	1677.4270035999944	1678.9381361000123	1679.959860700008	1680.992365300015	1682.0318826999865	1683.0574601000408	1684.4085774000268	2020-02-21 16:36:35.567440	3.88953534748852	-4.14178103657143	0.0	-0.902627066487528	-3.88953534748852	0.0	-3.88953534748852	0.0	-4.14178103657143	0.0	-3.88953534748852	-15.9346114525463	-2.7620353468487187	-4.5152540585269225	-0.08858135797869157	-4.12828208251213	-5.451111076867569	-0.08858135797869157	-15.985925320723645	-4.15086389084749	-1.388828543998779	-3.471087325099466	-1.1327480914061634	3	correct	1.0
240.41131310001947	9.360667499946658	go_punish	0.6009158999659121	240.45998710003914	243.2695354000316	245.86530230002245	2.809548299992457	241.4795587999979	244.83203190000495	248.95880580000812	1.7899766000336967	1.0332704000175	0.8618487999776789	247.9326291999896	0.4941043999860994	246.88647550001042	2	1	28	2	go_punish	0	-1	0	1	1	1	1	1.0	1.0	-1	0.6009158999659121	0.4941043999860994	1444.018117300002	1684.478104400041	1685.4976760999998	1687.2876527000335	1688.8501492000069	1689.8834196000244	1690.9045928000123	1691.9507464999915	1692.97692310001	1693.8387718999877	2020-02-21 16:36:35.567440	-2.21681967272624	-4.14178103657143	-4.14178103657143	-7.16214907443664	-6.35860070929767	-4.14178103657143	2.21681967272624	-4.14178103657143	-4.14178103657143	-6.35860070929767	-4.14178103657143	-11.79283041597487	-8.86839036706348	-4.5152540585269225	-4.230362394550122	-10.387804090461243	-7.9201764386767195	-4.230362394550122	-11.844144284152215	-10.509464600145161	-1.6410742330816892	-7.6128683616708965	-1.1327480914061634	3	correct	1.0
249.83506339997984	8.80056699999841	go_punish	1.0	249.88373739999952	251.9495625999989	254.48058640002273	2.065825199999381	250.89194850000786	253.45313809998333	257.5758998999952	1.0576140999910422	1.0274483000393957	1.1084045000027345	256.5576519999886	0.3763082000077702	255.5082535999827	2	1	29	2	go_punish	0	-1	0	1	0	0	0	0.0	1.0	0	1.0	0.3763082000077702	1444.018117300002	1693.9018547000014	1694.9100658000098	1695.9676799000008	1697.4712553999852	1698.4987037000246	1699.5263708999846	1700.5757692999905	1701.594017199997	1702.7024216999998	2020-02-21 16:36:35.567440	6.12344623765052	-7.16214907443664	-4.14178103657143	-9.37799357456857	-10.265227274222	-4.14178103657143	-6.12344623765052	-4.14178103657143	-7.16214907443664	-4.14178103657143	-10.265227274222	4.14178103657143	-0.5281244566867187	-7.5356220963921325	-4.230362394550122	-12.603648590593172	-11.826803003601048	-4.230362394550122	4.090467168394086	-8.29264492741892	-7.764520470732258	-7.6128683616708965	-4.153116129271373	3	correct	1.0
258.7150826000145	8.572370299952809	go_punish	1.0	258.7637566000342	260.33908559998963	262.86771670001326	1.5753289999554454	259.7720993999974	261.85070549999364	265.94113629998174	0.5669861999922432	1.017011200019624	1.3949906000052579	264.9265262000263	0.586043499992229	263.8825082000112	2	1	30	2	go_punish	0	-1	0	1	0	0	1	1.0	1.0	0	1.0	0.586043499992229	1444.018117300002	1702.781873900036	1703.7902166999993	1704.3572028999915	1705.8688227999955	1706.8858340000152	1707.9006255000131	1708.9446435000282	1709.9592535999836	1711.354244199989	2020-02-21 16:36:35.567440	6.26724997008451	-7.16214907443664	-3.02036803786521	-6.87075149266855	-9.28761800794972	-3.02036803786521	-6.26724997008451	-3.02036803786521	-7.16214907443664	-3.02036803786521	-9.28761800794972	3.02036803786521	-0.3843207242527287	-7.5356220963921325	-3.1089493958439016	-10.096406508693152	-10.849193737328768	-3.1089493958439016	2.9690541696878654	-7.1712319287127	-6.786911204459978	-6.491455362964675	-4.153116129271373	3	correct	1.0
267.3612543999916	8.525547800003551	go_punish	1.0	267.40992840001127	269.4105417000244	271.952337499999	2.0006133000131285	268.4282866999856	270.9293226000152	275.0493779000244	0.9822550000387764	1.0230148999837638	0.8860982999904081	274.02786289999494	0.3239309000200592	272.9807344999863	2	1	31	2	go_punish	1	0	-1	1	0	0	1	1.0	1.0	-1	1.0	0.3239309000200592	1444.018117300002	1711.4280457000132	1712.4464039999875	1713.4286590000263	1714.9474399000171	1715.9704548000009	1716.9988517999882	1718.0459801999968	1719.0674952000263	1719.9535935000167	2020-02-21 16:36:35.567440	6.36103593499563	-7.16214907443664	-2.21584450013193	-5.06220320350783	-8.57688043512755	-2.21584450013193	-6.36103593499563	-2.21584450013193	-7.16214907443664	-2.21584450013193	-8.57688043512755	-13.71876695241437	-0.2905347593416092	-7.5356220963921325	-2.3044258581106214	-8.287858219532433	-10.138456164506598	-2.3044258581106214	-13.770080820591716	-6.36670839097942	-6.076173631637808	-5.686931825231396	-4.153116129271373	3	correct	1.0
275.9609159000099	8.0495150999634	nogo_reward	0.2958740000030957	276.0095899000296	277.4337685999924	280.0180538999848	1.4241786999627948	277.0337565999946	278.9946213000221	283.1001388999864	0.4000119999977869	1.023432599962689	0.9589661000065917	282.08943789999466	0.3432530999998562	281.0433473000303	2	1	32	3	nogo_reward	0	1	0	0	1	0	0	0.0	1.0	1	0.2958740000030957	0.3432530999998562	1444.018117300002	1720.0277072000315	1721.0518738999965	1721.4518858999943	1723.012738600024	1724.0361711999867	1725.0614646000322	1726.1075551999966	1727.1182561999883	1728.077222299995	2020-02-21 16:36:35.567440	-0.324918529585753	2.73538719094342	6.47783135358055	6.86246406245588	6.1529128239948	6.47783135358055	0.324918529585753	2.73538719094342	6.47783135358055	6.1529128239948	6.47783135358055	11.792168570281879	-6.976489223922992	2.3619141689879277	6.389249995601858	3.6368090464312774	4.591337094615751	6.389249995601858	11.740854702104533	2.00204893314731	8.978538157070291	-0.7357001341560458	9.486864298745816	3	correct	1.0
284.08065469999565	8.853867799974978	go_punish	1.0	284.1293287000153	285.9690862999996	288.4976645000279	1.8397575999842957	285.1478587000165	287.4792274000356	291.58902529999614	0.8212275999831036	1.0184370999922976	1.3941711999941617	290.57202510000207	0.5982990000047721	289.518220500031	2	1	33	2	go_punish	1	0	-1	1	0	0	1	1.0	1.0	-1	1.0	0.5982990000047721	1444.018117300002	1728.1474460000172	1729.1659760000184	1729.9872036000015	1731.4973447000375	1732.5157818000298	1733.536337800033	1734.590142400004	1735.607142599998	1737.0013137999922	2020-02-21 16:36:35.567440	3.91586218253909	-7.16214907443664	-5.77631999124285	-7.89076680643486	-9.69218217378194	-5.77631999124285	-3.91586218253909	-5.77631999124285	-7.16214907443664	-5.77631999124285	-9.69218217378194	-10.158291461303449	-2.735708511798149	-7.5356220963921325	-5.864901349221541	-11.116421822459463	-11.25375790316099	-5.864901349221541	-10.209605329480794	-9.92718388209034	-7.191475370292199	-9.247407316342315	-4.153116129271373	3	correct	1.0
293.01377550000325	8.25454960000934	nogo_reward	0.2830663000349886	293.0624495000229	294.7534731000196	297.3189491000378	1.6910235999966972	294.0774676000001	296.305320799991	300.4060109999846	0.676005500019528	1.0136283000467756	0.9109881000476889	299.3829828000162	0.5420326000312343	298.33858899999177	2	1	34	3	nogo_reward	1	0	1	0	1	0	1	1.0	1.0	0	0.2830663000349886	0.5420326000312343	1444.018117300002	1737.0805668000248	1738.095584900002	1738.7715904000215	1740.323438099993	1741.3370664000397	1742.3567062999937	1743.401100100018	1744.4241282999865	1745.3351164000342	2020-02-21 16:36:35.567440	3.48374772972427	5.754790013453	6.47783135358055	8.79483597943337	9.96157908330482	6.47783135358055	-3.48374772972427	5.754790013453	6.47783135358055	9.96157908330482	6.47783135358055	-5.754790013453	-3.1678229646129688	5.381316991497508	6.389249995601858	5.569180963408769	8.40000335392577	6.389249995601858	-5.806103881630345	5.810715192457329	8.978538157070291	2.2837026883535345	9.486864298745816	3	correct	1.0
301.30935499997554	8.930440400028829	nogo_punish	1.0	301.3580289999952	303.7455891999996	306.2825728000025	2.3875602000043727	302.3746059000259	305.2568103999947	309.38008100003935	1.370983299973659	1.0257624000078067	0.9083883999846876	308.36191500001587	0.3067606000113301	307.3056887999992	2	1	35	1	nogo_punish	1	-1	0	0	0	1	0	0.0	1.0	0	1.0	0.3067606000113301	1444.018117300002	1745.3761462999971	1746.3927232000278	1747.7637065000015	1749.2749276999966	1750.3006901000044	1751.323806100001	1752.3800323000178	1753.3981983000413	1754.306586700026	2020-02-21 16:36:35.567440	1.29158796413656	-4.14178103657143	-4.14178103657143	-4.8170406009084	-5.43336900070799	-4.14178103657143	-1.29158796413656	-4.14178103657143	-4.14178103657143	-4.14178103657143	-5.43336900070799	4.14178103657143	-5.359982730200679	-4.5152540585269225	-4.230362394550122	-8.042695616933003	-6.994944730087038	-4.230362394550122	4.090467168394086	-8.29264492741892	-2.932662197218249	-7.6128683616708965	-1.1327480914061634	3	correct	1.0
310.2768571000197	8.285370099998545	go_reward	0.4740707000019029	310.32553110003937	311.69929190003313	314.2918986000004	1.3737607999937609	311.3381137000397	313.26401250000345	317.38863110000966	0.36117819999344647	1.0278860999969766	1.222270100028254	316.36474809999345	0.2886847999761812	315.32295519998297	2	1	36	4	go_reward	1	1	0	1	1	1	0	0.0	1.0	1	0.4740707000019029	0.2886847999761812	1444.018117300002	1754.3436484000413	1755.3562310000416	1755.717409200035	1757.2821298000054	1758.3100159000023	1759.3410724999849	1760.3828653999954	1761.4067484000116	1762.6290185000398	2020-02-21 16:36:35.567440	11.9759784710187	10.4257906434197	3.74244416263713	11.4287760367862	15.7184226336559	3.74244416263713	-11.9759784710187	10.4257906434197	3.74244416263713	15.7184226336559	3.74244416263713	4.1017651178055985	5.32440777668146	10.052317621464208	3.6538628046584383	8.203121020761598	14.15684690427685	3.6538628046584383	4.050451249628254	11.567558742808409	6.243150966126871	6.9547033183202345	6.751477107802397	3	correct	1.0
318.65474299999187	9.690469400025677	nogo_reward	0.2279883000301197	318.70341700001154	321.27852629998233	323.8589159999974	2.5751092999707907	319.7187939999858	322.8342532000388	326.94567049999	1.55973229999654	1.0246627999586053	1.4482159000472166	325.9265302999993	0.290396700031124	324.87629039998865	2	1	37	3	nogo_reward	1	0	1	0	1	0	0	0.0	1.0	0	0.2279883000301197	0.290396700031124	1444.018117300002	1762.7215343000134	1763.7369112999877	1765.2966435999842	1766.8523705000407	1767.8770332999993	1768.8944076999906	1769.9446476000012	1770.963787799992	1772.4120037000391	2020-02-21 16:36:35.567440	1.02555142517545	4.22445242677583	6.47783135358055	6.47700129729908	7.503382778756	6.47783135358055	-1.02555142517545	4.22445242677583	6.47783135358055	7.503382778756	6.47783135358055	-4.22445242677583	-5.626019269161789	3.850979404820338	6.389249995601858	3.251346281274478	5.941807049376951	6.389249995601858	-4.275766294953175	3.35251888790851	8.978538157070291	0.7533651016763643	9.486864298745816	3	correct	1.0
328.38527490000706	9.340303700009827	nogo_punish	1.0	328.43394890002673	331.1919343000045	333.74148979998427	2.7579853999777697	329.44853380002314	332.7085729999817	336.8163361999905	1.7434004999813624	1.0329168000025675	0.9579164000460878	335.79581720003625	0.6106693999608979	334.7579193999991	2	1	38	1	nogo_punish	1	-1	0	0	0	1	0	0.0	1.0	0	1.0	0.6106693999608979	1444.018117300002	1772.4520662000286	1773.466651100025	1775.2100516000064	1776.7266902999836	1777.7596070999862	1778.776036700001	1779.8139345000382	1780.8344534999924	1781.7923699000385	2020-02-21 16:36:35.567440	1.91084734180222	-4.14178103657143	-3.02036803786521	-3.52760193898634	-4.93121537966743	-3.02036803786521	-1.91084734180222	-3.02036803786521	-4.14178103657143	-3.02036803786521	-4.93121537966743	3.02036803786521	-4.740723352535019	-4.5152540585269225	-3.1089493958439016	-6.753256955010942	-6.492791109046479	-3.1089493958439016	2.9690541696878654	-7.1712319287127	-2.430508576177689	-6.491455362964675	-1.1327480914061634	3	correct	1.0
337.76987809996353	8.460569200047757	nogo_punish	1.0	337.8185520999832	339.17028220003704	341.6931272000072	1.3517301000538282	338.82695439999225	340.66843489999883	344.78657060000114	0.3433278000447899	1.0246923000083825	1.492550700029824	343.7666776999831	0.3592884999816306	342.713358100038	2	1	39	1	nogo_punish	1	-1	0	0	0	1	0	0.0	1.0	0	1.0	0.3592884999816306	1444.018117300002	1781.836669399985	1782.8450716999942	1783.188399500039	1784.6865522000007	1785.7112445000091	1786.73147540004	1787.784794999985	1788.804687900003	1790.2972386000329	2020-02-21 16:36:35.567440	2.35052306011987	-4.14178103657143	-2.21584450013193	-2.59833340438444	-4.56636756025179	-2.21584450013193	-2.35052306011987	-2.21584450013193	-4.14178103657143	-2.21584450013193	-4.56636756025179	2.21584450013193	-4.301047634217369	-4.5152540585269225	-2.3044258581106214	-5.823988420409043	-6.127943289630839	-2.3044258581106214	2.164530631954585	-6.36670839097942	-2.0656607567620493	-5.686931825231396	-1.1327480914061634	3	correct	1.0
346.42715679999674	9.00911929999711	go_punish	0.2578866999829188	346.4758308000164	348.988740200002	351.6534430999891	2.512909399985574	347.4950420000241	350.6247428000204	354.7278595000389	1.493698199977871	1.0287002999687047	0.7570905999746174	353.7173494999879	0.7194765000022016	352.68223939999007	2	1	40	2	go_punish	1	0	-1	1	1	1	0	0.0	1.0	0	0.2578866999829188	0.7194765000022016	1444.018117300002	1790.4939481000183	1791.513159300026	1793.006857500004	1794.6428601000223	1795.671560399991	1796.700356699992	1797.7354667999898	1798.7459768000408	1799.5030674000154	2020-02-21 16:36:35.567440	-2.13675582531356	-7.16214907443664	-8.37396882314113	-9.95185545396562	-10.5107246484547	-8.37396882314113	2.13675582531356	-7.16214907443664	-8.37396882314113	-10.5107246484547	-8.37396882314113	7.16214907443664	-8.788326519650798	-7.5356220963921325	-8.462550181119822	-13.177510469990223	-12.072300377833749	-8.462550181119822	7.110835206259296	-14.66158853930219	-5.8732620196513885	-10.633236399536106	-5.364935877975864	3	correct	1.0
355.5126140000066	8.291817499964736	nogo_reward	0.2995999000268057	355.56128800002625	357.38194410002325	359.9646446999982	1.8206560999969952	356.57665250002174	358.9382309000357	363.04423460003454	0.8052916000015102	1.0264137999624836	0.808870899956446	362.01919820002513	0.3122615999891422	360.9853476000137	2	1	41	3	nogo_reward	1	0	1	0	1	0	0	0.0	1.0	0	0.2995999000268057	0.3122615999891422	1444.018117300002	1799.5794053000282	1800.5947698000236	1801.4000614000252	1802.9563482000376	1803.982762	1805.0034649000156	1806.037315500027	1807.0623519000364	1807.871222799993	2020-02-21 16:36:35.567440	-0.75675161665153	3.12001989981875	6.47783135358055	4.79794408259828	5.72107973692902	6.47783135358055	0.75675161665153	3.12001989981875	6.47783135358055	5.72107973692902	6.47783135358055	-3.12001989981875	-7.408322310988769	2.7465468778632576	6.389249995601858	1.5722890665736782	4.159504007549971	6.389249995601858	-3.1713337679960945	1.5702158460815294	8.978538157070291	-0.351067425280716	9.486864298745816	3	correct	1.0
363.84389989997726	8.713481399987586	go_reward	0.2621961000259034	363.89257389999693	365.4901443999845	368.067077899992	1.5975704999875688	364.91936260001967	367.0453763999976	371.13959600002295	0.5707817999648341	1.0217014999943785	1.4664592999615707	370.12903030001326	0.6925228000036441	369.0890082999831	2	1	42	4	go_reward	1	1	0	1	1	1	0	0.0	1.0	1	0.2621961000259034	0.6925228000036441	1444.018117300002	1807.9106911999988	1808.9374799000216	1809.5082616999864	1811.0634936999995	1812.085195199994	1813.107125599985	1814.1471476000152	1815.1577133000249	1816.6241725999864	2020-02-21 16:36:35.567440	13.2903519958837	11.4287760367862	3.74244416263713	12.1771043016982	17.0327961585209	3.74244416263713	-13.2903519958837	11.4287760367862	3.74244416263713	17.0327961585209	3.74244416263713	3.0987797244390993	6.638781301546461	11.055303014830708	3.6538628046584383	8.951449285673599	15.47122042914185	3.6538628046584383	3.0474658562617547	12.88193226767341	6.243150966126871	7.957688711686734	6.751477107802397	3	correct	1.0
372.63990740000736	8.237399799982086	go_punish	1.0	372.68858140002703	374.13202220003564	376.66211650002515	1.4434408000086023	373.7047201000389	375.6422054999862	379.75113530003	0.427302099996723	1.0199110000389737	1.1748458999791183	378.740377500013	0.5889752999646589	377.69458070001565	2	1	43	2	go_punish	1	0	-1	1	0	0	0	0.0	1.0	-1	1.0	0.5889752999646589	1444.018117300002	1816.706698700029	1817.7228374000408	1818.1501395000375	1819.660322799988	1820.680233800027	1821.7126980000176	1822.758494800015	1823.769252600032	1824.944098500011	2020-02-21 16:36:35.567440	-0.820161033175556	-5.23621253799713	-8.37396882314113	-7.32133306994276	-7.55380778996557	-8.37396882314113	0.820161033175556	-8.37396882314113	-5.23621253799713	-8.37396882314113	-7.55380778996557	-7.560642629405169	-7.471731727512795	-5.609685559952622	-8.462550181119822	-10.546988085967362	-9.115383519344618	-8.462550181119822	-7.611956497582514	-12.52483271398862	-5.05310098647583	-11.845056148240596	-2.2271795928318627	3	correct	1.0
380.91809130000206	8.539957300002698	go_reward	0.2135839999536983	380.96676530002173	382.5522072000308	385.136328199995	1.585441900009073	381.9805478000196	384.10904990002723	388.2170805000351	0.5716594000111854	1.0272782999677474	1.2896420999893508	387.2031242999949	0.6634119999944232	386.1582176000229	2	1	44	4	go_reward	0	0	1	1	1	1	1	1.0	1.0	0	0.2135839999536983	0.6634119999944232	1444.018117300002	1824.9848826000236	1825.9986651000215	1826.5703245000327	1828.1271672000291	1829.1544454999969	1830.1763349000248	1831.2212415999968	1832.235197800037	1833.5248399000263	2020-02-21 16:36:35.567440	14.2731702160581	12.1771043016982	3.74244416263713	12.7380556606605	18.0156143786952	3.74244416263713	-14.2731702160581	12.1771043016982	3.74244416263713	18.0156143786952	3.74244416263713	-12.1771043016982	7.621599521720861	11.803631279742708	3.6538628046584383	9.512400644635898	16.454038649316153	3.6538628046584383	-12.228418169875546	13.864750487847711	6.243150966126871	8.706016976598734	6.751477107802397	3	correct	1.0
389.4967992000163	8.143002299999353	nogo_punish	1.0	389.545473200036	391.03294890001416	393.56800560001284	1.4874756999781766	390.561200700002	392.5453684999957	396.6643685000022	0.47174820001214357	1.022637100017164	1.0241070000331547	395.6502982000236	0.3261776999570429	394.5935057000024	2	1	45	1	nogo_punish	1	-1	0	0	0	1	0	0.0	1.0	0	1.0	0.3261776999570429	1444.018117300002	1833.563590500038	1834.579318000004	1835.051066200016	1836.5634857999976	1837.5861229000147	1838.6116230000043	1839.6684155000255	1840.682485800004	1841.7065928000372	2020-02-21 16:36:35.567440	2.66515256259792	-4.14178103657143	-1.63453895467141	-1.92401484619394	-4.29969151726933	-1.63453895467141	-2.66515256259792	-1.63453895467141	-4.14178103657143	-1.63453895467141	-4.29969151726933	1.63453895467141	-3.9864181317393186	-4.5152540585269225	-1.7231203126501016	-5.149669862218542	-5.861267246648378	-1.7231203126501016	1.5832250864940653	-5.785402845518901	-1.7989847137795887	-5.105626279770876	-1.1327480914061634	3	correct	1.0
397.6824810999676	9.403027900029201	nogo_punish	1.0	397.7311550999873	400.35704159998613	402.89017999998737	2.625886499998842	398.7422177999981	401.87490930000763	405.9936847999925	1.6148237999880166	1.0152706999797374	1.1404982000240125	404.97475160000613	0.3972952000331133	403.9206857000245	2	1	46	1	nogo_punish	1	-1	0	0	0	1	0	0.0	1.0	0	1.0	0.3972952000331133	1444.018117300002	1841.7492723999892	1842.7603351	1844.375158899988	1845.8930266000095	1846.9082972999893	1847.9388030000264	1848.992868900008	1850.0118020999944	1851.1523003000184	2020-02-21 16:36:35.567440	2.89188846152871	-4.14178103657143	-1.21181974870449	-1.43166082017039	-4.1037082102332	-1.21181974870449	-2.89188846152871	-1.21181974870449	-4.14178103657143	-1.21181974870449	-4.1037082102332	1.21181974870449	-3.7596822328085286	-4.5152540585269225	-1.3004011066831815	-4.657315836194992	-5.665283939612248	-1.3004011066831815	1.1605058805271453	-5.36268363955198	-1.6030014067434588	-4.682907073803956	-1.1327480914061634	3	correct	1.0
407.12358459999086	8.225772399979633	go_reward	0.2560410999576561	407.17225860001054	408.7453680000033	411.3857834000373	1.5731093999927452	408.1790470000126	410.36509350000415	414.4762262000004	0.566320999990694	1.020689900033176	0.9218047999897863	413.4526488999834	0.9125345000065864	412.404140400002	2	1	47	4	go_reward	1	1	0	1	1	1	0	0.0	1.0	1	0.2560410999576561	0.9125345000065864	1444.018117300002	1851.1903759000124	1852.1971643000145	1852.7634853000052	1854.383210800006	1855.4039007000392	1856.422257700004	1857.4707661999853	1858.4943435000023	1859.416148299992	2020-02-21 16:36:35.567440	9.75537337519992	8.99561149802333	3.74244416263713	9.41792226760319	13.497817537837	3.74244416263713	-9.75537337519992	8.99561149802333	3.74244416263713	13.497817537837	3.74244416263713	5.53194426320197	3.103802680862681	8.622138476067837	3.6538628046584383	6.192267251578588	11.93624180845795	3.6538628046584383	5.480630395024625	9.346953646989508	6.243150966126871	5.524524172923863	6.751477107802397	3	correct	1.0
415.4194769000169	8.760308399971109	go_punish	0.4941366999992169	415.46815090003656	417.1443850999931	419.7321582000004	1.6762341999565251	416.48953439999605	418.6973754999924	422.8220257000064	0.6548506999970414	1.0347827000080088	1.4064336000012645	421.80176729999926	0.833120199968107	420.7624058999936	2	1	48	2	go_punish	1	0	-1	1	1	1	0	0.0	1.0	0	0.4941366999992169	0.833120199968107	1444.018117300002	1859.4862682000385	1860.507651699998	1861.162502399995	1862.7154927999943	1863.7502755000023	1864.7805231999955	1865.8198846000012	1866.8401430000083	1868.2465766000096	2020-02-21 16:36:35.567440	1.84440498873715	-5.23621253799713	-10.2806206410561	-9.55714686108538	-8.43621565231895	-10.2806206410561	-1.84440498873715	-5.23621253799713	-10.2806206410561	-8.43621565231895	-10.2806206410561	5.23621253799713	-4.807165705600089	-5.609685559952622	-10.369201999034791	-12.782801877109982	-9.997791381697999	-10.369201999034791	5.184898669819785	-12.587079543166439	-7.779913837566358	-8.707299863096596	-7.271587695890833	3	correct	1.0
424.22096050001005	9.430939199984778	go_reward	0.2435474999947473	424.2696345000297	427.251164400019	429.854391000001	2.9815298999892548	425.29008990002285	428.8227860000336	432.93052330001933	1.9610744999961298	1.031604999967385	0.7700503999951707	431.921033699997	0.4091686000465415	430.87729780003406	2	1	49	4	go_reward	1	1	0	1	1	1	1	1.0	1.0	1	0.2435474999947473	0.4091686000465415	1444.018117300002	1868.2877518000316	1869.3082072000248	1871.2692817000209	1872.8409033000355	1873.872508300003	1874.895415100036	1875.939150999999	1876.9486406000212	1877.7186910000164	2020-02-21 16:36:35.567440	11.7180889006103	10.4249792392969	3.74244416263713	10.7441892254924	15.4605330632474	3.74244416263713	-11.7180889006103	10.4249792392969	3.74244416263713	15.4605330632474	3.74244416263713	4.1025765219284	5.066518206273062	10.051506217341407	3.6538628046584383	7.5185342094677985	13.898957333868351	3.6538628046584383	4.051262653751055	11.30966917239991	6.243150966126871	6.953891914197433	6.751477107802397	3	correct	1.0
433.6971484000096	9.175443199987285	nogo_punish	1.0	433.7458224000293	435.93745470000454	438.4726111000057	2.1916322999752538	434.7632622999954	437.44531670003175	441.5642499999958	1.174192400009133	1.0272943999739255	1.357015600020759	440.552219200006	0.294972300005611	439.5055522000184	2	1	50	1	nogo_punish	1	-1	0	0	0	1	0	0.0	1.0	0	1.0	0.294972300005611	1444.018117300002	1877.7639397000312	1878.7813795999973	1879.9555720000064	1881.4634340000337	1882.4907284000076	1883.5236695000203	1884.570336500008	1885.5823672999977	1886.9393829000185	2020-02-21 16:36:35.567440	3.05632877365969	-4.14178103657143	-0.902627066487528	-1.07013536822827	-3.95895584014722	-0.902627066487528	-3.05632877365969	-0.902627066487528	-4.14178103657143	-0.902627066487528	-3.95895584014722	0.902627066487528	-3.595241920677549	-4.5152540585269225	-0.9912084244662196	-4.295790384252872	-5.520531569526268	-0.9912084244662196	0.8513131983101834	-5.053490957335018	-1.4582490366574787	-4.373714391586994	-1.1327480914061634	3	correct	1.0
442.9475597999992	9.372647900017682	nogo_reward	1.0	442.9962338000189	445.3555134999913	447.8987586000005	2.359279699972376	444.005769099982	446.87531010003295	450.97802109998884	1.3497444000092855	1.0234484999675715	1.3908606000477448	449.9608612000011	0.9276685999939218	448.91780850000214	2	1	51	3	nogo_reward	1	0	1	0	0	1	0	0.0	1.0	1	1.0	0.9276685999939218	1444.018117300002	1887.0143511000208	1888.023886399984	1889.3736307999932	1890.8934274000349	1891.9168759000024	1892.935925800004	1893.978978500003	1894.9961383999907	1896.3869990000385	2020-02-21 16:36:35.567440	2.05804647271122	2.31700462585282	6.47783135358055	3.57293966685096	4.41978488086933	6.47783135358055	-2.05804647271122	6.47783135358055	2.31700462585282	6.47783135358055	4.41978488086933	8.04972440764475	-4.593524221626019	1.9435316038973278	6.389249995601858	0.34728465082635784	2.8582091514902817	6.389249995601858	7.998410539467405	2.3269674627330597	6.920491684359071	3.006744028481084	5.326037571018087	3	correct	1.0
452.3842925999779	9.232364199997392	go_punish	0.2437065999838523	452.4329665999976	455.0318282000371	457.6321670000325	2.598861600039527	453.4404485999837	456.6043501000386	460.7249330999912	1.5913796000534148	1.0278168999939226	0.940397700003814	459.6973440999866	0.2789543000399135	458.6516086999909	2	1	52	2	go_punish	1	0	-1	1	1	1	0	0.0	1.0	0	0.2437065999838523	0.2789543000399135	1444.018117300002	1896.4510838999995	1897.4585658999856	1899.049945500039	1900.6224674000405	1901.6502843000344	1902.6697259999928	1903.7154613999885	1904.743050399993	1905.683448099997	2020-02-21 16:36:35.567440	4.21713347198841	-3.85038345480334	-10.2806206410561	-7.04592543813728	-6.06348716906769	-10.2806206410561	-4.21713347198841	-3.85038345480334	-10.2806206410561	-6.06348716906769	-10.2806206410561	3.85038345480334	-2.434437222348829	-4.223856476758832	-10.369201999034791	-10.271580454161882	-7.625062898446739	-10.369201999034791	3.7990695866259956	-10.214351059915181	-7.779913837566358	-7.321470779902806	-7.271587695890833	3	correct	1.0
461.6899979999873	9.357160300016176	go_punish	0.2819136999896727	461.738672000007	464.1846872000026	466.7696539000026	2.4460151999955997	462.7532113000052	465.74316930002533	469.8543386000092	1.4314758999973947	1.026484599977266	1.2414937000139616	468.8461489999902	0.507936600013636	467.7965225999942	2	1	53	2	go_punish	1	0	-1	1	1	1	0	0.0	1.0	0	0.2819136999896727	0.507936600013636	1444.018117300002	1905.756789300009	1906.771328600007	1908.2028045000045	1909.7612866000272	1910.7877712000045	1911.814639899996	1912.864266299992	1913.8724559000111	1915.113949600025	2020-02-21 16:36:35.567440	5.94312538850576	-2.8463587033759	-10.2806206410561	-5.22209718256489	-4.33749525255034	-10.2806206410561	-5.94312538850576	-2.8463587033759	-10.2806206410561	-4.33749525255034	-10.2806206410561	2.8463587033759	-0.7084453058314786	-3.2198317253313924	-10.369201999034791	-8.447752198589493	-5.899070981929389	-10.369201999034791	2.7950448351985555	-8.48835914339783	-7.779913837566358	-6.317446028475366	-7.271587695890833	3	correct	1.0
471.10511810000753	7.9062917999688125	nogo_punish	1.0	471.1537921000272	472.44691729999613	474.9859236000341	1.2931251999689266	472.1696401000372	473.9612390000261	478.08507520001126	0.27727719995891675	1.0246846000079586	0.9750086999847554	477.068440300005	0.4011432000552304	476.01848199998494	2	1	54	1	nogo_punish	1	-1	0	0	0	1	0	0.0	1.0	0	1.0	0.4011432000552304	1444.018117300002	1915.171909400029	1916.1877574000391	1916.465034599998	1917.979356300028	1919.004040900036	1920.0365992999868	1921.086557600007	1922.1031925000132	1923.078201199998	2020-02-21 16:36:35.567440	3.17628630557338	-4.14178103657143	-0.675259564336961	-0.803294994389079	-3.85154586991034	-0.675259564336961	-3.17628630557338	-0.675259564336961	-4.14178103657143	-0.675259564336961	-3.85154586991034	0.675259564336961	-3.4752843887638587	-4.5152540585269225	-0.7638409223156526	-4.0289500104136815	-5.413121599289388	-0.7638409223156526	0.6239456961596164	-4.826123455184451	-1.350839066420599	-4.146346889436427	-1.1327480914061634	3	correct	1.0
479.06429080001544	8.410960299952194	go_reward	0.2653565999935381	479.1129648000351	480.8096072000337	483.3765647999826	1.696642399998609	480.13090240000724	482.35624430002645	486.4690209000257	0.6787048000264804	1.0203204999561422	1.0549041999615838	485.44620970002165	0.5099354999838397	484.3957098000101	2	1	55	4	go_reward	1	1	0	1	1	1	0	0.0	1.0	1	0.2653565999935381	0.5099354999838397	1444.018117300002	1923.131082100037	1924.1490197000091	1924.8277245000356	1926.3743616000284	1927.3946820999845	1928.413827100012	1929.4643270000236	1930.4871382000276	1931.5420423999892	2020-02-21 16:36:35.567440	13.1518490212993	11.46723056562	3.74244416263713	11.7094123851797	16.8942931839364	3.74244416263713	-13.1518490212993	11.46723056562	3.74244416263713	16.8942931839364	3.74244416263713	3.0603251956052997	6.500278326962062	11.093757543664507	3.6538628046584383	8.483757369155098	15.332717454557352	3.6538628046584383	3.009011327427955	12.743429293088912	6.243150966126871	7.996143240520533	6.751477107802397	3	correct	1.0
487.5281662999769	8.546437100041658	go_reward	0.3689494999707676	487.57684029999655	489.35528540000087	491.95060630003013	1.778445100004319	488.58416249998845	490.924794999999	495.07666080002696	0.7711229000124149	1.0258113000311369	1.046616600011248	494.0456290000002	0.4211828000261448	492.99028750002617	2	1	56	4	go_reward	1	1	0	1	1	1	0	0.0	1.0	1	0.3689494999707676	0.4211828000261448	1444.018117300002	1931.5949575999985	1932.6022797999904	1933.3734027000028	1934.942912300001	1935.968723600032	1937.008404800028	1938.063746300002	1939.0947781000289	1940.14139470004	2020-02-21 16:36:35.567440	14.2065216833302	12.2326930001632	3.74244416263713	12.417078500036	17.9489658459674	3.74244416263713	-14.2065216833302	12.2326930001632	3.74244416263713	17.9489658459674	3.74244416263713	2.294862761062099	7.554950988992961	11.859219978207708	3.6538628046584383	9.191423484011398	16.387390116588353	3.6538628046584383	2.2435488928847542	13.798101955119911	6.243150966126871	8.761605675063734	6.751477107802397	3	correct	1.0
496.1159536999769	8.553134199988335	go_reward	0.2748733999906108	496.1646276999966	497.74658490001457	500.382081400021	1.581957200017996	497.184001100017	499.35777330002725	503.4660860000297	0.5625837999975829	1.024308099993732	1.2516758999552167	502.45444310002495	0.3064466000068933	501.40147879999085	2	1	57	4	go_reward	1	1	0	1	1	1	1	1.0	1.0	1	0.2748733999906108	0.3064466000068933	1444.018117300002	1940.1827449999985	1941.202118400019	1941.7647022000165	1943.3758906000292	1944.4001987000229	1945.4195960999928	1946.4725604000269	1947.4842033000316	1948.7358791999868	2020-02-21 16:36:35.567440	14.9871487575176	12.7984696868655	3.74244416263713	12.9393156980845	18.7295929201548	3.74244416263713	-14.9871487575176	12.7984696868655	3.74244416263713	18.7295929201548	3.74244416263713	1.7290860743597989	8.33557806318036	12.424996664910008	3.6538628046584383	9.713660682059897	17.168017190775753	3.6538628046584383	1.6777722061824543	14.578729029307311	6.243150966126871	9.327382361766034	6.751477107802397	3	correct	1.0
504.7157417999699	8.936139199998934	go_reward	0.3416888999636285	504.7644157999896	507.00297939998563	509.6587946999937	2.2385635999960414	505.77329650003253	508.62134670000523	512.7569258000005	1.2296828999531044	1.0374479999884443	0.9436291999879813	511.74357920000284	0.4645140999928117	510.689108300023	2	1	58	4	go_reward	1	1	0	1	1	1	1	1.0	1.0	1	0.3416888999636285	0.4645140999928117	1444.018117300002	1948.7825330999915	1949.7914138000344	1951.0210966999875	1952.6394640000071	1953.6769119999956	1954.707225600025	1955.7616965000047	1956.7750431000024	1957.7186722999904	2020-02-21 16:36:35.567440	15.5681546987207	13.219050357067	3.74244416263713	13.3269743420515	19.3105988613579	3.74244416263713	-15.5681546987207	13.219050357067	3.74244416263713	19.3105988613579	3.74244416263713	1.3085054041583	8.916584004383463	12.845577335111507	3.6538628046584383	10.101319326026898	17.749023131978852	3.6538628046584383	1.2571915359809553	15.15973497051041	6.243150966126871	9.747963031967533	6.751477107802397	3	correct	1.0
513.7968967999914	8.583355800015852	go_punish	0.254017700033728	513.845570800011	515.8040082000077	518.4321202000142	1.9584373999966829	514.8588547999971	517.401291200018	521.5271909000005	0.9451534000106676	1.0308289999961744	0.9017357000263928	520.5134397000072	0.5134414000203833	519.4604416000072	2	1	59	2	go_punish	1	0	-1	1	1	1	0	0.0	1.0	0	0.254017700033728	0.5134414000203833	1444.018117300002	1957.863688100013	1958.876972099999	1959.8221255000096	1961.41940850002	1962.450237500016	1963.4785589000091	1964.5315570000091	1965.5453082000024	1966.4470439000288	2020-02-21 16:36:35.567440	7.20607812932541	-2.11444681519202	-10.2806206410561	-3.88925085022508	-3.07454251173068	-10.2806206410561	-7.20607812932541	-2.11444681519202	-10.2806206410561	-3.07454251173068	-10.2806206410561	2.11444681519202	0.5545074349881709	-2.4879198371475124	-10.369201999034791	-7.114905866249682	-4.636118241109729	-10.369201999034791	2.0631329470146755	-7.22540640257817	-7.779913837566358	-5.585534140291486	-7.271587695890833	3	correct	1.0
522.5178720999975	9.655496399965841	nogo_reward	1.0	522.5665461000171	525.3610926999829	527.9129083000005	2.79454659996577	523.5834709000192	526.8789771000154	531.0020743000205	1.7776217999637538	1.0339311999850906	1.2199681999625227	529.9838921999908	0.5296168000204489	528.9429739000045	2	1	60	3	nogo_reward	1	0	1	0	0	1	0	0.0	1.0	1	1.0	0.5296168000204489	1444.018117300002	1966.584663400019	1967.601588200021	1969.3792099999848	1970.8970944000173	1971.9310256000024	1972.9610912000064	1974.0020094999927	1975.0201916000224	1976.240159799985	2020-02-21 16:36:35.567440	2.92511550706146	2.31700462585282	8.49017720439642	6.41596137656255	5.56506169733496	8.49017720439642	-2.92511550706146	8.49017720439642	2.31700462585282	8.49017720439642	5.56506169733496	6.0373785568288785	-3.726455187275779	1.9435316038973278	8.40159584641773	3.190306360537948	4.0034859679559105	8.40159584641773	5.986064688651534	4.339313313548931	8.065768500824701	5.0190898792969545	5.326037571018087	3	correct	1.0
