onset	duration	trial_type	response_time	cueOnset	targetOnset	fbOnset	cueRT	firstfixOnset	secondfixOnset	waitOnset	firstfixdur	secondfixdur	waitdur	nback_fbOnset	nback_response_time	nback_targetOnset	block	wm	trial	cue	cond	is_common	outcome_go	outcome_nogo	key_correct	key_pressed	is_correct	key_correct_nback	key_pressed_nback	is_correct_nback	outcome	rt	rt_nback	time_scan	time_onset	time_isi1	time_circle	time_isi2	time_feedback	time_same	time_correct	time_iti	time_done	timestamp_scan	DV	Qgo	Qnogo	SV	Wgo	Wnogo	mDV	Qchosen	Qunchosen	Wchosen	Wunchosen	PE	DVC	QgoC	QnogoC	SVC	WgoC	WnogoC	PEC	WchosenC	WunchosenC	QchosenC	QunchosenC	run	outcome_nback	nback_targetResp
0.0	7.048119399987627	go_punish	0.2536877000238746	0.038333699980398706	2.491672999982484	5.105420399981199	2.453339300002085	1.0517180999742095	4.082900699984862	6.118578099995034	1.4399549000082743	1.0225196999963373	0.9678749999729916	n/a	1.0	n/a	1	0	61	2	go_punish	1	0	-1	1	1	1	0	n/a	n/a	0	0.2536877000238746	1.0	973.6219769000307	973.6603106000111	974.673695000005	976.1136499000132	977.7048776000156	978.727397300012	n/a	n/a	979.7405550000258	980.7084299999988	2020-02-21 16:28:45.171248	5.71864507355927	-3.76260899395657	-8.65341912755541	-3.8000580695593	-2.93477405399614	-8.65341912755541	-5.71864507355927	-3.76260899395657	-8.65341912755541	-2.93477405399614	-8.65341912755541	3.76260899395657	-0.9329256207779686	-4.136082015912062	-8.742000485534101	-7.025713085583902	-4.496349783375189	-8.742000485534101	3.7112951257792255	-7.08563794484363	-6.152712324065668	-7.233696319056036	-5.644386182390143	2	missed	0.0
7.1274548000072855	6.139095399994517	nogo_reward	1.0	7.165788499987684	8.510453999974061	11.041544399981035	1.3446654999863767	8.178606799978411	10.014520199969638	12.064037600008419	0.33184719999565004	1.0270242000113967	1.2408462999737822	n/a	1.0	n/a	1	0	62	3	nogo_reward	1	0	1	0	0	1	0	n/a	n/a	1	1.0	1.0	973.6219769000307	980.7877654000184	981.8005837000092	982.1324309000048	983.6364971000004	984.6635213000118	n/a	n/a	985.6860145000392	986.926860800013	2020-02-21 16:28:45.171248	11.0216605692055	0.0	11.0921326360795	11.0921326360795	0.0704720668739497	11.0921326360795	-11.0216605692055	11.0921326360795	0.0	11.0921326360795	0.0704720668739497	3.4354231251457996	4.370089874868261	-0.3734730219554922	11.003551278100808	7.866477620054898	-1.4911036625050988	11.003551278100808	3.384109256968455	6.941268745232009	2.5711788703636906	7.621045310980033	3.009032945165267	2	missed	0.0
13.336036599997897	6.395477399986589	go_reward	0.3055670999456197	13.374370299978295	14.74290279997524	17.339245799987225	1.3685324999969453	14.394034099998066	16.308824699954243	18.362225199991485	0.3488686999771744	1.0304211000329815	1.4076224999733995	n/a	1.0	n/a	1	0	63	4	go_reward	1	1	0	1	1	1	0	n/a	n/a	1	0.3055670999456197	1.0	973.6219769000307	986.996347200009	988.0160110000288	988.364879700006	989.930801599985	990.961222700018	n/a	n/a	991.9842021000222	993.3918245999956	2020-02-21 16:28:45.171248	12.8996693826586	12.9218017819254	0.0	12.9218017819254	12.8996693826586	0.0	-12.8996693826586	12.9218017819254	0.0	12.8996693826586	0.0	1.6057539792998998	6.2480986883213605	12.548328759969907	-0.08858135797869157	9.696146765900798	11.33809365327955	-0.08858135797869157	1.5544401111225552	8.748805491811108	2.500706803489741	9.450714456825933	3.009032945165267	2	missed	0.0
19.791403400013223	7.587489700003061	nogo_punish	0.3810727999662049	19.829737099993622	22.440952199977005	25.049109199957684	2.611215099983383	20.84092129999783	24.024410099955276	26.06024649995402	1.6000308999791741	1.0246991000024082	1.3569803000426646	n/a	1.0	n/a	1	0	64	1	nogo_punish	1	-1	0	0	1	0	0	n/a	n/a	-1	0.3810727999662049	1.0	973.6219769000307	993.4517140000244	994.4628982000286	996.0629291000078	997.646386999986	998.6710860999884	n/a	n/a	999.6822233999848	1001.0392037000274	2020-02-21 16:28:45.171248	-1.40728913599023	-12.416028121512	-9.84521181469066	-9.91276936905022	-11.2525009506809	-9.84521181469066	1.40728913599023	-12.416028121512	-9.84521181469066	-11.2525009506809	-9.84521181469066	-3.5185833310343	-8.058859830327469	-12.789501143467492	-9.933793172669352	-13.138424385074822	-12.81407668005995	-9.933793172669352	-3.5698971992116446	-15.40336484152839	-7.344505011200919	-15.887115446611466	-6.836178869525394	2	missed	0.0
27.452615200018045	6.04084339999838	nogo_reward	1.0	27.490948899998443	28.91433120000886	31.449252799968463	1.4233823000104167	28.50798439997027	30.421269999991637	32.473818600003256	0.406346800038591	1.0279827999768258	1.0579736999935676	n/a	1.0	n/a	1	0	65	3	nogo_reward	1	0	1	0	0	1	0	n/a	n/a	1	1.0	1.0	973.6219769000307	1001.1129258000292	1002.129961300001	1002.5363081000396	1004.0432469000224	1005.0712296999992	n/a	n/a	1006.095795500034	1007.1537692000276	2020-02-21 16:28:45.171248	12.9764353925643	0.0	12.9530280159635	12.9530280159635	-0.0234073766007749	12.9530280159635	-12.9764353925643	12.9530280159635	0.0	12.9530280159635	-0.0234073766007749	1.5745277452617987	6.324864698227061	-0.3734730219554922	12.864446657984809	9.727372999938899	-1.5849831059798236	12.864446657984809	1.523213877084454	8.802164125116011	2.4772994268889663	9.481940690864034	3.009032945165267	2	missed	0.0
33.557809300022086	7.192582099989522	go_punish	0.2572364999796264	33.596143000002485	36.3395543000081	38.91790689999482	2.7434113000056186	34.603704399953244	37.883458199969255	39.938070999982415	1.735849900054859	1.034448700025564	0.8506541000095922	n/a	1.0	n/a	1	0	66	2	go_punish	0	-1	0	1	1	1	0	n/a	n/a	-1	0.2572364999796264	1.0	973.6219769000307	1007.2181199000332	1008.225681299984	1009.9615312000388	1011.5054351	1012.5398838000256	n/a	n/a	1013.5600479000132	1014.4107020000228	2020-02-21 16:28:45.171248	7.62661800298771	-1.74130681455835	-8.65341912755541	-1.76276960509875	-1.0268011245677	-8.65341912755541	-7.62661800298771	-1.74130681455835	-8.65341912755541	-1.0268011245677	-8.65341912755541	-14.19330463798795	0.9750473086504714	-2.114779836513842	-8.742000485534101	-4.988424621123352	-2.5883768539467487	-8.742000485534101	-14.244618506165295	-5.17766501541519	-6.152712324065668	-5.212394139657816	-5.644386182390143	2	missed	0.0
40.811436099989805	6.1442040000110865	nogo_reward	1.0	40.849769799970204	42.392520499997886	44.92216879996727	1.5427507000276819	41.87067249999404	43.892810899997244	45.9366112999852	0.5218480000038426	1.029357899970023	1.0573624999960884	n/a	1.0	n/a	1	0	67	3	nogo_reward	1	0	1	0	0	1	1	n/a	n/a	1	1.0	1.0	973.6219769000307	1014.471746700001	1015.4926494000248	1016.0144974000286	1017.514787800028	1018.544145699998	n/a	n/a	1019.558588200016	1020.615950700012	2020-02-21 16:28:45.171248	13.8324719638968	0.0	13.7684608481515	13.7684608481515	-0.0640111157452839	13.7684608481515	-13.8324719638968	13.7684608481515	0.0	13.7684608481515	-0.0640111157452839	0.759094913073799	7.180901269559562	-0.3734730219554922	13.679879490172809	10.542805832126898	-1.6255868451243325	13.679879490172809	0.7077810448964543	9.61759695730401	2.436695687744457	10.297373523052034	3.009032945165267	2	missed	0.0
47.034038999991026	5.6068053999913445	nogo_reward	1.0	47.072372699971424	48.36929010000324	50.90872289997094	1.2969174000318162	48.08193240000401	49.882293000002505	51.92059439996967	0.2873576999992338	1.0264298999684343	0.7585836999930962	n/a	1.0	n/a	1	0	68	3	nogo_reward	0	1	0	0	0	1	0	n/a	n/a	0	1.0	1.0	973.6219769000307	1020.6943496000022	1021.7039093000348	1021.991267000034	1023.5042699000333	1024.5306998000017	n/a	n/a	1025.5425713000004	1026.3011549999935	2020-02-21 16:28:45.171248	14.2287309012095	0.0	14.1462746650552	14.1462746650552	-0.0824562361542434	14.1462746650552	-14.2287309012095	14.1462746650552	0.0	14.1462746650552	-0.0824562361542434	-14.1462746650552	7.577160206872262	-0.3734730219554922	14.057693307076509	10.920619649030598	-1.644031965533292	14.057693307076509	-14.197588533232546	9.99541077420771	2.4182505673354977	10.675187339955734	3.009032945165267	2	missed	0.0
52.71393089997582	6.804249700042419	go_punish	0.2906257000286132	52.75226459995622	54.75787559995695	57.330038499960324	2.0056110000007266	53.76382100000035	56.30545639997615	58.35075689997768	0.9940545999565984	1.0245820999841726	1.205757400020957	n/a	1.0	n/a	1	0	69	2	go_punish	1	0	-1	1	1	1	0	n/a	n/a	0	0.2906257000286132	1.0	973.6219769000307	1026.374241499987	1027.385797900031	1028.3798524999877	1029.927433300007	1030.952015399991	n/a	n/a	1031.9727338000084	1033.1784912000294	2020-02-21 16:28:45.171248	0.296581981277129	-9.50017944566958	-8.65341912755541	-9.51268025147122	-8.35683714627828	-8.65341912755541	-0.296581981277129	-9.50017944566958	-8.65341912755541	-8.35683714627828	-8.65341912755541	9.50017944566958	-6.35498871306011	-9.873652467625073	-8.742000485534101	-12.738335267495822	-9.91841287565733	-8.742000485534101	9.448865577492235	-12.50770103712577	-6.152712324065668	-12.971266770769047	-5.644386182390143	2	missed	0.0
59.58780059998389	7.5443338000332005	nogo_punish	1.0	59.62613429996429	62.165079800004946	64.69454499997676	2.5389455000406542	60.63766549999116	63.664908599981686	65.72059519996412	1.5274143000137883	1.02963639999507	1.4498729000333697	n/a	1.0	n/a	1	0	70	1	nogo_punish	1	-1	0	0	0	1	0	n/a	n/a	0	1.0	1.0	973.6219769000307	1033.248111199995	1034.259642400022	1035.7870567000357	1037.2868855000124	1038.3165219000075	n/a	n/a	1039.3425720999949	1040.7924450000282	2020-02-21 16:28:45.171248	2.97385269216863	-14.1573349360703	-9.84521181469066	-13.0700094800983	-12.8190645068593	-9.84521181469066	-2.97385269216863	-9.84521181469066	-14.1573349360703	-9.84521181469066	-12.8190645068593	9.84521181469066	-3.677718002168609	-14.530807958025791	-9.933793172669352	-16.295664496122903	-14.38064023623835	-9.933793172669352	9.793897946513315	-13.99607570553815	-10.318357703369559	-13.316299139790127	-11.148301990905033	2	missed	0.0
67.20507640001597	6.974699799960945	nogo_punish	1.0	67.24341009999637	69.17984209995495	71.72162289998971	1.936431999958586	68.25851739995426	70.69105209998077	72.74517720000597	0.9213247000006959	1.0305708000089453	1.4729326999513432	n/a	1.0	n/a	1	0	71	1	nogo_punish	0	0	-1	0	0	1	0	n/a	n/a	-1	1.0	1.0	973.6219769000307	1040.865387000027	1041.880494299985	1042.8018189999857	1044.3130290000115	1045.3435998000205	n/a	n/a	1046.3671541000367	1047.840086799988	2020-02-21 16:28:45.171248	8.84057148310925	-14.1573349360703	-4.37850797091878	-5.85408205149617	-13.219079454028	-4.37850797091878	-8.84057148310925	-4.37850797091878	-14.1573349360703	-4.37850797091878	-13.219079454028	-11.55610348162752	2.1890007887720104	-14.530807958025791	-4.467089328897472	-9.079737067520773	-14.780655183407049	-4.467089328897472	-11.607417349804866	-8.52937186176627	-10.718372650538258	-7.849595296018245	-11.148301990905033	2	missed	0.0
74.24980330001563	6.23808049998479	go_reward	0.2956196999875828	74.28813699999603	75.67971549998049	78.28382189996785	1.3915784999844618	75.30736410000839	77.24835919996269	79.30744879995484	0.37235139997210354	1.035462700005155	1.2187687000259757	n/a	1.0	n/a	1	0	72	4	go_reward	0	0	1	1	1	1	0	n/a	n/a	0	0.2956196999875828	1.0	973.6219769000307	1047.9101139000268	1048.9293410000391	1049.3016924000112	1050.8703360999934	1051.9057987999986	n/a	n/a	1052.9294256999856	1054.1481944000116	2020-02-21 16:28:45.171248	13.6874184679939	13.7507301572723	0.0	13.7507301572723	13.6874184679939	0.0	-13.6874184679939	13.7507301572723	0.0	13.6874184679939	0.0	-13.7507301572723	7.035847773656662	13.377257135316809	-0.08858135797869157	10.525075141247699	12.125842738614852	-0.08858135797869157	-13.802044025449646	9.536554577146411	2.500706803489741	10.279642832172835	3.009032945165267	2	missed	0.0
80.54604589997325	6.617909500025917	nogo_punish	1.0	80.58437959995365	82.16070059995411	84.6914895999945	1.576321000000462	81.59085819998302	83.67167079995863	85.70285689999616	0.569842399971094	1.0198188000358641	1.4994321999834028	n/a	1.0	n/a	1	0	73	1	nogo_punish	1	-1	0	0	0	1	1	n/a	n/a	0	1.0	1.0	973.6219769000307	1054.2063564999844	1055.2128351000138	1055.7826774999849	1057.2936476999894	1058.3134665000252	n/a	n/a	1059.324833800027	1060.8242660000103	2020-02-21 16:28:45.171248	2.18745346706239	-14.1573349360703	-10.7230306778981	-11.4338716660306	-12.9104841449605	-10.7230306778981	-2.18745346706239	-10.7230306778981	-14.1573349360703	-10.7230306778981	-12.9104841449605	10.7230306778981	-4.464117227274849	-14.530807958025791	-10.811612035876792	-14.659526682055201	-14.47205987433955	-10.811612035876792	10.671716809720754	-14.873894568745591	-10.40977734147076	-14.194118002997566	-11.148301990905033	2	missed	0.0
87.23000119999051	6.87638800003333	go_punish	0.2533652000129223	87.26833489997091	89.5781764999848	92.16348409996147	2.309841600013897	88.28412470000342	91.15056239999842	93.1731564999792	1.2940517999813892	1.0129216999630444	0.9715664000250399	n/a	1.0	n/a	1	0	74	2	go_punish	1	0	-1	1	1	1	0	n/a	n/a	0	0.2533652000129223	1.0	973.6219769000307	1060.8903118000017	1061.9061016000342	1063.2001534000156	1064.7725393000292	1065.7854609999922	n/a	n/a	1066.79513340001	1067.766699800035	2020-02-21 16:28:45.171248	5.31098234579447	-4.19124528593206	-8.65341912755541	-4.19863210225666	-3.34243678176094	-8.65341912755541	-5.31098234579447	-4.19124528593206	-8.65341912755541	-3.34243678176094	-8.65341912755541	4.19124528593206	-1.3405883485427692	-4.564718307887552	-8.742000485534101	-7.424287118281262	-4.904012511139989	-8.742000485534101	4.139931417754715	-7.493300672608431	-6.152712324065668	-7.662332611031525	-5.644386182390143	2	missed	0.0
94.17618369997945	6.442299400048796	nogo_punish	1.0	94.21451739995985	96.26967499998875	98.82030809996661	2.055157600028906	95.22468230000243	97.78199129999837	99.83527099998935	1.0449926999863237	1.0383167999682428	0.8215458000192939	n/a	1.0	n/a	1	0	75	1	nogo_punish	1	-1	0	0	0	1	1	n/a	n/a	0	1.0	1.0	973.6219769000307	1067.8364942999906	1068.8466592000332	1069.8916519000195	1071.403968200029	1072.4422849999974	n/a	n/a	1073.45724790002	1074.2787937000394	2020-02-21 16:28:45.171248	8.46949840502624	-14.1573349360703	-4.78900087512697	-5.14606079473127	-13.2584992801532	-4.78900087512697	-8.46949840502624	-4.78900087512697	-14.1573349360703	-4.78900087512697	-13.2584992801532	4.78900087512697	1.817927710689001	-14.530807958025791	-4.877582233105661	-8.371715810755873	-14.82007500953225	-4.877582233105661	4.737687006949625	-8.939864765974459	-10.75779247666346	-8.260088200226436	-11.148301990905033	2	missed	0.0
100.68117100000381	6.562523900007363	go_punish	0.6297056000330485	100.71950469998421	102.70470639999269	105.3221605999862	1.9852017000084743	101.72578679997252	104.29613129998336	106.34123719995853	0.9789196000201628	1.0260293000028469	0.9407914000330493	n/a	1.0	n/a	1	0	76	2	go_punish	1	0	-1	1	1	1	1	n/a	n/a	0	0.6297056000330485	1.0	973.6219769000307	1074.341481600015	1075.3477637000033	1076.3266833000234	1077.918108200014	1078.944137500017	n/a	n/a	1079.9632140999893	1080.9040055000223	2020-02-21 16:28:45.171248	7.41296574749602	-1.96561948666632	-8.65341912755541	-1.97004159755208	-1.24045338005939	-8.65341912755541	-7.41296574749602	-1.96561948666632	-8.65341912755541	-1.24045338005939	-8.65341912755541	1.96561948666632	0.7613950531587816	-2.339092508621812	-8.742000485534101	-5.195696613576683	-2.802029109438439	-8.742000485534101	1.9143056184889753	-5.39131727090688	-6.152712324065668	-5.436706811765786	-5.644386182390143	2	missed	0.0
107.31361010001297	6.919263299961813	nogo_punish	1.0	107.35194379999336	109.30851989996165	111.84949409996636	1.956576099968288	108.36736709997069	110.82992170000227	112.86316750000708	0.9411527999909595	1.0195723999640904	1.408039599948097	n/a	1.0	n/a	1	0	77	1	nogo_punish	1	-1	0	0	0	1	1	n/a	n/a	0	1.0	1.0	973.6219769000307	1080.973920700024	1081.9893440000014	1082.9304967999924	1084.451898600033	1085.471470999997	n/a	n/a	1086.4851444000378	1087.893183999986	2020-02-21 16:28:45.171248	11.1366477924268	-14.1573349360703	-2.27044969094949	-2.45611876374222	-13.4070974833763	-2.27044969094949	-11.1366477924268	-2.27044969094949	-14.1573349360703	-2.27044969094949	-13.4070974833763	2.27044969094949	4.485077098089561	-14.530807958025791	-2.3590310489281814	-5.681773779766822	-14.968673212755348	-2.3590310489281814	2.219135822772145	-6.42131358179698	-10.906390679886558	-5.741537016048955	-11.148301990905033	2	missed	0.0
114.30668799998239	7.189651200024173	nogo_punish	1.0	114.34502169996279	116.98559609998495	119.53561219997948	2.6405744000221603	115.35847489995638	118.50843359995645	120.56393800000694	1.6271212000285686	1.027178600023035	0.970734899980016	n/a	1.0	n/a	1	0	78	1	nogo_punish	1	-1	0	0	0	1	0	n/a	n/a	0	1.0	1.0	973.6219769000307	1087.9669985999935	1088.9804517999871	1090.6075730000157	1092.1304104999872	1093.1575891000102	n/a	n/a	1094.1859149000377	1095.1566498000177	2020-02-21 16:28:45.171248	12.3458104932749	-14.1573349360703	-1.12840968795111	-1.22781072096156	-13.474220181226	-1.12840968795111	-12.3458104932749	-1.12840968795111	-14.1573349360703	-1.12840968795111	-13.474220181226	1.12840968795111	5.694239798937661	-14.530807958025791	-1.2169910459298017	-4.453465736986162	-15.03579591060505	-1.2169910459298017	1.0770958197737655	-5.2792735787986	-10.973513377736259	-4.599497013050576	-11.148301990905033	2	missed	0.0
121.56145219999598	7.214306799985934	go_reward	0.2869995000073686	121.59978589997638	123.9843920999557	126.58754799998144	2.3846061999793164	122.6085250999896	125.55487980000919	127.60918629996024	1.3758669999660924	1.0326681999722496	1.2049064000020735	n/a	1.0	n/a	1	0	79	4	go_reward	1	1	0	1	1	1	0	n/a	n/a	1	0.2869995000073686	1.0	973.6219769000307	1095.2217628000071	1096.2305020000204	1097.6063689999864	1099.17685670004	1100.2095249000122	n/a	n/a	1101.231163199991	1102.436069599993	2020-02-21 16:28:45.171248	6.48451435507572	6.16624243189997	0.0	6.16624243189997	6.48451435507572	0.0	-6.48451435507572	6.16624243189997	0.0	6.48451435507572	0.0	8.36131332932533	-0.16705633926151897	5.792769409944477	-0.08858135797869157	2.9405874158753673	4.922938625696672	-0.08858135797869157	8.309999461147985	2.3336504642282296	2.500706803489741	2.6951551068005037	3.009032945165267	2	missed	0.0
128.8433732999838	6.19835730001796	go_reward	0.2946236000279896	128.8817069999642	130.5648080999964	133.15155889996106	1.6831011000322178	129.88789239997288	132.11840859998495	134.1728666999844	0.6769157000235282	1.0331502999761142	0.907197599997744	n/a	1.0	n/a	1	0	80	4	go_reward	1	1	0	1	1	1	0	n/a	n/a	1	0.2946236000279896	1.0	973.6219769000307	1102.503683899995	1103.5098693000036	1104.1867850000272	1105.7403855000157	1106.7735357999918	n/a	n/a	1107.7948436000152	1108.702041200013	2020-02-21 16:28:45.171248	10.9799211741385	10.9008378521594	0.0	10.9008378521594	10.9799211741385	0.0	-10.9799211741385	10.9008378521594	0.0	10.9799211741385	0.0	3.626717909065899	4.328350479801261	10.527364830203908	-0.08858135797869157	7.675182836134798	9.418345444759451	-0.08858135797869157	3.5754040408885546	6.82905728329101	2.500706803489741	7.429750527059934	3.009032945165267	2	missed	0.0
135.12048320000758	5.852586399996653	nogo_reward	1.0	135.15881689998798	136.51193360000627	139.04741769999976	1.3531167000182904	136.1684872999905	138.02679309999814	140.06945209996786	0.3434463000157848	1.0206246000016108	0.9419512000167742	n/a	1.0	n/a	1	0	81	3	nogo_reward	0	1	0	0	0	1	0	n/a	n/a	0	1.0	1.0	973.6219769000307	1108.7807938000187	1109.7904642000212	1110.133910500037	1111.648770000029	1112.6693946000305	n/a	n/a	1113.6914289999986	1114.6333802000154	2020-02-21 16:28:45.171248	6.05047936571444	0.0	6.35963448623298	6.35963448623298	0.309155120518538	6.35963448623298	-6.05047936571444	6.35963448623298	0.0	6.35963448623298	0.309155120518538	-6.35963448623298	-0.6010913286227986	-0.3734730219554922	6.271053128254288	3.1339794702083776	-1.2524206088605108	6.271053128254288	-6.4109483544103245	2.2087705953854897	2.809861924008279	2.888547161133514	3.009032945165267	2	missed	0.0
141.04995160002727	6.352588599955197	go_punish	0.3020434000063687	141.08828530000767	142.8814078999568	145.47269959998096	1.793122599949129	142.09895149996748	144.4482874000097	146.48404059995676	0.7824563999893144	1.024412199971266	0.9568333000061102	n/a	1.0	n/a	1	0	82	2	go_punish	1	0	-1	1	1	1	0	n/a	n/a	0	0.3020434000063687	1.0	973.6219769000307	1114.7102622000384	1115.7209283999982	1116.5033847999875	1118.0702643000404	1119.0946765000117	n/a	n/a	1120.1060174999875	1121.0628507999936	2020-02-21 16:28:45.171248	8.35610077263298	-0.967480015027277	-8.65341912755541	-0.970158806730609	-0.297318354922428	-8.65341912755541	-8.35610077263298	-0.967480015027277	-8.65341912755541	-0.297318354922428	-8.65341912755541	0.967480015027277	1.7045300782957407	-1.3409530369827691	-8.742000485534101	-4.195813822755211	-1.8588940843014767	-8.742000485534101	0.9161661468499324	-4.448182245769918	-6.152712324065668	-4.438567340126743	-5.644386182390143	2	missed	0.0
147.46966880001128	6.564893900009338	nogo_punish	1.0	147.50800249999168	149.54104029998427	152.07238799997174	2.0330377999925986	148.51451239996834	151.04738489998283	153.08422049996454	1.0265279000159353	1.0250030999889077	0.9886759000364691	n/a	1.0	n/a	1	0	83	1	nogo_punish	1	-1	0	0	0	1	0	n/a	n/a	0	1.0	1.0	973.6219769000307	1121.1299794000224	1122.136489299999	1123.163017200015	1124.6693618000136	1125.6943649000025	n/a	n/a	1126.7061973999953	1127.6948733000318	2020-02-21 16:28:45.171248	12.923334858745	-14.1573349360703	-0.582627706639352	-0.637185118410272	-13.5059625653843	-0.582627706639352	-12.923334858745	-0.582627706639352	-14.1573349360703	-0.582627706639352	-13.5059625653843	0.582627706639352	6.27176416440776	-14.530807958025791	-0.6712090646180436	-3.862840134434874	-15.067538294763349	-0.6712090646180436	0.5313138384620074	-4.733491597486842	-11.005255761894558	-4.053715031738818	-11.148301990905033	2	missed	0.0
154.10065109998686	6.165967600012891	nogo_punish	1.0	154.13898479996726	155.5266746999697	158.0700070000022	1.3876899000024423	155.16077989997586	157.0429891999812	159.0816312999815	0.3658947999938391	1.0270178000209853	1.2233210999986568	n/a	1.0	n/a	1	0	84	1	nogo_punish	1	-1	0	0	0	1	0	n/a	n/a	0	1.0	1.0	973.6219769000307	1127.760961699998	1128.7827568000066	1129.1486516000004	1130.664966100012	1131.691983900033	n/a	n/a	1132.7036082000122	1133.926929300011	2020-02-21 16:28:45.171248	13.2110985101036	-14.1573349360703	-0.310457368572317	-0.341054197002602	-13.5215558786759	-0.310457368572317	-13.2110985101036	-0.310457368572317	-14.1573349360703	-0.310457368572317	-13.5215558786759	0.310457368572317	6.559527815766361	-14.530807958025791	-0.3990387265510086	-3.5667092130272042	-15.083131608054948	-0.3990387265510086	0.2591435003949723	-4.461321259419807	-11.020849075186158	-3.781544693671783	-11.148301990905033	2	missed	0.0
160.33641960000386	6.5111278999829665	nogo_punish	1.0	160.37475329998426	162.05162809998717	164.576320399996	1.6768748000029063	161.39310280000802	163.55417670001054	165.59591699996975	0.6585252999791464	1.0221436999854632	1.2899641999974847	n/a	1.0	n/a	1	0	85	1	nogo_punish	1	-1	0	0	0	1	1	n/a	n/a	0	1.0	1.0	973.6219769000307	1133.996730200015	1135.0150797000388	1135.673605000018	1137.1761536000413	1138.1982973000268	n/a	n/a	1139.2178939000005	1140.507858099998	2020-02-21 16:28:45.171248	13.3595908589754	-14.1573349360703	-0.16987477204077	-0.187361002172258	-13.5294656310162	-0.16987477204077	-13.3595908589754	-0.16987477204077	-14.1573349360703	-0.16987477204077	-13.5294656310162	0.16987477204077	6.708020164638161	-14.530807958025791	-0.25845613001946155	-3.4130160181968603	-15.091041360395248	-0.25845613001946155	0.11856090386342535	-4.32073866288826	-11.028758827526458	-3.640962097140236	-11.148301990905033	2	missed	0.0
166.91816220001783	6.552589799975976	go_reward	0.3472377000143751	166.95649589999823	168.54317759996036	171.17777019995276	1.5866816999621278	167.97481499996536	170.14095659996394	172.19262819999142	0.5683625999949982	1.0368135999888182	1.3164574999827892	n/a	1.0	n/a	1	0	86	4	go_reward	1	1	0	1	1	1	0	n/a	n/a	1	0.3472377000143751	1.0	973.6219769000307	1140.578472800029	1141.596791899996	1142.165154499991	1143.7629334999947	1144.7997470999835	n/a	n/a	1145.8146051000222	1147.131062600005	2020-02-21 16:28:45.171248	12.8321925123465	12.8511574403007	0.0	12.8511574403007	12.8321925123465	0.0	-12.8321925123465	12.8511574403007	0.0	12.8321925123465	0.0	1.6763983209245996	6.180621818009262	12.477684418345207	-0.08858135797869157	9.625502424276098	11.270616782967451	-0.08858135797869157	1.625084452747255	8.68132862149901	2.500706803489741	9.380070115201233	3.009032945165267	2	missed	0.0
173.53752630000236	6.587570499978028	go_punish	0.2582303999806754	173.57585999998275	175.65044409997074	178.22764800000016	2.0745840999879874	174.58819689997483	177.20540189999167	179.24059579998732	1.0622471999959089	1.0222461000084877	0.922834699973464	n/a	1.0	n/a	1	0	87	2	go_punish	1	0	-1	1	1	1	0	n/a	n/a	0	0.2582303999806754	1.0	973.6219769000307	1147.1978369000135	1148.2101738000056	1149.2724210000015	1150.8273788000224	1151.849624900031	n/a	n/a	1152.862572700018	1153.7854073999915	2020-02-21 16:28:45.171248	8.80274450909587	-0.495179280049093	-8.65341912755541	-0.496819671546086	0.149325381540461	-8.65341912755541	-8.80274450909587	-0.495179280049093	-8.65341912755541	0.149325381540461	-8.65341912755541	0.495179280049093	2.1511738147586312	-0.8686523020045852	-8.742000485534101	-3.7224746875706884	-1.4122503478385877	-8.742000485534101	0.4438654118717483	-4.0015385093070295	-6.152712324065668	-3.966266605148559	-5.644386182390143	2	missed	0.0
180.19524169998476	6.460833500023	go_punish	0.3985997000127099	180.23357539996516	181.84567819995584	184.44662010000332	1.61210279999068	181.2522666999722	183.41887090000102	185.47239349997847	0.5934114999836311	1.0277492000022903	1.2220154000096954	n/a	1.0	n/a	1	0	88	2	go_punish	1	0	-1	1	1	1	0	n/a	n/a	0	0.3985997000127099	1.0	973.6219769000307	1153.855552299996	1154.874243600003	1155.4676550999866	1157.0408478000318	1158.068597000034	n/a	n/a	1159.0943704000092	1160.316385800019	2020-02-21 16:28:45.171248	9.02371335482846	-0.261761747710698	-8.65341912755541	-0.262776313996648	0.370294227273049	-8.65341912755541	-9.02371335482846	-0.261761747710698	-8.65341912755541	0.370294227273049	-8.65341912755541	0.261761747710698	2.372142660491222	-0.6352347696661902	-8.742000485534101	-3.48843133002125	-1.1912815021059997	-8.742000485534101	0.21044787953335334	-3.780569663574441	-6.152712324065668	-3.732849072810164	-5.644386182390143	2	missed	0.0
186.73802310001315	6.981647500011604	go_reward	0.2558163999929093	186.77635679999355	188.65453419997368	191.27031170000566	1.8781773999801317	187.7878156999942	190.22836419998214	192.2871246999713	0.8667184999794699	1.0419475000235252	1.470879600033868	n/a	1.0	n/a	1	0	89	4	go_reward	1	1	0	1	1	1	0	n/a	n/a	1	0.2558163999929093	1.0	973.6219769000307	1160.3983337000243	1161.409792600025	1162.2765111000044	1163.8503411000129	1164.8922886000364	n/a	n/a	1165.909101600002	1167.379981200036	2020-02-21 16:28:45.171248	13.6512003637226	13.7128655805873	0.0	13.7128655805873	13.6512003637226	0.0	-13.6512003637226	13.7128655805873	0.0	13.6512003637226	0.0	0.8146901806379994	6.999629669385361	13.339392558631808	-0.08858135797869157	10.487210564562698	12.08962463434355	-0.08858135797869157	0.7633763124606547	9.500336472875109	2.500706803489741	10.241778255487834	3.009032945165267	2	missed	0.0
193.79179819999263	6.603145900007803	go_reward	0.2764874999993481	193.83013189997303	195.3448348999956	197.92773850000242	1.514703000022564	194.84948799997812	196.90183290001016	198.95227029995306	0.4953469000174664	1.0259055999922566	1.481007500027772	n/a	1.0	n/a	1	0	90	4	go_reward	1	1	0	1	1	1	0	n/a	n/a	1	0.2764874999993481	1.0	973.6219769000307	1167.4521088000038	1168.4714649000089	1168.9668118000263	1170.523809800041	1171.5497154000332	n/a	n/a	1172.5742471999838	1174.0552547000116	2020-02-21 16:28:45.171248	14.0340898501758	14.1152818492472	0.0	14.1152818492472	14.0340898501758	0.0	-14.0340898501758	14.1152818492472	0.0	14.0340898501758	0.0	0.41227391197809915	7.382519155838561	13.741808827291708	-0.08858135797869157	10.889626833222598	12.47251412079675	-0.08858135797869157	0.36096004380075447	9.88322595932831	2.500706803489741	10.644194524147734	3.009032945165267	2	missed	0.0
200.4620169000118	7.405092599976342	go_punish	0.3002264000242576	200.5003505999922	202.99143970001035	205.62862539995706	2.4910891000181437	201.51379779999854	204.5600909999922	206.64713649998896	1.477641900011804	1.0685343999648467	1.2583066999795847	n/a	1.0	n/a	1	0	91	2	go_punish	1	0	-1	1	1	1	0	n/a	n/a	0	0.3002264000242576	1.0	973.6219769000307	1174.122327500023	1175.1357747000293	1176.613416600041	1178.182067900023	1179.2506022999878	n/a	n/a	1180.2691134000197	1181.5274200999993	2020-02-21 16:28:45.171248	9.13704840381435	-0.142182487453506	-8.65341912755541	-0.142815793474932	0.483629276258937	-8.65341912755541	-9.13704840381435	-0.142182487453506	-8.65341912755541	0.483629276258937	-8.65341912755541	0.142182487453506	2.4854777094771103	-0.5156555094089982	-8.742000485534101	-3.3684708094995344	-1.0779464531201117	-8.742000485534101	0.09086861927616136	-3.667234614588553	-6.152712324065668	-3.613269812552972	-5.644386182390143	2	missed	0.0
208.00520369998412	6.2961244999896735	nogo_reward	1.0	208.04353739996452	209.77215819997957	212.30801879998774	1.728620800015051	209.06067999999516	211.2822996999604	213.31884329998877	0.7114781999844126	1.0257191000273451	1.0208185999654233	n/a	1.0	n/a	1	0	92	3	nogo_reward	1	0	1	0	0	1	0	n/a	n/a	1	1.0	1.0	973.6219769000307	1181.6655142999953	1182.682656900026	1183.3941351000103	1184.9042765999911	1185.9299957000185	n/a	n/a	1186.9408202000195	1187.961638799985	2020-02-21 16:28:45.171248	2.5542916144094	0.0	3.02921962754644	3.02921962754644	0.474928013137033	3.02921962754644	-2.5542916144094	3.02921962754644	0.0	3.02921962754644	0.474928013137033	11.498336133678858	-4.097279079927839	-0.3734730219554922	2.9406382695677484	-0.19643538847816222	-1.0866477162420156	2.9406382695677484	11.447022265501513	-1.1216442633010502	2.975634816626774	-0.4418676975530258	3.009032945165267	2	missed	0.0
214.37612799997441	7.104323400009889	nogo_reward	1.0	214.4144616999548	217.15508130000683	219.71935089997726	2.740619600052014	215.42322910000814	218.67603529995574	220.74516529997356	1.7318521999986842	1.043315600021515	0.7736197999911383	n/a	1.0	n/a	1	0	93	3	nogo_reward	0	1	0	0	0	1	0	n/a	n/a	0	1.0	1.0	973.6219769000307	1188.0364385999856	1189.045206000039	1190.7770582000376	1192.2980121999865	1193.341327800008	n/a	n/a	1194.3671422000043	1195.1407619999954	2020-02-21 16:28:45.171248	9.33120429166744	0.0	9.48000453476502	9.48000453476502	0.148800243097578	9.48000453476502	-9.33120429166744	9.48000453476502	0.0	9.48000453476502	0.148800243097578	-9.48000453476502	2.6796335973302012	-0.3734730219554922	9.39142317678633	6.254349518740419	-1.4127754862814705	9.39142317678633	-9.531318402942366	5.329140643917531	2.649507046587319	6.0089172096655545	3.009032945165267	2	missed	0.0
221.55226119997678	6.780346900050063	nogo_reward	1.0	221.59059489995718	224.04395219997957	226.59218169999087	2.4533573000223896	222.60582519997854	225.55346470000234	227.60790840000834	1.4381270000010318	1.0387169999885373	0.7630333999989034	n/a	1.0	n/a	1	0	94	3	nogo_reward	1	0	1	0	0	1	1	n/a	n/a	1	1.0	1.0	973.6219769000307	1195.212571799988	1196.2278021000093	1197.6659291000103	1199.175441600033	1200.2141586000216	n/a	n/a	1201.229885300039	1201.992918700038	2020-02-21 16:28:45.171248	3.79001435339199	0.0	4.20386547427138	4.20386547427138	0.413851120879388	4.20386547427138	-3.79001435339199	4.20386547427138	0.0	4.20386547427138	0.413851120879388	10.32369028695392	-2.8615563409452487	-0.3734730219554922	4.115284116292688	0.9782104582467777	-1.1477246084996606	4.115284116292688	10.272376418776574	0.05300158342388972	2.914557924369129	0.7327781491719141	3.009032945165267	2	missed	0.0
228.45752729999367	6.754997799987905	go_punish	0.3098212999757379	228.49586099997407	230.18275479995634	232.88676089997182	1.686893799982272	229.50438719999522	231.80508149997343	233.90530819998833	0.6783675999611205	1.081679399998393	1.3455505999736488	n/a	1.0	n/a	1	0	95	2	go_punish	1	0	-1	1	1	1	0	n/a	n/a	0	0.3098212999757379	1.0	973.6219769000307	1202.1178379000048	1203.126364100026	1203.804731699987	1205.4270584000042	1206.5087378000026	n/a	n/a	1207.527285100019	1208.8728356999927	2020-02-21 16:28:45.171248	9.19696484545118	-0.0790437938752566	-8.65341912755541	-0.0794425105318018	0.543545717895764	-8.65341912755541	-9.19696484545118	-0.0790437938752566	-8.65341912755541	0.543545717895764	-8.65341912755541	0.0790437938752566	2.5453941511139417	-0.4525168158307488	-8.742000485534101	-3.305097526556404	-1.0180300114832845	-8.742000485534101	0.027729925697911946	-3.607318172951726	-6.152712324065668	-3.5501311189747224	-5.644386182390143	2	missed	0.0
235.2877513000276	7.53417509997962	go_punish	0.2781096999533474	235.326085000008	237.90070559998287	240.49464240000827	2.574620599974878	236.33289019996334	239.46680269995716	241.50689669995347	1.5678154000195264	1.0278397000511177	1.3533634000341408	n/a	1.0	n/a	1	0	96	2	go_punish	0	-1	0	1	1	1	0	n/a	n/a	-1	0.2781096999533474	1.0	973.6219769000307	1208.9480619000387	1209.954867099994	1211.5226825000136	1213.088779599988	1214.116619300039	n/a	n/a	1215.1288735999842	1216.4822370000184	2020-02-21 16:28:45.171248	9.22946873318107	-0.0448358919273306	-8.65341912755541	-0.0450889288721457	0.576049605625657	-8.65341912755541	-9.22946873318107	-0.0448358919273306	-8.65341912755541	0.576049605625657	-8.65341912755541	-15.889775560618968	2.5778980388438315	-0.4183089138828228	-8.742000485534101	-3.270743944896748	-0.9855261237533917	-8.742000485534101	-15.941089428796314	-3.574814285221833	-6.152712324065668	-3.5159232170267964	-5.644386182390143	2	missed	0.0
242.88146629999392	6.656102699984331	go_punish	0.3500717999995686	242.91979999997432	244.67854599998134	247.30029300000763	1.7587460000070223	243.93190639995748	246.2488897999866	248.31896259996586	0.7466396000238547	1.0514032000210136	1.2569400999927893	n/a	1.0	n/a	1	0	97	2	go_punish	1	0	-1	1	1	1	1	n/a	n/a	0	0.3500717999995686	1.0	973.6219769000307	1216.541776900005	1217.5538832999882	1218.300522900012	1219.8708667000174	1220.9222699000384	n/a	n/a	1221.9409394999966	1223.1978795999894	2020-02-21 16:28:45.171248	1.07282645369354	-8.67930402898156	-8.65341912755541	-8.67946581892637	-7.58059267386187	-8.65341912755541	-1.07282645369354	-8.67930402898156	-8.65341912755541	-7.58059267386187	-8.65341912755541	8.67930402898156	-5.578744240643699	-9.052777050937053	-8.742000485534101	-11.905120834950973	-9.142168403240918	-8.742000485534101	8.627990160804215	-11.73145656470936	-6.152712324065668	-12.150391354081027	-5.644386182390143	2	missed	0.0
249.61209790001158	6.912141299981386	go_punish	0.3045287000131793	249.65043159999198	251.46295829996245	254.05184019997262	1.8125266999704763	250.66344639996544	253.02950479998265	255.06515189999493	0.7995118999970146	1.02233539998997	1.4974209999784307	n/a	1.0	n/a	1	0	98	2	go_punish	1	0	-1	1	1	1	1	n/a	n/a	0	0.3045287000131793	1.0	973.6219769000307	1223.2724085000227	1224.2854232999962	1225.0849351999932	1226.6514817000134	1227.6738171000034	n/a	n/a	1228.6871288000257	1230.184549800004	2020-02-21 16:28:45.171248	5.70236666003602	-3.77778859146155	-8.65341912755541	-3.77789276794723	-2.95105246751939	-8.65341912755541	-5.70236666003602	-3.77778859146155	-8.65341912755541	-2.95105246751939	-8.65341912755541	3.77778859146155	-0.9492040343012187	-4.151261613417042	-8.742000485534101	-7.0035477839718325	-4.512628196898438	-8.742000485534101	3.7264747232842055	-7.10191635836688	-6.152712324065668	-7.2488759165610155	-5.644386182390143	2	missed	0.0
256.5964174999972	7.285984800022561	go_reward	0.2871520000044256	256.6347511999776	259.0935241999688	261.68271059996925	2.458772999991197	257.64644879999116	260.6605492999662	262.6959367999808	1.4470753999776207	1.022161300003063	1.2247992000193335	n/a	1.0	n/a	1	0	99	4	go_reward	0	0	1	1	1	1	0	n/a	n/a	0	0.2871520000044256	1.0	973.6219769000307	1230.2567281000083	1231.268425700022	1232.7155010999995	1234.282526199997	1235.3046875	n/a	n/a	1236.3179137000116	1237.542712900031	2020-02-21 16:28:45.171248	14.2213391580478	14.3118288508604	0.0	14.3118288508604	14.2213391580478	0.0	-14.2213391580478	14.3118288508604	0.0	14.2213391580478	0.0	-14.3118288508604	7.5697684637105604	13.938355828904907	-0.08858135797869157	11.086173834835797	12.65976342866875	-0.08858135797869157	-14.363142719037745	10.070475267200308	2.500706803489741	10.840741525760933	3.009032945165267	2	missed	0.0
263.95727740001166	6.00636990001658	go_reward	0.2864624999929219	263.99561109999206	265.3829732000012	267.95733149995806	1.3873621000091134	265.01514839998015	266.9326579999762	268.9803326999537	0.367824800021026	1.0246734999818727	1.0216483000549488	n/a	1.0	n/a	1	0	100	4	go_reward	1	1	0	1	1	1	0	n/a	n/a	1	0.2864624999929219	1.0	973.6219769000307	1237.6175880000228	1238.637125300011	1239.004950100032	1240.554634900007	1241.5793083999888	n/a	n/a	1242.6023095999844	1243.6239579000394	2020-02-21 16:28:45.171248	6.74692162680491	6.44165341703493	0.0	6.44165341703493	6.74692162680491	0.0	-6.74692162680491	6.44165341703493	0.0	6.74692162680491	0.0	8.08590234419037	0.0953509324676709	6.0681803950794375	-0.08858135797869157	3.2159984010103275	5.1853458974258615	-0.08858135797869157	8.034588476013024	2.5960577359574195	2.500706803489741	2.970566091935464	3.009032945165267	2	missed	0.0
270.02645020000637	7.701293799968198	nogo_punish	1.0	270.06478389998676	272.86153979995277	275.39173739997216	2.7967558999660014	271.0745592999739	274.3759640000063	276.40789309999684	1.7869804999788812	1.0157733999658376	1.358184599958122	n/a	1.0	n/a	1	0	101	1	nogo_punish	1	-1	0	0	0	1	0	n/a	n/a	0	1.0	1.0	973.6219769000307	1243.6867608000175	1244.6965362000046	1246.4835166999835	1247.997940900037	1249.013714300003	n/a	n/a	1250.0298700000276	1251.3880545999857	2020-02-21 16:28:45.171248	13.4385062622567	-14.1573349360703	-0.0950828472827023	-0.10524461019607	-13.5335891095394	-0.0950828472827023	-13.4385062622567	-0.0950828472827023	-14.1573349360703	-0.0950828472827023	-13.5335891095394	0.0950828472827023	6.786935567919461	-14.530807958025791	-0.18366420526139388	-3.3308996262206723	-15.09516483891845	-0.18366420526139388	0.043768979105357646	-4.2459467381301925	-11.03288230604966	-3.566170172382168	-11.148301990905033	2	missed	0.0
277.79201189999003	6.527563799987547	go_punish	0.2988861000048928	277.8303455999704	279.2840462999885	281.92629939998744	1.4537007000180893	278.8442214999815	280.90327839995746	282.94032299995877	0.43982480000704527	1.0230210000299849	1.4175863999992089	n/a	1.0	n/a	1	0	102	2	go_punish	1	0	-1	1	1	1	0	n/a	n/a	0	0.2988861000048928	1.0	973.6219769000307	1251.4523225000012	1252.4661984000122	1252.9060232000193	1254.5252552999882	1255.5482763000182	n/a	n/a	1256.5622998999895	1257.9798862999887	2020-02-21 16:28:45.171248	7.61699156717715	-1.75033402237995	-8.65341912755541	-1.75040154675218	-1.03642756037826	-8.65341912755541	-7.61699156717715	-1.75033402237995	-8.65341912755541	-1.03642756037826	-8.65341912755541	1.75033402237995	0.9654208728399114	-2.123807044335442	-8.742000485534101	-4.976056562776782	-2.5980032897573087	-8.742000485534101	1.6990201542026053	-5.18729145122575	-6.152712324065668	-5.221421347479415	-5.644386182390143	2	missed	0.0
284.4005391999963	7.189117899979465	nogo_reward	1.0	284.4388728999767	286.62365129997477	289.1393900999684	2.1847783999980948	285.4448193999707	288.1275534000016	290.15370609995455	1.1788319000040701	1.011836699966807	1.47428470000159	n/a	1.0	n/a	1	0	103	3	nogo_reward	0	1	0	0	0	1	0	n/a	n/a	0	1.0	1.0	973.6219769000307	1258.0608498000074	1259.0667963000014	1260.2456282000055	1261.7495303000323	1262.7613669999992	n/a	n/a	1263.7756829999853	1265.2499676999869	2020-02-21 16:28:45.171248	9.82935320549171	0.0	9.95344896460758	9.95344896460758	0.124095759115875	9.95344896460758	-9.82935320549171	9.95344896460758	0.0	9.95344896460758	0.124095759115875	-9.95344896460758	3.1777825111544713	-0.3734730219554922	9.864867606628888	6.727793948582978	-1.4374799702631735	9.864867606628888	-10.004762832784925	5.802585073760089	2.624802562605616	6.482361639508113	3.009032945165267	2	missed	0.0
291.64967790001515	7.455944199988608	nogo_punish	1.0	291.68801159999555	294.66204689996096	297.2061329999707	2.974035299965408	292.69504269998276	296.18100869999046	298.22506440000154	1.9670041999781915	1.0251242999802344	0.9188913999826127	n/a	1.0	n/a	1	0	104	1	nogo_punish	1	-1	0	0	0	1	0	n/a	n/a	0	1.0	1.0	973.6219769000307	1265.3099885000263	1266.3170196000135	1268.2840237999917	1269.8029856000212	1270.8281099000014	n/a	n/a	1271.8470413000323	1272.765932700015	2020-02-21 16:28:45.171248	13.4815134376658	-14.1573349360703	-0.0542765454150877	-0.0602705785126821	-13.5357899830809	-0.0542765454150877	-13.4815134376658	-0.0542765454150877	-14.1573349360703	-0.0542765454150877	-13.5357899830809	0.0542765454150877	6.829942743328561	-14.530807958025791	-0.14285790339377927	-3.2859255945372845	-15.097365712459949	-0.14285790339377927	0.0029626772377430444	-4.205140436262578	-11.035083179591158	-3.5253638705145534	-11.148301990905033	2	missed	0.0
299.17530890001217	6.651897099975031	go_reward	0.2879268000251613	299.21364259999257	301.0966394999997	303.68039549997786	1.8829969000071287	300.22260639996955	302.6507173999563	304.6985273999745	0.8740331000301467	1.029678100021556	1.1670122999930754	n/a	1.0	n/a	1	0	105	4	go_reward	1	1	0	1	1	1	0	n/a	n/a	1	0.2879268000251613	1.0	973.6219769000307	1272.8356195000233	1273.8445833000003	1274.7186164000304	1276.272694299987	1277.3023724000086	n/a	n/a	1278.3205043000053	1279.4875165999983	2020-02-21 16:28:45.171248	11.1135994221211	11.0409465221235	0.0	11.0409465221235	11.1135994221211	0.0	-11.1135994221211	11.0409465221235	0.0	11.1135994221211	0.0	3.4866092391017993	4.462028727783861	10.667473500168008	-0.08858135797869157	7.815291506098898	9.55202369274205	-0.08858135797869157	3.4352953709244547	6.9627355312736094	2.500706803489741	7.569859197024034	3.009032945165267	2	missed	0.0
305.89593410003	6.283039599948097	nogo_punish	1.0	305.9342678000104	307.7826634999948	310.30496519996075	1.848395699984394	306.9450020999649	309.2782885999769	311.33066839998367	0.8376614000299014	1.0266765999838299	0.8866389999748208	n/a	1.0	n/a	1	0	106	1	nogo_punish	0	0	-1	0	0	1	1	n/a	n/a	-1	1.0	1.0	973.6219769000307	1279.5562447000411	1280.5669789999956	1281.4046404000255	1282.9002655000077	1283.9269420999915	n/a	n/a	1284.9526453000144	1285.8392842999892	2020-02-21 16:28:45.171248	13.505466943298	-14.1573349360703	-0.0315220210399572	-0.0351054740773369	-13.536988964338	-0.0315220210399572	-13.505466943298	-0.0315220210399572	-14.1573349360703	-0.0315220210399572	-13.536988964338	-15.903089431506341	6.853896248960761	-14.530807958025791	-0.12010337901864877	-3.2607604901019394	-15.09856469371705	-0.12010337901864877	-15.954403299683687	-4.182385911887447	-11.036282160848259	-3.502609346139423	-11.148301990905033	2	missed	0.0
312.2433199000079	6.5628979000030085	go_punish	0.3133156999829225	312.2816535999883	313.8481566999691	316.42388029996084	1.566503099980764	313.29133249999734	315.3930303999804	317.4442087999779	0.5568241999717429	1.030849899980467	1.4003427000134252	n/a	1.0	n/a	1	0	107	2	go_punish	0	-1	0	1	1	1	0	n/a	n/a	-1	0.3133156999829225	1.0	973.6219769000307	1285.903630500019	1286.913309400028	1287.4701335999998	1289.0150073000111	1290.0458571999916	n/a	n/a	1291.0661857000086	1292.466528400022	2020-02-21 16:28:45.171248	8.46548581903133	-0.852196995285872	-8.65341912755541	-0.852241036846203	-0.187933308524087	-8.65341912755541	-8.46548581903133	-0.852196995285872	-8.65341912755541	-0.187933308524087	-8.65341912755541	-15.082414457260427	1.8139151246940903	-1.2256700172413642	-8.742000485534101	-4.0778960528708055	-1.7495090379031357	-8.742000485534101	-15.133728325437772	-4.3387971993715775	-6.152712324065668	-4.323284320385338	-5.644386182390143	2	missed	0.0
318.87032340001315	7.440548199985642	nogo_reward	1.0	318.90865709999355	321.41136099997686	323.93851919996075	2.5027038999833167	319.92478269996366	322.9239174000105	324.96306029998243	1.486578300013207	1.014601799950242	1.386144999996759	n/a	1.0	n/a	1	0	108	3	nogo_reward	0	1	0	0	0	1	0	n/a	n/a	0	1.0	1.0	973.6219769000307	1292.5306340000243	1293.5467595999944	1295.0333379000076	1296.5458943000413	1297.5604960999915	n/a	n/a	1298.5850372000132	1299.97118220001	2020-02-21 16:28:45.171248	4.00187640474999	0.0	4.40523993161905	4.40523993161905	0.403363526869057	4.40523993161905	-4.00187640474999	4.40523993161905	0.0	4.40523993161905	0.403363526869057	-4.40523993161905	-2.6496942895872486	-0.3734730219554922	4.316658573640359	1.179584915594448	-1.1582122025099917	4.316658573640359	-4.456553799796395	0.25437604077156006	2.904070330358798	0.9341526065195844	3.009032945165267	2	missed	0.0
326.37610739999195	6.049791400030017	nogo_reward	1.0	326.41444109997235	327.90616549999675	330.443353699986	1.4917244000243954	327.4200634000009	329.4081698000083	331.4566482999945	0.48610209999583276	1.03518389997771	1.007584200007841	n/a	1.0	n/a	1	0	109	3	nogo_reward	1	0	1	0	0	1	0	n/a	n/a	1	1.0	1.0	973.6219769000307	1300.036418000003	1301.0420403000317	1301.5281424000275	1303.030146700039	1304.0653306000168	n/a	n/a	1305.0786252000253	1306.086209400033	2020-02-21 16:28:45.171248	1.55327721988951	0.0	2.07307794260239	2.07307794260239	0.519800722712876	2.07307794260239	-1.55327721988951	2.07307794260239	0.0	2.07307794260239	0.519800722712876	12.454477818622909	-5.098293474447729	-0.3734730219554922	1.9844965846236984	-1.1525770734222123	-1.0417750066661726	1.9844965846236984	12.403163950445563	-2.0777859482451	3.020507526202617	-1.3980093824970758	3.009032945165267	2	missed	0.0
332.5070591000258	6.000101799960248	go_punish	0.2795475000166334	332.5453928000062	334.0672590999749	336.6406547999942	1.5218662999686785	333.5613975999876	335.6273060999812	337.6543025999564	0.5058614999873043	1.0133487000130117	0.8911920000100508	n/a	1.0	n/a	1	0	110	2	go_punish	1	0	-1	1	1	1	0	n/a	n/a	0	0.2795475000166334	1.0	973.6219769000307	1306.167369700037	1307.1833745000183	1307.6892360000056	1309.249283000012	1310.262631700025	n/a	n/a	1311.2762794999871	1312.1674714999972	2020-02-21 16:28:45.171248	0.688141778549606	-9.08536751725566	-8.65341912755541	-9.08539641266308	-7.96527734900581	-8.65341912755541	-0.688141778549606	-9.08536751725566	-8.65341912755541	-7.96527734900581	-8.65341912755541	9.08536751725566	-5.963428915787633	-9.458840539211153	-8.742000485534101	-12.311051428687682	-9.526853078384859	-8.742000485534101	9.034053649078315	-12.1161412398533	-6.152712324065668	-12.556454842355127	-5.644386182390143	2	missed	0.0
338.57147800002735	7.09989999997174	go_punish	0.3094908999628387	338.60981170000775	340.97285069996735	343.5627468999593	2.363038999959599	339.6323473000085	342.53505209996376	344.57442039996397	1.340503399958834	1.0276947999955155	1.135291300015524	n/a	1.0	n/a	1	0	111	2	go_punish	0	-1	0	1	1	1	0	n/a	n/a	-1	0.3094908999628387	1.0	973.6219769000307	1312.2317886000385	1313.2543242000393	1314.594827599998	1316.1570289999945	1317.18472379999	n/a	n/a	1318.1963972999947	1319.3316886000102	2020-02-21 16:28:45.171248	5.50206409090101	-3.98896077421808	-8.65341912755541	-3.98897983864397	-3.1513550366544	-8.65341912755541	-5.50206409090101	-3.98896077421808	-8.65341912755541	-3.1513550366544	-8.65341912755541	-11.945650678328219	-1.1495066034362287	-4.362433796173572	-8.742000485534101	-7.214634854668573	-4.712930766033448	-8.742000485534101	-11.996964546505565	-7.30221892750189	-6.152712324065668	-7.460048099317546	-5.644386182390143	2	missed	0.0
345.73301550000906	7.407741500006523	go_reward	0.2805773000000044	345.77134919998946	348.61792539997293	351.23388329998136	2.846576199983474	346.78090329997974	350.1966568999925	352.25000379997084	1.8370220999931917	1.0372263999888673	0.9290869000251405	n/a	1.0	n/a	1	0	112	4	go_reward	1	1	0	1	1	1	0	n/a	n/a	1	0.2805773000000044	1.0	973.6219769000307	1319.3933261000202	1320.4028802000105	1322.2399023000037	1323.8186338000232	1324.855860200012	n/a	n/a	1325.8719807000016	1326.8010676000267	2020-02-21 16:28:45.171248	12.902386654848	12.9246227298269	0.0	12.9246227298269	12.902386654848	0.0	-12.902386654848	12.9246227298269	0.0	12.902386654848	0.0	1.6029330313983987	6.250815960510761	12.551149707871408	-0.08858135797869157	9.698967713802299	11.34081092546895	-0.08858135797869157	1.551619163221054	8.751522764000509	2.500706803489741	9.453535404727434	3.009032945165267	2	missed	0.0
353.20736150001176	6.4760205000056885	go_punish	0.2891901999828405	353.24569519999216	355.1184399999912	357.68515739997395	1.8727447999990545	354.26148990000377	356.66921199997876	358.7067632999971	0.8569500999874435	1.0159453999951893	1.014952400000766	n/a	1.0	n/a	1	0	113	2	go_punish	1	0	-1	1	1	1	1	n/a	n/a	0	0.2891901999828405	1.0	973.6219769000307	1326.867672100023	1327.8834668000345	1328.740416900022	1330.2911889000095	1331.3071343000047	n/a	n/a	1332.3287402000278	1333.3436926000286	2020-02-21 16:28:45.171248	-0.664965702562564	-10.5167132422576	-8.65341912755541	-10.5167258873708	-9.31838483011798	-8.65341912755541	0.664965702562564	-10.5167132422576	-8.65341912755541	-9.31838483011798	-8.65341912755541	10.5167132422576	-7.316536396899803	-10.890186264213092	-8.742000485534101	-13.742380903395402	-10.879960559497029	-8.742000485534101	10.465399374080254	-13.46924872096547	-6.152712324065668	-13.987800567357066	-5.644386182390143	2	missed	0.0
359.75825170002645	6.889394600002561	nogo_reward	1.0	359.79658540000685	362.0306232000004	364.5557459999692	2.23403779999353	360.80928029998915	363.52633540000545	365.5728537999677	1.2213429000112228	1.0294105999637395	1.1131262000417337	n/a	1.0	n/a	1	0	114	3	nogo_reward	1	0	1	0	0	1	0	n/a	n/a	1	1.0	1.0	973.6219769000307	1333.4185623000376	1334.43125720002	1335.6526001000311	1337.1483123000362	1338.1777229	n/a	n/a	1339.1948306999984	1340.3079569000402	2020-02-21 16:28:45.171248	8.82261148572247	0.0	8.99356600427017	8.99356600427017	0.1709545185477	8.99356600427017	-8.82261148572247	8.99356600427017	0.0	8.99356600427017	0.1709545185477	5.53398975695513	2.1710407913852316	-0.3734730219554922	8.904984646291478	5.767910988245568	-1.3906212108313487	8.904984646291478	5.482675888777785	4.842702113422679	2.671661322037441	5.522478679170703	3.009032945165267	2	missed	0.0
366.7049960999864	6.707058700034395	go_punish	0.2688946999842301	366.7433297999668	368.3336888999912	370.9413899999928	1.5903591000244433	367.759581899969	369.9231742999983	371.955434100004	0.5741070000221953	1.018215699994471	1.494954399997141	n/a	1.0	n/a	1	0	115	2	go_punish	1	0	-1	1	1	1	1	n/a	n/a	0	0.2688946999842301	1.0	973.6219769000307	1340.3653066999975	1341.3815587999998	1341.955665800022	1343.545151200029	1344.5633669000235	n/a	n/a	1345.5774110000348	1347.072365400032	2020-02-21 16:28:45.171248	4.85128566237311	-4.67670739611057	-8.65341912755541	-4.67671582577449	-3.8021334651823	-8.65341912755541	-4.85128566237311	-4.67670739611057	-8.65341912755541	-3.8021334651823	-8.65341912755541	4.67670739611057	-1.8002850319641288	-5.050180418066062	-8.742000485534101	-7.902370841799092	-5.363709194561348	-8.742000485534101	4.625393527933225	-7.95299735602979	-6.152712324065668	-8.147794721210035	-5.644386182390143	2	missed	0.0
373.4892246000236	7.744089799991343	nogo_reward	1.0	373.527558300004	376.31942650000576	378.86177580000356	2.7918682000017725	374.5461994999788	377.83727289998217	379.8741689999589	1.7732270000269637	1.024502900021389	1.3974791000364348	n/a	1.0	n/a	1	0	116	3	nogo_reward	1	0	1	0	0	1	1	n/a	n/a	1	1.0	1.0	973.6219769000307	1347.1495352000347	1348.1681764000095	1349.9414034000365	1351.459249800013	1352.4837527000343	n/a	n/a	1353.4961458999896	1354.893625000026	2020-02-21 16:28:45.171248	11.8932526794929	0.0	11.9180390737694	11.9180390737694	0.0247863942765114	11.9180390737694	-11.8932526794929	11.9180390737694	0.0	11.9180390737694	0.0247863942765114	2.6095166874558995	5.241681985155661	-0.3734730219554922	11.829457715790708	8.692384057744798	-1.5367893351025372	11.829457715790708	2.558202819278555	7.76717518292191	2.5254931977662523	8.446951748669933	3.009032945165267	2	missed	0.0
381.3006535000168	6.78785640001297	nogo_punish	1.0	381.3389871999972	383.17317580000974	385.7103270000081	1.834188600012567	382.3524272000069	384.68523199996014	386.7346533999663	0.8207486000028439	1.0250950000479406	1.3921902000438422	n/a	1.0	n/a	1	0	117	1	nogo_punish	1	-1	0	0	0	1	0	n/a	n/a	0	1.0	1.0	973.6219769000307	1354.960964100028	1355.9744041000376	1356.7951527000405	1358.3072088999909	1359.3323039000388	n/a	n/a	1360.356630299997	1361.748820500041	2020-02-21 16:28:45.171248	4.38689919522117	-14.1573349360703	-8.67200836413013	-8.67417694485989	-13.0589075593513	-8.67200836413013	-4.38689919522117	-8.67200836413013	-14.1573349360703	-8.67200836413013	-13.0589075593513	8.67200836413013	-2.2646714991160692	-14.530807958025791	-8.760589722108822	-11.899831960884493	-14.62048328873035	-8.760589722108822	8.620694495952785	-12.822872254977622	-10.55820075586156	-12.143095689229597	-11.148301990905033	2	missed	0.0
388.17406190000474	6.230853700020816	nogo_reward	1.0	388.21239559998514	389.65873159997875	392.18738859996677	1.4463359999936074	389.2333294999552	391.15143289999116	393.1950172999642	0.42540210002357526	1.0359556999756023	1.248232000041753	n/a	1.0	n/a	1	0	118	3	nogo_reward	1	0	1	0	0	1	1	n/a	n/a	1	1.0	1.0	973.6219769000307	1361.834372500016	1362.855306399986	1363.2807085000095	1364.773409800022	1365.8093654999975	n/a	n/a	1366.816994199995	1368.0652262000367	2020-02-21 16:28:45.171248	13.2780600176864	0.0	13.2379963988931	13.2379963988931	-0.0400636187932267	13.2379963988931	-13.2780600176864	13.2379963988931	0.0	13.2379963988931	-0.0400636187932267	1.2895593623321986	6.626489323349161	-0.3734730219554922	13.149415040914409	10.012341382868499	-1.6016393481722753	13.149415040914409	1.238245494154854	9.08713250804561	2.460643184696514	9.766909073793634	3.009032945165267	2	missed	0.0
394.4818992000073	6.720923800021637	go_reward	0.2969200999941677	394.5202328999877	396.32949299999757	398.9429161999725	1.8092601000098512	395.5309423999862	397.9138291999699	399.96598639996967	0.7985506000113674	1.0290870000026189	1.2751703000396901	n/a	1.0	n/a	1	0	119	4	go_reward	1	1	0	1	1	1	0	n/a	n/a	1	0.2969200999941677	1.0	973.6219769000307	1368.1422098000185	1369.152919300017	1369.9514699000283	1371.5358061000006	1372.5648931000032	n/a	n/a	1373.5879633000004	1374.86313360004	2020-02-21 16:28:45.171248	13.6890282282783	13.7523987948282	0.0	13.7523987948282	13.6890282282783	0.0	-13.6890282282783	13.7523987948282	0.0	13.6890282282783	0.0	0.7751569663971001	7.037457533941061	13.378925772872707	-0.08858135797869157	10.526743778803597	12.12745249889925	-0.08858135797869157	0.7238430982197555	9.53816433743081	2.500706803489741	10.281311469728733	3.009032945165267	2	missed	0.0
401.2819628000143	7.159679199976381	go_punish	0.2561253999592736	401.3202964999947	404.1014294999769	406.6914711999708	2.781132999982219	402.3286308000098	405.6615311999923	407.69977669999946	1.7727986999670975	1.0299399999785237	0.780198999971617	n/a	1.0	n/a	1	0	120	2	go_punish	0	-1	0	1	1	1	0	n/a	n/a	-1	0.2561253999592736	1.0	973.6219769000307	1374.9422734000254	1375.9506077000406	1377.7234064000077	1379.283508100023	1380.3134481000016	n/a	n/a	1381.3217536000302	1382.1019526000018	2020-02-21 16:28:45.171248	7.18325245175745	-2.20789507527879	-8.65341912755541	-2.20790072177326	-1.47016667579797	-8.65341912755541	-7.18325245175745	-2.20789507527879	-8.65341912755541	-1.47016667579797	-8.65341912755541	-13.72671637726751	0.5316817574202108	-2.5813680972342823	-8.742000485534101	-5.433555737797862	-3.0317424051770185	-8.742000485534101	-13.778030245444855	-5.6210305666454605	-6.152712324065668	-5.678982400378256	-5.644386182390143	2	missed	0.0
