onset	duration	trial_type	response_time	cueOnset	targetOnset	fbOnset	cueRT	firstfixOnset	secondfixOnset	waitOnset	firstfixdur	secondfixdur	waitdur	nback_fbOnset	nback_response_time	nback_targetOnset	block	wm	trial	cue	cond	is_common	outcome_go	outcome_nogo	key_correct	key_pressed	is_correct	key_correct_nback	key_pressed_nback	is_correct_nback	outcome	rt	rt_nback	time_scan	time_onset	time_isi1	time_circle	time_isi2	time_feedback	time_same	time_correct	time_iti	time_done	timestamp_scan	DV	Qgo	Qnogo	SV	Wgo	Wnogo	mDV	Qchosen	Qunchosen	Wchosen	Wunchosen	PE	DVC	QgoC	QnogoC	SVC	WgoC	WnogoC	PEC	WchosenC	WunchosenC	QchosenC	QunchosenC	run	outcome_nback	nback_targetResp
0.0	9.573311399999511	nogo_punish	0.3375210000012885	0.05677529999957187	2.577766700000211	5.128896700000041	2.5209914000006393	1.0627968000007968	4.107927099998051	8.167599899999914	1.5149698999994143	1.0209696000019903	1.4624867999991693	7.160096899999189	1.0	6.151632199998858	1	1	1	3	nogo_punish	1	-1	0	0	1	0	0	n/a	0.0	0	0.3375210000012885	1.0	513.1658888999991	513.2226641999987	514.2286856999999	515.7436555999993	517.2738159999972	518.2947855999992	519.317521099998	520.3259857999983	521.333488799999	522.7959755999982	2020-08-18 15:19:56.734188	-0.518050578364764	0.0	0.0	0.0	-0.518050578364764	0.0	0.518050578364764	0.0	0.0	-0.518050578364764	0.0	-9.02663719237169	-2.171390212089212	-0.6078619335502569	-0.12738653841802489	-1.1216739727572507	-0.626915786139217	-0.12738653841802489	-9.20789770017471	-1.4628462683232268	0.708543943765985	-1.161803125471006	0.4265546535027243	1	missed	0.0
9.61326370000097	8.082255199999054	nogo_reward	0.5103227999970841	9.670039000000543	11.232037800000398	13.770345500000985	1.5619987999998557	10.674740999998903	12.760839799997484	16.82469879999917	0.5572968000014953	1.0095057000035013	0.9275954000004276	15.817643800000951	0.3972465000006195	14.780855199998769	1	1	2	1	nogo_reward	1	0	1	0	1	0	0	0.0	1.0	0	0.5103227999970841	0.3972465000006195	513.1658888999991	522.8359278999997	523.840629899998	524.3979266999995	525.9267286999966	526.9362344000001	527.9467440999979	528.9835327000001	529.9905876999983	530.9181830999987	2020-08-18 15:19:56.734188	-0.518050578364764	0.0	0.0	0.0	-0.518050578364764	0.0	0.518050578364764	0.0	0.0	-0.518050578364764	0.0	0.0	-2.171390212089212	-0.6078619335502569	-0.12738653841802489	-1.1216739727572507	-0.626915786139217	-0.12738653841802489	-0.18126050780302033	-1.4628462683232268	0.708543943765985	-1.161803125471006	0.4265546535027243	1	correct	1.0
17.728821299999254	8.851155399999698	nogo_reward	1.0	17.785596599998826	19.690846900000906	22.208963799999765	1.9052503000020806	18.790553999999247	21.195413199999166	25.251289600000746	0.9002929000016593	1.013550600000599	1.3854623999977775	24.244216099999903	0.6798305000011169	23.220480799998768	1	1	3	1	nogo_reward	1	0	1	0	0	1	0	0.0	1.0	1	1.0	0.6798305000011169	513.1658888999991	530.951485499998	531.9564428999984	532.8567358	534.3613020999983	535.3748526999989	536.3863696999979	537.410104999999	538.4171784999999	539.8026408999976	2020-08-18 15:19:56.734188	0.518050578364764	0.0	0.0	0.0	-0.518050578364764	0.0	-0.518050578364764	0.0	0.0	0.0	-0.518050578364764	8.53009596533193	-1.1352890553596842	-0.6078619335502569	-0.12738653841802489	-1.1216739727572507	-0.626915786139217	-0.12738653841802489	8.348835457528908	-0.9447956899584629	0.19049336540122097	-1.161803125471006	0.4265546535027243	1	correct	1.0
26.62015220000103	8.187528999998904	nogo_punish	1.0	26.676927500000602	28.17340129999866	30.69296309999845	1.496473799998057	27.681255699997564	29.677677600000607	33.73511299999882	0.49214560000109486	1.0152854999978445	1.1293435000006866	32.72808470000018	0.6371061000027112	31.70522019999771	1	1	4	3	nogo_punish	0	0	-1	0	0	1	0	0.0	1.0	-1	1.0	0.6371061000027112	513.1658888999991	539.8428163999997	540.8471445999967	541.3392901999978	542.8435664999997	543.8588519999976	544.8711090999968	545.8939735999993	546.9010018999979	548.0303453999986	2020-08-18 15:19:56.734188	0.518050578364764	0.0	0.0	0.0	-0.518050578364764	0.0	-0.518050578364764	0.0	0.0	0.0	-0.518050578364764	-9.02663719237169	-1.1352890553596842	-0.6078619335502569	-0.12738653841802489	-1.1216739727572507	-0.626915786139217	-0.12738653841802489	-9.20789770017471	-0.9447956899584629	0.19049336540122097	-1.161803125471006	0.4265546535027243	1	correct	1.0
34.84822290000011	8.349202999997942	nogo_punish	0.5789326000012807	34.90499819999968	36.44541439999739	38.99231449999934	1.5404161999977077	35.909107499999664	37.97649570000067	42.04707739999867	0.5363068999977258	1.0158187999986694	1.2071237999989535	41.03949139999895	0.6714981999975862	40.003799099999014	1	1	5	3	nogo_punish	1	-1	0	0	1	0	0	1.0	0.0	-1	0.5789326000012807	0.6714981999975862	513.1658888999991	548.0708870999988	549.0749963999988	549.6113032999965	551.1423845999998	552.1582033999985	553.1696879999981	554.2053802999981	555.2129662999978	556.4200900999967	2020-08-18 15:19:56.734188	-0.450896662072163	0.0	-0.12200472313346	-0.12200472313346	-0.572901385205622	-0.12200472313346	0.450896662072163	0.0	-0.12200472313346	-0.572901385205622	-0.12200472313346	-9.02663719237169	-2.104236295796611	-0.6078619335502569	-0.2493912615514849	-1.2436786958907107	-0.6817665929800749	-0.2493912615514849	-9.20789770017471	-1.5176970751640848	0.586539220632525	-1.161803125471006	0.3045499303692643	1	wrong	1.0
43.24012999999832	8.776713300001575	go_punish	0.2924538999977812	43.29690529999789	45.51482919999762	48.055190899998706	2.2179238999997324	44.301662199999555	47.045162499998696	51.096833499999775	1.2131669999980659	1.0100284000000102	0.9767850999996881	50.08935709999787	0.4606816999985312	49.06630640000003	1	1	6	4	go_punish	1	0	-1	1	1	1	0	0.0	1.0	0	0.2924538999977812	0.4606816999985312	513.1658888999991	556.462794199997	557.4675510999987	558.6807180999967	560.2110513999978	561.2210797999978	562.2321952999991	563.255245999997	564.2627223999989	565.2395074999986	2020-08-18 15:19:56.734188	-0.518050578364764	0.0	0.0	0.0	-0.518050578364764	0.0	0.518050578364764	0.0	0.0	-0.518050578364764	0.0	0.0	-2.171390212089212	-0.6078619335502569	-0.12738653841802489	-1.1216739727572507	-0.626915786139217	-0.12738653841802489	-0.18126050780302033	-1.4628462683232268	0.708543943765985	-1.161803125471006	0.4265546535027243	1	correct	1.0
52.057685499999934	8.382595999999467	nogo_punish	1.0	52.114460799999506	53.67003299999851	56.184338499999285	1.5555721999990055	53.11808889999884	55.174750800000766	59.22722140000042	0.5519440999996732	1.0095876999985194	1.2698353999985557	58.219894199999544	0.367223199998989	57.19710629999827	1	1	7	3	nogo_punish	1	-1	0	0	0	1	1	1.0	1.0	0	1.0	0.367223199998989	513.1658888999991	565.2803496999986	566.283977799998	566.8359218999976	568.3406396999999	569.3502273999984	570.3629951999974	571.3857830999987	572.3931102999995	573.6629456999981	2020-08-18 15:19:56.734188	0.626515977653692	-0.12200472313346	-0.12200472313346	-0.241426846818853	-0.748520700787152	-0.12200472313346	-0.626515977653692	-0.12200472313346	-0.12200472313346	-0.12200472313346	-0.748520700787152	0.12200472313346	-1.0268236560707562	-0.7298666566837169	-0.2493912615514849	-1.3631008195761036	-0.857385908561605	-0.2493912615514849	-0.05925578466956033	-1.0668004130919229	-0.0399767570211671	-1.283807848604466	0.3045499303692643	1	correct	1.0
60.47639640000125	8.18396219999704	go_punish	1.0	60.53317170000082	62.20059539999784	64.71967059999952	1.6674236999970162	61.53877680000005	63.70605549999891	67.76416539999991	0.6618185999977868	1.0136151000006066	0.9529684999979509	66.75707789999797	0.2595904000008886	65.73064859999795	1	1	8	4	go_punish	1	0	-1	1	0	0	1	1.0	1.0	-1	1.0	0.2595904000008886	513.1658888999991	573.6990605999999	574.7046656999992	575.366484299997	576.871944399998	577.8855594999986	578.8965374999971	579.9229667999971	580.930054299999	581.883022799997	2020-08-18 15:19:56.734188	0.518050578364764	0.0	0.0	0.0	-0.518050578364764	0.0	-0.518050578364764	0.0	0.0	0.0	-0.518050578364764	-9.02663719237169	-1.1352890553596842	-0.6078619335502569	-0.12738653841802489	-1.1216739727572507	-0.626915786139217	-0.12738653841802489	-9.20789770017471	-0.9447956899584629	0.19049336540122097	-1.161803125471006	0.4265546535027243	1	correct	1.0
68.70073050000065	9.160042799998337	go_punish	0.3085624999985157	68.75750580000022	71.08764099999826	73.6308683999996	2.3301351999980398	69.76164339999741	72.62005329999738	76.67550719999781	1.3259976000008464	1.010815100002219	1.242041400000744	75.66816610000024	0.3058697999986179	74.64235469999767	1	1	9	4	go_punish	1	0	-1	1	1	1	0	0.0	1.0	0	0.3085624999985157	0.3058697999986179	513.1658888999991	581.9233946999993	582.9275322999965	584.2535298999974	585.7859421999965	586.7967572999987	587.8082435999968	588.8340549999994	589.8413960999969	591.0834374999977	2020-08-18 15:19:56.734188	-0.450896662072163	0.0	-0.12200472313346	-0.12200472313346	-0.572901385205622	-0.12200472313346	0.450896662072163	0.0	-0.12200472313346	-0.572901385205622	-0.12200472313346	0.0	-2.104236295796611	-0.6078619335502569	-0.2493912615514849	-1.2436786958907107	-0.6817665929800749	-0.2493912615514849	-0.18126050780302033	-1.5176970751640848	0.586539220632525	-1.161803125471006	0.3045499303692643	1	correct	1.0
77.90277570000035	9.51610570000048	go_reward	0.3230026999990514	77.95955099999992	80.72910480000064	83.27429249999841	2.769553800000722	78.9639301999996	82.26025619999928	86.31772939999792	1.7651746000010462	1.014036299999134	1.1579273000024841	85.31019109999761	0.7876677000022028	84.28766360000009	1	1	10	2	go_reward	1	1	0	1	1	1	0	0.0	1.0	1	0.3230026999990514	0.7876677000022028	513.1658888999991	591.125439899999	592.1298190999987	593.8949936999998	595.4261450999984	596.4401813999975	597.4535524999992	598.4760799999967	599.483618299997	600.6415455999995	2020-08-18 15:19:56.734188	-0.518050578364764	0.0	0.0	0.0	-0.518050578364764	0.0	0.518050578364764	0.0	0.0	-0.518050578364764	0.0	8.53009596533193	-2.171390212089212	-0.6078619335502569	-0.12738653841802489	-1.1216739727572507	-0.626915786139217	-0.12738653841802489	8.348835457528908	-1.4628462683232268	0.708543943765985	-1.161803125471006	0.4265546535027243	1	correct	1.0
87.453650200001	8.734106799998699	go_reward	0.2853834000015922	87.51042550000057	89.27486119999958	91.81920170000012	1.7644356999990123	88.51455970000097	90.80634210000062	94.86065799999778	0.7603014999986044	1.0128595999995014	1.3838743000014802	93.85489009999947	0.4296156000018527	92.83049489999757	1	1	11	2	go_reward	1	1	0	1	1	1	0	0.0	1.0	1	0.2853834000015922	0.4296156000018527	513.1658888999991	600.6763143999997	601.6804486000001	602.4407500999987	603.9722309999997	604.9850905999992	605.9963837999967	607.0207789999986	608.0265468999969	609.4104211999984	2020-08-18 15:19:56.734188	-0.378788714336411	0.0967883594754697	0.0	0.0967883594754697	-0.378788714336411	0.0	0.378788714336411	0.0967883594754697	0.0	-0.378788714336411	0.0	8.43330760585646	-2.032128348060859	-0.5110735740747872	-0.12738653841802489	-1.024885613281781	-0.48765392211086395	-0.12738653841802489	8.252047098053438	-1.323584404294874	0.708543943765985	-1.0650147659955362	0.4265546535027243	1	correct	1.0
96.22467099999994	8.451290799999697	go_punish	1.0	96.28144629999952	97.97520319999967	100.49294430000009	1.693756900000153	97.28609089999736	99.48000599999796	103.53454559999955	0.6891123000023072	1.0129383000021335	1.1981914999996661	102.528626299998	0.6159493999984988	101.50515579999774	1	1	12	4	go_punish	1	0	-1	1	0	0	0	0.0	1.0	-1	1.0	0.6159493999984988	513.1658888999991	609.4473351999986	610.4519797999965	611.1410920999988	612.6458948999971	613.6588331999992	614.6710446999969	615.6945151999971	616.7004344999987	617.8986259999983	2020-08-18 15:19:56.734188	0.449660447679375	0.0	-0.12200472313346	-0.119422123685393	-0.571665170812834	-0.12200472313346	-0.449660447679375	-0.12200472313346	0.0	-0.12200472313346	-0.571665170812834	-8.90463246923823	-1.203679186045073	-0.6078619335502569	-0.2493912615514849	-1.2410960964426436	-0.6805303785872869	-0.2493912615514849	-9.08589297704125	-1.0668004130919229	0.13687877295315098	-1.283807848604466	0.4265546535027243	1	correct	1.0
104.71163189999788	8.132462000001397	go_punish	0.268653399998584	104.76840719999745	106.41941149999911	108.96209699999963	1.6510043000016594	105.77330869999787	107.95196149999902	112.00905649999913	0.6461028000012448	1.0101355000006151	0.8918126999997185	111.00234049999926	0.6222318000000087	109.97404099999767	1	1	13	4	go_punish	1	0	-1	1	1	1	0	0.0	1.0	0	0.268653399998584	0.6222318000000087	513.1658888999991	617.9342960999966	618.939197599997	619.5853003999982	621.1178503999981	622.1279858999987	623.1399298999968	624.1682293999984	625.1749453999983	626.066758099998	2020-08-18 15:19:56.734188	-0.38388900380133	0.0	-0.241426846818853	-0.23891638356279	-0.625315850620183	-0.241426846818853	0.38388900380133	0.0	-0.241426846818853	-0.625315850620183	-0.241426846818853	0.0	-2.037228637525778	-0.6078619335502569	-0.3688133852368779	-1.3605903563200408	-0.734181058394636	-0.3688133852368779	-0.18126050780302033	-1.5701115405786459	0.46711709694713194	-1.161803125471006	0.1851278066838713	1	correct	1.0
112.87949070000104	9.186971999999514	go_punish	0.2307731000000785	112.93626600000061	115.76935229999799	118.31302470000082	2.833086299997376	113.94058640000003	117.30379259999972	121.35705600000074	1.8287658999979612	1.0092321000010998	0.7661819999993895	120.34978499999852	0.3744078999989142	119.32680149999942	1	1	14	4	go_punish	1	0	-1	1	1	1	1	1.0	1.0	0	0.2307731000000785	0.3744078999989142	513.1658888999991	626.1021548999997	627.1064752999991	628.9352411999971	630.4696814999988	631.4789135999999	632.4926903999985	633.5156738999976	634.5229448999999	635.2891268999992	2020-08-18 15:19:56.734188	-0.381487451557648	0.0	-0.241426846818853	-0.233892948952175	-0.6229142983765	-0.241426846818853	0.381487451557648	0.0	-0.241426846818853	-0.6229142983765	-0.241426846818853	0.0	-2.034827085282096	-0.6078619335502569	-0.3688133852368779	-1.3555669217094257	-0.731779506150953	-0.3688133852368779	-0.18126050780302033	-1.567709988334963	0.46711709694713194	-1.161803125471006	0.1851278066838713	1	correct	1.0
122.1019062000014	8.270151099997747	nogo_reward	1.0	122.15868150000097	124.00543859999743	126.52484719999848	1.8467570999964664	123.1625583999994	125.51049280000007	129.5668239000006	0.8428801999980351	1.0143543999984104	0.862008699998114	128.55969360000017	0.3665815999993356	127.53550579999865	1	1	15	1	nogo_reward	1	0	1	0	0	1	0	0.0	1.0	1	1.0	0.3665815999993356	513.1658888999991	635.3245704000001	636.3284472999985	637.1713274999966	638.6763816999992	639.6907360999976	640.7013946999978	641.7255824999993	642.7327127999997	643.5947214999978	2020-08-18 15:19:56.734188	0.57236543328735	0.0	0.0967883594754697	0.0967883594754697	-0.47557707381188	0.0967883594754697	-0.57236543328735	0.0967883594754697	0.0	0.0967883594754697	-0.47557707381188	8.43330760585646	-1.0809742004370981	-0.6078619335502569	-0.03059817894255519	-1.024885613281781	-0.584442281586333	-0.03059817894255519	8.252047098053438	-0.8480073304829931	0.23296686995410493	-1.0650147659955362	0.4265546535027243	1	correct	1.0
130.4121970999986	9.161292299999332	nogo_punish	1.0	130.46897239999817	133.07973429999765	135.59417810000014	2.6107618999994884	131.47249530000045	134.58394469999985	138.63363069999832	1.6072389999972074	1.0102334000002884	0.996633999999176	137.6274792999975	0.2921271999985038	136.6060620999997	1	1	16	3	nogo_punish	1	-1	0	0	0	1	0	0.0	1.0	0	1.0	0.2921271999985038	513.1658888999991	643.6348612999973	644.6383841999996	646.2456231999968	647.749833599999	648.7600669999993	649.7719509999988	650.7933681999966	651.7995195999974	652.7961535999966	2020-08-18 15:19:56.734188	0.626662235675461	-0.12200472313346	-0.119422123685393	-0.236333784114724	-0.746084359360854	-0.119422123685393	-0.626662235675461	-0.119422123685393	-0.12200472313346	-0.119422123685393	-0.746084359360854	0.119422123685393	-1.0266773980489872	-0.7298666566837169	-0.2468086621034179	-1.3580077568719746	-0.854949567135307	-0.2468086621034179	-0.061838384117627335	-1.0642178136438558	-0.03754041559486909	-1.281225249156399	0.3045499303692643	1	correct	1.0
139.61333670000022	8.794698900001094	nogo_reward	1.0	139.6701119999998	141.5081590000009	144.02690579999762	1.8380470000010973	140.6747706999995	143.01261519999753	147.0681439	0.8333883000013884	1.0142906000000949	1.396667000000889	146.06133969999792	0.5293213000004471	145.03774110000086	1	1	17	1	nogo_reward	1	0	1	0	0	1	1	1.0	1.0	1	1.0	0.5293213000004471	513.1658888999991	652.8360008999989	653.8406595999986	654.6740479	656.1785040999966	657.1927946999967	658.20363	659.227228599997	660.2340327999991	661.6306998	2020-08-18 15:19:56.734188	0.625672466804107	0.0	0.191688804386739	0.191688804386739	-0.433983662417368	0.191688804386739	-0.625672466804107	0.191688804386739	0.0	0.191688804386739	-0.433983662417368	8.33840716094519	-1.0276671669203412	-0.6078619335502569	0.0643022659687141	-0.9299851683705117	-0.542848870191821	0.0643022659687141	8.157146653142169	-0.7531068855717239	0.27456028134861693	-0.970114321084267	0.4265546535027243	1	correct	1.0
148.44364929999938	8.448627800000395	nogo_reward	1.0	148.50042459999895	150.163477099999	152.6829648999992	1.663052500000049	149.50522139999885	151.66861629999767	155.7257587999993	0.6582557000001543	1.01434860000154	1.2232936000000336	154.71888949999993	0.2720355000019481	153.6961580999996	1	1	18	1	nogo_reward	1	0	1	0	0	1	0	0.0	1.0	1	1.0	0.2720355000019481	513.1658888999991	661.6663134999981	662.671110299998	663.3293659999981	664.8345051999968	665.8488537999983	666.8620469999987	667.884778399999	668.8916476999984	670.1149412999985	2020-08-18 15:19:56.734188	0.677997730457935	0.0	0.284752003938945	0.284752003938945	-0.393245726518991	0.284752003938945	-0.677997730457935	0.284752003938945	0.0	0.284752003938945	-0.393245726518991	8.245343961392985	-0.9753419032665132	-0.6078619335502569	0.15736546552092012	-0.8369219688183056	-0.502110934293444	0.15736546552092012	8.064083453589964	-0.6600436860195178	0.315298217246994	-0.8770511215320609	0.4265546535027243	1	correct	1.0
156.928287499999	7.644405400002142	go_punish	1.0	156.98506279999856	158.3175040999995	160.83328679999977	1.3324413000009372	157.99044149999827	159.82297069999913	163.8762956999999	0.3270626000012271	1.0103161000006367	0.7531725000008009	162.86859809999805	0.3502058999984001	161.84394780000002	1	1	19	4	go_punish	0	-1	0	1	0	0	0	0.0	1.0	0	1.0	0.3502058999984001	513.1658888999991	670.1509516999977	671.1563303999974	671.4833929999986	672.9888595999982	673.9991756999989	675.0098366999991	676.0344869999972	677.042184599999	677.7953570999998	2020-08-18 15:19:56.734188	0.379155534026346	0.0	-0.241426846818853	-0.229008876787499	-0.620582380845199	-0.241426846818853	-0.379155534026346	-0.241426846818853	0.0	-0.241426846818853	-0.620582380845199	0.241426846818853	-1.2741840996981022	-0.6078619335502569	-0.3688133852368779	-1.3506828495447496	-0.729447588619652	-0.3688133852368779	0.06016633901583268	-1.1862225367773158	0.08796156292078594	-1.403229972289859	0.4265546535027243	1	correct	1.0
164.61029029999918	9.075050800001918	go_reward	1.0	164.66706559999875	166.7150393999982	169.22895979999885	2.047973799999454	165.67206629999782	168.22040139999808	172.27326869999888	1.0429731000003812	1.0085584000007657	1.4688477000017883	171.26646120000078	0.3316603999992367	170.24145019999924	1	1	20	2	go_reward	1	1	0	1	0	0	0	0.0	1.0	0	1.0	0.3316603999992367	513.1658888999991	677.8329544999979	678.8379551999969	679.8809282999973	681.3862902999972	682.394848699998	683.4073390999984	684.4323500999999	685.439157599998	686.9080052999998	2020-08-18 15:19:56.734188	0.24229485803063	0.191688804386739	0.0	0.191688804386739	-0.24229485803063	0.0	-0.24229485803063	0.0	0.191688804386739	0.0	-0.24229485803063	0.0	-1.411044775693818	-0.4161731291635179	-0.12738653841802489	-0.9299851683705117	-0.35116006580508297	-0.12738653841802489	-0.18126050780302033	-0.9447956899584629	0.46624908573535495	-1.161803125471006	0.6182434578894633	1	correct	1.0
173.7226511000008	8.436049599997204	go_reward	1.0	173.77942640000037	175.3432909999974	177.85847540000032	1.5638645999970322	174.78472580000016	176.8482839999997	180.9004621999993	0.558565199997247	1.0101914000006218	1.315013799998269	179.89327709999998	0.3323751000025368	178.86970759999895	1	1	21	2	go_reward	1	1	0	1	0	0	0	0.0	1.0	0	1.0	0.3323751000025368	513.1658888999991	686.9453152999995	687.9506146999993	688.5091798999965	690.0141728999988	691.0243642999994	692.0355964999981	693.0591659999991	694.0663510999984	695.3813648999967	2020-08-18 15:19:56.734188	0.244030426685136	0.191688804386739	0.0	0.187963644463475	-0.244030426685136	0.0	-0.244030426685136	0.0	0.191688804386739	0.0	-0.244030426685136	0.0	-1.409309207039312	-0.4161731291635179	-0.12738653841802489	-0.9337103282937756	-0.35289563445958894	-0.12738653841802489	-0.18126050780302033	-0.9447956899584629	0.464513517080849	-1.161803125471006	0.6182434578894633	1	correct	1.0
182.1954029999979	8.252094300001772	go_reward	1.0	182.25217829999747	184.03805979999743	186.55329419999907	1.7858814999999595	183.25712949999797	185.54299460000038	189.59534269999858	0.7809302999994543	1.0102995999986888	0.9089299000006577	188.58812119999857	0.2672514999976556	187.56567870000072	1	1	22	2	go_reward	1	1	0	1	0	0	1	0.0	0.0	0	1.0	0.2672514999976556	513.1658888999991	695.4180671999966	696.4230183999971	697.2039486999965	698.7088834999995	699.7191830999982	700.7315675999998	701.7540100999977	702.7612315999977	703.6701614999984	2020-08-18 15:19:56.734188	0.245717630528256	0.191688804386739	0.0	0.184338088545147	-0.245717630528256	0.0	-0.245717630528256	0.0	0.191688804386739	0.0	-0.245717630528256	0.0	-1.4076220031961921	-0.4161731291635179	-0.12738653841802489	-0.9373358842121037	-0.354582838302709	-0.12738653841802489	-0.18126050780302033	-0.9447956899584629	0.46282631323772894	-1.161803125471006	0.6182434578894633	1	wrong	1.0
190.49032119999902	7.945697300001484	nogo_punish	1.0	190.5470964999986	192.01781919999848	194.53783169999951	1.4707226999998966	191.55165660000057	193.52294849999817	197.58008300000074	0.4661625999979151	1.01488320000135	0.9127107999993314	196.5727826000002	0.6672016999982588	195.5487675000004	1	1	23	3	nogo_punish	0	0	-1	0	0	1	0	0.0	1.0	-1	1.0	0.6672016999982588	513.1658888999991	703.7129853999977	704.7175454999997	705.1837080999976	706.6888373999973	707.7037205999986	708.7146563999995	709.7386714999993	710.7459718999999	711.6586826999992	2020-08-18 15:19:56.734188	0.62680723404712	-0.12200472313346	-0.11691166042933	-0.231382485696112	-0.743718894476451	-0.11691166042933	-0.62680723404712	-0.11691166042933	-0.12200472313346	-0.11691166042933	-0.743718894476451	-8.909725531942359	-1.0265323996773281	-0.7298666566837169	-0.24429819884735487	-1.3530564584533626	-0.852584102250904	-0.24429819884735487	-9.09098603974538	-1.061707350387793	-0.03517495071046606	-1.278714785900336	0.3045499303692643	1	correct	1.0
198.47263929999826	8.75001870000051	go_punish	1.0	198.52941459999784	200.3780415000001	202.893673999999	1.848626900002273	199.53429419999884	201.88325350000014	205.93439149999904	0.8437473000012687	1.0104204999988724	1.3450417999993078	204.92817899999864	0.2832892000005813	203.90657569999894	1	1	24	4	go_punish	0	-1	0	1	0	0	0	0.0	1.0	0	1.0	0.2832892000005813	513.1658888999991	711.695303499997	712.700183099998	713.5439303999992	715.0491423999993	716.0595628999981	717.072464599998	718.0940678999978	719.1002803999982	720.4453221999975	2020-08-18 15:19:56.734188	0.381983827340869	0.0	-0.236333784114724	-0.224259357965876	-0.618317611455593	-0.236333784114724	-0.381983827340869	-0.236333784114724	0.0	-0.236333784114724	-0.618317611455593	0.236333784114724	-1.2713558063835793	-0.6078619335502569	-0.3637203225327489	-1.3459333307231267	-0.727182819230046	-0.3637203225327489	0.05507327631170367	-1.1811294740731868	0.0902263323103919	-1.39813690958573	0.4265546535027243	1	correct	1.0
207.26439630000095	7.855092899997544	nogo_punish	0.508526300000085	207.32117160000053	208.68459829999847	211.23064479999812	1.3634266999979445	208.32578039999862	210.21582320000016	214.27433689999816	0.35881789999984903	1.0148215999979584	0.9019275999999081	213.26718249999976	0.373913999999786	212.2420364999998	1	1	25	3	nogo_punish	1	-1	0	0	1	0	1	1.0	1.0	-1	0.508526300000085	0.373913999999786	513.1658888999991	720.4870604999996	721.4916692999977	721.8504871999976	723.3817120999993	724.3965336999972	725.4079253999989	726.4330713999989	727.4402257999973	728.3421533999972	2020-08-18 15:19:56.734188	-0.559797024568381	-0.12200472313346	-0.236475548400241	-0.34857276475841	-0.796272572968622	-0.236475548400241	0.559797024568381	-0.12200472313346	-0.236475548400241	-0.796272572968622	-0.236475548400241	-8.90463246923823	-2.213136658292829	-0.7298666566837169	-0.3638620868182659	-1.4702467375156607	-0.9051377807430749	-0.3638620868182659	-9.08589297704125	-1.7410682629270848	0.47206839536574396	-1.283807848604466	0.19007910510248333	1	correct	1.0
215.1619499999979	8.872732200001337	go_reward	1.0	215.21872529999746	217.08034739999857	219.59556510000039	1.8616221000011137	216.22374569999738	218.5857799000005	222.63502510000035	0.8566017000011925	1.0097851999998966	1.456432399998448	221.6281820999975	0.4423633999977028	220.6064339000004	1	1	26	2	go_reward	1	1	0	1	0	0	0	0.0	1.0	0	1.0	0.4423633999977028	513.1658888999991	728.3846141999966	729.3896345999965	730.2462362999977	731.7516687999996	732.7614539999995	733.7723227999995	734.7940709999966	735.8009139999995	737.2573463999979	2020-08-18 15:19:56.734188	0.247358172641234	0.191688804386739	0.0	0.180808741598553	-0.247358172641234	0.0	-0.247358172641234	0.0	0.191688804386739	0.0	-0.247358172641234	0.0	-1.4059814610832142	-0.4161731291635179	-0.12738653841802489	-0.9408652311586977	-0.35622338041568696	-0.12738653841802489	-0.18126050780302033	-0.9447956899584629	0.46118577112475095	-1.161803125471006	0.6182434578894633	1	correct	1.0
224.08105219999925	8.372076300001936	nogo_punish	1.0	224.13782749999882	226.11372119999942	228.6285018999988	1.9758937000005972	225.14171559999886	227.61845019999964	231.67164219999904	0.972005600000557	1.0100516999991669	0.8382616000017151	230.66447789999802	0.3568117000031634	229.63925879999806	1	1	27	3	nogo_punish	1	-1	0	0	0	1	1	1.0	1.0	0	1.0	0.3568117000031634	513.1658888999991	737.3037163999979	738.307604499998	739.2796100999985	740.7843390999988	741.7943907999979	742.8051476999972	743.8303667999971	744.8375310999982	745.6757926999999	2020-08-18 15:19:56.734188	0.730602518665341	-0.241426846818853	-0.236475548400241	-0.463312595876115	-0.967078067065582	-0.236475548400241	-0.730602518665341	-0.236475548400241	-0.241426846818853	-0.236475548400241	-0.967078067065582	0.236475548400241	-0.9227371150591072	-0.8492887803691098	-0.3638620868182659	-1.5849865686333657	-1.0759432748400348	-0.3638620868182659	0.055215040597220655	-1.1812712383587038	-0.258534123299597	-1.398278673871247	0.1851278066838713	1	correct	1.0
232.49440569999933	8.520867700000963	nogo_reward	1.0	232.5511809999989	234.11883229999876	236.63859519999824	1.5676512999998522	233.5556598999974	235.6240375999987	239.6802631999999	0.5631724000013492	1.0145575999995344	1.391785499999969	238.67388089999804	0.3278423000010662	237.6510997000005	1	1	28	1	nogo_reward	1	0	1	0	0	1	0	0.0	1.0	1	1.0	0.3278423000010662	513.1658888999991	745.717069899998	746.7215487999965	747.2847211999979	748.7899264999978	749.8044840999974	750.8169885999996	751.8397697999972	752.846152099999	754.237937599999	2020-08-18 15:19:56.734188	0.729366411899485	0.0	0.376026892931885	0.376026892931885	-0.3533395189676	0.376026892931885	-0.729366411899485	0.376026892931885	0.0	0.376026892931885	-0.3533395189676	8.154069072400045	-0.9239732218249631	-0.6078619335502569	0.24864035451386013	-0.7456470798253656	-0.462204726742053	0.24864035451386013	7.972808564597025	-0.5687687970265778	0.35520442479838493	-0.7857762325391209	0.4265546535027243	1	correct	1.0
241.05053559999942	8.334123299999192	nogo_reward	1.0	241.107310899999	242.83450079999966	245.35431360000075	1.727189900000667	242.11176290000003	244.33972879999783	248.3976466999993	0.722737899999629	1.0145848000029218	1.0437874999988708	247.39083489999757	0.2518954999977723	246.36601059999884	1	1	29	1	nogo_reward	1	0	1	0	0	1	0	0.0	1.0	1	1.0	0.2518954999977723	513.1658888999991	754.2731997999981	755.2776517999991	756.0003896999988	757.505617699997	758.5202024999999	759.531899499998	760.5567237999967	761.5635355999984	762.6073230999973	2020-08-18 15:19:56.734188	0.779802870719697	0.0	0.465560745537498	0.465560745537498	-0.3142421251822	0.465560745537498	-0.779802870719697	0.465560745537498	0.0	0.465560745537498	-0.3142421251822	8.06453521979443	-0.8735367630047511	-0.6078619335502569	0.3381742071194731	-0.6561132272197527	-0.423107332956653	0.3381742071194731	7.883274711991411	-0.47923494442096487	0.39430181858378494	-0.696242379933508	0.4265546535027243	1	correct	1.0
249.4183269999994	7.840475000000879	nogo_reward	1.0	249.47510229999898	250.7960751999999	253.31259969999883	1.3209729000009247	250.47997899999973	252.30131859999892	256.35675269999774	0.3160962000001746	1.0112810999999056	0.9588246000021172	255.34949939999933	0.3596348999999463	254.32543779999833	1	1	30	1	nogo_reward	0	1	0	0	0	1	1	1.0	1.0	0	1.0	0.3596348999999463	513.1658888999991	762.6409911999981	763.6458678999988	763.961964099999	765.467207499998	766.478488599998	767.4913266999974	768.5153882999984	769.5226415999969	770.481466199999	2020-08-18 15:19:56.734188	0.829330672439702	0.0	0.553399245226354	0.553399245226354	-0.275931427213348	0.553399245226354	-0.829330672439702	0.553399245226354	0.0	0.553399245226354	-0.275931427213348	-0.553399245226354	-0.8240089612847461	-0.6078619335502569	0.4260127068083291	-0.5682747275308967	-0.384796634987801	0.4260127068083291	-0.7346597530293744	-0.3913964447321089	0.43261251655263694	-0.608403880244652	0.4265546535027243	1	correct	1.0
257.3021392999981	8.403085400001146	nogo_punish	1.0	257.35891459999766	258.7187193999998	261.2343054999983	1.3598048000021663	258.36306449999756	260.22430990000066	264.2762666999988	0.3556549000022642	1.0099955999976373	1.4857332999999926	263.2691605	0.2692911999984062	262.24542250000013	1	1	31	3	nogo_punish	1	-1	0	0	0	1	0	0.0	1.0	0	1.0	0.2692911999984062	513.1658888999991	770.5248034999968	771.5289533999967	771.884608299999	773.3901987999998	774.4001943999974	775.4113113999992	776.4350493999991	777.4421555999979	778.9278888999979	2020-08-18 15:19:56.734188	0.730954743783354	-0.241426846818853	-0.231519340043562	-0.453664885838555	-0.962474083826916	-0.231519340043562	-0.730954743783354	-0.231519340043562	-0.241426846818853	-0.231519340043562	-0.962474083826916	0.231519340043562	-0.9223848899410941	-0.8492887803691098	-0.3589058784615869	-1.5753388585958057	-1.0713392916013689	-0.3589058784615869	0.05025883224054167	-1.1763150300020249	-0.25393014006093106	-1.393322465514568	0.1851278066838713	1	correct	1.0
265.74238479999985	9.078367699999944	go_reward	1.0	265.7991600999994	268.50873339999816	271.02906280000025	2.7095732999987376	266.8034243000002	270.0140313999982	274.0721291000009	1.7053090999979759	1.0150314000020444	0.8053986999984772	273.0648665000008	0.4097696999997424	272.0421220999997	1	1	32	2	go_reward	0	0	1	1	0	0	0	0.0	1.0	1	1.0	0.4097696999997424	513.1658888999991	778.9650489999985	779.9693131999993	781.6746222999973	783.1799202999973	784.1949516999994	785.2080109999988	786.2307553999999	787.238018	788.0434166999985	2020-08-18 15:19:56.734188	0.248953682223774	0.191688804386739	0.0	0.177372352294468	-0.248953682223774	0.0	-0.248953682223774	0.0	0.191688804386739	0.0	-0.248953682223774	8.53009596533193	-1.4043859515006742	-0.4161731291635179	-0.12738653841802489	-0.9443016204627827	-0.357818889998227	-0.12738653841802489	8.348835457528908	-0.9447956899584629	0.45959026154221094	-1.161803125471006	0.6182434578894633	1	correct	1.0
274.86220559999856	9.409119500000088	nogo_punish	1.0	274.91898089999813	277.88249359999827	280.402120499999	2.9635127000001376	275.92411229999925	279.3869859999977	283.44496439999784	1.9583812999990187	1.0151345000012952	0.883136000000377	282.43749409999873	0.2793573000017204	281.41354299999875	1	1	33	3	nogo_punish	0	0	-1	0	0	1	1	1.0	1.0	-1	1.0	0.2793573000017204	513.1658888999991	788.0848697999973	789.0900011999984	791.0483824999974	792.5528748999968	793.5680093999981	794.5794318999979	795.6033829999978	796.610853299997	797.4939892999973	2020-08-18 15:19:56.734188	0.731302136966286	-0.241426846818853	-0.226700193128424	-0.444282265740308	-0.95800233009471	-0.226700193128424	-0.731302136966286	-0.226700193128424	-0.241426846818853	-0.226700193128424	-0.95800233009471	-8.799936999243265	-0.9220374967581622	-0.8492887803691098	-0.3540867315464489	-1.5659562384975587	-1.066867537869163	-0.3540867315464489	-8.981197507046286	-1.171495883086887	-0.24945838632872508	-1.38850331859943	0.1851278066838713	1	correct	1.0
284.3111140000001	8.31307039999956	nogo_punish	1.0	284.36788929999966	286.36863919999814	288.88344230000075	2.000749899998482	285.37285549999797	287.8730221000005	291.92466219999915	0.9957837000001746	1.010420200000226	0.7562975000000733	290.9182252999999	0.5396842000009201	289.89528620000056	1	1	34	3	nogo_punish	1	-1	0	0	0	1	0	0.0	1.0	0	1.0	0.5396842000009201	513.1658888999991	797.5337781999988	798.5387443999971	799.5345280999973	801.0389109999996	802.0493311999999	803.0611750999997	804.084114199999	805.0905510999983	805.8468485999983	2020-08-18 15:19:56.734188	0.664490821857279	-0.241426846818853	-0.344018117424979	-0.557160406588365	-1.00850893928226	-0.344018117424979	-0.664490821857279	-0.344018117424979	-0.241426846818853	-0.344018117424979	-1.00850893928226	0.344018117424979	-0.9888488118671691	-0.8492887803691098	-0.4714046558430039	-1.6788343793456155	-1.117374147056713	-0.4714046558430039	0.16275760962195868	-1.2888138073834419	-0.299964995516275	-1.505821242895985	0.1851278066838713	1	correct	1.0
292.66063909999866	8.241373700002441	go_punish	1.0	292.71741439999823	293.993198199998	296.5083384999998	1.2757837999997719	293.7214961999998	295.49758629999997	299.547755399999	0.2717019999981858	1.0107521999998426	1.4110327000016696	298.54219849999936	0.3711957000014081	297.5197393999988	1	1	35	4	go_punish	0	-1	0	1	0	0	0	0.0	1.0	0	1.0	0.3711957000014081	513.1658888999991	805.8833032999974	806.8873850999989	807.1590870999971	808.6634751999991	809.6742273999989	810.6856282999979	811.7080873999985	812.7136442999981	814.1246769999998	2020-08-18 15:19:56.734188	0.384735124988032	0.0	-0.231382485696112	-0.219639785382906	-0.616117610684144	-0.231382485696112	-0.384735124988032	-0.231382485696112	0.0	-0.231382485696112	-0.616117610684144	0.231382485696112	-1.2686045087364162	-0.6078619335502569	-0.3587690241141369	-1.3413137581401566	-0.7249828184585969	-0.3587690241141369	0.05012197789309167	-1.1761781756545748	0.092426333081841	-1.393185611167118	0.4265546535027243	1	correct	1.0
300.9380421999995	9.572297800001252	go_reward	1.0	300.99481749999904	303.5668799999985	306.0846533999975	2.572062499999447	302.00019840000095	305.07436880000023	309.1271081999985	1.566681599997537	1.0102845999972487	1.4400071000018215	308.12043509999785	0.2432757999995374	307.0975628999986	1	1	36	2	go_reward	1	1	0	1	0	0	0	0.0	1.0	0	1.0	0.2432757999995374	513.1658888999991	814.1607063999982	815.1660873000001	816.7327688999976	818.2402576999993	819.2505422999966	820.2634517999977	821.286323999997	822.2929970999976	823.7330041999994	2020-08-18 15:19:56.734188	0.304820573406944	0.191688804386739	0.0967883594754697	0.270814165022805	-0.208032213931475	0.0967883594754697	-0.304820573406944	0.0967883594754697	0.191688804386739	0.0967883594754697	-0.208032213931475	-0.0967883594754697	-1.3485190603175041	-0.4161731291635179	-0.03059817894255519	-0.8508598077344457	-0.31689742170592794	-0.03059817894255519	-0.27804886727849004	-0.8480073304829931	0.50051172983451	-1.0650147659955362	0.6182434578894633	1	correct	1.0
310.5444377999993	8.148835100000724	go_punish	1.0	310.60121309999886	312.41862949999995	314.9355749999995	1.8174164000010933	311.60548669999844	313.92297459999827	317.97741210000095	0.8131428000015148	1.0126004000012472	0.7726360999986355	316.9704746999996	0.2143410000026051	315.94749039999806	1	1	37	4	go_punish	1	0	-1	1	0	0	1	0.0	0.0	-1	1.0	0.2143410000026051	513.1658888999991	823.767101999998	824.7713755999976	825.5845183999991	827.0888634999974	828.1014638999986	829.1133792999972	830.1363635999987	831.1433010000001	831.9159370999987	2020-08-18 15:19:56.734188	0.387412058946337	0.0	-0.22656804162495	-0.215145743718553	-0.613980100571287	-0.22656804162495	-0.387412058946337	-0.22656804162495	0.0	-0.22656804162495	-0.613980100571287	-8.80006915074674	-1.2659275747781111	-0.6078619335502569	-0.35395458004297486	-1.3368197164758038	-0.72284530834574	-0.35395458004297486	-8.981329658549761	-1.171363731583413	0.0945638431946979	-1.388371167095956	0.4265546535027243	1	wrong	1.0
318.7353934999992	8.443297900001198	nogo_punish	1.0	318.79216879999876	320.7122457000005	323.2285869999978	1.9200769000017317	319.7968671999988	322.21736919999967	326.27404000000024	0.9153785000016796	1.0112177999981213	0.9614266999997199	325.26651819999825	0.2986603999997896	324.2421562999989	1	1	38	3	nogo_punish	1	-1	0	0	0	1	0	0.0	1.0	0	1.0	0.2986603999997896	513.1658888999991	831.9580576999979	832.9627560999979	833.8781345999996	835.3832580999988	836.3944758999969	837.408045199998	838.4324070999974	839.4399288999994	840.4013555999991	2020-08-18 15:19:56.734188	0.666175057750042	-0.241426846818853	-0.336876551063021	-0.545698586279421	-1.00305160881306	-0.336876551063021	-0.666175057750042	-0.336876551063021	-0.241426846818853	-0.336876551063021	-1.00305160881306	0.336876551063021	-0.9871645759744061	-0.8492887803691098	-0.4642630894810459	-1.6673725590366717	-1.111916816587513	-0.4642630894810459	0.15561604326000067	-1.2816722410214838	-0.29450766504707515	-1.498679676534027	0.1851278066838713	1	correct	1.0
327.2189548999995	9.22597030000179	go_punish	1.0	327.2757301999991	329.55472299999747	332.0720285999996	2.2789927999983774	328.2799094000002	331.05959959999745	335.1130639999974	1.2748135999972874	1.0124290000021574	1.3886365000034857	334.10638669999753	0.255660099999659	333.08317689999967	1	1	39	4	go_punish	1	0	-1	1	0	0	1	0.0	0.0	-1	1.0	0.255660099999659	513.1658888999991	840.4416190999982	841.4457982999993	842.7206118999966	844.2254884999966	845.2379174999987	846.2490657999988	847.2722755999966	848.2789528999965	849.6675894	2020-08-18 15:19:56.734188	0.322863234217286	0.0	-0.343890472190722	-0.332777722968693	-0.666753706408008	-0.343890472190722	-0.322863234217286	-0.343890472190722	0.0	-0.343890472190722	-0.666753706408008	-8.682746720180967	-1.330476399507162	-0.6078619335502569	-0.4712770106087469	-1.4544516957259437	-0.775618914182461	-0.4712770106087469	-8.864007227983988	-1.288686162149185	0.041790237357976934	-1.505693597661728	0.4265546535027243	1	wrong	1.0
336.4926735000008	9.121787099997164	nogo_punish	1.0	336.5494488000004	339.09145219999846	341.6055148999985	2.542003399998066	337.5541553000003	340.5961666999974	344.6504681999977	1.5372968999981822	1.0093482000011136	1.0207676999998512	343.6427535999974	0.6452219000020705	342.61837639999794	1	1	40	3	nogo_punish	1	-1	0	0	0	1	1	0.0	0.0	0	1.0	0.6452219000020705	513.1658888999991	849.7153376999995	850.7200441999994	852.2573410999976	853.7620555999965	854.7714037999976	855.7842652999971	856.8086424999965	857.8163570999968	858.8371247999967	2020-08-18 15:19:56.734188	0.667818537697382	-0.241426846818853	-0.329930623938921	-0.534547944180728	-0.997749161636302	-0.329930623938921	-0.667818537697382	-0.329930623938921	-0.241426846818853	-0.329930623938921	-0.997749161636302	0.329930623938921	-0.9855210960270662	-0.8492887803691098	-0.45731716235694586	-1.6562219169379788	-1.1066143694107549	-0.45731716235694586	0.14867011613590064	-1.274726313897384	-0.28920521787031706	-1.491733749409927	0.1851278066838713	1	wrong	1.0
345.6498967999978	8.961415100002341	go_punish	0.4116626999966684	345.7066720999974	347.8751334000008	350.4155881000006	2.1684613000034005	346.7108412999987	349.40551849999974	353.45884020000085	1.1642921000020579	1.010069600000861	1.209246999998868	352.4519457999995	0.3467187000023841	351.4261785999988	1	1	41	4	go_punish	1	0	-1	1	1	1	1	1.0	1.0	0	0.4116626999966684	0.3467187000023841	513.1658888999991	858.8725609999965	859.8767301999978	861.0410222999999	862.5714073999989	863.5814769999997	864.5920674999979	865.6178346999986	866.6247291	867.8339760999988	2020-08-18 15:19:56.734188	-0.259591368429826	0.0	-0.458757948542684	-0.44794434056458	-0.718349316972511	-0.458757948542684	0.259591368429826	0.0	-0.458757948542684	-0.718349316972511	-0.458757948542684	0.0	-1.912931002154274	-0.6078619335502569	-0.5861444869607089	-1.5696183133218307	-0.827214524746964	-0.5861444869607089	-0.18126050780302033	-1.663145006930974	0.24978599522330097	-1.161803125471006	-0.03220329503995967	1	correct	1.0
354.64817539999785	8.25999260000026	go_reward	1.0	354.7049506999974	356.1747546000006	358.6881207999977	1.4698039000031713	355.7108033000004	357.6793823000007	361.72861799999737	0.4639513000001898	1.00873849999698	1.236325300000317	360.72204050000073	0.272652100000414	359.69916589999775	1	1	42	2	go_reward	1	1	0	1	0	0	0	0.0	1.0	0	1.0	0.272652100000414	513.1658888999991	867.8708395999965	868.8766921999995	869.3406434999997	870.8452711999998	871.8540096999968	872.8650547999969	873.8879293999998	874.8945068999965	876.1308321999968	2020-08-18 15:19:56.734188	0.305322807803753	0.191688804386739	0.0949004449112691	0.265666560431927	-0.210422362892484	0.0949004449112691	-0.305322807803753	0.0949004449112691	0.191688804386739	0.0949004449112691	-0.210422362892484	-0.0949004449112691	-1.3480168259206953	-0.4161731291635179	-0.032486093506755784	-0.8560074123253236	-0.31928757066693697	-0.032486093506755784	-0.2761609527142894	-0.8498952450471937	0.49812158087350095	-1.0669026805597368	0.6182434578894633	1	correct	1.0
362.94288210000013	9.260373599998275	nogo_reward	0.3677270000007411	362.9996573999997	365.438091	367.9802426999995	2.4384336000002804	364.00448849999884	366.9697759999981	371.0220640999978	1.4336025000011432	1.010466700001416	1.237966900000174	370.0146676999975	0.437536800000089	368.99217399999907	1	1	43	1	nogo_reward	1	0	1	0	1	0	0	0.0	1.0	0	0.3677270000007411	0.437536800000089	513.1658888999991	876.1655462999988	877.170377399998	878.6039798999991	880.1356648999972	881.1461315999986	882.1580628999982	883.1805565999966	884.1879529999969	885.4259198999971	2020-08-18 15:19:56.734188	-0.823657765850779	0.0	0.542798191609363	0.542798191609363	-0.280859574241416	0.542798191609363	0.823657765850779	0.0	0.542798191609363	-0.280859574241416	0.542798191609363	0.0	-2.476997399575227	-0.6078619335502569	0.41541165319133816	-0.5788757811478876	-0.38972478201586896	0.41541165319133816	-0.18126050780302033	-1.2256552641998788	1.251342135375348	-1.161803125471006	0.9693528451120874	1	correct	1.0
372.2399759	8.967254499999399	go_reward	0.7461408999988635	372.29675119999956	374.7244714999979	377.26554159999796	2.4277202999983274	373.3015059999998	376.25584629999867	380.30891789999805	1.4229654999980994	1.0096952999992936	0.9550878000009106	379.30189170000085	0.4257629999992787	378.27692580000075	1	1	44	2	go_reward	0	0	1	1	1	1	1	1.0	1.0	0	0.7461408999988635	0.4257629999992787	513.1658888999991	885.4626400999987	886.4673948999989	887.890360399997	889.4217351999978	890.4314304999971	891.4428146999999	892.4677806	893.4748067999972	894.4298945999981	2020-08-18 15:19:56.734188	-0.305810543225821	0.191688804386739	0.0930631995522058	0.260653618616505	-0.212747343673615	0.0930631995522058	0.305810543225821	0.191688804386739	0.0930631995522058	-0.212747343673615	0.0930631995522058	-0.191688804386739	-1.9591501769502693	-0.4161731291635179	-0.03432333886581909	-0.8610203541407457	-0.321612551448068	-0.03432333886581909	-0.37294931218975935	-1.1575430336320778	0.8016071433181907	-0.970114321084267	0.5196178530549301	1	correct	1.0
381.2445532999991	9.633274100000563	go_reward	1.0	381.30132859999867	384.03178259999913	386.5487498000002	2.7304540000004636	382.30572849999953	385.5359323999983	389.58960389999993	1.726054099999601	1.0128174000019499	1.3449987999993027	388.58313129999806	0.5303203999974357	387.5615070999993	1	1	45	2	go_reward	0	0	1	1	0	0	0	0.0	1.0	1	1.0	0.5303203999974357	513.1658888999991	894.4672174999978	895.4716173999986	897.1976714999983	898.7018212999974	899.7146386999993	900.7273959999984	901.7490201999972	902.755492799999	904.1004915999983	2020-08-18 15:19:56.734188	0.311797756490973	0.187963644463475	0.0930631995522058	0.25577085854556	-0.218734556938767	0.0930631995522058	-0.311797756490973	0.0930631995522058	0.187963644463475	0.0930631995522058	-0.218734556938767	8.437032765779723	-1.341541877233475	-0.41989828908678184	-0.03432333886581909	-0.8659031142116906	-0.32759976471321994	-0.03432333886581909	8.255772257976702	-0.8517324904062571	0.489809386827218	-1.0687399259188002	0.6145182979661993	1	correct	1.0
390.9139007999985	8.715582600001653	go_punish	0.5256454000009398	390.97067609999806	392.7542226000005	395.2957623000001	1.7835465000024442	391.9754398999977	394.2850746000005	398.3368894999985	0.7787827000028074	1.0106876999996075	1.349369200001206	397.3300227000001	0.3123097000025154	396.30623189999824	1	1	46	4	go_punish	1	0	-1	1	1	1	0	0.0	1.0	0	0.5256454000009398	0.3123097000025154	513.1658888999991	904.1365649999972	905.1413287999968	905.9201114999996	907.4509634999996	908.4616511999992	909.4721207999974	910.4959115999992	911.5027783999976	912.8521475999988	2020-08-18 15:19:56.734188	-0.255192261251591	0.0	-0.458757948542684	-0.438709114226517	-0.713950209794275	-0.458757948542684	0.255192261251591	0.0	-0.458757948542684	-0.713950209794275	-0.458757948542684	0.0	-1.908531894976039	-0.6078619335502569	-0.5861444869607089	-1.5603830869837676	-0.822815417568728	-0.5861444869607089	-0.18126050780302033	-1.6587458997527378	0.24978599522330097	-1.161803125471006	-0.03220329503995967	1	correct	1.0
399.66584760000114	7.963203299997986	go_reward	1.0	399.7226229000007	401.0769163999977	403.59526840000046	1.3542934999969702	400.72683830000085	402.5819331999993	406.63894660000005	0.3500780999968356	1.0133352000011655	1.0468795999986469	405.63196999999843	0.3288276999992376	404.6079181999993	1	1	47	2	go_reward	0	0	1	1	0	0	1	1.0	1.0	1	1.0	0.3288276999992376	513.1658888999991	912.8885117999998	913.8927272	914.2428052999968	915.7478220999984	916.7611572999996	917.7738070999984	918.7978588999975	919.8048354999992	920.8517150999978	2020-08-18 15:19:56.734188	0.366525572855887	0.187963644463475	0.188063248468411	0.347802343176002	-0.178462324387477	0.188063248468411	-0.366525572855887	0.188063248468411	0.187963644463475	0.188063248468411	-0.178462324387477	8.342032716863518	-1.2868140608685612	-0.41989828908678184	0.06067671005038611	-0.7738716295812487	-0.28732753216192997	0.06067671005038611	8.160772209060497	-0.7567324414900518	0.530081619378508	-0.9737398770025949	0.6145182979661993	1	correct	1.0
407.67300500000056	9.254198999999176	nogo_punish	1.0	407.72978030000013	410.4929864000005	413.00647820000086	2.7632061000003887	408.7342327999977	411.9972999999991	416.0478235999981	1.7587536000028194	1.0091782000017702	0.9361557000012226	415.0416839999997	0.281940000000759	414.0168271000001	1	1	48	3	nogo_punish	1	-1	0	0	0	1	0	0.0	1.0	0	1.0	0.281940000000759	513.1658888999991	920.8956691999992	921.9001216999968	923.6588752999996	925.1631888999982	926.1723671	927.1827159999992	928.2075728999988	929.2137124999972	930.1498681999984	2020-08-18 15:19:56.734188	0.669422516301423	-0.241426846818853	-0.323173677017788	-0.523697992123405	-0.992596193319212	-0.323173677017788	-0.669422516301423	-0.323173677017788	-0.241426846818853	-0.323173677017788	-0.992596193319212	0.323173677017788	-0.9839171174230251	-0.8492887803691098	-0.45056021543581287	-1.6453719648806557	-1.101461401093665	-0.45056021543581287	0.14191316921476765	-1.2679693669762508	-0.28405224955322705	-1.484976802488794	0.1851278066838713	1	correct	1.0
416.9648402999993	7.978710399998818	go_reward	1.0	417.0216155999989	418.4401711999999	420.9572220000009	1.4185556000010138	418.0258408999981	419.94470929999807	424.0002929000001	0.4143303000017795	1.0125127000028442	1.0000330999976086	422.9942289999999	0.2739040000014938	421.96986370000013	1	1	49	2	go_reward	0	0	1	1	0	0	1	0.0	0.0	1	1.0	0.2739040000014938	513.1658888999991	930.187504499998	931.1917297999972	931.606060099999	933.1105981999972	934.1231109	935.1357525999993	936.160117899999	937.1661817999992	938.1662148999968	2020-08-18 15:19:56.734188	0.420234116946967	0.187963644463475	0.281222656992351	0.438067677167498	-0.139011459954616	0.281222656992351	-0.420234116946967	0.281222656992351	0.187963644463475	0.281222656992351	-0.139011459954616	8.248873308339578	-1.2331055167774811	-0.41989828908678184	0.1538361185743261	-0.6836062955897526	-0.24787666772906897	0.1538361185743261	8.067612800536557	-0.6635730329661118	0.5695324838113689	-0.8805804684786549	0.6145182979661993	1	wrong	1.0
424.97940129999915	9.234105200000954	go_reward	1.0	425.0361765999987	427.5052140000007	430.0192948999975	2.46903740000198	426.0405251999981	429.00990810000087	433.05902779999803	1.464688800002591	1.009386799996605	1.2112540000016452	432.05328179999924	0.2516001000003598	431.03016919999925	1	1	50	2	go_reward	1	1	0	1	0	0	0	0.0	1.0	0	1.0	0.2516001000003598	513.1658888999991	938.2020654999978	939.2064140999972	940.6711028999998	942.175797	943.1851837999966	944.1960580999984	945.2191706999984	946.2249166999972	947.4361706999988	2020-08-18 15:19:56.734188	0.472949820655619	0.187963644463475	0.3725905036278	0.526613574911391	-0.100359317027819	0.3725905036278	-0.472949820655619	0.3725905036278	0.187963644463475	0.3725905036278	-0.100359317027819	-0.3725905036278	-1.180389813068829	-0.41989828908678184	0.2452039652097751	-0.5950603978458596	-0.20922452480227197	0.2452039652097751	-0.5538510114308204	-0.5722051863306629	0.608184626738166	-0.789212621843206	0.6145182979661993	1	correct	1.0
434.2533670000013	9.154757799998833	nogo_punish	1.0	434.31014230000085	436.6653154999984	439.1793092000007	2.35517319999758	435.3150198000003	438.1703035999999	442.2226249999985	1.350295699998128	1.009005600000819	1.2422751000011658	441.2165877000007	0.2232279000018024	440.1915311999983	1	1	51	3	nogo_punish	1	-1	0	0	0	1	0	0.0	1.0	0	1.0	0.2232279000018024	513.1658888999991	947.4760312	948.4809086999994	949.8312043999975	951.336192499999	952.3451980999998	953.3574200999974	954.3824765999998	955.3885138999976	956.6307889999988	2020-08-18 15:19:56.734188	0.670988199570482	-0.241426846818853	-0.316599326678925	-0.513138670921157	-0.987587526249406	-0.316599326678925	-0.670988199570482	-0.316599326678925	-0.241426846818853	-0.316599326678925	-0.987587526249406	0.316599326678925	-0.9823514341539662	-0.8492887803691098	-0.44398586509694987	-1.6348126436784076	-1.096452734023859	-0.44398586509694987	0.13533881887590465	-1.2613950166373877	-0.2790435824834211	-1.4784024521499308	0.1851278066838713	1	correct	1.0
443.44465750000006	8.279178099998035	go_punish	1.0	443.50143279999963	444.93507469999884	447.453617799998	1.433641899999202	444.50527130000046	446.44005090000064	450.4973222999979	0.42980339999837724	1.013566899997386	1.2832885999997643	449.4899523999993	0.6144796000007773	448.46421539999926	1	1	52	4	go_punish	1	0	-1	1	0	0	0	0.0	1.0	-1	1.0	0.6144796000007773	513.1658888999991	956.6673216999988	957.6711601999996	958.100963599998	959.6059397999998	960.6195066999971	961.6301042999984	962.6558412999984	963.663211199997	964.9464997999968	2020-08-18 15:19:56.734188	0.250918326460826	0.0	-0.458757948542684	-0.42972525593351	-0.709676275003511	-0.458757948542684	-0.250918326460826	-0.458757948542684	0.0	-0.458757948542684	-0.709676275003511	-8.567879243829005	-1.402421307263622	-0.6078619335502569	-0.5861444869607089	-1.5513992286907607	-0.818541482777964	-0.5861444869607089	-8.749139751632026	-1.403553638501147	-0.0011323312375260963	-1.62056107401369	0.4265546535027243	1	correct	1.0
451.7604320999999	9.072064200001478	go_reward	1.0	451.81720739999946	453.8606800999987	456.37885689999894	2.0434726999992563	452.82219260000045	455.3652500999997	459.42098149999947	1.0384874999982685	1.013606799999252	1.468290100001468	458.4134242000001	0.3052748999980395	457.39134999999806	1	1	53	2	go_reward	0	0	1	1	0	0	0	0.0	1.0	1	1.0	0.3052748999980395	513.1658888999991	964.9830962999986	965.9880814999996	967.0265689999978	968.5311389999988	969.544745799998	970.5572388999972	971.5793130999992	972.5868703999986	974.0551605	2020-08-18 15:19:56.734188	0.470383382399027	0.187963644463475	0.365425839314895	0.516696815197647	-0.104957543084132	0.365425839314895	-0.470383382399027	0.365425839314895	0.187963644463475	0.365425839314895	-0.104957543084132	8.164670126017034	-1.1829562513254213	-0.41989828908678184	0.2380393008968701	-0.6049771575596037	-0.21382275085858496	0.2380393008968701	7.983409618214014	-0.5793698506435678	0.603586400681853	-0.7963772861561109	0.6145182979661993	1	correct	1.0
460.8684819000009	8.545034799997552	go_punish	1.0	460.9252572000005	462.89079859999765	465.4075988000005	1.9655413999971643	461.9295725999981	464.3952227000009	468.45174939999924	0.9612259999995558	1.012376099999642	1.0185425999987956	467.44439129999967	0.2693180999995093	466.4193266000001	1	1	54	4	go_punish	1	0	-1	1	0	0	1	1.0	1.0	-1	1.0	0.2693180999995093	513.1658888999991	974.0911460999996	975.0954614999972	976.0566874999968	977.5611116	978.5734876999996	979.5852154999992	980.6102801999988	981.6176382999984	982.6361808999972	2020-08-18 15:19:56.734188	0.189135650511394	0.0	-0.571238287292379	-0.542988989281613	-0.760373937803773	-0.571238287292379	-0.189135650511394	-0.571238287292379	0.0	-0.571238287292379	-0.760373937803773	-8.45539890507931	-1.4642039832130542	-0.6078619335502569	-0.698624825710404	-1.6646629620388635	-0.869239145578226	-0.698624825710404	-8.63665941288233	-1.5160339772508418	-0.051829994037788096	-1.7330414127633849	0.4265546535027243	1	correct	1.0
469.4483648999993	9.4947061999992	nogo_reward	0.4687376000001677	469.5051401999989	471.92617249999967	474.4679658999993	2.4210323000007747	470.50857069999984	473.4571599000009	477.5106164999996	1.4176017999998294	1.0108059999984107	1.4892298999984632	476.50425180000093	0.2454178000007232	475.4811687000001	1	1	55	1	nogo_reward	1	0	1	0	1	0	0	0.0	1.0	0	0.4687376000001677	0.2454178000007232	513.1658888999991	982.671029099998	983.674459599999	985.0920613999988	986.6230488	987.6338547999984	988.6470575999992	989.6701407	990.6765053999987	992.1657352999972	2020-08-18 15:19:56.734188	-0.828450535079078	0.0	0.542798191609363	0.532476556360273	-0.285652343469715	0.542798191609363	0.828450535079078	0.0	0.542798191609363	-0.285652343469715	0.542798191609363	0.0	-2.481790168803526	-0.6078619335502569	0.41541165319133816	-0.5891974163969776	-0.394517551244168	0.41541165319133816	-0.18126050780302033	-1.230448033428178	1.251342135375348	-1.161803125471006	0.9693528451120874	1	correct	1.0
478.9777230000001	8.078799499999036	nogo_reward	0.5802326000011817	479.03449829999965	480.4272882000005	482.96823159999985	1.392789900000821	480.03947029999847	481.95831239999825	486.01056509999773	0.38781790000200544	1.0099192000016046	1.1027327000009564	485.00300699999923	0.2675183999999717	483.97907159999886	1	1	56	1	nogo_reward	1	0	1	0	1	0	0	0.0	1.0	0	0.5802326000011817	0.2675183999999717	513.1658888999991	992.2003871999988	993.2053591999976	993.5931770999996	995.1242012999974	996.134120499999	997.144960499998	998.1688958999983	999.1764539999969	1000.2791866999978	2020-08-18 15:19:56.734188	-0.833112618737636	0.0	0.542798191609363	0.522424966210187	-0.290314427128273	0.542798191609363	0.833112618737636	0.0	0.542798191609363	-0.290314427128273	0.542798191609363	0.0	-2.486452252462084	-0.6078619335502569	0.41541165319133816	-0.5992490065470637	-0.39917963490272595	0.41541165319133816	-0.18126050780302033	-1.2351101170867358	1.251342135375348	-1.161803125471006	0.9693528451120874	1	correct	1.0
487.0938715000011	9.412715899998148	go_punish	0.2446912000013981	487.1506468000007	489.6289203999985	492.16937429999973	2.478273599997806	488.1546625999981	491.1599548999985	495.2136576999983	1.4742578000003732	1.0094194000012067	1.3497050000005402	494.20684110000013	0.3057451000022411	493.18290010000044	1	1	57	4	go_punish	1	0	-1	1	1	1	0	0.0	1.0	0	0.2446912000013981	0.3057451000022411	513.1658888999991	1000.3165356999998	1001.3205514999972	1002.7948092999976	1004.3258437999976	1005.3352631999988	1006.3487889999996	1007.3727299999993	1008.3795465999974	1009.729251599998	2020-08-18 15:19:56.734188	-0.128555005600689	0.0	-0.68139697434492	-0.653904841227625	-0.809951979945609	-0.68139697434492	0.128555005600689	0.0	-0.68139697434492	-0.809951979945609	-0.68139697434492	0.0	-1.7818946393251371	-0.6078619335502569	-0.8087835127629448	-1.7755788139848758	-0.9188171877200619	-0.8087835127629448	-0.18126050780302033	-1.7547476699040718	0.02714696942106498	-1.161803125471006	-0.25484232084219566	1	correct	1.0
496.54356220000057	9.799766699997917	go_punish	1.0	496.60033750000014	499.3571656999993	501.8767224999973	2.756828199999177	497.6040216000001	500.86223999999845	504.91862639999806	1.75314409999919	1.0144824999988487	1.4814777999999933	503.91112799999974	0.950483599997824	502.88823580000087	1	1	58	4	go_punish	1	0	-1	1	0	0	0	0.0	1.0	-1	1.0	0.950483599997824	513.1658888999991	1009.7662263999993	1010.7699104999992	1012.5230545999984	1014.0281288999976	1015.0426113999964	1016.0541247	1017.0770168999989	1018.0845152999972	1019.5659930999972	2020-08-18 15:19:56.734188	0.122194685961596	0.0	-0.68139697434492	-0.640532406211704	-0.803591660306516	-0.68139697434492	-0.122194685961596	-0.68139697434492	0.0	-0.68139697434492	-0.803591660306516	-8.345240218026769	-1.531144947762852	-0.6078619335502569	-0.8087835127629448	-1.7622063789689548	-0.9124568680809689	-0.8087835127629448	-8.52650072582979	-1.6261926643033828	-0.09504771654053101	-1.843200099815926	0.4265546535027243	1	correct	1.0
506.37774960000013	8.275362400000063	nogo_reward	0.4401658000024326	506.4345248999997	507.9385039999979	510.47869229999924	1.5039790999982188	507.43854609999846	509.4680972999995	513.5204166000003	0.4999578999994583	1.0105949999997392	1.1894706999994469	512.5131408999987	0.2974098000013327	511.4911423999986	1	1	59	1	nogo_reward	1	0	1	0	1	0	0	0.0	1.0	0	0.4401658000024326	0.2974098000013327	513.1658888999991	1019.6004137999988	1020.6044349999976	1021.104392899997	1022.6339861999986	1023.6445811999984	1024.6570312999977	1025.6790297999978	1026.6863054999994	1027.8757761999989	2020-08-18 15:19:56.734188	-0.837648509117716	0.0	0.542798191609363	0.512634437367745	-0.294850317508353	0.542798191609363	0.837648509117716	0.0	0.542798191609363	-0.294850317508353	0.542798191609363	0.0	-2.490988142842164	-0.6078619335502569	0.41541165319133816	-0.6090395353895056	-0.40371552528280596	0.41541165319133816	-0.18126050780302033	-1.2396460074668159	1.251342135375348	-1.161803125471006	0.9693528451120874	1	correct	1.0
514.6895943999989	8.334893999999622	go_punish	0.2919970999973884	514.7463696999985	516.0944858999974	518.6341733000008	1.3481161999989126	515.7512279	517.6249083000002	521.6766008999984	0.34325799999737683	1.009265000000596	1.4046627999996417	520.6694088000004	0.5710290999995777	519.6455958000006	1	1	60	4	go_punish	1	0	-1	1	1	1	1	1.0	1.0	0	0.2919970999973884	0.5710290999995777	513.1658888999991	1027.9122585999976	1028.9171167999991	1029.2603747999965	1030.7907971999994	1031.8000622	1032.8114846999997	1033.8352976999995	1034.8424897999976	1036.2471525999972	2020-08-18 15:19:56.734188	-0.0629644787637122	0.0	-0.789297262409899	-0.749525855043721	-0.852261741173611	-0.789297262409899	0.0629644787637122	0.0	-0.789297262409899	-0.852261741173611	-0.789297262409899	0.0	-1.7163041124881604	-0.6078619335502569	-0.9166838008279239	-1.8711998278009716	-0.9611269489480639	-0.9166838008279239	-0.18126050780302033	-1.7970574311320737	-0.080753318643914	-1.161803125471006	-0.36274260890717464	1	correct	1.0
