onset	duration	trial_type	response_time	cueOnset	targetOnset	fbOnset	cueRT	firstfixOnset	secondfixOnset	waitOnset	firstfixdur	secondfixdur	waitdur	nback_fbOnset	nback_response_time	nback_targetOnset	block	wm	trial	cue	cond	is_common	outcome_go	outcome_nogo	key_correct	key_pressed	is_correct	key_correct_nback	key_pressed_nback	is_correct_nback	outcome	rt	rt_nback	time_scan	time_onset	time_isi1	time_circle	time_isi2	time_feedback	time_same	time_correct	time_iti	time_done	timestamp_scan	DV	Qgo	Qnogo	SV	Wgo	Wnogo	mDV	Qchosen	Qunchosen	Wchosen	Wunchosen	PE	DVC	QgoC	QnogoC	SVC	WgoC	WnogoC	PEC	WchosenC	WunchosenC	QchosenC	QunchosenC	run	outcome_nback	nback_targetResp
0.0	5.954771700002311	go_reward	0.2809512999992876	0.029518999999709195	1.3852874000003794	3.930768199999875	1.3557684000006702	1.0339760999995633	2.9171122000007017	4.9379587000003085	0.3513113000008161	1.0136559999991732	1.046332000001712	n/a	1.0	n/a	2	0	61	2	go_reward	1	1	0	1	1	1	1	n/a	n/a	1	0.2809512999992876	1.0	2174.9414469999974	2174.970965999997	2175.975423099997	2176.326734399998	2177.858559199998	2178.8722151999973	n/a	n/a	2179.8794056999977	2180.9257376999994	2020-08-18 15:47:38.509238	7.66459812781513	7.96801771840885	0.0	7.96801771840885	7.66459812781513	0.0	-7.66459812781513	7.96801771840885	0.0	7.66459812781513	0.0	0.562078246923079	6.011258494090682	7.360155784858593	-0.12738653841802489	6.8463437456516	7.555732920040677	-0.12738653841802489	0.3808177391200586	6.719802437856667	0.708543943765985	6.806214592937844	0.4265546535027243	4	missed	0.0
6.000287200000457	6.03324369999973	nogo_punish	1.0	6.029806200000166	7.498066200001631	10.0127805000011	1.4682600000014645	7.034902400002466	9.003015400001459	11.019443699999101	0.46316379999916535	1.0097650999996404	1.043606200000795	n/a	1.0	n/a	2	0	62	3	nogo_punish	1	-1	0	0	0	1	0	n/a	n/a	0	1.0	1.0	2174.9414469999974	2180.9712531999976	2181.9763494	2182.439513199999	2183.944462399999	2184.9542274999985	n/a	n/a	2185.9608906999965	2187.0044968999973	2020-08-18 15:47:38.509238	1.68823569203229	-3.06563242217973	-2.00824328466951	-2.08954677065898	-3.6964789767018	-2.00824328466951	-1.68823569203229	-2.00824328466951	-3.06563242217973	-2.00824328466951	-3.6964789767018	2.00824328466951	0.034896058307841926	-3.673494355729987	-2.135629823087535	-3.2112207434162308	-3.8053441844762528	-2.135629823087535	1.8269827768664897	-2.953038974627973	-2.9879350329358147	-3.170046410140516	-2.639077768677006	4	missed	0.0
12.076601300002949	6.60624999999709	nogo_punish	1.0	12.106120300002658	13.951928599999519	16.469089300000633	1.845808299996861	13.110668100002385	15.456256600002689	17.47628629999963	0.8412604999971336	1.0128326999979436	1.236084000000119	n/a	1.0	n/a	2	0	63	3	nogo_punish	0	0	-1	0	0	1	0	n/a	n/a	-1	1.0	1.0	2174.9414469999974	2187.0475673	2188.0521151	2188.893375599997	2190.3977036	2191.410536299998	n/a	n/a	2192.417733299997	2193.653817299997	2020-08-18 15:47:38.509238	2.3290469993884	-3.06563242217973	-1.33383091951836	-1.38967115785715	-3.66287791890676	-1.33383091951836	-2.3290469993884	-1.33383091951836	-3.06563242217973	-1.33383091951836	-3.66287791890676	-7.692806272853329	0.6757073656639518	-3.673494355729987	-1.4612174579363848	-2.5113451306144006	-3.771743126681213	-1.4612174579363848	-7.874066780656349	-2.278626609476823	-2.954333975140775	-2.495634044989366	-2.639077768677006	4	missed	0.0
18.710215600000083	7.5323586000013165	nogo_reward	1.0	18.739734599999792	21.257931300002383	23.776540400001977	2.5181967000025907	19.744671300002665	22.76297220000197	24.78631410000162	1.5132599999997183	1.0135682000000088	1.4857790999994904	n/a	1.0	n/a	2	0	64	1	nogo_reward	1	0	1	0	0	1	0	n/a	n/a	1	1.0	1.0	2174.9414469999974	2193.681181599997	2194.6861183	2196.1993783	2197.7044191999994	2198.7179873999994	n/a	n/a	2199.727761099999	2201.2135401999985	2020-08-18 15:47:38.509238	5.73520749959063	2.91511372748966	8.35992547744558	8.41154693711569	2.62471797785495	8.35992547744558	-5.73520749959063	8.35992547744558	2.91511372748966	8.35992547744558	2.62471797785495	0.1701704878863488	4.081867865866182	2.307251793939403	8.232538939027556	7.289872964358439	2.515852770080497	8.232538939027556	-0.011090019916671523	7.415129787487118	3.333261921620935	7.1981223519745745	3.341668380992384	4	missed	0.0
26.287924200001726	6.264898499997798	nogo_punish	1.0	26.317443200001435	28.04328660000101	30.556414400001813	1.725843399999576	27.32252309999967	29.547616600000765	31.56345330000113	0.7207635000013397	1.008797800001048	1.0188883999981044	n/a	1.0	n/a	2	0	65	3	nogo_punish	1	-1	0	0	0	1	1	n/a	n/a	0	1.0	1.0	2174.9414469999974	2201.258890199999	2202.263970099997	2202.9847335999984	2204.489063599998	2205.4978613999992	n/a	n/a	2206.5049002999986	2207.5237886999967	2020-08-18 15:47:38.509238	-0.182125890180429	-3.06563242217973	-3.95680867980349	-3.99535495288911	-3.77468278962307	-3.95680867980349	0.182125890180429	-3.95680867980349	-3.06563242217973	-3.95680867980349	-3.77468278962307	3.95680867980349	-1.8354655239048772	-3.673494355729987	-4.084195218221515	-5.117028925646361	-3.883547997397523	-4.084195218221515	3.7755481720004695	-4.901604369761953	-3.066138845857085	-5.1186118052744956	-2.639077768677006	4	missed	0.0
32.59999080000125	5.971643900000345	nogo_punish	1.0	32.62950980000096	34.191975400000956	36.711004600001615	1.562465599999996	33.6345944000027	35.697332399999596	37.71823199999926	0.5573809999982586	1.01367220000202	0.8829217000020435	n/a	1.0	n/a	2	0	66	3	nogo_punish	0	0	-1	0	0	1	0	n/a	n/a	-1	1.0	1.0	2174.9414469999974	2207.5709567999984	2208.5760414	2209.1334223999984	2210.638779399997	2211.652451599999	n/a	n/a	2212.6596789999967	2213.5426006999987	2020-08-18 15:47:38.509238	1.11906416050494	-3.06563242217973	-2.5987043037211	-2.62544466679666	-3.71776846422604	-2.5987043037211	-1.11906416050494	-2.5987043037211	-3.06563242217973	-2.5987043037211	-3.71776846422604	-6.42793288865059	-0.5342754732195081	-3.673494355729987	-2.726090842139125	-3.7471186395539107	-3.8266336720004928	-2.726090842139125	-6.60919339645361	-3.543499993679563	-3.0092245204600547	-3.760507429192106	-2.639077768677006	4	missed	0.0
38.61467800000173	7.224487499999668	go_reward	0.3270393999991938	38.64419700000144	40.974399800001265	43.51657690000138	2.3302027999998245	39.64964080000209	42.50406560000238	44.523710199999186	1.324758999999176	1.0125112999990051	1.3449743000019225	n/a	1.0	n/a	2	0	67	2	go_reward	1	1	0	1	1	1	0	n/a	n/a	1	0.3270393999991938	1.0	2174.9414469999974	2213.585643999999	2214.5910877999995	2215.9158467999987	2217.4455126	2218.458023899999	n/a	n/a	2219.4651571999966	2220.8101314999985	2020-08-18 15:47:38.509238	7.85648034570654	8.15439670707372	0.0	8.15439670707372	7.85648034570654	0.0	-7.85648034570654	8.15439670707372	0.0	7.85648034570654	0.0	0.3756992582582086	6.203140711982092	7.546534773523463	-0.12738653841802489	7.03272273431647	7.747615137932087	-0.12738653841802489	0.19443875045518827	6.911684655748077	0.708543943765985	6.992593581602715	0.4265546535027243	4	missed	0.0
45.886374000001524	6.599001999999018	go_reward	0.3666026999999303	45.91589300000123	47.69770319999952	50.23864920000051	1.78181019999829	46.91995870000028	49.225981200001115	51.24614490000022	0.777744499999244	1.012667999999394	1.2687501000000339	n/a	1.0	n/a	2	0	68	2	go_reward	1	1	0	1	1	1	0	n/a	n/a	1	0.3666026999999303	1.0	2174.9414469999974	2220.8573399999987	2221.8614056999977	2222.639150199997	2224.1674281999985	2225.180096199998	n/a	n/a	2226.1875918999976	2227.4563419999977	2020-08-18 15:47:38.509238	7.98362662434673	8.27748045698674	0.0	8.27748045698674	7.98362662434673	0.0	-7.98362662434673	8.27748045698674	0.0	7.98362662434673	0.0	0.25261550834518864	6.330286990622282	7.669618523436483	-0.12738653841802489	7.15580648422949	7.874761416572277	-0.12738653841802489	0.07135500054216831	7.038830934388267	0.708543943765985	7.115677331515735	0.4265546535027243	4	missed	0.0
52.51132180000059	7.192848900002446	go_punish	0.2514909000019543	52.540840800000296	54.96586120000211	57.503865500002576	2.425020400001813	53.54448010000124	56.49454070000138	58.51031420000072	1.4213811000008718	1.0093248000011954	1.223375500002021	n/a	1.0	n/a	2	0	69	4	go_punish	1	0	-1	1	1	1	0	n/a	n/a	0	0.2514909000019543	1.0	2174.9414469999974	2227.4822877999977	2228.4859270999987	2229.9073081999995	2231.435987699999	2232.4453125	n/a	n/a	2233.451761199998	2234.6751367	2020-08-18 15:47:38.509238	0.231680888800855	-3.27901081518464	-4.18000607860327	-3.28220574786077	-3.94832518980241	-4.18000607860327	-0.231680888800855	-3.27901081518464	-4.18000607860327	-3.94832518980241	-4.18000607860327	3.27901081518464	-1.4216587449235931	-3.886872748734897	-4.3073926170212955	-4.40387972061802	-4.057190397576862	-4.3073926170212955	3.0977503073816197	-4.893120879760873	-3.471462134837285	-4.440813940655646	-3.753451425100546	4	missed	0.0
59.731621900002665	7.19122909999669	nogo_reward	1.0	59.761140900002374	62.4691679000025	64.9870766999993	2.708027000000129	60.76606739999988	63.973694300002535	65.99338350000107	1.7031005000026198	1.0133823999967717	0.9589864999979909	n/a	1.0	n/a	2	0	70	1	nogo_reward	1	0	1	0	0	1	0	n/a	n/a	1	1.0	1.0	2174.9414469999974	2234.7025879	2235.7075143999973	2237.4106149	2238.9151413	2239.9285236999967	n/a	n/a	2240.9348304999985	2241.8938169999965	2020-08-18 15:47:38.509238	5.78482223335293	2.91511372748966	8.41154693711569	8.44709878991343	2.62672470376276	8.41154693711569	-5.78482223335293	8.41154693711569	2.91511372748966	8.41154693711569	2.62672470376276	0.1185490282162398	4.131482599628482	2.307251793939403	8.284160398697665	7.325424817156179	2.517859495988307	8.284160398697665	-0.06271147958678053	7.466751247157227	3.335268647528745	7.2497438116446835	3.341668380992384	4	missed	0.0
66.95320180000272	7.632089799997175	nogo_reward	1.0	66.98272080000243	69.74135340000066	72.25936580000052	2.7586325999982364	67.98758459999954	71.24610930000199	73.26594350000278	1.7537688000011258	1.0132564999985334	1.3488670999968235	n/a	1.0	n/a	2	0	71	1	nogo_reward	1	0	1	0	0	1	0	n/a	n/a	1	1.0	1.0	2174.9414469999974	2241.9241678	2242.929031599997	2244.682800399998	2246.1875562999994	2247.200812799998	n/a	n/a	2248.2073905	2249.556257599997	2020-08-18 15:47:38.509238	5.81891713536038	2.91511372748966	8.44709878991343	8.4717066090877	2.62818165455305	8.44709878991343	-5.81891713536038	8.44709878991343	2.91511372748966	8.44709878991343	2.62818165455305	0.08299717541849994	4.165577501635932	2.307251793939403	8.319712251495405	7.35003263633045	2.519316446778597	8.319712251495405	-0.0982633323845204	7.5023030999549665	3.336725598319035	7.285295664442423	3.341668380992384	4	missed	0.0
74.63067000000228	7.3745500999975775	nogo_punish	1.0	74.66018900000199	77.1278413	79.6422229000018	2.467652299998008	75.66500680000172	78.63228390000268	80.64891740000166	1.46283449999828	1.0099389999991217	1.385821699997905	n/a	1.0	n/a	2	0	72	3	nogo_punish	1	-1	0	0	0	1	0	n/a	n/a	0	1.0	1.0	2174.9414469999974	2249.6016359999994	2250.606453799999	2252.0692882999974	2253.5737309	2254.583669899999	n/a	n/a	2255.590364399999	2256.976186099997	2020-08-18 15:47:38.509238	-0.970123843747686	-3.06563242217973	-4.78325762124661	-4.80189807503394	-3.81313377749892	-4.78325762124661	0.970123843747686	-4.78325762124661	-3.06563242217973	-4.78325762124661	-3.81313377749892	4.78325762124661	-2.623463477472134	-3.673494355729987	-4.910644159664635	-5.9235720477911915	-3.921998985273373	-4.910644159664635	4.6019971134435895	-5.728053311205072	-3.104589833732935	-5.9450607467176155	-2.639077768677006	4	missed	0.0
82.03546009999991	6.279124100001354	go_punish	0.3276089999999385	82.06497909999962	83.34064819999912	85.88072380000085	1.2756690999995044	83.06960049999907	84.87164409999968	86.88758149999921	0.27104770000005374	1.0090797000011662	1.4565217000017583	n/a	1.0	n/a	2	0	73	4	go_punish	1	0	-1	1	1	1	0	n/a	n/a	0	0.3276089999999385	1.0	2174.9414469999974	2257.006426099997	2258.0110474999965	2258.2820951999965	2259.813091099997	2260.8221707999983	n/a	n/a	2261.8290284999966	2263.2855501999984	2020-08-18 15:47:38.509238	1.4092868700541	-2.14641905718435	-4.18000607860327	-2.14969277270685	-2.77071920854917	-4.18000607860327	-1.4092868700541	-2.14641905718435	-4.18000607860327	-2.77071920854917	-4.18000607860327	2.14641905718435	-0.24405276367034823	-2.754280990734607	-4.3073926170212955	-3.2713667454641007	-2.879584416323623	-4.3073926170212955	1.9651585493813297	-3.715514898507633	-3.471462134837285	-3.308222182655356	-3.753451425100546	4	missed	0.0
88.34788950000075	7.093409000000975	nogo_reward	1.0	88.37740850000046	91.10716790000151	93.62559320000264	2.7297594000010577	89.38267970000015	92.61189730000115	94.63267339999948	1.7244882000013604	1.013695900001494	0.8381441000019549	n/a	1.0	n/a	2	0	74	1	nogo_reward	1	0	1	0	0	1	0	n/a	n/a	1	1.0	1.0	2174.9414469999974	2263.318855499998	2264.3241266999976	2266.048614899999	2267.5533442999986	2268.5670402	n/a	n/a	2269.574120399997	2270.412264499999	2020-08-18 15:47:38.509238	5.84246547578831	2.91511372748966	8.4717066090877	8.48882312451146	2.62924113329939	8.4717066090877	-5.84246547578831	8.4717066090877	2.91511372748966	8.4717066090877	2.62924113329939	0.05838935624422881	4.189125842063862	2.307251793939403	8.344320070669676	7.3671491517542105	2.520375925524937	8.344320070669676	-0.12287115155879152	7.526910919129238	3.337785077065375	7.3099034836166945	3.341668380992384	4	missed	0.0
95.48523310000019	6.759073900000658	go_reward	0.0033708999981172	95.5147520999999	97.51472520000243	100.05545920000077	1.999973100002535	96.51960189999954	99.04567280000265	101.06262369999968	0.9951233000028878	1.00978639999812	1.2112023000008776	n/a	1.0	n/a	2	0	75	2	go_reward	0	0	1	1	1	1	0	n/a	n/a	0	0.0033708999981172	1.0	2174.9414469999974	2270.4561990999973	2271.461048899997	2272.4561722	2273.9871198	2274.996906199998	n/a	n/a	2276.004070699997	2277.215272999998	2020-08-18 15:47:38.509238	8.06837638174801	8.35925459445875	0.0	8.35925459445875	8.06837638174801	0.0	-8.06837638174801	8.35925459445875	0.0	8.06837638174801	0.0	-8.35925459445875	6.415036748023562	7.751392660908493	-0.12738653841802489	7.2375806217015	7.9595111739735565	-0.12738653841802489	-8.540515102261772	7.123580691789547	0.708543943765985	7.197451468987745	0.4265546535027243	4	missed	0.0
102.28774669999984	6.260699500002829	go_reward	0.4650335000005725	102.31726569999955	103.6761746000011	106.22449410000263	1.358908900001552	103.32196100000147	105.20904000000155	107.23363000000245	0.354213599999639	1.0154541000010795	1.3443351999999322	n/a	1.0	n/a	2	0	76	2	go_reward	1	1	0	1	1	1	0	n/a	n/a	1	0.4650335000005725	1.0	2174.9414469999974	2277.258712699997	2278.263407999999	2278.6176215999985	2280.150486999999	2281.1659411	n/a	n/a	2282.175077	2283.5194122	2020-08-18 15:47:38.509238	5.15048628333553	5.49878899220846	0.0	5.49878899220846	5.15048628333553	0.0	-5.15048628333553	5.49878899220846	0.0	5.15048628333553	0.0	3.0313069731234696	3.497146649611082	4.890927058658203	-0.12738653841802489	4.3771150194512085	5.041621075561077	-0.12738653841802489	2.850046465320449	4.205690593377067	0.708543943765985	4.336985866737454	0.4265546535027243	4	missed	0.0
108.58055100000274	6.59916389999853	nogo_reward	1.0	108.61007000000245	110.30180340000152	112.81798170000229	1.691733399999066	109.61428330000126	111.8064054000024	113.8251044000026	0.6875201000002562	1.0115762999998879	1.3841294999983802	n/a	1.0	n/a	2	0	77	1	nogo_reward	1	0	1	0	0	1	0	n/a	n/a	1	1.0	1.0	2174.9414469999974	2283.551517	2284.5557302999987	2285.243250399999	2286.7478524	2287.7594286999997	n/a	n/a	2288.7665514	2290.1506808999984	2020-08-18 15:47:38.509238	5.85881011789805	2.91511372748966	8.48882312451146	8.50078620494344	2.6300130066134	8.48882312451146	-5.85881011789805	8.48882312451146	2.91511372748966	8.48882312451146	2.6300130066134	0.04127284082046856	4.205470484173602	2.307251793939403	8.361436586093436	7.3791122321861895	2.521147798838947	8.361436586093436	-0.13998766698255177	7.544027434552998	3.338556950379385	7.327019999040455	3.341668380992384	4	missed	0.0
115.20700220000072	7.052774899999349	nogo_reward	1.0	115.23652120000042	117.28318430000263	119.80034950000118	2.046663100002206	116.24159940000027	118.7877910999996	120.80768689999968	1.0415849000023627	1.0125584000015806	1.4816092000000936	n/a	1.0	n/a	2	0	78	1	nogo_reward	1	0	1	0	0	1	0	n/a	n/a	1	1.0	1.0	2174.9414469999974	2290.177968199998	2291.1830463999977	2292.2246313	2293.729238099997	2294.7417964999986	n/a	n/a	2295.749133899997	2297.230743099997	2020-08-18 15:47:38.509238	5.87020969099185	2.91511372748966	8.50078620494344	8.50918683370601	2.63057651395159	8.50078620494344	-5.87020969099185	8.50078620494344	2.91511372748966	8.50078620494344	2.63057651395159	0.029309760388489536	4.2168700572674025	2.307251793939403	8.373399666525415	7.38751286094876	2.5217113061771372	8.373399666525415	-0.1519507474145308	7.555990514984977	3.3391204577175753	7.338983079472434	3.341668380992384	4	missed	0.0
122.28809470000124	6.6737429999993765	nogo_reward	1.0	122.31761370000095	124.22216169999956	126.74089609999965	1.9045479999986128	123.32173220000232	125.72739650000267	127.74890950000236	0.9004294999972444	1.013499599996976	1.2424471999979687	n/a	1.0	n/a	2	0	79	1	nogo_reward	1	0	1	0	0	1	1	n/a	n/a	1	1.0	1.0	2174.9414469999974	2297.2590606999984	2298.2631791999997	2299.163608699997	2300.6688435	2301.682343099997	n/a	n/a	2302.6903565	2303.9328036999977	2020-08-18 15:47:38.509238	5.87819800515462	2.91511372748966	8.50918683370601	8.51511306812466	2.63098882855139	8.50918683370601	-5.87819800515462	8.50918683370601	2.91511372748966	8.50918683370601	2.63098882855139	0.020909131625918675	4.224858371430172	2.307251793939403	8.381800295287986	7.393439095367409	2.522123620776937	8.381800295287986	-0.16035137617710166	7.564391143747548	3.339532772317375	7.347383708235005	3.341668380992384	4	missed	0.0
129.01037769999994	6.884951200001979	nogo_punish	1.0	129.03989669999964	131.6499588000006	134.1644623999996	2.6100621000009596	130.04381950000243	133.1543746999996	135.17090180000014	1.6061392999981763	1.0100876999999855	0.7539461000014853	n/a	1.0	n/a	2	0	80	3	nogo_punish	1	-1	0	0	0	1	0	n/a	n/a	0	1.0	1.0	2174.9414469999974	2303.981343699997	2304.9852665	2306.591405799998	2308.095821699997	2309.105909399997	n/a	n/a	2310.1123487999976	2310.866294899999	2020-08-18 15:47:38.509238	0.602565189592511	-3.06563242217973	-3.14212048580767	-3.15517636264979	-3.74468567540018	-3.14212048580767	-0.602565189592511	-3.14212048580767	-3.06563242217973	-3.14212048580767	-3.74468567540018	3.14212048580767	-1.050774444131937	-3.673494355729987	-3.2695070242256947	-4.27685033540704	-3.853550883174633	-3.2695070242256947	2.9608599780046494	-4.086916175766133	-3.0361417316341948	-4.303923611278676	-2.639077768677006	4	missed	0.0
135.92735520000133	6.851361199998792	nogo_reward	1.0	135.95687420000104	138.12545690000115	140.64255480000065	2.1685827000001154	136.96214450000116	139.63000060000195	141.6497743	1.1633123999999953	1.0125541999987036	1.1584610999998404	n/a	1.0	n/a	2	0	81	1	nogo_reward	1	0	1	0	0	1	1	n/a	n/a	1	1.0	1.0	2174.9414469999974	2310.8983211999985	2311.9035914999986	2313.0669038999986	2314.5714475999994	2315.584001799998	n/a	n/a	2316.5912212999974	2317.7496823999973	2020-08-18 15:47:38.509238	5.88382183002352	2.91511372748966	8.51511306812466	8.51931261791682	2.63129123810114	8.51511306812466	-5.88382183002352	8.51511306812466	2.91511372748966	8.51511306812466	2.63129123810114	0.014982897207270085	4.230482196299072	2.307251793939403	8.387726529706635	7.397638645159569	2.522426030326687	8.387726529706635	-0.16627761059575025	7.570317378166196	3.3398351818671252	7.353309942653653	3.341668380992384	4	missed	0.0
142.80429490000097	6.3415520999988075	go_punish	0.3493940000007569	142.83381390000068	144.49880509999957	147.03911860000153	1.6649911999988944	143.838638600002	146.02918860000136	148.04578210000182	0.6601664999975583	1.0099300000001676	1.1295838999976695	n/a	1.0	n/a	2	0	82	4	go_punish	1	0	-1	1	1	1	0	n/a	n/a	0	0.3493940000007569	1.0	2174.9414469999974	2317.775260899998	2318.7800855999994	2319.440252099997	2320.970635599999	2321.980565599999	n/a	n/a	2322.9872290999992	2324.116812999997	2020-08-18 15:47:38.509238	2.1732286881693	-1.41412522430912	-4.18000607860327	-1.41712340081612	-2.00677739043397	-4.18000607860327	-2.1732286881693	-1.41412522430912	-4.18000607860327	-2.00677739043397	-4.18000607860327	1.41412522430912	0.519889054444852	-2.021987157859377	-4.3073926170212955	-2.5387973735733707	-2.115642598208423	-4.3073926170212955	1.2328647165060997	-2.951573080392433	-3.471462134837285	-2.575928349780126	-3.753451425100546	4	missed	0.0
149.19170410000106	5.804435300000932	go_reward	0.5597767999970529	149.22122310000077	150.72440130000177	153.26215209999964	1.5031782000010026	150.2247438000013	152.25335479999922	154.2695502000024	0.4996575000004668	1.008797300000424	0.7561081999992894	n/a	1.0	n/a	2	0	83	2	go_reward	0	0	1	1	1	1	0	n/a	n/a	0	0.5597767999970529	1.0	2174.9414469999974	2324.162670099998	2325.1661907999987	2325.665848299999	2327.1948017999966	2328.203599099997	n/a	n/a	2329.2109972	2329.967105399999	2020-08-18 15:47:38.509238	6.22235901790939	6.55542324304008	0.0	6.55542324304008	6.22235901790939	0.0	-6.22235901790939	6.55542324304008	0.0	6.22235901790939	0.0	-6.55542324304008	4.5690193841849425	5.9475613094898225	-0.12738653841802489	5.43374927028283	6.113493810134937	-0.12738653841802489	-6.7366837508431	5.2775633279509275	0.708543943765985	5.393620117569074	0.4265546535027243	4	missed	0.0
155.0426249000011	5.82380700000067	nogo_punish	1.0	155.0721439000008	156.46348610000132	158.97675290000234	1.3913422000005085	156.07594210000025	157.9680769000006	159.98377020000044	0.38754400000107125	1.008676000001742	0.9121807000010449	n/a	1.0	n/a	2	0	84	3	nogo_punish	1	-1	0	0	0	1	0	n/a	n/a	0	1.0	1.0	2174.9414469999974	2330.0135908999982	2331.0173890999977	2331.4049330999987	2332.909523899998	2333.9181998999998	n/a	n/a	2334.925217199998	2335.837397899999	2020-08-18 15:47:38.509238	1.61952905494998	-3.06563242217973	-2.07713939985043	-2.08632639748813	-3.69666845480041	-2.07713939985043	-1.61952905494998	-2.07713939985043	-3.06563242217973	-2.07713939985043	-3.69666845480041	2.07713939985043	-0.03381057877446825	-3.673494355729987	-2.2045259382684548	-3.2080003702453808	-3.805533662574863	-2.2045259382684548	1.8958788920474097	-3.021935089808893	-2.988124511034425	-3.238942525321436	-2.639077768677006	4	missed	0.0
160.8937920999997	6.270845300001383	nogo_reward	1.0	160.9233110999994	162.77124360000016	165.2851883000003	1.847932500000752	161.92842120000205	164.27619170000253	166.29192930000136	0.8428223999981128	1.0089965999977721	0.9022270999994362	n/a	1.0	n/a	2	0	85	1	nogo_reward	0	1	0	0	0	1	0	n/a	n/a	0	1.0	1.0	2174.9414469999974	2335.864758099997	2336.8698681999995	2337.7126905999976	2339.2176387	2340.2266352999977	n/a	n/a	2341.233376299999	2342.135603399998	2020-08-18 15:47:38.509238	5.88779902261969	2.91511372748966	8.51931261791682	8.52230173938176	2.63151359529713	8.51931261791682	-5.88779902261969	8.51931261791682	2.91511372748966	8.51931261791682	2.63151359529713	-8.51931261791682	4.234459388895242	2.307251793939403	8.391926079498795	7.40062776662451	2.522648387522677	8.391926079498795	-8.70057312571984	7.574516927958356	3.340057539063115	7.357509492445813	3.341668380992384	4	missed	0.0
167.21409080000012	7.373726000001625	go_reward	0.4686897000028693	167.24360979999983	170.20547290000104	172.74876140000197	2.96186310000121	168.25017260000095	171.73532940000268	173.75499130000026	1.95530030000009	1.013431999999284	0.8623445000011998	n/a	1.0	n/a	2	0	86	2	go_reward	1	1	0	1	1	1	0	n/a	n/a	1	0.4686897000028693	1.0	2174.9414469999974	2342.1850567999973	2343.1916195999984	2345.1469198999985	2346.6767764	2347.6902083999994	n/a	n/a	2348.6964382999977	2349.558782799999	2020-08-18 15:47:38.509238	3.93993613858483	4.32012385788173	0.0	4.32012385788173	3.93993613858483	0.0	-3.93993613858483	4.32012385788173	0.0	3.93993613858483	0.0	4.2099721074501995	2.2865965048603822	3.712261924331473	-0.12738653841802489	3.198449885124479	3.831070930810377	-0.12738653841802489	4.028711599647179	2.9951404486263673	0.708543943765985	3.158320732410724	0.4265546535027243	4	missed	0.0
174.63438099999985	5.996233199999551	nogo_punish	1.0	174.66389999999956	176.20382529999915	178.71703360000174	1.5399252999995952	175.6687110999992	177.70828149999943	179.72418800000014	0.5351141999999527	1.0087521000023116	0.9359451999989687	n/a	1.0	n/a	2	0	87	3	nogo_punish	1	-1	0	0	0	1	0	n/a	n/a	0	1.0	1.0	2174.9414469999974	2349.605346999997	2350.6101580999966	2351.1452722999966	2352.649728499997	2353.658480599999	n/a	n/a	2354.6656349999976	2355.6015801999965	2020-08-18 15:47:38.509238	2.28147944437917	-3.06563242217973	-1.38156419024167	-1.38805827893502	-3.66304363462085	-1.38156419024167	-2.28147944437917	-1.38156419024167	-3.06563242217973	-1.38156419024167	-3.66304363462085	1.38156419024167	0.6281398106547218	-3.673494355729987	-1.5089507286596948	-2.5097322516922707	-3.771908842395303	-1.5089507286596948	1.2003036824386497	-2.326359880200133	-2.954499690854865	-2.543367315712676	-2.639077768677006	4	missed	0.0
180.67382329999964	6.418467700001202	nogo_punish	1.0	180.70334229999935	182.36305580000044	184.87664760000234	1.6597135000010894	181.70758710000155	183.86773330000142	185.88361649999933	0.6554686999988917	1.0089143000009244	1.2381935000012163	n/a	1.0	n/a	2	0	88	3	nogo_punish	1	-1	0	0	0	1	0	n/a	n/a	0	1.0	1.0	2174.9414469999974	2355.644789299997	2356.649034099999	2357.304502799998	2358.809180299999	2359.8180945999998	n/a	n/a	2360.8250634999968	2362.063256999998	2020-08-18 15:47:38.509238	2.71509890983885	-3.06563242217973	-0.924410709392675	-0.92902176482181	-3.63950961923153	-0.924410709392675	-2.71509890983885	-0.924410709392675	-3.06563242217973	-0.924410709392675	-3.63950961923153	0.924410709392675	1.0617592761144017	-3.673494355729987	-1.0517972478106998	-2.0506957375790607	-3.748374827005983	-1.0517972478106998	0.7431502015896547	-1.8692063993511379	-2.930965675465545	-2.086213834863681	-2.639077768677006	4	missed	0.0
187.1404653999998	7.2024235000030785	go_reward	0.3467901000003621	187.16998439999952	189.38635530000101	191.92582210000182	2.2163709000014933	188.17504950000148	190.9170277000012	192.9329768000025	1.2113057999995362	1.0087944000006246	1.4394311000000926	n/a	1.0	n/a	2	0	89	2	go_reward	0	0	1	1	1	1	0	n/a	n/a	0	0.3467901000003621	1.0	2174.9414469999974	2362.111431399997	2363.116496499999	2364.3278022999984	2365.8584746999986	2366.8672690999992	n/a	n/a	2367.8744238	2369.3138549	2020-08-18 15:47:38.509238	5.42359433635748	5.78037529342975	0.0	5.78037529342975	5.42359433635748	0.0	-5.42359433635748	5.78037529342975	0.0	5.42359433635748	0.0	-5.78037529342975	3.770254702633032	5.172513359879494	-0.12738653841802489	4.658701320672499	5.314729128583027	-0.12738653841802489	-5.96163580123277	4.478798646399017	0.708543943765985	4.618572167958744	0.4265546535027243	4	missed	0.0
194.38579709999976	6.478675500002282	go_reward	0.3329257000004872	194.41531609999947	196.3900892999991	198.93376680000074	1.9747731999996176	195.41878540000107	197.92051440000068	199.941029900001	0.9713038999980199	1.0132524000000558	0.952961700000742	n/a	1.0	n/a	2	0	90	2	go_reward	1	1	0	1	1	1	0	n/a	n/a	1	0.3329257000004872	1.0	2174.9414469999974	2369.356763099997	2370.3602323999985	2371.3315362999965	2372.861961399998	2373.875213799998	n/a	n/a	2374.8824768999984	2375.835438599999	2020-08-18 15:47:38.509238	3.40970744094768	3.80735052763419	0.0	3.80735052763419	3.40970744094768	0.0	-3.40970744094768	3.80735052763419	0.0	3.40970744094768	0.0	4.722745437697739	1.756367807223232	3.1994885940839333	-0.12738653841802489	2.6856765548769395	3.3008422331732272	-0.12738653841802489	4.541484929894719	2.4649117509892173	0.708543943765985	2.645547402163184	0.4265546535027243	4	missed	0.0
200.90820110000277	6.877682799997274	go_reward	0.3170922999997856	200.93772010000248	203.3750327000016	205.9151760000027	2.4373125999991316	201.9422240999993	204.9024420000028	206.92247350000252	1.4328086000023177	1.0127339999999094	0.8929293999972288	n/a	1.0	n/a	2	0	91	2	go_reward	1	1	0	1	1	1	1	n/a	n/a	1	0.3170922999997856	1.0	2174.9414469999974	2375.8791671	2376.8836710999967	2378.316479699999	2379.843889	2380.856623	n/a	n/a	2381.8639205	2382.756849899997	2020-08-18 15:47:38.509238	5.06956219498082	5.43910039015777	0.0	5.43910039015777	5.06956219498082	0.0	-5.06956219498082	5.43910039015777	0.0	5.06956219498082	0.0	3.0909955751741593	3.4162225612563724	4.8312384566075135	-0.12738653841802489	4.317426417400519	4.960696987206367	-0.12738653841802489	2.909735067371139	4.124766505022357	0.708543943765985	4.277297264686764	0.4265546535027243	4	missed	0.0
207.81410840000171	6.305750999999873	go_punish	0.5161700999997265	207.84362740000142	209.60800619999964	212.14574859999993	1.7643787999982123	208.84813310000027	211.13584959999935	213.1525259000009	0.7598730999993677	1.009899000000587	0.9968525000003865	n/a	1.0	n/a	2	0	92	4	go_punish	1	0	-1	1	1	1	0	n/a	n/a	0	0.5161700999997265	1.0	2174.9414469999974	2382.785074399999	2383.7895800999977	2384.549453199997	2386.0772965999968	2387.0871955999974	n/a	n/a	2388.0939728999983	2389.0908253999987	2020-08-18 15:47:38.509238	2.67203072059603	-0.937515578177204	-4.18000607860327	-0.940103191204433	-1.50797535800724	-4.18000607860327	-2.67203072059603	-0.937515578177204	-4.18000607860327	-1.50797535800724	-4.18000607860327	0.937515578177204	1.0186910868715817	-1.5453775117274609	-4.3073926170212955	-2.0617771639616835	-1.6168405657816929	-4.3073926170212955	0.7562550703741837	-2.4527710479657028	-3.471462134837285	-2.09931870364821	-3.753451425100546	4	missed	0.0
214.17128539999976	6.082323000002816	nogo_punish	1.0	214.20080439999947	215.76269479999974	218.27611700000125	1.5618904000002658	215.20573589999958	217.26740970000174	219.2830554999996	0.5569589000001542	1.0087072999995144	1.0000719000026947	n/a	1.0	n/a	2	0	93	3	nogo_punish	1	-1	0	0	0	1	0	n/a	n/a	0	1.0	1.0	2174.9414469999974	2389.142251399997	2390.147182899997	2390.704141799997	2392.208856699999	2393.2175639999987	n/a	n/a	2394.224502499997	2395.2245743999997	2020-08-18 15:47:38.509238	3.00090466202673	-3.06563242217973	-0.622126877903863	-0.625415256818662	-3.62303153993059	-0.622126877903863	-3.00090466202673	-0.622126877903863	-3.06563242217973	-0.622126877903863	-3.62303153993059	0.622126877903863	1.347565028302282	-3.673494355729987	-0.749513416321888	-1.7470892295759126	-3.731896747705043	-0.749513416321888	0.4408663701008427	-1.566922567862326	-2.914487596164605	-1.783930003374869	-2.639077768677006	4	missed	0.0
220.27916040000127	5.863747300001705	go_punish	0.8336672999976145	220.30867940000098	221.67444199999954	224.21220829999947	1.3657625999985612	221.3136861000021	223.203571500002	225.218516500001	0.36075589999745716	1.0086367999974755	0.953910200001701	n/a	1.0	n/a	2	0	94	4	go_punish	1	0	-1	1	1	1	1	n/a	n/a	0	0.8336672999976145	1.0	2174.9414469999974	2395.2501263999984	2396.2551330999995	2396.615888999997	2398.1450184999994	2399.153655299997	n/a	n/a	2400.1599634999984	2401.1138737	2020-08-18 15:47:38.509238	2.99976028799992	-0.62533047153697	-4.18000607860327	-0.627485187068171	-1.18024579060334	-4.18000607860327	-2.99976028799992	-0.62533047153697	-4.18000607860327	-1.18024579060334	-4.18000607860327	0.62533047153697	1.346420654275472	-1.2331924050872267	-4.3073926170212955	-1.7491591598254217	-1.2891109983777929	-4.3073926170212955	0.44406996373394964	-2.1250414805618028	-3.471462134837285	-1.7871335970079758	-3.753451425100546	4	missed	0.0
226.19292190000124	6.513326799999049	nogo_punish	1.0	226.22244090000095	228.00594180000235	230.5192687000017	1.7835009000013997	227.22693870000148	229.5106792000006	231.5267564000028	0.7790031000008639	1.0085895000011078	1.2090112999972007	n/a	1.0	n/a	2	0	95	3	nogo_punish	1	-1	0	0	0	1	1	n/a	n/a	0	1.0	1.0	2174.9414469999974	2401.1638878999984	2402.168385699999	2402.9473887999998	2404.452126199998	2405.460715699999	n/a	n/a	2406.4682034	2407.6772146999974	2020-08-18 15:47:38.509238	3.19041599519183	-3.06563242217973	-0.421065285716375	-0.423420476191875	-3.6114812809082	-0.421065285716375	-3.19041599519183	-0.421065285716375	-3.06563242217973	-0.421065285716375	-3.6114812809082	0.421065285716375	1.537076361467382	-3.673494355729987	-0.5484518241343999	-1.5450944489491256	-3.720346488682653	-0.5484518241343999	0.2398047779133547	-1.3658609756748379	-2.902937337142215	-1.582868411187381	-2.639077768677006	4	missed	0.0
232.73379270000078	6.533910900001501	go_punish	0.4174044999999751	232.7633117000005	234.73273239999935	237.26939879999918	1.9694206999988637	233.76822430000175	236.2605136999996	238.27655779999986	0.9645080999976017	1.0088850999995884	1.0206648000021232	n/a	1.0	n/a	2	0	96	4	go_punish	1	0	-1	1	1	1	1	n/a	n/a	0	0.4174044999999751	1.0	2174.9414469999974	2407.704758699998	2408.709671299999	2409.674179399997	2411.201960699997	2412.2108457999966	n/a	n/a	2413.2180047999973	2414.2386695999994	2020-08-18 15:47:38.509238	3.21640245341669	-0.41957599918513	-4.18000607860327	-0.421328930035003	-0.963603625186579	-4.18000607860327	-3.21640245341669	-0.41957599918513	-4.18000607860327	-0.963603625186579	-4.18000607860327	0.41957599918513	1.5630628196922418	-1.0274379327353869	-4.3073926170212955	-1.5430029027922536	-1.072468832961032	-4.3073926170212955	0.23831549138210967	-1.9083993151450418	-3.471462134837285	-1.581379124656136	-3.753451425100546	4	missed	0.0
239.31368870000006	6.275144499999442	nogo_punish	1.0	239.34320769999977	240.90728110000055	243.4218433999995	1.5640734000007797	240.34649659999923	242.4121266000002	244.42913229999976	0.5607845000013185	1.0097167999992962	1.1892198999994434	n/a	1.0	n/a	2	0	97	3	nogo_punish	1	-1	0	0	0	1	1	n/a	n/a	0	1.0	1.0	2174.9414469999974	2414.284654699997	2415.2879435999967	2415.848728099998	2417.3535735999976	2418.363290399997	n/a	n/a	2419.370579299997	2420.5597991999966	2020-08-18 15:47:38.509238	3.31681130531498	-3.06563242217973	-0.286560764425032	-0.288254702829805	-3.60337206974001	-0.286560764425032	-3.31681130531498	-0.286560764425032	-3.06563242217973	-0.286560764425032	-3.60337206974001	0.286560764425032	1.6634716715905318	-3.673494355729987	-0.41394730284305686	-1.4099286755870557	-3.712237277514463	-0.41394730284305686	0.10530025662201165	-1.2313564543834947	-2.894828125974025	-1.4483638898960378	-2.639077768677006	4	missed	0.0
245.61689780000233	6.162341799998103	go_punish	0.4585077000010642	245.64641680000204	246.97745879999957	249.51819030000115	1.3310419999975238	246.65178419999938	248.50574210000195	250.5257500000007	0.325674600000184	1.0124481999991986	1.283008599999448	n/a	1.0	n/a	2	0	98	4	go_punish	0	-1	0	1	1	1	1	n/a	n/a	-1	0.4585077000010642	1.0	2174.9414469999974	2420.5878637999995	2421.593231199997	2421.918905799997	2423.4471890999994	2424.4596372999986	n/a	n/a	2425.467196999998	2426.7502055999976	2020-08-18 15:47:38.509238	3.36046062258376	-0.283149806268001	-4.18000607860327	-0.284553439935293	-0.819545456019507	-4.18000607860327	-3.36046062258376	-0.283149806268001	-4.18000607860327	-0.819545456019507	-4.18000607860327	-8.743487386103688	1.7071209888593117	-0.8910117398182579	-4.3073926170212955	-1.4062274126925436	-0.92841066379396	-4.3073926170212955	-8.924747893906709	-1.7643411459779699	-3.471462134837285	-1.444952931739007	-3.753451425100546	4	missed	0.0
251.81386789999988	7.257882500002779	nogo_reward	1.0	251.8433868999996	254.60413790000166	257.1178891000018	2.760751000002074	252.8470814999996	256.108192300002	258.12411930000235	1.7570564000020568	1.0096967999998014	0.9771501000000171	n/a	1.0	n/a	2	0	99	1	nogo_reward	0	1	0	0	0	1	0	n/a	n/a	0	1.0	1.0	2174.9414469999974	2426.784833899997	2427.788528499997	2429.545584899999	2431.0496392999994	2432.059336099999	n/a	n/a	2433.0655663	2434.0427164	2020-08-18 15:47:38.509238	3.03510337781687	2.91511372748966	5.6071880118921	5.6093248065528	2.57208463407523	5.6071880118921	-3.03510337781687	5.6071880118921	2.91511372748966	5.6071880118921	2.57208463407523	-5.6071880118921	1.381763744092422	2.307251793939403	5.479801473474074	4.4876508337955485	2.463219426300777	5.479801473474074	-5.78844851969512	4.662392321933637	3.280628577841215	4.445384886421094	3.341668380992384	4	missed	0.0
259.0989202000019	7.0658201000010195	nogo_reward	1.0	259.1284392000016	261.89657029999944	264.41446630000064	2.768131099997845	260.1325256000023	263.4011423000011	265.4217988000023	1.7640446999971573	1.0133239999995567	0.7724605000003066	n/a	1.0	n/a	2	0	100	1	nogo_reward	1	0	1	0	0	1	0	n/a	n/a	1	1.0	1.0	2174.9414469999974	2434.069886199999	2435.0739725999997	2436.838017299997	2438.3425892999985	2439.355913299998	n/a	n/a	2440.3632457999997	2441.1357063	2020-08-18 15:47:38.509238	1.18783940167768	2.91511372748966	3.71411570975533	3.71564970261531	2.52627630807765	3.71411570975533	-1.18783940167768	3.71411570975533	2.91511372748966	3.71411570975533	2.52627630807765	4.8159802555766	-0.46550023204676805	2.307251793939403	3.5867291713373053	2.5939757298580592	2.417411100303197	3.5867291713373053	4.6347197477735795	2.7693200197968673	3.234820251843635	2.552312584284324	3.341668380992384	4	missed	0.0
266.2114658999999	6.51763740000024	go_reward	0.3014188000015565	266.2409848999996	268.28154580000046	270.82518560000244	2.0405609000008553	267.24534720000156	269.812826100002	271.83189730000277	1.0361985999988974	1.012359500000457	0.9267249999970772	n/a	1.0	n/a	2	0	101	2	go_reward	1	1	0	1	1	1	0	n/a	n/a	1	0.3014188000015565	1.0	2174.9414469999974	2441.182431899997	2442.186794199999	2443.222992799998	2444.7542730999994	2445.7666326	n/a	n/a	2446.7733443	2447.7000692999973	2020-08-18 15:47:38.509238	6.1466807393451	6.49401209736909	0.0	6.49401209736909	6.1466807393451	0.0	-6.1466807393451	6.49401209736909	0.0	6.1466807393451	0.0	2.036083867962839	4.493341105620652	5.886150163818833	-0.12738653841802489	5.37233812461184	6.037815531570647	-0.12738653841802489	1.8548233601598187	5.201885049386637	0.708543943765985	5.332208971898084	0.4265546535027243	4	missed	0.0
272.7748150000007	6.342390099998738	nogo_punish	1.0	272.8043340000004	274.6633916999999	277.17690819999916	1.8590576999995392	273.80822669999907	276.1680352000003	278.1838914	0.8551650000008522	1.0088729999988573	0.9628326999991259	n/a	1.0	n/a	2	0	102	3	nogo_punish	1	-1	0	0	0	1	0	n/a	n/a	0	1.0	1.0	2174.9414469999974	2447.745780999998	2448.7496736999965	2449.6048386999973	2451.1094821999977	2452.1183551999966	n/a	n/a	2453.1253383999974	2454.0881710999965	2020-08-18 15:47:38.509238	3.40159124117502	-3.06563242217973	-0.196076023859542	-0.197299407850991	-3.59766726503456	-0.196076023859542	-3.40159124117502	-0.196076023859542	-3.06563242217973	-0.196076023859542	-3.59766726503456	0.196076023859542	1.748251607450572	-3.673494355729987	-0.32346256227756687	-1.3189733806082418	-3.706532472809013	-0.32346256227756687	0.014815516056521677	-1.140871713818005	-2.889123321268575	-1.357879149330548	-2.639077768677006	4	missed	0.0
279.1436168	7.268326200002775	nogo_reward	1.0	279.1731357999997	281.7137600999995	284.22700199999963	2.540624299999763	280.1773166000021	283.21819120000146	285.23437390000254	1.5364434999974037	1.008810799998173	1.2070880999999645	n/a	1.0	n/a	2	0	103	1	nogo_reward	0	1	0	0	0	1	0	n/a	n/a	0	1.0	1.0	2174.9414469999974	2454.114582799997	2455.1187635999995	2456.655207099997	2458.159638199999	2459.168448999997	n/a	n/a	2460.1758209	2461.382909	2020-08-18 15:47:38.509238	2.83918728784354	2.91511372748966	5.39054411511131	5.39164994824403	2.55135682726777	5.39054411511131	-2.83918728784354	5.39054411511131	2.91511372748966	5.39054411511131	2.55135682726777	-5.39054411511131	1.1858476541190919	2.307251793939403	5.263157576693285	4.26997597548678	2.442491619493317	5.263157576693285	-5.57180462291433	4.445748425152847	3.259900771033755	4.228740989640304	3.341668380992384	4	missed	0.0
286.44256940000196	6.314247700000124	nogo_reward	1.0	286.47208840000167	287.7913268000011	290.31047860000035	1.319238399999449	287.4766711000011	289.2975168000012	291.31785300000047	0.314655700000003	1.0129617999991751	1.4684831000013219	n/a	1.0	n/a	2	0	104	1	nogo_reward	1	0	1	0	0	1	0	n/a	n/a	1	1.0	1.0	2174.9414469999974	2461.413535399999	2462.4181180999985	2462.7327737999985	2464.2389637999986	2465.251925599998	n/a	n/a	2466.259299999998	2467.727783099999	2020-08-18 15:47:38.509238	1.04292883390928	2.91511372748966	3.55500276299747	3.55580320054164	2.51207392908819	3.55500276299747	-1.04292883390928	3.55500276299747	2.91511372748966	3.55500276299747	2.51207392908819	4.97509320233446	-0.6104107998151682	2.307251793939403	3.4276162245794453	2.434129227784389	2.403208721313737	3.4276162245794453	4.79383269453144	2.6102070730390072	3.220617872854175	2.393199637526464	3.341668380992384	4	missed	0.0
292.78358780000053	7.208032800001092	nogo_reward	1.0	292.81310680000024	295.0917045000024	297.60879689999956	2.2785977000021376	293.81797670000014	296.59630910000124	298.6162614999994	1.2737278000022343	1.0124877999983255	1.4048781000019517	n/a	1.0	n/a	2	0	105	1	nogo_reward	1	0	1	0	0	1	1	n/a	n/a	1	1.0	1.0	2174.9414469999974	2467.7545537999977	2468.7594236999976	2470.0331515	2471.5377560999987	2472.550243899997	n/a	n/a	2473.557708499997	2474.9625865999988	2020-08-18 15:47:38.509238	2.73325114347368	2.91511372748966	5.27475803093034	5.27533973793995	2.54150688745666	5.27475803093034	-2.73325114347368	5.27475803093034	2.91511372748966	5.27475803093034	2.54150688745666	3.255337934401589	1.079911509749232	2.307251793939403	5.147371492512315	4.1536657651827	2.4326416796822072	5.147371492512315	3.0740774265985684	4.3299623409718775	3.2500508312226453	4.112954905459334	3.341668380992384	4	missed	0.0
300.01951030000055	6.2782312000017555	nogo_reward	1.0	300.04902930000026	301.6994670999993	304.2178296999996	1.6504377999990538	301.0543644999998	303.2046291000006	305.2244150000006	0.6451025999995181	1.0132005999989815	1.102845500001422	n/a	1.0	n/a	2	0	106	1	nogo_reward	1	0	1	0	0	1	1	n/a	n/a	1	1.0	1.0	2174.9414469999974	2474.9904762999977	2475.995811499997	2476.6409140999967	2478.146076099998	2479.159276699997	n/a	n/a	2480.165861999998	2481.2687074999994	2020-08-18 15:47:38.509238	3.82158949141027	2.91511372748966	6.38635571324719	6.38678012664254	2.56476622183692	6.38635571324719	-3.82158949141027	6.38635571324719	2.91511372748966	6.38635571324719	2.56476622183692	2.143740252084739	2.1682498576858222	2.307251793939403	6.258969174829165	5.26510615388529	2.455901014062467	6.258969174829165	1.9624797442817188	5.441560023288727	3.273310165602905	5.224552587776184	3.341668380992384	4	missed	0.0
306.32617780000146	6.245618500001456	go_punish	0.6718067999972845	306.35569680000117	307.7021843000002	310.2439030000028	1.346487499999057	307.36052689999997	309.2337187000012	311.2517270999997	0.34165740000025835	1.0101843000015833	1.349588200002927	n/a	1.0	n/a	2	0	107	4	go_punish	1	0	-1	1	1	1	0	n/a	n/a	0	0.6718067999972845	1.0	2174.9414469999974	2481.2971437999986	2482.3019738999974	2482.6436312999977	2484.1751656999986	2485.18535	n/a	n/a	2486.193174099997	2487.5427623	2020-08-18 15:47:38.509238	0.255860023844102	-3.25779349069639	-4.18000607860327	-3.25890503829104	-3.92414605475917	-4.18000607860327	-0.255860023844102	-3.25779349069639	-4.18000607860327	-3.92414605475917	-4.18000607860327	3.25779349069639	-1.3974796098803461	-3.865655424246647	-4.3073926170212955	-4.38057901104829	-4.033011262533623	-4.3073926170212955	3.0765329828933696	-4.868941744717633	-3.471462134837285	-4.4195966161673965	-3.753451425100546	4	missed	0.0
312.6000617000027	7.749546499999269	nogo_reward	1.0	312.6295807000024	315.46324070000264	317.9810789000003	2.8336600000002363	313.63478980000264	316.9684804000026	318.98729799999956	1.828450900000007	1.0125984999976936	1.391829200002121	n/a	1.0	n/a	2	0	108	1	nogo_reward	1	0	1	0	0	1	1	n/a	n/a	1	1.0	1.0	2174.9414469999974	2487.5710277	2488.5762368	2490.4046877	2491.9099274	2492.9225258999977	n/a	n/a	2493.928744999997	2495.320574199999	2020-08-18 15:47:38.509238	4.5270327763384	2.91511372748966	7.10959384144891	7.10990469248659	2.58256106511051	7.10959384144891	-4.5270327763384	7.10959384144891	2.91511372748966	7.10959384144891	2.58256106511051	1.4205021238830193	2.873693142613952	2.307251793939403	6.982207303030885	5.988230719729339	2.473695857336057	6.982207303030885	1.239241616079999	6.164798151490447	3.291105008876495	5.947790715977904	3.341668380992384	4	missed	0.0
320.377235400003	6.932710300000053	nogo_reward	1.0	320.4067544000027	322.3254887000003	324.8429290999993	1.9187342999975954	321.4113832000003	323.82998489999954	325.84975309999936	0.9141055000000051	1.0129441999997653	1.4897116000033748	n/a	1.0	n/a	2	0	109	1	nogo_reward	1	0	1	0	0	1	0	n/a	n/a	1	1.0	1.0	2174.9414469999974	2495.3482014	2496.3528301999977	2497.2669356999977	2498.771431899997	2499.7843760999967	n/a	n/a	2500.791200099997	2502.2809117	2020-08-18 15:47:38.509238	4.98724802094937	2.91511372748966	7.58314734787172	7.58337588991861	2.59589932692236	7.58314734787172	-4.98724802094937	7.58314734787172	2.91511372748966	7.58314734787172	2.59589932692236	0.9469486174602091	3.3339083872249224	2.307251793939403	7.455760809453695	6.46170191716136	2.487034119147907	7.455760809453695	0.7656881096571888	6.638351657913257	3.304443270688345	6.421344222400714	3.341668380992384	4	missed	0.0
327.36075809999966	6.651102700001502	nogo_punish	1.0	327.39027709999937	329.2056833000024	331.7205251000014	1.8154062000030535	328.3946672999996	330.7106779000028	332.7268812000002	0.8110160000028372	1.0098471999986032	1.314498600000661	n/a	1.0	n/a	2	0	110	3	nogo_punish	1	-1	0	0	0	1	0	n/a	n/a	0	1.0	1.0	2174.9414469999974	2502.331724099997	2503.336114299997	2504.1471303	2505.6521249	2506.661972099999	n/a	n/a	2507.6683281999976	2508.9828267999983	2020-08-18 15:47:38.509238	3.45877342497673	-3.06563242217973	-0.134871196133371	-0.135758330276147	-3.5936446211101	-0.134871196133371	-3.45877342497673	-0.134871196133371	-3.06563242217973	-0.134871196133371	-3.5936446211101	0.134871196133371	1.805433791252282	-3.673494355729987	-0.2622577345513959	-1.2574323030333976	-3.702509828884553	-0.2622577345513959	-0.046389311669649325	-1.079666886091834	-2.885100677344115	-1.296674321604377	-2.639077768677006	4	missed	0.0
334.0392721999997	7.338077200001862	nogo_reward	1.0	334.0687911999994	336.64023630000156	339.15695550000237	2.5714451000021654	335.0740948999992	338.1448096999993	340.1648669999995	1.5661414000023797	1.0121458000030543	1.2420014000017545	n/a	1.0	n/a	2	0	111	1	nogo_reward	1	0	1	0	0	1	1	n/a	n/a	1	1.0	1.0	2174.9414469999974	2509.010238199997	2510.0155418999966	2511.581683299999	2513.0862566999967	2514.0984025	n/a	n/a	2515.106313999997	2516.3483153999987	2020-08-18 15:47:38.509238	5.28936118955192	2.91511372748966	7.89512499075057	7.89529364766492	2.60576380119865	7.89512499075057	-5.28936118955192	7.89512499075057	2.91511372748966	7.89512499075057	2.60576380119865	0.6349709745813596	3.6360215558274724	2.307251793939403	7.767738452332544	6.773619674907669	2.496898593424197	7.767738452332544	0.4537104667783393	6.950329300792107	3.314307744964635	6.733321865279564	3.341668380992384	4	missed	0.0
341.423821700002	7.270973499998945	nogo_punish	1.0	341.4533407000017	343.8069909000005	346.32157949999964	2.3536501999988104	342.4583435000027	345.3115461000016	347.32770090000076	1.3486473999978443	1.0100333999980649	1.396613299999899	n/a	1.0	n/a	2	0	112	3	nogo_punish	1	-1	0	0	0	1	1	n/a	n/a	0	1.0	1.0	2174.9414469999974	2516.394787699999	2517.3997905	2518.748437899998	2520.252993099999	2521.263026499997	n/a	n/a	2522.269147899998	2523.665761199998	2020-08-18 15:47:38.509238	3.49755065213513	-3.06563242217973	-0.093250203165282	-0.0938960750728637	-3.59080085530041	-0.093250203165282	-3.49755065213513	-0.093250203165282	-3.06563242217973	-0.093250203165282	-3.59080085530041	0.093250203165282	1.8442110184106817	-3.673494355729987	-0.22063674158330687	-1.2155700478301144	-3.699666063074863	-0.22063674158330687	-0.08801030463773833	-1.0380458931237448	-2.8822569115344248	-1.255053328636288	-2.639077768677006	4	missed	0.0
348.7422074999995	6.541916800000763	nogo_punish	1.0	348.7717264999992	350.32685630000196	352.84468019999986	1.55512980000276	349.7757383999997	351.8312580999991	353.8511577999998	0.5511179000022821	1.0134221000007528	1.4624855000001844	n/a	1.0	n/a	2	0	113	3	nogo_punish	0	0	-1	0	0	1	0	n/a	n/a	-1	1.0	1.0	2174.9414469999974	2523.7131734999966	2524.717185399997	2525.2683032999994	2526.7727050999965	2527.7861271999973	n/a	n/a	2528.792604799997	2530.2550902999974	2020-08-18 15:47:38.509238	3.52398612099699	-3.06563242217973	-0.0647988446851599	-0.0652709131275291	-3.58878496568216	-0.0647988446851599	-3.52398612099699	-0.0647988446851599	-3.06563242217973	-0.0647988446851599	-3.58878496568216	-8.961838347686529	1.870646487272542	-3.673494355729987	-0.19218538310318478	-1.1869448858847798	-3.697650173456613	-0.19218538310318478	-9.14309885548955	-1.0095945346436228	-2.880241021916175	-1.226601970156166	-2.639077768677006	4	missed	0.0
355.31218709999985	6.733812000003127	go_punish	0.2261426000004576	355.34170609999956	357.76280490000136	360.30209730000206	2.4210988000018006	356.3459777999997	359.292278500001	361.3088292999996	1.416827100001683	1.009818800001085	0.7666888000030667	n/a	1.0	n/a	2	0	114	4	go_punish	1	0	-1	1	1	1	0	n/a	n/a	0	0.2261426000004576	1.0	2174.9414469999974	2530.283153099997	2531.287424799997	2532.704251899999	2534.2337254999984	2535.2435442999995	n/a	n/a	2536.250276299997	2537.0169651	2020-08-18 15:47:38.509238	1.42692218458732	-2.13095847469784	-4.18000607860327	-2.13183183147544	-2.75308389401595	-4.18000607860327	-1.42692218458732	-2.13095847469784	-4.18000607860327	-2.75308389401595	-4.18000607860327	2.13095847469784	-0.22641744913712825	-2.7388204082480967	-4.3073926170212955	-3.2535058042326908	-2.861949101790403	-4.3073926170212955	1.9496979668948196	-3.6978795839744127	-3.471462134837285	-3.292761600168846	-3.753451425100546	4	missed	0.0
362.09208990000116	6.768734799999947	nogo_punish	1.0	362.12160890000087	363.9575446000017	366.4723217999999	1.8359357000008458	363.1258209000007	365.46286379999947	367.47951450000255	0.8317237000010209	1.0094580000004498	1.4108291999982612	n/a	1.0	n/a	2	0	115	3	nogo_punish	1	-1	0	0	0	1	1	n/a	n/a	0	1.0	1.0	2174.9414469999974	2537.0630558999983	2538.067267899998	2538.898991599999	2540.404310799997	2541.4137687999973	n/a	n/a	2542.4209615	2543.8317906999982	2020-08-18 15:47:38.509238	0.611782964750789	-3.06563242217973	-3.11088304785936	-3.11122941566069	-3.72266601261015	-3.11088304785936	-0.611782964750789	-3.11088304785936	-3.06563242217973	-3.11088304785936	-3.72266601261015	3.11088304785936	-1.041556668973659	-3.673494355729987	-3.2382695862773847	-4.232903388417941	-3.831531220384603	-3.2382695862773847	2.9296225400563394	-4.055678737817823	-3.014122068844165	-4.272686173330365	-2.639077768677006	4	missed	0.0
368.8899253000018	6.379674600001181	go_punish	1.0	368.9194443000015	370.3878814000018	372.90230900000097	1.4684371000003011	369.92378760000065	371.89284170000246	373.9100976000009	0.4640938000011374	1.009467299998505	1.3890213000017866	n/a	1.0	n/a	2	0	116	4	go_punish	0	-1	0	1	0	0	1	n/a	n/a	0	1.0	1.0	2174.9414469999974	2543.860891299999	2544.865234599998	2545.329328399999	2546.8342887	2547.8437559999984	n/a	n/a	2548.8515445999983	2550.2405659	2020-08-18 15:47:38.509238	-2.18608778289156	-1.40286783940631	-4.18000607860327	-1.40355023738471	-1.99391829571171	-4.18000607860327	2.18608778289156	-4.18000607860327	-1.40286783940631	-4.18000607860327	-1.99391829571171	4.18000607860327	-3.839427416616008	-2.0107297729565667	-4.3073926170212955	-2.5252242101419604	-2.102783503486163	-4.3073926170212955	3.9987455708002497	-5.124801768561733	-1.285374351945725	-5.341809204074276	-0.9763131859035858	4	missed	0.0
375.31599610000194	6.4362928999980795	go_reward	0.4830566999989969	375.34551510000165	376.7628060999996	379.30601899999965	1.417290999997931	376.3493832999993	378.29337520000263	380.3128966000004	0.4134228000002622	1.0126437999970221	1.4689113999993424	n/a	1.0	n/a	2	0	117	2	go_reward	1	1	0	1	1	1	0	n/a	n/a	1	0.4830566999989969	1.0	2174.9414469999974	2550.286962099999	2551.2908302999967	2551.704253099997	2553.2348222	2554.247465999997	n/a	n/a	2555.254343599998	2556.723254999997	2020-08-18 15:47:38.509238	6.85017570037691	7.18051762177796	0.0	7.18051762177796	6.85017570037691	0.0	-6.85017570037691	7.18051762177796	0.0	6.85017570037691	0.0	1.3495783435539694	5.1968360666524624	6.572655688227703	-0.12738653841802489	6.058843649020709	6.741310492602457	-0.12738653841802489	1.1683178357509492	5.9053800104184475	0.708543943765985	6.018714496306954	0.4265546535027243	4	missed	0.0
381.7981537000014	6.24529899999834	go_reward	0.5724082000015187	381.82767270000113	383.3243799000011	385.8684523000011	1.4967071999999462	382.83209600000237	384.8529899999994	386.87509050000153	0.4922838999987107	1.0154623000016727	1.197881199997937	n/a	1.0	n/a	2	0	118	2	go_reward	1	1	0	1	1	1	0	n/a	n/a	1	0.5724082000015187	1.0	2174.9414469999974	2556.7691196999986	2557.773543	2558.2658268999985	2559.794436999997	2560.8098992999985	n/a	n/a	2561.816537499999	2563.014418699997	2020-08-18 15:47:38.509238	7.31252322474214	7.63012964299298	0.0	7.63012964299298	7.31252322474214	0.0	-7.31252322474214	7.63012964299298	0.0	7.31252322474214	0.0	0.8999663223389494	5.659183591017692	7.022267709442723	-0.12738653841802489	6.50845567023573	7.203658016967687	-0.12738653841802489	0.7187058145359291	6.367727534783677	0.708543943765985	6.468326517521974	0.4265546535027243	4	missed	0.0
388.07180270000026	6.939040600002045	go_punish	0.0107550000029732	388.10132169999997	390.58111810000264	393.1238850000009	2.4797964000026695	389.106389200002	392.1114330000023	394.13047089999964	1.4747289000006276	1.012451999998575	0.9098914000023797	n/a	1.0	n/a	2	0	119	4	go_punish	0	-1	0	1	1	1	0	n/a	n/a	-1	0.0107550000029732	1.0	2174.9414469999974	2563.0427686999974	2564.0478361999994	2565.5225651	2567.0528799999997	2568.0653319999983	n/a	n/a	2569.071917899997	2569.9818092999994	2020-08-18 15:47:38.509238	0.78437971872885	-1.40286783940631	-2.75652437755114	-0.929850033823934	-1.97214465882229	-2.75652437755114	-0.78437971872885	-1.40286783940631	-2.75652437755114	-1.97214465882229	-2.75652437755114	-7.623769352965379	-0.8689599149955981	-2.0107297729565667	-2.8839109159691647	-2.0515240065811846	-2.0810098665967427	-2.8839109159691647	-7.805029860768399	-2.916940348780753	-2.047980433785155	-2.5646709648773163	-2.3299697240484156	4	missed	0.0
395.0564398000024	5.7877980999983265	go_reward	0.1361575000009907	395.0859588000021	396.52066299999933	399.06097560000126	1.4347041999972134	396.0907546000017	398.0485038000006	400.06846900000164	0.4299083999976574	1.0124718000006396	0.8052878999988025	n/a	1.0	n/a	2	0	120	2	go_reward	1	1	0	1	1	1	1	n/a	n/a	1	0.1361575000009907	1.0	2174.9414469999974	2570.0274057999995	2571.032201599999	2571.4621099999968	2572.989950799998	2574.0024225999987	n/a	n/a	2575.009915999999	2575.815203899998	2020-08-18 15:47:38.509238	7.61822821877357	7.92641464795612	0.0	7.92641464795612	7.61822821877357	0.0	-7.61822821877357	7.92641464795612	0.0	7.61822821877357	0.0	0.6036813173758091	5.964888585049122	7.318552714405863	-0.12738653841802489	6.80474067519887	7.509363010999117	-0.12738653841802489	0.42242080957278877	6.673432528815107	0.708543943765985	6.764611522485114	0.4265546535027243	4	missed	0.0
