onset	duration	trial_type	response_time	cueOnset	targetOnset	fbOnset	cueRT	firstfixOnset	secondfixOnset	waitOnset	firstfixdur	secondfixdur	waitdur	nback_fbOnset	nback_response_time	nback_targetOnset	block	wm	trial	cue	cond	is_common	outcome_go	outcome_nogo	key_correct	key_pressed	is_correct	key_correct_nback	key_pressed_nback	is_correct_nback	outcome	rt	rt_nback	time_scan	time_onset	time_isi1	time_circle	time_isi2	time_feedback	time_same	time_correct	time_iti	time_done	timestamp_scan	DV	Qgo	Qnogo	SV	Wgo	Wnogo	mDV	Qchosen	Qunchosen	Wchosen	Wunchosen	PE	DVC	QgoC	QnogoC	SVC	WgoC	WnogoC	PEC	WchosenC	WunchosenC	QchosenC	QunchosenC	run	outcome_nback	nback_targetResp
0.0	8.987150299999485	nogo_reward	0.2961733999982243	0.0237645999986853	2.0242034000002604	4.570208099998126	2.000438800001575	1.027862599999935	3.5560455999984697	7.6271676999967895	0.9963408000003255	1.0141624999996566	1.3837472000013804	6.6194058999972185	0.4788527999990037	5.587401099997805	1	1	61	1	nogo_reward	0	1	0	0	1	0	1	0.0	0.0	1	0.2961733999982243	0.4788527999990037	1101.4310452999998	1101.4548098999985	1102.4589078999998	1103.4552487	1104.9870908999983	1106.001253399998	1107.0184463999976	1108.050451199997	1109.0582129999966	1110.441960199998	2020-08-18 15:29:44.999335	-0.842062508898898	0.0	0.542798191609363	0.503096355706554	-0.299264317289535	0.542798191609363	0.842062508898898	0.0	0.542798191609363	-0.299264317289535	0.542798191609363	8.53009596533193	-2.4954021426233464	-0.6078619335502569	0.41541165319133816	-0.6185776170506967	-0.408129525063988	0.41541165319133816	8.348835457528908	-1.244060007247998	1.251342135375348	-1.161803125471006	0.9693528451120874	2	wrong	1.0
9.022394600000553	8.298333399998228	nogo_reward	0.2953955999983009	9.046159199999238	10.893945599997096	13.437408899997536	1.847786399997858	10.050389399999403	12.424444499996753	16.48226059999797	0.8435561999976926	1.012964400000783	0.8622319999994943	15.475922899997386	0.2200043000011646	14.450379499998235	1	1	62	1	nogo_reward	0	1	0	0	1	0	0	0.0	1.0	1	0.2953955999983009	0.2200043000011646	1101.4310452999998	1110.477204499999	1111.4814346999992	1112.324990899997	1113.8554897999966	1114.8684541999974	1115.881424799998	1116.9069681999972	1117.9133058999978	1118.7755378999973	2020-08-18 15:29:44.999335	-0.707096876813187	0.0967883594754697	0.542798191609363	0.59059081764065	-0.164298685203824	0.542798191609363	0.707096876813187	0.0967883594754697	0.542798191609363	-0.164298685203824	0.542798191609363	8.43330760585646	-2.3604365105376353	-0.5110735740747872	0.41541165319133816	-0.5310831551166006	-0.273163892978277	0.41541165319133816	8.252047098053438	-1.1090943751622868	1.251342135375348	-1.0650147659955362	0.9693528451120874	2	correct	1.0
17.36354729999948	8.387692700001935	nogo_punish	1.0	17.387311899998167	18.805277499999875	21.32189709999875	1.4179656000017076	18.39118629999939	20.309804199998098	24.364386599998397	0.4140912000004846	1.0120929000006527	1.4106180000017048	23.357745699999214	0.5221609000000171	22.33306040000025	1	1	63	3	nogo_punish	0	0	-1	0	0	1	0	0.0	1.0	-1	1.0	0.5221609000000171	1101.4310452999998	1118.818357199998	1119.8222315999992	1120.2363227999997	1121.740849499998	1122.7529423999986	1123.7641057	1124.788790999999	1125.7954318999982	1127.2060499	2020-08-18 15:29:44.999335	0.672516747306826	-0.241426846818853	-0.310201451020719	-0.502860329298145	-0.982718198327545	-0.310201451020719	-0.672516747306826	-0.310201451020719	-0.241426846818853	-0.310201451020719	-0.982718198327545	-8.71643574135097	-0.9808228864176222	-0.8492887803691098	-0.4375879894387439	-1.6245343020553955	-1.091583406101998	-0.4375879894387439	-8.897696249153991	-1.2549971409791818	-0.2741742545615601	-1.472004576491725	0.1851278066838713	2	correct	1.0
25.78788269999859	8.6840125000017	nogo_reward	0.30370000000039	25.811647299997276	27.626527499996882	30.16504299999724	1.8148801999996067	26.81577919999836	29.154755499999737	33.21247759999824	0.8107482999985223	1.010287499997503	1.2831822000007378	32.20574879999913	0.3825346000012359	31.178717899998674	1	1	64	1	nogo_reward	1	0	1	0	1	0	1	1.0	1.0	0	0.30370000000039	0.3825346000012359	1101.4310452999998	1127.242692599997	1128.2468244999982	1129.0575727999967	1130.5858007999996	1131.596088299997	1132.6097631999985	1133.636794099999	1134.643522899998	1135.9267050999988	2020-08-18 15:29:44.999335	-0.574785436555549	0.191688804386739	0.542798191609363	0.676433619659925	-0.0319872449461864	0.542798191609363	0.574785436555549	0.191688804386739	0.542798191609363	-0.0319872449461864	0.542798191609363	-0.191688804386739	-2.2281250702799973	-0.4161731291635179	0.41541165319133816	-0.4452403530973257	-0.14085245272063937	0.41541165319133816	-0.37294931218975935	-0.9767829349046493	1.251342135375348	-0.970114321084267	0.9693528451120874	2	correct	1.0
34.508865499999956	8.224922000001243	go_punish	0.3482595999994373	34.53263009999864	36.36995909999678	38.90854099999706	1.8373289999981353	35.5381916999977	37.899016599996685	41.95236619999923	0.8317673999990802	1.0095244000003731	0.8051859000006516	40.94511139999668	0.3689359999989392	39.92032139999719	1	1	65	4	go_punish	1	0	-1	1	1	1	0	0.0	1.0	0	0.3482595999994373	0.3689359999989392	1101.4310452999998	1135.9636753999985	1136.9692369999975	1137.8010043999966	1139.3300618999965	1140.3395862999969	1141.351366699997	1142.3761566999965	1143.383411499999	1144.1885973999997	2020-08-18 15:29:44.999335	-0.0557208955593568	0.0	-0.789297262409899	-0.734281029408693	-0.845018157969255	-0.789297262409899	0.0557208955593568	0.0	-0.789297262409899	-0.845018157969255	-0.789297262409899	0.0	-1.709060529283805	-0.6078619335502569	-0.9166838008279239	-1.8559550021659437	-0.9538833657437079	-0.9166838008279239	-0.18126050780302033	-1.789813847927718	-0.080753318643914	-1.161803125471006	-0.36274260890717464	2	correct	1.0
42.77085309999893	8.327531000002637	go_reward	0.4949627000023611	42.794617699997616	44.57718659999955	47.11932229999729	1.7825689000019338	43.79920839999977	46.10595699999976	50.162658599998394	0.7779781999997795	1.013365299997531	0.9594901000018581	49.15525340000022	0.7490218999992067	48.13231089999681	1	1	66	2	go_reward	1	1	0	1	1	1	0	0.0	1.0	1	0.4949627000023611	0.7490218999992067	1101.4310452999998	1144.2256629999974	1145.2302536999996	1146.0082318999994	1147.5370022999996	1148.5503675999971	1149.5633561999966	1150.5862987	1151.5937038999982	1152.553194	2020-08-18 15:29:44.999335	-0.522197044682471	0.187963644463475	0.455239110288408	0.603825659737847	-0.0669579343940635	0.455239110288408	0.522197044682471	0.187963644463475	0.455239110288408	-0.0669579343940635	0.455239110288408	8.342132320868455	-2.1755366784069192	-0.41989828908678184	0.32785257187038314	-0.5178483130194037	-0.17582314216851647	0.32785257187038314	8.160871813065434	-1.0117536243525262	1.163783054054393	-0.9738394810075309	0.8817937637911324	2	correct	1.0
51.13516940000045	8.286076299998967	go_reward	1.0	51.158933999999135	53.00499309999941	55.51932099999976	1.846059100000275	52.16391339999973	54.50955029999727	58.561824099997466	0.8410796999996819	1.0097707000024911	0.8831862000006367	57.55482619999748	0.3242227000009734	56.53104149999854	1	1	67	2	go_reward	1	1	0	1	0	0	0	0.0	1.0	0	1.0	0.3242227000009734	1101.4310452999998	1152.589979299999	1153.5949586999996	1154.4360383999992	1155.940595599997	1156.9503662999996	1157.9620867999984	1158.9858714999973	1159.9928693999973	1160.876055599998	2020-08-18 15:29:44.999335	0.3917946350524	0.281126448020616	0.455239110288408	0.689315346073614	0.0634444752360075	0.455239110288408	-0.3917946350524	0.455239110288408	0.281126448020616	0.455239110288408	0.0634444752360075	-0.455239110288408	-1.2615449986720482	-0.3267354855296409	0.32785257187038314	-0.43235862668363667	-0.04542073253844546	0.32785257187038314	-0.6364996180914284	-0.48955657967005484	0.7719884190019924	-0.7065640151825979	0.7076811015233403	2	correct	1.0
59.456551799998124	8.637407400001393	nogo_reward	0.2451733000016247	59.48031639999681	61.2668651999993	63.80806979999761	1.7865488000024925	60.485623900000064	62.79744789999677	66.84878289999688	0.7812412999992375	1.0106219000008423	1.2689409000013256	65.84212959999786	0.3977883999978076	64.81962189999808	1	1	68	1	nogo_reward	1	0	1	0	1	0	0	0.0	1.0	0	0.2451733000016247	0.3977883999978076	1101.4310452999998	1160.9113616999966	1161.9166692	1162.6979104999991	1164.2284931999966	1165.2391150999974	1166.250667199998	1167.2731748999977	1168.2798281999967	1169.548769099998	2020-08-18 15:29:44.999335	-0.584318554969542	0.187963644463475	0.542798191609363	0.663879459187049	-0.0415203633601795	0.542798191609363	0.584318554969542	0.187963644463475	0.542798191609363	-0.0415203633601795	0.542798191609363	-0.187963644463475	-2.23765818869399	-0.41989828908678184	0.41541165319133816	-0.4577945135702016	-0.15038557113463247	0.41541165319133816	-0.3692241522664953	-0.9863160533186424	1.251342135375348	-0.9738394810075309	0.9693528451120874	2	correct	1.0
68.13559460000033	9.284579799998028	nogo_punish	1.0	68.15935919999902	70.67827570000009	73.19202139999834	2.518916500001069	69.16440569999759	72.18308109999998	76.23482220000028	1.5138700000024983	1.0089402999983577	1.2091167999967638	75.22734259999925	0.3644602000022132	74.20367149999947	1	1	69	3	nogo_punish	1	-1	0	0	0	1	0	0.0	1.0	0	1.0	0.3644602000022132	1101.4310452999998	1169.5904044999988	1170.5954509999974	1172.109321	1173.6141263999998	1174.6230666999982	1175.6347167999993	1176.658387899999	1177.6658675	1178.8749842999969	2020-08-18 15:29:44.999335	0.606855359054725	-0.241426846818853	-0.425978900106371	-0.614858427177389	-1.0328342591611	-0.425978900106371	-0.606855359054725	-0.425978900106371	-0.241426846818853	-0.425978900106371	-1.0328342591611	0.425978900106371	-1.0464842746697232	-0.8492887803691098	-0.5533654385243959	-1.7365323999346396	-1.141699466935553	-0.5533654385243959	0.24471839230335068	-1.3707745900648338	-0.324290315395115	-1.587782025577377	0.1851278066838713	2	correct	1.0
77.4578689999978	8.508368000002747	go_reward	1.0	77.48163359999648	79.38562759999695	81.90457479999895	1.9039940000004663	78.48603469999944	80.89101440000013	84.94633909999902	0.8995928999975149	1.0135603999988234	1.0436625000002095	83.93963689999873	0.8152641000015137	82.91780119999748	1	1	70	2	go_reward	0	0	1	1	0	0	0	0.0	1.0	1	1.0	0.8152641000015137	1101.4310452999998	1178.9126788999963	1179.9170799999993	1180.8166728999968	1182.3220597	1183.3356200999988	1184.3488464999973	1185.3706821999986	1186.3773843999988	1187.421046899999	2020-08-18 15:29:44.999335	0.389088165899993	0.281126448020616	0.446559295600798	0.676420041982781	0.0574711297008046	0.446559295600798	-0.389088165899993	0.446559295600798	0.281126448020616	0.446559295600798	0.0574711297008046	8.083536669731131	-1.2642514678244552	-0.3267354855296409	0.3191727571827731	-0.4452539307744696	-0.05139407807364837	0.3191727571827731	7.902276161928111	-0.49823639435766487	0.7660150734667895	-0.715243829870208	0.7076811015233403	2	correct	1.0
86.00185979999878	8.38869110000087	nogo_reward	0.8337258999999904	86.02562439999747	87.34447869999713	89.88329739999972	1.318854299999657	87.02929899999799	88.87348749999728	92.92454639999778	0.31517969999913475	1.0098099000024376	1.489769100000558	91.91884429999868	0.5536150000007183	90.89465789999667	1	1	71	1	nogo_reward	1	0	1	0	1	0	0	0.0	1.0	0	0.8337258999999904	0.5536150000007183	1101.4310452999998	1187.4566696999973	1188.4603442999978	1188.775523999997	1190.304532799997	1191.3143426999995	1192.3257031999965	1193.3498895999985	1194.3555916999976	1195.8453607999982	2020-08-18 15:29:44.999335	-0.593597313821447	0.184338088545147	0.542798191609363	0.651646234463532	-0.0507991222120841	0.542798191609363	0.593597313821447	0.184338088545147	0.542798191609363	-0.0507991222120841	0.542798191609363	-0.184338088545147	-2.246936947545895	-0.42352384500510987	0.41541165319133816	-0.4700277382937187	-0.15966432998653707	0.41541165319133816	-0.3655985963481673	-0.9955948121705469	1.251342135375348	-0.977465036925859	0.9693528451120874	2	correct	1.0
94.42701749999833	7.75161769999977	go_reward	1.0	94.45078209999701	95.88889659999768	98.40256059999956	1.4381145000006654	95.45608749999906	97.39356209999823	101.44641539999793	0.4328090999986216	1.0089985000013257	0.7559843999988516	100.4391242999991	0.5694487000000663	99.41578069999741	1	1	72	2	go_reward	1	1	0	1	0	0	1	1.0	1.0	0	1.0	0.5694487000000663	1101.4310452999998	1195.8818273999968	1196.8871327999989	1197.3199418999975	1198.824607399998	1199.8336058999994	1200.8468259999972	1201.870169599999	1202.8774606999978	1203.6334450999966	2020-08-18 15:29:44.999335	0.440763788918213	0.281126448020616	0.534895577331122	0.760645502997242	0.0941317884129088	0.534895577331122	-0.440763788918213	0.534895577331122	0.281126448020616	0.534895577331122	0.0941317884129088	-0.534895577331122	-1.2125758448062351	-0.3267354855296409	0.40750903891309714	-0.3610284697600087	-0.014733419361544167	0.40750903891309714	-0.7161560851341424	-0.40990011262734083	0.8026757321788938	-0.6269075481398839	0.7076811015233403	2	correct	1.0
102.21549270000105	9.247390199998335	go_punish	0.2689236000005621	102.23925729999974	105.00024849999681	107.54063010000027	2.760991199997079	103.24303999999756	106.53113689999736	110.5850231999973	1.7572084999992512	1.0094932000029075	0.9016243000007762	109.57699479999769	0.6334849999984726	108.55256059999738	1	1	73	4	go_punish	1	0	-1	1	1	1	0	0.0	1.0	0	0.2689236000005621	0.6334849999984726	1101.4310452999998	1203.6703025999996	1204.6740852999974	1206.4312937999966	1207.9621821999972	1208.9716754	1209.9836058999972	1211.0080400999975	1212.0160684999971	1212.917692799998	2020-08-18 15:29:44.999335	-0.0486807809034589	0.0	-0.789297262409899	-0.719445768505133	-0.837978043313357	-0.789297262409899	0.0486807809034589	0.0	-0.789297262409899	-0.837978043313357	-0.789297262409899	0.0	-1.702020414627907	-0.6078619335502569	-0.9166838008279239	-1.8411197412623836	-0.94684325108781	-0.9166838008279239	-0.18126050780302033	-1.7827737332718199	-0.080753318643914	-1.161803125471006	-0.36274260890717464	2	correct	1.0
111.49914290000038	9.374698999999737	go_reward	1.0	111.52290749999906	114.29428909999842	116.80825259999983	2.7713815999993585	112.52819539999837	115.79907039999648	119.85118569999759	1.7660937000000558	1.0091822000033517	1.046420800001215	118.84422049999921	0.2743754000002809	117.82072989999847	1	1	74	2	go_reward	1	1	0	1	0	0	1	1.0	1.0	0	1.0	0.2743754000002809	1101.4310452999998	1212.953952799999	1213.9592406999982	1215.7253343999982	1217.2301156999963	1218.2392978999997	1219.2517751999983	1220.275265799999	1221.2822309999974	1222.3286517999986	2020-08-18 15:29:44.999335	0.437181807511432	0.281126448020616	0.524775720058145	0.746516200696503	0.0875939125467124	0.524775720058145	-0.437181807511432	0.524775720058145	0.281126448020616	0.524775720058145	0.0875939125467124	-0.524775720058145	-1.2161578262130162	-0.3267354855296409	0.3973891816401201	-0.37515777206074763	-0.021271295227740572	0.3973891816401201	-0.7060362278611654	-0.42001996990031787	0.7961378563126973	-0.637027405412861	0.7076811015233403	2	correct	1.0
120.9096040000004	8.93726170000059	nogo_reward	0.9048597000000882	120.93336859999908	123.37123649999921	125.91605869999694	2.4378679000001284	121.93784929999674	124.90205710000009	128.95838269999877	1.4333872000024712	1.0140015999968455	0.9122476000009101	127.95141809999768	0.3928119000011065	126.92737679999868	1	1	75	1	nogo_reward	0	1	0	0	1	0	0	0.0	1.0	1	0.9048597000000882	0.3928119000011065	1101.4310452999998	1222.364413899999	1223.3688945999966	1224.802281799999	1226.3331024	1227.3471039999968	1228.3584220999985	1229.3824633999975	1230.3894279999986	1231.3016755999995	2020-08-18 15:29:44.999335	-0.602630300045887	0.180808741598553	0.542798191609363	0.639723527018476	-0.0598321084365245	0.542798191609363	0.602630300045887	0.180808741598553	0.542798191609363	-0.0598321084365245	0.542798191609363	8.349287223733377	-2.255969933770335	-0.4270531919517039	0.41541165319133816	-0.48195044573877466	-0.16869731621097747	0.41541165319133816	8.168026715930356	-1.0046277983949874	1.251342135375348	-0.980994383872453	0.9693528451120874	2	correct	1.0
129.88345670000126	8.472044599999208	nogo_reward	0.3352286000008462	129.90722129999995	131.40494159999798	133.94718949999879	1.4977202999980364	130.91243169999848	132.93462619999968	136.99051529999997	0.49250989999950434	1.0125632999991012	1.3887505999991845	135.98352269999668	0.3917390999995405	134.96050729999843	1	1	76	1	nogo_reward	0	1	0	0	1	0	0	0.0	1.0	1	0.3352286000008462	0.3917390999995405	1101.4310452999998	1231.3382665999998	1232.3434769999983	1232.8359868999978	1234.3656714999995	1235.3782347999986	1236.3915525999982	1237.4145679999965	1238.4215605999998	1239.810311199999	2020-08-18 15:29:44.999335	-0.472163879446041	0.274160711769938	0.542798191609363	0.724889695015342	0.0706343121633219	0.542798191609363	0.472163879446041	0.274160711769938	0.542798191609363	0.0706343121633219	0.542798191609363	8.255935253561992	-2.1255035131704894	-0.33370122178031886	0.41541165319133816	-0.3967842777419087	-0.03823089561113106	0.41541165319133816	8.074674745758971	-0.8741613777951409	1.251342135375348	-0.8876424137010679	0.9693528451120874	2	correct	1.0
138.39517089999958	8.88483550000069	go_reward	1.0	138.41893549999827	140.27884919999997	142.7934628999974	1.859913700001698	139.42307449999862	141.78371209999727	145.83488039999793	0.8557747000013478	1.0097508000001199	1.468890600001032	144.82812289999856	0.2063163000020722	143.8043996999986	1	1	77	2	go_reward	1	1	0	1	0	0	0	0.0	1.0	0	1.0	0.2063163000020722	1101.4310452999998	1239.849980799998	1240.8541197999984	1241.7098944999998	1243.214757399997	1244.2245081999972	1245.2354449999984	1246.2591681999984	1247.2659256999978	1248.7348162999988	2020-08-18 15:29:44.999335	0.433688872313171	0.281126448020616	0.514919379228079	0.732748624743983	0.0812305069149079	0.514919379228079	-0.433688872313171	0.514919379228079	0.281126448020616	0.514919379228079	0.0812305069149079	-0.514919379228079	-1.2196507614112773	-0.3267354855296409	0.38753284081005407	-0.3889253480132677	-0.027634700859545072	0.38753284081005407	-0.6961798870310993	-0.4298763107303839	0.7897744506808928	-0.646883746242927	0.7076811015233403	2	correct	1.0
147.32389329999933	8.218115899999248	nogo_punish	1.0	147.347657899998	149.012527699997	151.52706729999773	1.6648697999989963	148.35207499999888	150.51700589999746	154.5696848999978	0.6604526999981317	1.010061400000268	0.9960888999994495	153.56289769999785	0.3292277999971702	152.53989829999773	1	1	78	3	nogo_punish	1	-1	0	0	0	1	0	0.0	1.0	0	1.0	0.3292277999971702	1101.4310452999998	1248.7787031999978	1249.7831202999987	1250.4435729999968	1251.9480511999973	1252.9581125999975	1253.9709435999976	1254.9939429999977	1256.0007301999976	1256.996819099997	2020-08-18 15:29:44.999335	0.609659326430499	-0.241426846818853	-0.417333991846531	-0.602532024998095	-1.02699331827703	-0.417333991846531	-0.609659326430499	-0.417333991846531	-0.241426846818853	-0.417333991846531	-1.02699331827703	0.417333991846531	-1.0436803072939491	-0.8492887803691098	-0.5447205302645559	-1.7242059977553457	-1.135858526051483	-0.5447205302645559	0.2360734840435107	-1.362129681804994	-0.31844937451104516	-1.579137117317537	0.1851278066838713	2	correct	1.0
155.57964499999798	8.557283400001324	go_reward	1.0	155.60340959999667	157.36778429999708	159.88184719999867	1.7643747000004169	156.60798109999814	158.87211529999695	162.92425929999808	0.7598031999989416	1.009731900001725	1.2364336999999068	161.91797640000027	0.3176984999990964	160.89235419999727	1	1	79	2	go_reward	1	1	0	1	0	0	1	1.0	1.0	0	1.0	0.3176984999990964	1101.4310452999998	1257.0344548999965	1258.039026399998	1258.798829599997	1260.3031605999968	1261.3128924999985	1262.323399499997	1263.3490217	1264.355304599998	1265.5917382999978	2020-08-18 15:29:44.999335	0.430282125796352	0.281126448020616	0.505317830863079	0.719331006625376	0.0750357050667278	0.505317830863079	-0.430282125796352	0.505317830863079	0.281126448020616	0.505317830863079	0.0750357050667278	-0.505317830863079	-1.223057507928096	-0.3267354855296409	0.37793129244505413	-0.4023429661318747	-0.03382950270772517	0.37793129244505413	-0.6865783386660993	-0.43947785909538384	0.7835796488327127	-0.6564852946079269	0.7076811015233403	2	correct	1.0
164.173257800001	8.118847099998675	go_punish	1.0	164.1970223999997	165.55830199999787	168.07588009999745	1.36127959999817	165.2021300999986	167.06324029999814	171.11771359999693	0.3561718999992536	1.012639799999306	1.1981559000014386	170.11030959999698	0.3160429999988992	169.08808359999966	1	1	80	4	go_punish	1	0	-1	1	0	0	0	0.0	1.0	-1	1.0	0.3160429999988992	1101.4310452999998	1265.6280676999995	1266.6331753999984	1266.9893472999977	1268.494285599998	1269.5069253999973	1270.5191288999995	1271.5413548999968	1272.5487588999968	1273.7469147999982	2020-08-18 15:29:44.999335	0.0418371082447765	0.0	-0.789297262409899	-0.705006413578167	-0.831134370654675	-0.789297262409899	-0.0418371082447765	-0.789297262409899	0.0	-0.789297262409899	-0.831134370654675	-8.23733992996179	-1.6115025254796715	-0.6078619335502569	-0.9166838008279239	-1.8266803863354175	-0.939999578429128	-0.9166838008279239	-8.41860043776481	-1.734092952368362	-0.12259042688869004	-1.951100387880905	0.4265546535027243	2	correct	1.0
172.32783270000073	8.697815899999114	go_punish	0.3113541999991867	172.3515972999994	174.07664440000008	176.61700709999786	1.7250471000006655	173.3561867999997	175.60748669999907	179.6577159999979	0.7204576000003726	1.0095203999987916	1.3916972000006353	178.65127039999788	0.2470572000020183	177.62790169999766	1	1	81	4	go_punish	1	0	-1	1	1	1	0	0.0	1.0	0	0.3113541999991867	0.2470572000020183	1101.4310452999998	1273.7826425999992	1274.7872320999995	1275.5076897	1277.038531999999	1278.0480523999977	1279.0589469999975	1280.0823156999977	1281.0887612999977	1282.4804584999983	2020-08-18 15:29:44.999335	0.0156690515508206	0.0	-0.895000263599794	-0.812954581475661	-0.879331212048973	-0.895000263599794	-0.0156690515508206	0.0	-0.895000263599794	-0.879331212048973	-0.895000263599794	0.0	-1.6376705821736275	-0.6078619335502569	-1.0223868020178188	-1.9346285542329116	-0.988196419823426	-1.0223868020178188	-0.18126050780302033	-1.824126902007436	-0.18645631983380906	-1.161803125471006	-0.4684456100970697	2	correct	1.0
181.0633256000001	9.46916390000115	go_punish	0.2094105000032868	181.08709019999878	183.5655233999969	186.10782779999863	2.4784331999981077	182.09120169999733	185.09534039999926	189.1517501999988	1.4743216999995639	1.0124873999993724	1.4045039000011457	188.14458629999717	0.2502639000013005	187.11978069999896	1	1	82	4	go_punish	0	-1	0	1	1	1	1	1.0	1.0	-1	0.2094105000032868	0.2502639000013005	1101.4310452999998	1282.5181354999986	1283.5222469999972	1284.9965686999967	1286.526385699999	1287.5388730999985	1288.5508259999988	1289.575631599997	1290.5827954999986	1291.9872993999998	2020-08-18 15:29:44.999335	0.0233759815861029	0.0	-0.895000263599794	-0.796685645838343	-0.871624282013691	-0.895000263599794	-0.0233759815861029	0.0	-0.895000263599794	-0.871624282013691	-0.895000263599794	-9.02663719237169	-1.6299636521383452	-0.6078619335502569	-1.0223868020178188	-1.9183596185955936	-0.980489489788144	-1.0223868020178188	-9.20789770017471	-1.8164199719721539	-0.18645631983380906	-1.161803125471006	-0.4684456100970697	2	correct	1.0
190.5749775000004	8.999691999997594	nogo_punish	1.0	190.59874209999907	192.81506739999895	195.33342289999928	2.2163252999998804	191.60293420000016	194.31950379999762	198.3754936999976	1.2121331999987888	1.013919100001658	1.222940399999061	197.36895000000027	0.5238783999993757	196.3451862999973	1	1	83	3	nogo_punish	0	0	-1	0	0	1	0	0.0	1.0	-1	1.0	0.5238783999993757	1101.4310452999998	1292.029787399999	1293.0339795	1294.2461126999988	1295.7505490999974	1296.764468199999	1297.7762315999971	1298.7999953	1299.8065389999974	1301.0294793999965	2020-08-18 15:29:44.999335	0.612393333346407	-0.241426846818853	-0.4089207739022	-0.590532039419583	-1.02131410724861	-0.4089207739022	-0.612393333346407	-0.4089207739022	-0.241426846818853	-0.4089207739022	-1.02131410724861	-8.61771641846949	-1.040946300378041	-0.8492887803691098	-0.5363073123202249	-1.7122060121768337	-1.130179315023063	-0.5363073123202249	-8.79897692627251	-1.353716463860663	-0.3127701634826251	-1.570723899373206	0.1851278066838713	2	correct	1.0
199.61663119999866	9.509042699999554	go_reward	1.0	199.64039579999735	202.10755529999733	204.62248249999902	2.4671594999999797	200.64446189999944	203.61278649999826	207.66815739999947	1.463093399997888	1.0096960000007584	1.4812810999974317	206.66108220000024	0.3108033999997133	205.6352767999997	1	1	84	2	go_reward	1	1	0	1	0	0	0	0.0	1.0	0	1.0	0.3108033999997133	1101.4310452999998	1301.0714410999972	1302.0755071999993	1303.5386005999972	1305.043831799998	1306.0535277999988	1307.0663220999995	1308.0921275	1309.0992026999993	1310.5804837999967	2020-08-18 15:29:44.999335	0.426958825649394	0.281126448020616	0.495962708073699	0.706252050527994	0.0690038824243051	0.495962708073699	-0.426958825649394	0.495962708073699	0.281126448020616	0.495962708073699	0.0690038824243051	-0.495962708073699	-1.2263808080750542	-0.3267354855296409	0.36857616965567414	-0.41542192222925667	-0.03986132535014787	0.36857616965567414	-0.6772232158767193	-0.44883298188476384	0.7775478261902901	-0.6658404173973069	0.7076811015233403	2	correct	1.0
209.1612419000012	8.467898399998376	nogo_reward	1.0	209.18500649999987	210.74787229999856	213.26547189999837	1.56286579999869	210.19040659999882	212.2527706999972	216.30925509999724	0.5574656999997387	1.0127012000011746	1.3436498000010033	215.3021203999997	0.5177857000016957	214.27719069999876	1	1	85	1	nogo_reward	1	0	1	0	0	1	0	0.0	1.0	1	1.0	0.5177857000016957	1101.4310452999998	1310.6160517999997	1311.6214518999986	1312.1789175999984	1313.683815999997	1314.6965171999982	1315.7082359999986	1316.7331656999995	1317.740300399997	1319.083950199998	2020-08-18 15:29:44.999335	0.344235814568208	0.365714609934074	0.542798191609363	0.808458859881723	0.198562377041155	0.542798191609363	-0.344235814568208	0.542798191609363	0.365714609934074	0.542798191609363	0.198562377041155	7.987297773722566	-1.30910381915624	-0.24214732361618285	0.41541165319133816	-0.3132151128755277	0.08969716926670204	0.41541165319133816	7.806037265919546	-0.4019974983490998	0.9071063208071399	-0.6190049338616429	0.7922692634367983	2	correct	1.0
217.6629479000003	8.150296199997683	nogo_reward	0.3569642000002204	217.68671249999898	219.04006399999707	221.58217199999854	1.353351499998098	218.69042809999883	220.57146889999785	224.62563659999796	0.3496358999982476	1.0107031000006828	1.211372099998698	223.61850299999787	0.2874730000003183	222.59560829999828	1	1	86	1	nogo_reward	1	0	1	0	1	0	0	0.0	1.0	0	0.3569642000002204	0.2874730000003183	1101.4310452999998	1319.1177577999988	1320.1214733999986	1320.471109299997	1322.0025141999977	1323.0132172999984	1324.026653599998	1325.0495482999977	1326.0566818999978	1327.2680539999965	2020-08-18 15:29:44.999335	-0.395048621029464	0.365714609934074	0.629264915835743	0.890472463888458	0.234216294806279	0.629264915835743	0.395048621029464	0.365714609934074	0.629264915835743	0.234216294806279	0.629264915835743	-0.365714609934074	-2.0483882547539123	-0.24214732361618285	0.501878377417718	-0.23120150886879265	0.12535108703182604	0.501878377417718	-0.5469751177370943	-0.7105793951521838	1.337808859601728	-0.7960885155369319	1.0558195693384673	2	correct	1.0
225.84883909999917	8.216325699999288	nogo_reward	0.3057962000020779	225.87260369999785	227.26514639999732	229.80527199999779	1.392542699999467	226.87742859999707	228.79649470000027	232.84736699999848	0.3877178000002459	1.0087772999975186	1.2415623999986565	231.8411911999974	0.3231129999985569	230.81688569999824	1	1	87	1	nogo_reward	1	0	1	0	1	0	1	1.0	1.0	0	0.3057962000020779	0.3231129999985569	1101.4310452999998	1327.3036489999977	1328.308473899997	1328.6961916999971	1330.22754	1331.2363172999976	1332.247930999998	1333.2722364999972	1334.2784122999983	1335.519974699997	2020-08-18 15:29:44.999335	-0.409553959042847	0.358729759984133	0.629264915835743	0.874182214959255	0.219710956792896	0.629264915835743	0.409553959042847	0.358729759984133	0.629264915835743	0.219710956792896	0.629264915835743	-0.358729759984133	-2.062893592767295	-0.24913217356612388	0.501878377417718	-0.2474917577979957	0.11084574901844305	0.501878377417718	-0.5399902677871533	-0.7250847331655669	1.337808859601728	-0.8030733654868729	1.0558195693384673	2	correct	1.0
234.10198120000132	8.580204799996864	go_punish	0.2740073000022676	234.1257458	236.10475809999866	238.6444429999974	1.979012299998658	235.13234190000026	237.63571409999713	241.68709739999758	0.9724161999984062	1.0087289000002784	1.0188531999992847	240.68113979999907	0.2377606999980344	239.65833070000008	1	1	88	4	go_punish	1	0	-1	1	1	1	0	0.0	1.0	0	0.2740073000022676	0.2377606999980344	1101.4310452999998	1335.5567910999998	1336.5633872	1337.5358033999985	1339.066759399997	1340.0754882999972	1341.089376	1342.112185099999	1343.1181426999974	1344.1369958999967	2020-08-18 15:29:44.999335	-0.145985761927795	-0.12200472313346	-0.895000263599794	-0.902851708287474	-1.04098602552759	-0.895000263599794	0.145985761927795	-0.12200472313346	-0.895000263599794	-1.04098602552759	-0.895000263599794	0.12200472313346	-1.799325395652243	-0.7298666566837169	-1.0223868020178188	-2.0245256810447247	-1.149851233302043	-1.0223868020178188	-0.05925578466956033	-1.9857817154860529	-0.18645631983380906	-1.283807848604466	-0.4684456100970697	2	correct	1.0
242.72025270000086	8.520975600000156	go_reward	1.0	242.74401729999954	244.31038229999808	246.82462569999916	1.566364999998541	243.7485448999978	245.81473379999807	249.86812519999876	0.5618374000002859	1.0098919000010937	1.3968677000009393	248.86114519999705	0.4456408999976702	247.83622999999716	1	1	89	2	go_reward	1	1	0	1	0	0	0	0.0	1.0	0	1.0	0.4456408999976702	1101.4310452999998	1344.1750625999994	1345.1795901999976	1345.741427599998	1347.245779099998	1348.255670999999	1349.267275299997	1350.2921904999969	1351.2991704999986	1352.6960381999995	2020-08-18 15:29:44.999335	0.423716338976272	0.281126448020616	0.486845983190368	0.693500910153767	0.0631296442140963	0.486845983190368	-0.423716338976272	0.486845983190368	0.281126448020616	0.486845983190368	0.0631296442140963	-0.486845983190368	-1.2296232947481762	-0.3267354855296409	0.3594594447723431	-0.42817306260348365	-0.04573556356035667	0.3594594447723431	-0.6681064909933883	-0.4579497067680949	0.7716735879800812	-0.674957142280638	0.7076811015233403	2	correct	1.0
251.27990280000085	8.117564799998945	go_reward	1.0	251.30366739999954	252.84407409999767	255.35803969999688	1.5404066999981296	252.3083235999984	254.34863539999787	258.4005012999985	0.535750499999267	1.0094042999990052	1.0207308999999896	257.39334509999753	0.6307065000000875	256.37032120000026	1	1	90	2	go_reward	1	1	0	1	0	0	0	0.0	1.0	0	1.0	0.6307065000000875	1101.4310452999998	1352.7347126999994	1353.7393688999982	1354.2751193999975	1355.7796806999977	1356.7890849999967	1357.8013665	1358.8243903999974	1359.8315465999983	1360.8522774999983	2020-08-18 15:29:44.999335	0.420552136855222	0.281126448020616	0.477959950971023	0.681067166902289	0.0574078141158011	0.477959950971023	-0.420552136855222	0.477959950971023	0.281126448020616	0.477959950971023	0.0574078141158011	-0.477959950971023	-1.232787496869226	-0.3267354855296409	0.3505734125529981	-0.4406068058549617	-0.051457393658651866	0.3505734125529981	-0.6592204587740433	-0.46683573898743985	0.765951757881786	-0.6838431744999829	0.7076811015233403	2	correct	1.0
259.43914550000045	8.171194200000173	nogo_punish	1.0	259.46291009999914	261.12426330000017	263.6377427999978	1.661353200001031	260.4667914999991	262.6288122999979	266.6802828	0.6574718000010762	1.0089304999999058	0.9538214999993215	265.6728374999984	0.2852687000013247	264.6486631999978	1	1	91	3	nogo_punish	1	-1	0	0	0	1	0	0.0	1.0	0	1.0	0.2852687000013247	1101.4310452999998	1360.893955399999	1361.897836799999	1362.5553086	1364.0598575999977	1365.0687880999976	1366.0797084999977	1367.1038827999982	1368.1113280999998	1369.0651495999991	2020-08-18 15:29:44.999335	0.547905669502415	-0.241426846818853	-0.522736264677987	-0.700852478458149	-1.0706419341804	-0.522736264677987	-0.547905669502415	-0.522736264677987	-0.241426846818853	-0.522736264677987	-1.0706419341804	0.522736264677987	-1.105433964222033	-0.8492887803691098	-0.6501228030960118	-1.8225264512153996	-1.179507141954853	-0.6501228030960118	0.3414757568749666	-1.4675319546364498	-0.36209799041441515	-1.684539390148993	0.1851278066838713	2	correct	1.0
267.6547418000009	8.667417099997692	go_reward	1.0	267.6785063999996	269.3274351	271.8410478999979	1.648928700000397	268.68244579999737	270.83155160000024	274.88308739999775	0.644989300002635	1.009496299997636	1.4628360999995493	273.876389699999	0.2497030000013183	272.8531976999984	1	1	92	2	go_reward	1	1	0	1	0	0	1	1.0	1.0	0	1.0	0.2497030000013183	1101.4310452999998	1369.1095516999994	1370.1134910999972	1370.7584803999998	1372.2625969	1373.2720931999977	1374.2842429999982	1375.3074349999988	1376.3141326999976	1377.7769687999971	2020-08-18 15:29:44.999335	0.417463789229875	0.281126448020616	0.469297212809115	0.668940809329005	0.0518334235792397	0.469297212809115	-0.417463789229875	0.469297212809115	0.281126448020616	0.469297212809115	0.0518334235792397	-0.469297212809115	-1.2358758444945732	-0.3267354855296409	0.34191067439109013	-0.45273316342824566	-0.057031784195213264	0.34191067439109013	-0.6505577206121353	-0.47549847714934784	0.7603773673452247	-0.6925059126618909	0.7076811015233403	2	correct	1.0
276.3582282999994	9.530355200000713	go_punish	0.2341853999969316	276.38199289999807	279.14067069999874	281.6793034000002	2.758677800000669	277.38634719999754	280.6695355999982	284.7227946999992	1.7543235000011919	1.0097678000020096	1.1895533999995678	283.7158223999977	0.5438972000010835	282.6910907999991	1	1	93	4	go_punish	1	0	-1	1	1	1	0	0.0	1.0	0	0.2341853999969316	0.5438972000010835	1101.4310452999998	1377.813038199998	1378.8173924999974	1380.5717159999986	1382.100580899998	1383.1103487	1384.122136099999	1385.1468676999975	1386.153839999999	1387.3433933999986	2020-08-18 15:29:44.999335	-0.134879064474774	-0.119422123685393	-0.895000263599794	-0.884846611241564	-1.02987932807457	-0.895000263599794	0.134879064474774	-0.119422123685393	-0.895000263599794	-1.02987932807457	-0.895000263599794	0.119422123685393	-1.788218698199222	-0.7272840572356498	-1.0223868020178188	-2.0065205839988147	-1.138744535849023	-1.0223868020178188	-0.061838384117627335	-1.9746750180330328	-0.18645631983380906	-1.281225249156399	-0.4684456100970697	2	correct	1.0
285.9239923999994	9.450170299998717	nogo_reward	0.3248409000007086	285.9477569999981	288.3751072999985	290.9151865999993	2.4273503000003984	286.95287469999676	289.9061210999971	293.95828119999715	1.4222326000017347	1.0090655000021798	1.4396460999996634	292.9520429999973	0.456878200002393	291.9279924000002	1	1	94	1	nogo_reward	1	0	1	0	1	0	0	0.0	1.0	0	0.3248409000007086	0.456878200002393	1101.4310452999998	1387.378802299998	1388.3839199999966	1389.8061525999983	1391.337166399997	1392.346231899999	1393.3590377	1394.383088299997	1395.389326499997	1396.8289725999966	2020-08-18 15:29:44.999335	-0.423677817922843	0.351928507609446	0.629264915835743	0.858303136413863	0.2055870979129	0.629264915835743	0.423677817922843	0.351928507609446	0.629264915835743	0.2055870979129	0.629264915835743	-0.351928507609446	-2.0770174516472912	-0.25593342594081087	0.501878377417718	-0.26337083634338765	0.09672189013844704	0.501878377417718	-0.5331890154124663	-0.7392085920455629	1.337808859601728	-0.8098746178615599	1.0558195693384673	2	correct	1.0
295.4161720999982	7.918529000002309	nogo_punish	1.0	295.4399366999969	296.9084609999991	299.42295289999674	1.4685243000021728	296.4445882999971	298.4130969999969	302.46637759999794	0.46387270000195713	1.0098558999998204	0.8920881000012741	301.45950009999797	0.3498636000003898	300.435182899997	1	1	95	3	nogo_punish	1	-1	0	0	0	1	0	0.0	1.0	0	1.0	0.3498636000003898	1101.4310452999998	1396.8709819999967	1397.875633599997	1398.339506299999	1399.8441422999967	1400.8539981999966	1401.8662281999968	1402.8905453999978	1403.8974228999978	1404.789510999999	2020-08-18 15:29:44.999335	0.551852672349732	-0.241426846818853	-0.51218102430239	-0.686891006931524	-1.06403369665212	-0.51218102430239	-0.551852672349732	-0.51218102430239	-0.241426846818853	-0.51218102430239	-1.06403369665212	0.51218102430239	-1.1014869613747162	-0.8492887803691098	-0.6395675627204149	-1.8085649796887746	-1.172898904426573	-0.6395675627204149	0.33092051649936965	-1.4569767142608527	-0.35548975288613505	-1.6739841497733958	0.1851278066838713	2	correct	1.0
303.3726639999986	8.87473520000276	go_reward	1.0	303.3964285999973	305.7490403999982	308.2660920999988	2.3526118000008864	304.40121099999647	307.2535536999965	311.3095200999999	1.3478294000017286	1.0125384000023132	0.9616437000001952	310.30217229999835	0.2506303000009211	309.2780458999987	1	1	96	2	go_reward	0	0	1	1	0	0	0	0.0	1.0	1	1.0	0.2506303000009211	1101.4310452999998	1404.8274738999971	1405.8322562999963	1407.180085699998	1408.6845989999963	1409.6971373999986	1410.7090911999985	1411.7332175999982	1412.7405653999997	1413.7022091	2020-08-18 15:29:44.999335	0.41444896010876	0.281126448020616	0.460850661872252	0.657112213791068	0.0464017017634919	0.460850661872252	-0.41444896010876	0.460850661872252	0.281126448020616	0.460850661872252	0.0464017017634919	8.069245303459677	-1.2388906736156882	-0.3267354855296409	0.3334641234542271	-0.4645617589661827	-0.06246350601096107	0.3334641234542271	7.887984795656657	-0.48394502808621087	0.7549456455294768	-0.700952463598754	0.7076811015233403	2	correct	1.0
312.285857300001	7.902378099999851	go_punish	1.0	312.3096218999997	313.81427859999894	316.3327375999979	1.5046566999992592	313.31477579999773	315.31916599999727	319.3739606999991	0.49950280000120983	1.0135716000006596	0.838039300000446	318.366720799997	0.0771869000018341	317.343769799998	1	1	97	4	go_punish	1	0	-1	1	0	0	0	0.0	1.0	-1	1.0	0.0771869000018341	1101.4310452999998	1413.7406671999995	1414.7458210999976	1415.2453238999988	1416.750211299997	1417.7637828999978	1418.7748150999978	1419.7977660999968	1420.805005999999	1421.6430452999994	2020-08-18 15:29:44.999335	0.124079548024622	-0.11691166042933	-0.895000263599794	-0.867316261889796	-1.01907981162442	-0.895000263599794	-0.124079548024622	-0.895000263599794	-0.11691166042933	-0.895000263599794	-1.01907981162442	-8.131636928771895	-1.5292600856998262	-0.7247735939795868	-1.0223868020178188	-1.9889902346470467	-1.127945019398873	-1.0223868020178188	-8.312897436574916	-1.8397959535582569	-0.310535867858435	-2.0568033890708	0.3096429930733943	2	correct	1.0
320.2266152000011	8.873868999999104	go_reward	1.0	320.2503797999998	322.2170709999991	324.73452669999824	1.9666911999993317	321.2549254999976	323.7218044000001	327.7752968999994	0.9621455000014976	1.0127222999981313	1.3489518999995198	326.768824499999	0.5783664000009594	325.74751749999996	1	1	98	2	go_reward	0	0	1	1	0	0	1	0.0	0.0	1	1.0	0.5783664000009594	1101.4310452999998	1421.6814250999996	1422.6859707999974	1423.648116299999	1425.1528497	1426.165571999998	1427.1785627999998	1428.1998697999989	1429.2063421999992	1430.5552940999987	2020-08-18 15:29:44.999335	0.465820257973672	0.281126448020616	0.549401828582676	0.742360485675631	0.0835815706090042	0.549401828582676	-0.465820257973672	0.549401828582676	0.281126448020616	0.549401828582676	0.0835815706090042	7.980694136749253	-1.1875193757507763	-0.3267354855296409	0.42201529016465117	-0.3793134870816197	-0.025283637165448763	0.42201529016465117	7.799433628946233	-0.3953938613757868	0.7921255143749891	-0.6124012968883299	0.7076811015233403	2	wrong	1.0
329.1422018999983	9.635129700000107	nogo_punish	1.0	329.165966499997	331.77707969999756	334.2933191999982	2.6111132000005455	330.1703574999992	333.28256619999956	337.3325556999989	1.6067221999983303	1.0107529999986582	1.4685404999981984	336.3260184999997	0.5133210999993025	335.3034888000002	1	1	99	3	nogo_punish	1	-1	0	0	0	1	0	0.0	1.0	0	1.0	0.5133210999993025	1101.4310452999998	1430.5970117999968	1431.601402799999	1433.2081249999974	1434.7136114999994	1435.724364499998	1436.7345341	1437.7570637999995	1438.7636009999987	1440.232141499997	2020-08-18 15:29:44.999335	0.555700029499614	-0.241426846818853	-0.501907412943	-0.673297199538414	-1.05760744244261	-0.501907412943	-0.555700029499614	-0.501907412943	-0.241426846818853	-0.501907412943	-1.05760744244261	0.501907412943	-1.0976396042248342	-0.8492887803691098	-0.629293951361025	-1.7949711722956647	-1.166472650217063	-0.629293951361025	0.3206469051399797	-1.4467031029014628	-0.3490634986766251	-1.6637105384140058	0.1851278066838713	2	correct	1.0
338.8130519000006	8.640095399998017	nogo_reward	1.0	338.83681649999926	340.75682909999887	343.2749107999989	1.920012599999609	339.8416025999977	342.2612922999979	346.31855899999937	0.9152265000011539	1.01361850000103	1.158352899997908	345.31137619999936	0.6888335999974515	344.2870194999996	1	1	100	1	nogo_reward	1	0	1	0	0	1	0	0.0	1.0	1	1.0	0.6888335999974515	1101.4310452999998	1440.267861799999	1441.2726478999975	1442.1878743999987	1443.6923375999977	1444.7059560999987	1445.7180647999994	1446.7424214999992	1447.7496042999992	1448.907957199997	2020-08-18 15:29:44.999335	0.437432897716911	0.345304711151172	0.629264915835743	0.842822044079187	0.191832018118831	0.629264915835743	-0.437432897716911	0.629264915835743	0.345304711151172	0.629264915835743	0.191832018118831	7.900831049496186	-1.215906736007537	-0.26255722239908486	0.501878377417718	-0.27885192867806363	0.08296681034437803	0.501878377417718	7.719570541693166	-0.3155307741227199	0.900375961884816	-0.532538209635263	0.7718593646538963	2	correct	1.0
347.4906512000016	7.938610299999709	go_reward	1.0	347.5144158000003	348.98414760000014	351.49981729999854	1.4697317999998631	348.5192750999993	350.4892789999976	354.5439207999989	0.46487250000086533	1.010538300000917	0.9091053000011016	353.5341754999972	0.3464568999988842	352.51032869999835	1	1	101	2	go_reward	1	1	0	1	0	0	0	0.0	1.0	0	1.0	0.3464568999988842	1101.4310452999998	1448.9454611	1449.950320399999	1450.4151929	1451.9203242999974	1452.9308625999984	1453.9413739999982	1454.965220799997	1455.9749660999987	1456.8840713999998	2020-08-18 15:29:44.999335	0.516252845357842	0.281126448020616	0.636267874438766	0.826000449194568	0.120015029080924	0.636267874438766	-0.516252845357842	0.636267874438766	0.281126448020616	0.636267874438766	0.120015029080924	-0.636267874438766	-1.1370867883666063	-0.3267354855296409	0.5088813360207411	-0.2956735235626826	0.011149821306471033	0.5088813360207411	-0.8175283822417863	-0.3085278155196969	0.8285589728469089	-0.52553525103224	0.7076811015233403	2	correct	1.0
355.4707817999988	9.030185800002073	nogo_punish	1.0	355.4945463999975	358.20271569999727	360.71693779999987	2.7081692999997813	356.4989663999986	359.7080624999983	363.75785149999865	1.7037492999986625	1.0088753000015913	0.766880700000911	362.75111189999734	0.4927053999999771	361.7291192999983	1	1	102	3	nogo_punish	1	-1	0	0	0	1	0	0.0	1.0	0	1.0	0.4927053999999771	1101.4310452999998	1456.9255916999973	1457.9300116999984	1459.633760999997	1461.139107799998	1462.1479830999997	1463.160164599998	1464.1821571999972	1465.1888967999985	1465.9557774999994	2020-08-18 15:29:44.999335	0.559450910563865	-0.241426846818853	-0.491906105285834	-0.660059050383383	-1.0513570158497	-0.491906105285834	-0.559450910563865	-0.491906105285834	-0.241426846818853	-0.491906105285834	-1.0513570158497	0.491906105285834	-1.0938887231605832	-0.8492887803691098	-0.6192926437038588	-1.7817330231406336	-1.160222223624153	-0.6192926437038588	0.3106455974828137	-1.4367017952442969	-0.34281307208371514	-1.65370923075684	0.1851278066838713	2	correct	1.0
364.5411211999999	9.154253299999255	go_punish	0.2605460000013408	364.5648857999986	366.89538719999837	369.4351609999976	2.3305013999997755	365.56921939999665	368.4256166999985	372.47685229999865	1.3261678000017127	1.0095442999991064	1.2422867999991922	371.47088729999814	0.3573730999996769	370.4464657999997	1	1	103	4	go_punish	1	0	-1	1	1	1	0	0.0	1.0	0	0.2605460000013408	0.3573730999996769	1101.4310452999998	1465.9959310999984	1467.0002646999965	1468.3264324999982	1469.8566619999983	1470.8662062999974	1471.8775110999995	1472.901932599998	1473.9078975999985	1475.1501843999977	2020-08-18 15:29:44.999335	-0.0673036101398015	-0.11691166042933	-0.998565037409392	-0.972249857304764	-1.06586864754919	-0.998565037409392	0.0673036101398015	-0.11691166042933	-0.998565037409392	-1.06586864754919	-0.998565037409392	0.11691166042933	-1.7206432438642496	-0.7247735939795868	-1.1259515758274168	-2.093923830062015	-1.174733855323643	-1.1259515758274168	-0.06434884737369033	-2.010664337507653	-0.290021093643407	-1.278714785900336	-0.5720103839066677	2	correct	1.0
373.73655320000034	8.272573499998543	nogo_punish	1.0	373.76031779999903	375.09280319999743	377.6075424999981	1.3324853999984043	374.76647539999976	376.59781060000023	380.6469784000001	0.3263277999976708	1.0097318999978597	1.3859128999974928	379.6412279999968	0.3962945999992371	378.6205799999989	1	1	104	3	nogo_punish	1	-1	0	0	0	1	1	0.0	0.0	0	1.0	0.3962945999992371	1101.4310452999998	1475.1913630999989	1476.1975206999996	1476.5238484999973	1478.0288559	1479.038587799998	1480.0516252999987	1481.0722732999966	1482.0780237	1483.4639365999974	2020-08-18 15:29:44.999335	0.563108360828841	-0.241426846818853	-0.482168150310366	-0.647165028061078	-1.04527651113921	-0.482168150310366	-0.563108360828841	-0.482168150310366	-0.241426846818853	-0.482168150310366	-1.04527651113921	0.482168150310366	-1.0902312728956072	-0.8492887803691098	-0.6095546887283909	-1.7688390008183288	-1.154141718913663	-0.6095546887283909	0.30090764250734564	-1.426963840268829	-0.336732567373225	-1.643971275781372	0.1851278066838713	2	wrong	1.0
382.0493987000009	8.071931099999347	nogo_punish	1.0	382.0731632999996	383.6356879999985	386.1497542999971	1.562524699998903	383.0782010999974	385.14084419999926	389.192102099998	0.5574869000010949	1.00891009999782	0.9529923000009148	388.1850405999976	0.1455260000002454	387.16115009999703	1	1	105	3	nogo_punish	1	-1	0	0	0	1	0	0.0	1.0	0	1.0	0.1455260000002454	1101.4310452999998	1483.5042085999994	1484.5092463999972	1485.0667332999983	1486.571889499999	1487.580799599997	1488.5921953999969	1489.6160858999974	1490.6231473999978	1491.5761396999987	2020-08-18 15:29:44.999335	0.566675307242786	-0.241426846818853	-0.472684953261066	-0.634604053184272	-1.03936026050385	-0.472684953261066	-0.566675307242786	-0.472684953261066	-0.241426846818853	-0.472684953261066	-1.03936026050385	0.472684953261066	-1.086664326481662	-0.8492887803691098	-0.6000714916790909	-1.7562780259415227	-1.148225468278303	-0.6000714916790909	0.2914244454580457	-1.4174806432195288	-0.33081631673786516	-1.634488078732072	0.1851278066838713	2	correct	1.0
390.1596448999992	7.630704300001298	nogo_reward	0.3637874999985797	390.1834094999979	391.4580341000001	393.99910219999947	1.2746246000021983	391.1870284999968	392.989347499999	397.0415357999991	0.2710056000032637	1.0097547000004852	0.7725780000000668	396.0354791999998	0.2578289000011864	395.01202179999746	1	1	106	1	nogo_reward	1	0	1	0	1	0	0	0.0	1.0	0	0.3637874999985797	0.2578289000011864	1101.4310452999998	1491.6144547999977	1492.6180737999966	1492.8890794	1494.4203927999988	1495.4301474999993	1496.4430670999973	1497.4665244999997	1498.472581099999	1499.245159099999	2020-08-18 15:29:44.999335	-0.486754500181076	0.345304711151172	0.714113770596926	0.924514634581191	0.22735927041585	0.714113770596926	0.486754500181076	0.345304711151172	0.714113770596926	0.22735927041585	0.714113770596926	-0.345304711151172	-2.1400941339055244	-0.26255722239908486	0.5867272321789012	-0.19715933817605968	0.11849406264139703	0.5867272321789012	-0.5265652189541923	-0.7174364195426128	1.422657714362911	-0.8164984143198339	1.1406684240996503	2	correct	1.0
397.82779630000005	9.085172999999486	nogo_reward	0.3179926999982854	397.85156089999873	400.4237724999987	402.9640662999991	2.572211599999946	398.8563889999971	401.95400679999875	406.009995299999	1.567383500001597	1.0100595000003523	0.9267385999992257	405.00098669999716	0.0224812000014935	403.9752590999997	1	1	107	1	nogo_reward	1	0	1	0	1	0	0	0.0	1.0	0	0.3179926999982854	0.0224812000014935	1101.4310452999998	1499.2826061999986	1500.287434299997	1501.8548177999985	1503.3850520999986	1504.395111599999	1505.4063043999995	1506.432031999997	1507.4410405999988	1508.367779199998	2020-08-18 15:29:44.999335	-0.50085408114694	0.338852483389388	0.714113770596926	0.907904107726906	0.213259689449986	0.714113770596926	0.50085408114694	0.338852483389388	0.714113770596926	0.213259689449986	0.714113770596926	-0.338852483389388	-2.154193714871388	-0.26900945016086886	0.5867272321789012	-0.21376986503034467	0.10439448167553303	0.5867272321789012	-0.5201129911924083	-0.7315360005084769	1.422657714362911	-0.822950642081618	1.1406684240996503	2	correct	1.0
406.9476576999987	8.060638200000312	nogo_reward	0.2939430999977048	406.97142229999736	408.3188969999974	410.8608748999977	1.3474747000000207	407.97598859999925	409.850214099999	413.9028096000002	0.34290839999812306	1.0106607999987318	1.129250899997487	412.89625469999737	0.3502279000022099	411.87452349999876	1	1	108	1	nogo_reward	1	0	1	0	1	0	1	0.0	0.0	0	0.2939430999977048	0.3502279000022099	1101.4310452999998	1508.4024675999972	1509.407033899999	1509.7499422999972	1511.2812593999988	1512.2919201999975	1513.3055687999986	1514.3272999999972	1515.3338549	1516.4631057999975	2020-08-18 15:29:44.999335	-0.514589927191972	0.332566178639238	0.714113770596926	0.891705712565721	0.199523843404954	0.714113770596926	0.514589927191972	0.332566178639238	0.714113770596926	0.199523843404954	0.714113770596926	-0.332566178639238	-2.16792956091642	-0.2752957549110189	0.5867272321789012	-0.22996826019152972	0.09065863563050103	0.5867272321789012	-0.5138266864422583	-0.7452718465535089	1.422657714362911	-0.829236946831768	1.1406684240996503	2	wrong	1.0
415.0437184000002	8.728171999999176	nogo_reward	0.4597418000012112	415.0674829999989	417.2351265999969	419.7757246999972	2.167643599997973	416.07145909999986	418.76542150000023	422.8186943000003	1.1636674999970182	1.0103031999969971	0.9769606999977896	421.81179059999704	0.3551642000020365	420.78623979999975	1	1	109	1	nogo_reward	1	0	1	0	1	0	1	1.0	1.0	0	0.4597418000012112	0.3551642000020365	1101.4310452999998	1516.4985282999987	1517.5025043999997	1518.6661718999967	1520.1964668	1521.206769999997	1522.2172850999996	1523.2428358999969	1524.2497396	1525.226700299998	2020-08-18 15:29:44.999335	-0.527973893751418	0.326440380634625	0.714113770596926	0.875906470652707	0.186139876845508	0.714113770596926	0.527973893751418	0.326440380634625	0.714113770596926	0.186139876845508	0.714113770596926	-0.326440380634625	-2.181313527475866	-0.28142155291563187	0.5867272321789012	-0.24576750210454368	0.07727466907105504	0.5867272321789012	-0.5077008884376453	-0.7586558131129548	1.422657714362911	-0.835362744836381	1.1406684240996503	2	correct	1.0
423.8081521999993	8.488865999999689	go_punish	0.7261738999986846	423.831916799998	425.3884435	427.92731579999986	1.5565267000019958	424.8371929999994	426.9183806999972	430.97184039999775	0.5512505000006058	1.0089351000026454	1.3489423999999417	429.96448469999814	0.2546590999991167	428.9401824999986	1	1	110	4	go_punish	1	0	-1	1	1	1	0	0.0	1.0	0	0.7261738999986846	0.2546590999991167	1101.4310452999998	1525.2629620999978	1526.2682382999992	1526.8194887999998	1528.349425999997	1529.3583610999997	1530.3712277999985	1531.395529999998	1532.4028856999976	1533.7518280999975	2020-08-18 15:29:44.999335	-0.0557840333219362	-0.114470825266782	-0.998565037409392	-0.953040440435601	-1.05434907073133	-0.998565037409392	0.0557840333219362	-0.114470825266782	-0.998565037409392	-1.05434907073133	-0.998565037409392	0.114470825266782	-1.7091236670463843	-0.7223327588170388	-1.1259515758274168	-2.0747144131928517	-1.163214278505783	-1.1259515758274168	-0.06678968253623833	-1.999144760689793	-0.290021093643407	-1.276273950737788	-0.5720103839066677	2	correct	1.0
432.3327443999988	8.84554600000024	nogo_reward	1.0	432.35650899999746	434.40315980000014	436.9212406999977	2.0466508000026806	433.3611650999992	435.9073884999998	439.96370919999754	1.0419947000009415	1.0138521999979275	1.238345800000161	438.9567657999978	0.4465842999998131	437.93310719999863	1	1	111	1	nogo_reward	1	0	1	0	0	1	1	1.0	1.0	1	1.0	0.4465842999998131	1101.4310452999998	1533.7875542999973	1534.792210399999	1535.8342051	1537.3384337999996	1538.3522859999975	1539.3641524999985	1540.3878110999976	1541.3947544999974	1542.6331002999975	2020-08-18 15:29:44.999335	0.541017361908432	0.320469891143351	0.714113770596926	0.860493906420125	0.173096408688494	0.714113770596926	-0.541017361908432	0.714113770596926	0.320469891143351	0.714113770596926	0.173096408688494	7.815982194735003	-1.1123222718160162	-0.28739204240690586	0.5867272321789012	-0.26118006633712565	0.06423120091404103	0.5867272321789012	7.634721686931983	-0.2306819193615368	0.8816403524544789	-0.4476893548740799	0.7470245446460753	2	correct	1.0
441.21575369999846	9.123018199999933	go_punish	0.7880423999995401	441.23951829999714	443.7799030999993	446.31992889999674	2.54038480000213	442.24350929999855	445.30939299999955	449.3627431999994	1.5363938000007238	1.010535899997194	0.9997932999976911	448.3565216999996	0.6797669999978098	447.3328961999978	1	1	112	4	go_punish	1	0	-1	1	1	1	1	1.0	1.0	0	0.7880423999995401	0.6797669999978098	1101.4310452999998	1542.670563599997	1543.6745545999984	1545.210948399999	1546.7404382999994	1547.7509741999966	1548.7639414999976	1549.7875669999994	1550.7937884999992	1551.793581799997	2020-08-18 15:29:44.999335	-0.0445798834212455	-0.112097216358169	-0.998565037409392	-0.934333144270902	-1.04314492083064	-0.998565037409392	0.0445798834212455	-0.112097216358169	-0.998565037409392	-1.04314492083064	-0.998565037409392	0.112097216358169	-1.6979195171456936	-0.7199591499084259	-1.1259515758274168	-2.0560071170281526	-1.152010128605093	-1.1259515758274168	-0.06916329144485134	-1.987940610789103	-0.290021093643407	-1.273900341829175	-0.5720103839066677	2	correct	1.0
450.37526219999927	8.709131600000546	nogo_reward	1.0	450.39902679999796	452.0917376999969	454.610001699999	1.6927108999989287	451.40380489999734	453.5959058999979	457.6512071999971	0.6879327999995439	1.014095800001087	1.4569512000014129	456.64547069999753	0.387027400000079	455.62145979999696	1	1	113	1	nogo_reward	1	0	1	0	0	1	1	1.0	1.0	1	1.0	0.387027400000079	1101.4310452999998	1551.8300720999978	1552.8348501999972	1553.5227829999967	1555.0269511999977	1556.0410469999988	1557.0525050999968	1558.0765159999974	1559.082252499997	1560.5392036999983	2020-08-18 15:29:44.999335	0.588710255695875	0.320469891143351	0.79738644130669	0.942244382931132	0.208676185610815	0.79738644130669	-0.588710255695875	0.79738644130669	0.320469891143351	0.79738644130669	0.208676185610815	7.732709524025239	-1.0646293780285732	-0.28739204240690586	0.6699999028886652	-0.17942958982611867	0.09981097783636203	0.6699999028886652	7.551449016222219	-0.14740924865177285	0.9172201293768	-0.36441668416431594	0.7470245446460753	2	correct	1.0
459.12175280000156	9.040193299999373	go_punish	1.0	459.14551740000024	461.8760315999971	464.39256529999693	2.7305141999968328	460.1504705999978	463.38069079999696	467.4327108999969	1.7255609999992885	1.0118744999999763	0.7529998000027263	466.4256097999969	0.8945227000003797	465.40505349999876	1	1	114	4	go_punish	1	0	-1	1	0	0	1	0.0	0.0	-1	1.0	0.8945227000003797	1101.4310452999998	1560.5765627	1561.5815158999976	1563.307076899997	1564.8117360999968	1565.8236105999968	1566.8360987999986	1567.8566550999967	1568.8637561999967	1569.6167559999994	2020-08-18 15:29:44.999335	0.0336805244329437	-0.109788532699094	-0.998565037409392	-0.916111692946485	-1.03224556184234	-0.998565037409392	-0.0336805244329437	-0.998565037409392	-0.109788532699094	-0.998565037409392	-1.03224556184234	-8.028072154962297	-1.6196591092915045	-0.7176504662493508	-1.1259515758274168	-2.0377856657037356	-1.141110769616793	-1.1259515758274168	-8.209332662765318	-1.9433607273678548	-0.3237016180763551	-2.160368162880398	0.3167661208036303	2	wrong	1.0
468.20533779999823	8.565693800002919	nogo_punish	0.9400922999993782	468.2291023999969	470.27257949999694	472.8157417000002	2.0434771000000183	469.23446759999933	471.8025981999997	475.85881049999807	1.0381118999976024	1.013143500000524	0.9359857000017655	474.85130669999853	0.8199335000026622	473.8267702999981	1	1	115	3	nogo_punish	1	-1	0	0	1	0	0	0.0	1.0	-1	0.9400922999993782	0.8199335000026622	1101.4310452999998	1569.6601476999967	1570.6655128999992	1571.7036247999968	1573.2336434999995	1574.246787	1575.257815599998	1576.2823519999984	1577.289855799998	1578.2258414999997	2020-08-18 15:29:44.999335	-0.570154564052905	-0.241426846818853	-0.463448258649104	-0.622365477174203	-1.03360282270201	-0.463448258649104	0.570154564052905	-0.241426846818853	-0.463448258649104	-1.03360282270201	-0.463448258649104	-8.785210345552835	-2.2234941977773532	-0.8492887803691098	-0.5908347970671288	-1.7440394499314538	-1.142468030476463	-0.5908347970671288	-8.966470853355856	-1.9783985126604728	0.24509568511688096	-1.403229972289859	-0.03689360514637968	2	correct	1.0
476.8086793000002	9.863765300000523	go_reward	0.6198058000009041	476.8324438999989	479.79393439999694	482.3386541	2.9614904999980354	477.83728589999737	481.32506379999904	485.3804965999989	1.9566484999995737	1.013590300000942	1.315712600000552	484.3743848999984	0.4092369999998482	483.35152489999746	1	1	116	2	go_reward	1	1	0	1	1	1	0	0.0	1.0	1	0.6198058000009041	0.4092369999998482	1101.4310452999998	1578.2634891999987	1579.2683311999972	1581.2249796999968	1582.7561090999989	1583.7696993999998	1584.7825701999973	1585.8054301999982	1586.8115418999987	1588.1272544999993	2020-08-18 15:29:44.999335	-0.511455839044734	0.281126448020616	0.624704796864067	0.811285848418018	0.113248957819333	0.624704796864067	0.511455839044734	0.281126448020616	0.624704796864067	0.113248957819333	0.624704796864067	8.248969517311313	-2.1647954727691823	-0.3267354855296409	0.4973182584460421	-0.3103881243392327	0.004383750044880036	0.4973182584460421	8.067709009508292	-0.8315467321391299	1.333248740630052	-0.88067667745039	1.0512594503667914	2	correct	1.0
486.7145851999994	9.34883830000058	nogo_punish	0.3411704999998619	486.7383497999981	489.1595396999983	491.6988468999989	2.421189900000172	487.7427056999986	490.68878589999827	494.74148319999927	1.4168339999996533	1.0100610000006327	1.3457048999994186	493.7353680999986	0.3396026000009442	492.70906749999995	1	1	117	3	nogo_punish	0	0	-1	0	1	0	1	1.0	1.0	0	0.3411704999998619	0.3396026000009442	1101.4310452999998	1588.169395099998	1589.1737509999984	1590.590584999998	1592.119831199998	1593.1298921999987	1594.1401127999998	1595.1664133999984	1596.172528499999	1597.5182333999985	2020-08-18 15:29:44.999335	-0.736313180953266	-0.358338507248183	-0.463448258649104	-0.732443785364168	-1.19976143960237	-0.463448258649104	0.736313180953266	-0.358338507248183	-0.463448258649104	-1.19976143960237	-0.463448258649104	0.358338507248183	-2.389652814677714	-0.9662004407984399	-0.5908347970671288	-1.8541177581214185	-1.3086266473768229	-0.5908347970671288	0.17707799944516267	-2.144557129560833	0.24509568511688096	-1.520141632719189	-0.03689360514637968	2	correct	1.0
496.1066399999984	8.967676300002267	nogo_punish	0.6753551000001607	496.13040459999706	498.4103716999998	500.9528056999991	2.27996710000275	497.1354612999967	499.93912459999774	503.9953765999999	1.2749104000031366	1.0136811000013495	1.1027042999994592	502.98868669999865	0.3257739000000583	501.96575609999854	1	1	118	3	nogo_punish	1	-1	0	0	1	0	0	0.0	1.0	-1	0.6753551000001607	0.3257739000000583	1101.4310452999998	1597.561449899997	1598.5665065999965	1599.8414169999996	1601.3701698999976	1602.383850999999	1603.3968013999984	1604.4197319999985	1605.4264218999997	1606.5291261999992	2020-08-18 15:29:44.999335	-0.722087786063795	-0.350804609381505	-0.463448258649104	-0.718237086091127	-1.1855360447129	-0.463448258649104	0.722087786063795	-0.350804609381505	-0.463448258649104	-1.1855360447129	-0.463448258649104	-8.675832582990184	-2.375427419788243	-0.9586665429317618	-0.5908347970671288	-1.8399110588483776	-1.294401252487353	-0.5908347970671288	-8.857093090793205	-2.130331734671363	0.24509568511688096	-1.5126077348525109	-0.03689360514637968	2	correct	1.0
505.11507490000076	8.125418699997681	nogo_punish	1.0	505.13883949999945	506.5006126999979	509.0153795999977	1.3617731999984244	506.14332959999956	508.00558549999914	512.0572230999969	0.35728309999831254	1.009794099998544	1.207035100000212	511.05050689999916	0.4256707999993523	510.02733850000027	1	1	119	3	nogo_punish	1	-1	0	0	0	1	1	1.0	1.0	0	1.0	0.4256707999993523	1101.4310452999998	1606.5698847999993	1607.5743748999994	1607.9316579999977	1609.436630799999	1610.4464248999975	1611.4583838	1612.481552199999	1613.4882683999967	1614.695303499997	2020-08-18 15:29:44.999335	0.885106743230201	-0.46548442518774	-0.463448258649104	-0.826400089272223	-1.3485550018793	-0.463448258649104	-0.885106743230201	-0.463448258649104	-0.46548442518774	-0.463448258649104	-1.3485550018793	0.463448258649104	-0.7682328904942471	-1.073346358737997	-0.5908347970671288	-1.9480740620294736	-1.457420209653753	-0.5908347970671288	0.28218775084608366	-1.4082439486075669	-0.640011058113315	-1.62525138412011	-0.03892977168501571	2	correct	1.0
513.283819799999	9.906086900002265	nogo_punish	0.2723781000022427	513.3075843999977	516.1411861999986	518.6854118999981	2.8336018000009062	514.3124880999965	517.6708714999986	521.7280709999977	1.828698100002157	1.0145403999995324	1.485600300002261	520.7212626999972	0.9173823999990418	519.6990955999972	1	1	120	3	nogo_punish	1	-1	0	0	1	0	1	1.0	1.0	-1	0.2723781000022427	0.9173823999990418	1101.4310452999998	1614.7386296999975	1615.7435333999963	1617.5722314999985	1619.1019167999984	1620.116457199998	1621.130140899997	1622.152307999997	1623.1591162999975	1624.6447165999998	2020-08-18 15:29:44.999335	-0.886530884680987	-0.46548442518774	-0.454450134215823	-0.81032912613538	-1.34098101889681	-0.454450134215823	0.886530884680987	-0.46548442518774	-0.454450134215823	-1.34098101889681	-0.454450134215823	-8.56115276718395	-2.539870518405435	-1.073346358737997	-0.5818366726338479	-1.9320030988926307	-1.449846226671263	-0.5818366726338479	-8.742413274986971	-2.285776708855273	0.254093809550162	-1.627287550658746	-0.027895480713098664	2	correct	1.0
