onset	duration	trial_type	response_time	cueOnset	targetOnset	fbOnset	cueRT	firstfixOnset	secondfixOnset	waitOnset	firstfixdur	secondfixdur	waitdur	nback_fbOnset	nback_response_time	nback_targetOnset	block	wm	trial	cue	cond	is_common	outcome_go	outcome_nogo	key_correct	key_pressed	is_correct	key_correct_nback	key_pressed_nback	is_correct_nback	outcome	rt	rt_nback	time_scan	time_onset	time_isi1	time_circle	time_isi2	time_feedback	time_same	time_correct	time_iti	time_done	timestamp_scan	DV	Qgo	Qnogo	SV	Wgo	Wnogo	mDV	Qchosen	Qunchosen	Wchosen	Wunchosen	PE	DVC	QgoC	QnogoC	SVC	WgoC	WnogoC	PEC	WchosenC	WunchosenC	QchosenC	QunchosenC	run	outcome_nback	nback_targetResp
0.0	6.159625899977982	go_punish	0.4605216999771073	0.023709500092081726	1.6739562000147998	4.224495000089519	1.650246699922718	1.0270040000323206	3.2039629000937566	5.238191300071776	0.6469521999824792	1.020532099995762	0.9451440999982879	n/a	1.0	n/a	1	0	61	1	go_punish	1	0	-1	1	1	1	0	n/a	n/a	0	0.4605216999771073	1.0	867.3009035999421	867.3246131000342	868.3279075999744	868.9748597999569	870.5048665000359	871.5253986000316	n/a	n/a	872.5390949000139	873.4842390000122	2020-01-30 16:26:28.960895	1.6373618260826	0.0	-2.52975324334871	-2.11359115551565	-0.89239141726611	-2.52975324334871	-1.6373618260826	0.0	-2.52975324334871	-0.89239141726611	-2.52975324334871	0.0	-8.881312177461233	-4.988693372165752	-6.165872907376453	-11.30796400510159	-9.386782115768774	-6.165872907376453	-1.6275345863472794	-12.216983600303234	-3.335671422841996	-9.327010949621641	-1.8275553299205678	2	missed	0.0
6.199884000001475	6.811541099916212	go_reward	0.4181528999470174	6.223593500093557	8.193293299991637	10.74394770001527	1.9696997998980805	7.224968800088391	9.724286600016057	11.753909900086	0.9683244999032468	1.0196610999992117	1.2812246999237686	n/a	1.0	n/a	1	0	62	3	go_reward	0	0	1	1	1	1	0	n/a	n/a	0	0.4181528999470174	1.0	867.3009035999421	873.5244971000357	874.5258724000305	875.4941968999337	877.0251901999582	878.0448512999574	n/a	n/a	879.0548135000281	880.3360381999519	2020-01-30 16:26:28.960895	41.3344066664508	27.8145941066501	0.0	27.8145941066501	41.3344066664508	0.0	-41.3344066664508	27.8145941066501	0.0	41.3344066664508	0.0	-27.8145941066501	30.81573266290697	22.82590073448435	-3.6361196640277433	18.62022125706416	32.84001596794814	-3.6361196640277433	-29.442128692997382	30.009814483413678	-0.8059181794932863	18.48758315702846	0.7021979134281422	2	missed	0.0
13.046685599954799	6.99158809997607	nogo_punish	1.0	13.07039510004688	15.061324000009336	17.586632700054906	1.990928899962455	14.076639700098895	16.565383900073357	18.59997880004812	0.984684299910441	1.0212487999815494	1.4620043999748304	n/a	1.0	n/a	1	0	63	2	nogo_punish	1	-1	0	0	0	1	0	n/a	n/a	0	1.0	1.0	867.3009035999421	880.371298699989	881.377543300041	882.3622275999514	883.8662875000155	884.887536299997	n/a	n/a	885.9008823999902	887.362886799965	2020-01-30 16:26:28.960895	1.92142514195369	-2.06857993026597	-0.261788007203671	-0.453510660067147	-2.18321314915736	-0.261788007203671	-1.92142514195369	-0.261788007203671	-2.06857993026597	-0.261788007203671	-2.18321314915736	0.261788007203671	-8.597248861590142	-7.057273302431723	-3.8979076712314145	-9.647883509653088	-10.677603847660025	-3.8979076712314145	-1.3657465791436083	-11.586380190240796	-2.9891313286506462	-9.588798956825313	-1.366382016837828	2	missed	0.0
20.07707879994996	6.860442399978638	nogo_reward	1.0	20.10078830004204	22.02243830007501	24.561755200033076	1.9216500000329688	21.110116900061257	23.537897600093856	25.564658100018278	0.9123214000137523	1.0238575999392197	1.3965726000024006	n/a	1.0	n/a	1	0	64	4	nogo_reward	1	0	1	0	0	1	0	n/a	n/a	1	1.0	1.0	867.3009035999421	887.4016918999841	888.4110205000034	889.3233419000171	890.838801200036	891.8626587999752	n/a	n/a	892.8655616999604	894.2621342999628	2020-01-30 16:26:28.960895	11.6495665517743	0.0	22.6875714436154	22.6875714436154	11.0380048918411	22.6875714436154	-11.6495665517743	22.6875714436154	0.0	22.6875714436154	11.0380048918411	9.109316138051401	1.1308925482304666	-4.988693372165752	19.05145177958766	13.49319859402946	2.543614193338435	19.05145177958766	7.481781551704122	11.362979260578276	10.232086712347813	13.36056049399376	0.7021979134281422	2	missed	0.0
26.973718900000677	6.397956499946304	go_punish	0.8018606000114232	26.99742840009276	28.371526600094512	30.911989400046878	1.3740982000017539	28.011996500077657	29.8992617999902	31.928198600071482	0.3595301000168547	1.012727600056678	1.4671862999675795	n/a	1.0	n/a	1	0	65	1	go_punish	1	0	-1	1	1	1	0	n/a	n/a	0	0.8018606000114232	1.0	867.3009035999421	894.2983320000349	895.3129001000198	895.6724302000366	897.2001653999323	898.212892999989	n/a	n/a	899.2291022000136	900.6962884999812	2020-01-30 16:26:28.960895	1.90358967111621	0.0	-2.52975324334871	-1.54175105302264	-0.626163572232503	-2.52975324334871	-1.90358967111621	0.0	-2.52975324334871	-0.626163572232503	-2.52975324334871	0.0	-8.615084332427623	-4.988693372165752	-6.165872907376453	-10.73612390260858	-9.120554270735168	-6.165872907376453	-1.6275345863472794	-11.950755755269627	-3.335671422841996	-9.327010949621641	-1.8275553299205678	2	missed	0.0
33.40548700001102	6.032853999990039	go_punish	0.5279839999275282	33.4291965001031	34.91539540002111	37.455848300014736	1.4861988999180085	34.446059000096284	36.44537800003309	38.4688310000347	0.4693363999248277	1.0104702999816482	0.9932195000584443	n/a	1.0	n/a	1	0	66	1	go_punish	1	0	-1	1	1	1	0	n/a	n/a	0	0.5279839999275282	1.0	867.3009035999421	900.7301001000452	901.7469626000384	902.2162989999632	903.7462815999752	904.7567518999568	n/a	n/a	905.7697345999768	906.7629541000352	2020-01-30 16:26:28.960895	2.08722811412615	0.0	-2.52975324334871	-1.14937960399349	-0.442525129222561	-2.52975324334871	-2.08722811412615	0.0	-2.52975324334871	-0.442525129222561	-2.52975324334871	0.0	-8.431445889417683	-4.988693372165752	-6.165872907376453	-10.34375245357943	-8.936915827725226	-6.165872907376453	-1.6275345863472794	-11.767117312259685	-3.335671422841996	-9.327010949621641	-1.8275553299205678	2	missed	0.0
39.47968099999707	7.929317899979537	go_reward	0.2993789999745786	39.503390500089154	42.478990000090675	45.02293310000107	2.975599500001522	40.51301270001568	44.00983009999629	46.03585760004353	1.9659773000749965	1.0131030000047758	1.3968508000251632	n/a	1.0	n/a	1	0	67	3	go_reward	1	1	0	1	1	1	0	n/a	n/a	1	0.2993789999745786	1.0	867.3009035999421	906.8042941000313	907.8139162999578	909.7798936000328	911.3107336999384	912.3238366999432	n/a	n/a	913.3367611999856	914.7336120000108	2020-01-30 16:26:28.960895	29.755858824843	19.9830536863851	0.0	19.9830536863851	29.755858824843	0.0	-29.755858824843	19.9830536863851	0.0	29.755858824843	0.0	11.8138338952817	19.237184821299167	14.99436031421935	-3.6361196640277433	10.788680836799161	21.261468126340333	-3.6361196640277433	10.186299308934421	18.431266641805877	-0.8059181794932863	10.65604273676346	0.7021979134281422	2	missed	0.0
47.44757799990464	6.60140480007999	nogo_punish	1.0	47.47128749999672	49.331116300076246	51.84624480002094	1.8598288000795264	48.486942599993085	50.845709300017916	52.86042540008191	0.8441737000831608	1.000535500003025	1.2122668999948019	n/a	1.0	n/a	1	0	68	2	nogo_punish	1	-1	0	0	0	1	0	n/a	n/a	0	1.0	1.0	867.3009035999421	914.7721910999388	915.7878461999352	916.6320199000183	918.14661289996	919.147148399963	n/a	n/a	920.161329000024	921.3735959000188	2020-01-30 16:26:28.960895	1.93642992394704	-2.06857993026597	-0.199385305879075	-0.353061581511295	-2.13581522982612	-0.199385305879075	-1.93642992394704	-0.199385305879075	-2.06857993026597	-0.199385305879075	-2.13581522982612	0.199385305879075	-8.582244079596792	-7.057273302431723	-3.835504969906818	-9.547434431097235	-10.630205928328785	-3.835504969906818	-1.4281492804682046	-11.523977488916199	-2.941733409319406	-9.526396255500716	-1.366382016837828	2	missed	0.0
54.08355439989816	6.081131300074048	nogo_punish	1.0	54.107263899990244	55.5945284999907	58.119456300046295	1.487264600000458	55.125694900052736	57.09946580009989	59.13254100002814	0.46883359993796603	1.0199904999464025	1.0558542000361513	n/a	1.0	n/a	1	0	69	2	nogo_punish	1	-1	0	0	0	1	0	n/a	n/a	0	1.0	1.0	867.3009035999421	921.4081674999323	922.4265984999948	922.8954320999328	924.400369400042	925.4203598999884	n/a	n/a	926.4334445999702	927.4892988000064	2020-01-30 16:26:28.960895	1.94647836512499	-2.06857993026597	-0.153831139969821	-0.277930957008637	-2.10030950509482	-0.153831139969821	-1.94647836512499	-0.153831139969821	-2.06857993026597	-0.153831139969821	-2.10030950509482	0.153831139969821	-8.572195638418842	-7.057273302431723	-3.7899508039975642	-9.472303806594578	-10.594700203597485	-3.7899508039975642	-1.4737034463774585	-11.478423323006945	-2.906227684588106	-9.480842089591462	-1.366382016837828	2	missed	0.0
60.20046749990422	6.222550500067996	nogo_reward	1.0	60.2241769999963	61.564314900082536	64.08583660004672	1.3401379000862335	61.23508370004129	63.058728400035875	65.09271660004754	0.3292312000412494	1.0271082000108436	1.3540109000167604	n/a	1.0	n/a	1	0	70	4	nogo_reward	1	0	1	0	0	1	0	n/a	n/a	1	1.0	1.0	867.3009035999421	927.5250805999384	928.5359872999834	928.8652185000246	930.359631999978	931.3867401999888	n/a	n/a	932.3936201999896	933.7476311000064	2020-01-30 16:26:28.960895	12.7887248386469	0.0	24.8909001186673	24.8909001186673	12.1021752800204	24.8909001186673	-12.7887248386469	24.8909001186673	0.0	24.8909001186673	12.1021752800204	6.9059874629995015	2.270050835103067	-4.988693372165752	21.25478045463956	15.69652726908136	3.607784581517736	21.25478045463956	5.2784528766522225	13.566307935630176	11.296257100527114	15.563889169045659	0.7021979134281422	2	missed	0.0
66.46760340000037	6.738002999918649	go_reward	0.3944821999175474	66.49131290009245	68.33982970006753	70.87024389998987	1.848516799975073	67.50405029999092	69.85536650009453	71.87535430002026	0.8357794000766035	1.0148773998953402	1.3539615999908392	n/a	1.0	n/a	1	0	71	3	go_reward	1	1	0	1	1	1	0	n/a	n/a	1	0.3944821999175474	1.0	867.3009035999421	933.7922165000346	934.804953899933	935.6407333000096	937.1562701000366	938.171147499932	n/a	n/a	939.1762578999624	940.5302194999532	2020-01-30 16:26:28.960895	34.8723077679837	23.4502301554063	0.0	23.4502301554063	34.8723077679837	0.0	-34.8723077679837	23.4502301554063	0.0	34.8723077679837	0.0	8.346657426260503	24.353633764439866	18.461536783240547	-3.6361196640277433	14.255857305820358	26.377917069481036	-3.6361196640277433	6.719122839913224	23.547715584946573	-0.8059181794932863	14.123219205784658	0.7021979134281422	2	missed	0.0
73.23986579990026	6.6265238000777344	go_punish	1.0	73.26357529999234	75.1179570000387	77.63655070005905	1.8543817000463605	74.27470030006953	76.63281830004428	78.64668980007991	0.8432566999691744	1.0037324000147692	1.2434092999901623	n/a	1.0	n/a	1	0	72	1	go_punish	1	0	-1	1	0	0	0	n/a	n/a	-1	1.0	1.0	867.3009035999421	940.5644788999344	941.5756039000116	942.4188605999808	943.9337218999864	944.9374543000011	n/a	n/a	945.947593400022	947.1910027000122	2020-01-30 16:26:28.960895	-2.21758979308124	0.0	-2.52975324334871	-0.871941030005553	-0.312163450267469	-2.52975324334871	2.21758979308124	-2.52975324334871	0.0	-2.52975324334871	-0.312163450267469	-1.1449245513064499	-12.736263796625073	-4.988693372165752	-6.165872907376453	-10.066313879591494	-8.806554148770134	-6.165872907376453	-2.7724591376537293	-13.854345426385834	-1.1180816297607552	-11.856764192970351	0.7021979134281422	2	missed	0.0
79.900080399937	7.524333000066804	go_punish	0.2738335001049563	79.92378990002908	82.44459780002944	84.9977652000963	2.5208079000003636	80.9156981999987	83.97587670001667	86.00756080006249	1.5288996000307407	1.0218885000796263	1.4405621000333895	n/a	1.0	n/a	1	0	73	1	go_punish	0	-1	0	1	1	1	0	n/a	n/a	-1	0.2738335001049563	1.0	867.3009035999421	947.2246934999712	948.2166017999408	949.7455013999715	951.2767802999588	952.2986688000384	n/a	n/a	953.3084644000046	954.749026500038	2020-01-30 16:26:28.960895	2.11557413995975	0.0	-2.77074698824959	-1.60891838170615	-0.655172848289841	-2.77074698824959	-2.11557413995975	0.0	-2.77074698824959	-0.655172848289841	-2.77074698824959	-3.67467779465516	-8.403099863584082	-4.988693372165752	-6.406866652277333	-10.803291231292091	-9.149563546792505	-6.406866652277333	-5.302212381002439	-11.979765031326965	-3.5766651677428762	-9.327010949621641	-2.0685490748214477	2	missed	0.0
87.46449269994616	7.055178400012892	nogo_reward	1.0	87.48820220003824	90.1083709000377	92.62785990000714	2.6201686999994536	88.49891710001987	91.61273860000074	93.63726370001666	1.6094538000178318	1.015121300006399	0.9061169000344762	n/a	1.0	n/a	1	0	74	4	nogo_reward	1	0	1	0	0	1	0	n/a	n/a	1	1.0	1.0	867.3009035999421	954.7891057999803	955.799820699962	957.4092744999798	958.9136421999428	959.9287634999492	n/a	n/a	960.9381672999588	961.8442841999932	2020-01-30 16:26:28.960895	13.604183140934	0.0	26.4725734950858	26.4725734950858	12.8683903541518	26.4725734950858	-13.604183140934	26.4725734950858	0.0	26.4725734950858	12.8683903541518	5.324314086581001	3.085509137390167	-4.988693372165752	22.83645383105806	17.278200645499858	4.3739996556491345	22.83645383105806	3.696779500233722	15.147981312048676	12.062472174658513	17.14556254546416	0.7021979134281422	2	missed	0.0
94.55311609990906	7.022101200069187	go_punish	1.0	94.57682560000114	96.74063290003687	99.27403369999945	2.163807300035728	95.56911820010271	98.25338480004586	100.28588010009832	1.1715146999341641	1.020648899953585	1.3130466999720056	n/a	1.0	n/a	1	0	75	1	go_punish	0	-1	0	1	0	0	1	n/a	n/a	0	1.0	1.0	867.3009035999421	961.8777291999432	962.8700218000448	964.041536499979	965.554288399988	966.5749372999416	n/a	n/a	967.5867837000404	968.8998304000124	2020-01-30 16:26:28.960895	-0.939660194208804	-0.937824536573676	-2.77074698824959	-2.11786659768891	-1.83108679404078	-2.77074698824959	0.939660194208804	-2.77074698824959	-0.937824536573676	-2.77074698824959	-1.83108679404078	2.77074698824959	-11.458334197752636	-5.926517908739428	-6.406866652277333	-11.312239447274852	-10.325477492543445	-6.406866652277333	1.1432124019023107	-14.095339171286714	-2.6370049735340664	-12.097757937871231	-0.23562662314553384	2	missed	0.0
101.61543020000681	6.501573399989752	go_reward	0.4034117000410333	101.6391397000989	103.20790889998909	105.75742800009914	1.5687691998901983	102.6459419000895	104.73370800004352	106.7660558000207	0.561966999899596	1.0237200000556186	1.3746573000679518	n/a	1.0	n/a	1	0	76	3	go_reward	1	1	0	1	1	1	0	n/a	n/a	1	0.4034117000410333	1.0	867.3009035999421	968.940043300041	969.9468455000316	970.5088124999312	972.0346115999856	973.0583316000412	n/a	n/a	974.0669593999628	975.4416167000307	2020-01-30 16:26:28.960895	38.2216534657034	25.7146718504435	0.0	25.7146718504435	38.2216534657034	0.0	-38.2216534657034	25.7146718504435	0.0	38.2216534657034	0.0	6.0822157312233	27.702979462159565	20.72597847827775	-3.6361196640277433	16.520299000857563	29.727262767200735	-3.6361196640277433	4.454681144876021	26.89706128266627	-0.8059181794932863	16.38766090082186	0.7021979134281422	2	missed	0.0
108.15805039997224	6.327417599968385	go_punish	0.8255197999533266	108.18175990006432	109.55879680009093	112.1007724000375	1.37703690002661	109.19915690005291	111.08462430001225	113.10939340002369	0.3596399000380188	1.016148100025248	1.3997841000090148	n/a	1.0	n/a	1	0	77	1	go_punish	0	-1	0	1	1	1	1	n/a	n/a	-1	0.8255197999533266	1.0	867.3009035999421	975.4826635000064	976.500060499995	976.859700400033	978.3855278999544	979.4016759999796	n/a	n/a	980.4102969999658	981.8100810999748	2020-01-30 16:26:28.960895	0.451718687465683	-0.937824536573676	-2.01535061398099	-1.54251775389675	-1.56363192651531	-2.01535061398099	-0.451718687465683	-0.937824536573676	-2.01535061398099	-1.56363192651531	-2.01535061398099	-2.7368532580814837	-10.06695531607815	-5.926517908739428	-5.651470278008733	-10.73689060348269	-10.058022625017975	-5.651470278008733	-4.364387844428763	-12.888224109552434	-2.821268793474276	-10.264835486195317	-1.3131527005528476	2	missed	0.0
114.52058769995347	7.086549300001934	nogo_punish	1.0	114.54429720004555	116.9809515000087	119.50973590009392	2.436654299963152	115.54947220010229	118.48892800009355	120.52126539999153	1.4314792999064139	1.0208079000003636	1.109581100055948	n/a	1.0	n/a	1	0	78	2	nogo_punish	1	-1	0	0	0	1	0	n/a	n/a	0	1.0	1.0	867.3009035999421	981.8452007999877	982.8503758000444	984.2818550999508	985.7898316000357	986.810639500036	n/a	n/a	987.8221689999336	988.9317500999896	2020-01-30 16:26:28.960895	1.95331644087561	-2.06857993026597	-0.120025460980485	-0.220922199690616	-2.07334190185609	-0.120025460980485	-1.95331644087561	-0.120025460980485	-2.06857993026597	-0.120025460980485	-2.07334190185609	0.120025460980485	-8.565357562668222	-7.057273302431723	-3.7561451250082283	-9.415295049276557	-10.567732600358754	-3.7561451250082283	-1.5075091253667945	-11.44461764401761	-2.879260081349376	-9.447036410602127	-1.366382016837828	2	missed	0.0
121.64104539994139	6.495257499977242	go_punish	1.0	121.66475490003347	123.23487580008805	125.77382770006068	1.570120900054576	122.67234060005285	124.74976320005953	126.77180560003035	0.5625352000351995	1.0240645000011455	1.3882067999803667	n/a	1.0	n/a	1	0	79	1	go_punish	1	0	-1	1	0	0	1	n/a	n/a	-1	1.0	1.0	867.3009035999421	988.9656584999756	989.973244199995	990.5357794000302	992.0506668000016	993.0747313000028	n/a	n/a	994.0727091999725	995.4609159999528	2020-01-30 16:26:28.960895	0.459535537753891	-1.59498036930762	-2.01535061398099	-2.087675755638	-2.47488615173488	-2.01535061398099	-0.459535537753891	-2.01535061398099	-1.59498036930762	-2.01535061398099	-2.47488615173488	-1.65932718067417	-10.059138465789943	-6.583673741473373	-5.651470278008733	-11.282048605223942	-10.969276850237545	-5.651470278008733	-3.2868617670214495	-13.339942797018114	-3.280804331228166	-11.342361563602632	-0.8927824558794779	2	missed	0.0
128.1738226999296	6.3487100000494365	go_punish	1.0	128.19753220002167	129.99211099999945	132.51000820007187	1.794578799977785	129.21093560010195	131.49793760001194	133.52216090005834	0.7811753998975064	1.0120706000599284	1.0240813000127673	n/a	1.0	n/a	1	0	80	1	go_punish	0	-1	0	1	0	0	0	n/a	n/a	0	1.0	1.0	867.3009035999421	995.4984357999638	996.511839200044	997.2930145999416	998.798841199954	999.810911800014	n/a	n/a	1000.8230645000004	1001.8471458000132	2020-01-30 16:26:28.960895	0.216881112875775	-1.59498036930762	-2.4361547527019	-2.4680605065344	-2.65303586557767	-2.4361547527019	-0.216881112875775	-2.4361547527019	-1.59498036930762	-2.4361547527019	-2.65303586557767	2.4361547527019	-10.301792890668057	-6.583673741473373	-6.072274416729643	-11.66243335612034	-11.147426564080334	-6.072274416729643	0.8086201663546206	-13.760746935739025	-3.458954045070956	-11.76316570232354	-0.8927824558794779	2	missed	0.0
134.55885799997486	6.139591799932532	nogo_punish	1.0	134.58256750006694	136.26882920006744	138.79775100003474	1.6862617000005002	135.59735370008275	137.7739384000887	139.80660520005029	0.6714754999846946	1.0238125999460408	0.9155540999491905	n/a	1.0	n/a	1	0	81	2	nogo_punish	0	0	-1	0	0	1	0	n/a	n/a	-1	1.0	1.0	867.3009035999421	1001.883471100009	1002.8982573000249	1003.5697328000095	1005.0748420000308	1006.0986545999768	n/a	n/a	1007.1075087999924	1008.0230628999416	2020-01-30 16:26:28.960895	1.95803166105949	-2.06857993026597	-0.0945812689719117	-0.177124070659334	-2.0526129300314	-0.0945812689719117	-1.95803166105949	-0.0945812689719117	-2.06857993026597	-0.0945812689719117	-2.0526129300314	-3.580096525683248	-8.560642342484343	-7.057273302431723	-3.730700932999655	-9.371496920245274	-10.547003628534064	-3.730700932999655	-5.207631112030528	-11.419173452009035	-2.8585311095246864	-9.421592218593553	-1.366382016837828	2	missed	0.0
140.73298679990705	7.217145300004518	go_punish	0.2707985000452027	140.75669629999913	143.47743299999274	146.00821620004706	2.7207366999936085	141.76364690007188	145.00133650004875	147.01049100002274	1.713786099920867	1.0068796999983078	0.9633505999809131	n/a	1.0	n/a	1	0	82	1	go_punish	1	0	-1	1	1	1	1	n/a	n/a	0	0.2707985000452027	1.0	867.3009035999421	1008.0575998999412	1009.064550500014	1010.7783365999348	1012.3022400999909	1013.3091197999892	n/a	n/a	1014.3113945999648	1015.2747451999458	2020-01-30 16:26:28.960895	-0.553046904551671	-1.59498036930762	-1.79088486994316	-1.80378663682507	-2.34393177449483	-1.79088486994316	0.553046904551671	-1.59498036930762	-1.79088486994316	-2.34393177449483	-1.79088486994316	1.59498036930762	-11.071720908095504	-6.583673741473373	-5.427004533970903	-10.99815948641101	-10.838322472997495	-5.427004533970903	-0.03255421703965933	-13.668523957531955	-2.5968030494364465	-10.921991318929262	-1.088686956515018	2	missed	0.0
147.987468499923	7.132390400045551	nogo_reward	1.0	148.0111780000151	150.84102220006753	153.37516850000247	2.8298442000524346	149.01319850003347	152.3514896000271	154.3842299000827	1.8278237000340596	1.0236788999753799	0.7593384999779573	n/a	1.0	n/a	1	0	83	4	nogo_reward	1	0	1	0	0	1	0	n/a	n/a	1	1.0	1.0	867.3009035999421	1015.3120815999572	1016.3141020999756	1018.1419258000096	1019.6523931999692	1020.6760720999446	n/a	n/a	1021.6851335000248	1022.4444720000027	2020-01-30 16:26:28.960895	14.2019844358946	0.0	27.6342108974095	27.6342108974095	13.4322264615149	27.6342108974095	-14.2019844358946	27.6342108974095	0.0	27.6342108974095	13.4322264615149	4.162676684257303	3.6833104323507673	-4.988693372165752	23.998091233381757	18.439838047823557	4.9378357630122345	23.998091233381757	2.535142097910023	16.309618714372377	12.626308282021613	18.307199947787858	0.7021979134281422	2	missed	0.0
155.1532365999882	6.806443999987209	go_punish	0.3490947999525815	155.17694610008027	157.184992399998	159.7316242000088	2.008046299917737	156.1789834999945	158.72028910007793	160.7435906000901	1.0060089000035077	1.011335099930875	1.23979949997738	n/a	1.0	n/a	1	0	84	1	go_punish	1	0	-1	1	1	1	1	n/a	n/a	0	0.3490947999525815	1.0	867.3009035999421	1022.4778497000224	1023.4798870999366	1024.48589599994	1026.02119270002	1027.032527799951	n/a	n/a	1028.0444942000322	1029.2842937000096	2020-01-30 16:26:28.960895	0.12439067488796	-1.13075539369229	-1.79088486994316	-1.34802522037798	-1.6664941950552	-1.79088486994316	-0.12439067488796	-1.13075539369229	-1.79088486994316	-1.6664941950552	-1.79088486994316	1.13075539369229	-10.394283328655872	-6.119448765858042	-5.427004533970903	-10.542398069963921	-10.160884893557865	-5.427004533970903	-0.4967791926549894	-12.991086378092325	-2.5968030494364465	-10.457766343313931	-1.088686956515018	2	missed	0.0
161.9940851998981	6.7154093000572175	go_punish	0.686234499909915	162.0177946999902	163.70201400003862	166.25170250004157	1.6842193000484258	163.01952060009353	165.23181380005553	167.25564089999534	0.6824933999450877	1.0198886999860406	1.4775631000520661	n/a	1.0	n/a	1	0	85	1	go_punish	1	0	-1	1	1	1	0	n/a	n/a	0	0.686234499909915	1.0	867.3009035999421	1029.3186982999323	1030.3204242000356	1031.0029175999807	1032.5327173999976	1033.5526060999837	n/a	n/a	1034.5565444999374	1036.0341075999895	2020-01-30 16:26:28.960895	0.584066205670736	-0.822550173093075	-1.79088486994316	-1.02553159841943	-1.20681866427243	-1.79088486994316	-0.584066205670736	-0.822550173093075	-1.79088486994316	-1.20681866427243	-1.79088486994316	0.822550173093075	-9.934607797873097	-5.811243545258827	-5.427004533970903	-10.219904448005371	-9.701209362775094	-5.427004533970903	-0.8049844132542044	-12.531410847309553	-2.5968030494364465	-10.149561122714717	-1.088686956515018	2	missed	0.0
168.75316019996535	6.5577198000391945	go_reward	0.4230231000110507	168.77686970005743	170.83020319999196	173.39657950005494	2.0533334999345243	169.78361869999208	172.3726249000756	174.40547060000222	1.0465844999998808	1.0239545999793336	0.9291189000944087	n/a	1.0	n/a	1	0	86	3	go_reward	1	1	0	1	1	1	0	n/a	n/a	1	0.4230231000110507	1.0	867.3009035999421	1036.0777732999995	1037.0845222999342	1038.131106799934	1039.6735285000177	1040.697483099997	n/a	n/a	1041.7063741999443	1042.6354931000387	2020-01-30 16:26:28.960895	40.5074708187281	27.2574681325414	0.0	27.2574681325414	40.5074708187281	0.0	-40.5074708187281	27.2574681325414	0.0	40.5074708187281	0.0	4.5394194491254005	29.98879681518427	22.26877476037565	-3.6361196640277433	18.06309528295546	32.01308012022544	-3.6361196640277433	2.911884862778121	29.182878635690976	-0.8059181794932863	17.93045718291976	0.7021979134281422	2	missed	0.0
175.34627689991612	7.017507100012153	go_punish	0.6940933000296354	175.3699864000082	177.953110500006	180.49378840008285	2.5831240999978036	176.37615230004303	179.48339850001503	181.49722220003605	1.5769581999629736	1.0103899000678211	0.8902712999843061	n/a	1.0	n/a	1	0	87	1	go_punish	1	0	-1	1	1	1	1	n/a	n/a	0	0.6940933000296354	1.0	867.3009035999421	1042.6708899999503	1043.6770558999851	1045.254014099948	1046.7843020999571	1047.794692000025	n/a	n/a	1048.7981257999782	1049.6883970999625	2020-01-30 16:26:28.960895	0.905998189684786	-0.610738619338396	-1.79088486994316	-0.791752726400232	-0.884886680258378	-1.79088486994316	-0.905998189684786	-0.610738619338396	-1.79088486994316	-0.884886680258378	-1.79088486994316	0.610738619338396	-9.612675813859047	-5.599431991504148	-5.427004533970903	-9.986125575986172	-9.379277378761042	-5.427004533970903	-1.0167959670088833	-12.209478863295502	-2.5968030494364465	-9.937749568960037	-1.088686956515018	2	missed	0.0
182.40160439989972	6.4650526000189075	nogo_punish	1.0	182.4253138999918	183.93553440005053	186.4749620000366	1.5102205000587219	183.4301024000158	185.4513064000057	187.47479370003566	0.5054320000347161	1.0236556000309065	1.4155727999750525	n/a	1.0	n/a	1	0	88	2	nogo_punish	0	0	-1	0	0	1	0	n/a	n/a	-1	1.0	1.0	867.3009035999421	1049.726217499934	1050.731005999958	1051.2364379999926	1052.7522099999478	1053.7758655999787	n/a	n/a	1054.7756972999778	1056.1912700999528	2020-01-30 16:26:28.960895	1.46115017331746	-2.06857993026597	-1.0130172396237	-1.08093235738703	-2.47416741294116	-1.0130172396237	-1.46115017331746	-1.0130172396237	-2.06857993026597	-1.0130172396237	-2.47416741294116	-2.66166055503146	-9.057523830226373	-7.057273302431723	-4.649136903651444	-10.27530520697297	-10.968558111443825	-4.649136903651444	-4.289195141378739	-12.337609422660824	-3.280085592434446	-10.340028189245341	-1.366382016837828	2	missed	0.0
188.90552049991675	6.293390900013037	nogo_reward	1.0	188.92923000000883	190.67525100009516	193.1852942000844	1.7460210000863299	189.94109690003097	192.16917750006542	194.18517800001428	0.7341541000641882	1.0161167000189835	1.0374429000075907	n/a	1.0	n/a	1	0	89	4	nogo_reward	1	0	1	0	0	1	0	n/a	n/a	1	1.0	1.0	867.3009035999421	1056.230133599951	1057.242000499973	1057.9761546000373	1059.4700811000075	1060.4861978000265	n/a	n/a	1061.4860815999564	1062.523524499964	2020-01-30 16:26:28.960895	14.6488218213601	0.0	28.5034395044287	28.5034395044287	13.8546176830686	28.5034395044287	-14.6488218213601	28.5034395044287	0.0	28.5034395044287	13.8546176830686	3.2934480772381	4.130147817816267	-4.988693372165752	24.86731984040096	19.30906665484276	5.360226984565935	24.86731984040096	1.6659134908908206	17.17884732139158	13.048699503575314	19.17642855480706	0.7021979134281422	2	missed	0.0
195.2327387999976	7.255458500003442	go_punish	0.4961093000601977	195.2564483000897	197.72308440005872	200.2746926000109	2.466636099969037	196.247024200042	199.25403250008821	201.27661180007271	1.4760602000167182	1.0206600999226794	1.2352950000204146	n/a	1.0	n/a	1	0	90	1	go_punish	1	0	-1	1	1	1	0	n/a	n/a	0	0.4961093000601977	1.0	867.3009035999421	1062.5573519000318	1063.547927799984	1065.0239880000008	1066.5549361000303	1067.575596199953	n/a	n/a	1068.5775154000148	1069.8128104000352	2020-01-30 16:26:28.960895	1.13713655896952	-0.461173313082747	-1.79088486994316	-0.618928839959575	-0.653748310973646	-1.79088486994316	-1.13713655896952	-0.461173313082747	-1.79088486994316	-0.653748310973646	-1.79088486994316	0.461173313082747	-9.381537444574313	-5.449866685248499	-5.427004533970903	-9.813301689545515	-9.14813900947631	-5.427004533970903	-1.1663612732645325	-11.97834049401077	-2.5968030494364465	-9.78818426270439	-1.088686956515018	2	missed	0.0
202.5254580999026	7.105772800045315	nogo_punish	1.0	202.5491675999947	204.8443521000445	207.36120150005445	2.2951845000497997	203.56320620002225	206.350519300089	208.3740769000724	1.2811459000222385	1.0106821999654585	1.2808634999676087	n/a	1.0	n/a	1	0	91	2	nogo_punish	1	-1	0	0	0	1	0	n/a	n/a	0	1.0	1.0	867.3009035999421	1069.8500711999368	1070.8641097999644	1072.1452556999866	1073.651422900031	1074.6621050999966	n/a	n/a	1075.6749805000145	1076.955843999982	2020-01-30 16:26:28.960895	1.11438021328117	-2.06857993026597	-1.65523690323609	-1.71141356358512	-2.76961711651726	-1.65523690323609	-1.11438021328117	-1.65523690323609	-2.06857993026597	-1.65523690323609	-2.76961711651726	1.65523690323609	-9.404293790262663	-7.057273302431723	-5.291356567263834	-10.905786413171061	-11.264007815019925	-5.291356567263834	0.02770231688881064	-12.979829086273215	-3.575535296010546	-10.982247852857732	-1.366382016837828	2	missed	0.0
209.67645499994978	6.122762899962254	go_reward	0.4117524999892339	209.70016450004186	211.2163281000685	213.7757262000814	1.5161636000266299	210.71170730004087	212.75519850000273	214.7967431000434	0.5046208000276238	1.0205277000786737	1.0261842999607325	n/a	1.0	n/a	1	0	92	3	go_reward	0	0	1	1	1	1	0	n/a	n/a	0	0.4117524999892339	1.0	867.3009035999421	1077.001068099984	1078.012610899983	1078.5172317000106	1080.0561020999448	1081.0766298000235	n/a	n/a	1082.0976466999855	1083.1238309999462	2020-01-30 16:26:28.960895	42.1180082135886	28.3431831365342	0.0	28.3431831365342	42.1180082135886	0.0	-42.1180082135886	28.3431831365342	0.0	42.1180082135886	0.0	-28.3431831365342	31.59933421004477	23.35448976436845	-3.6361196640277433	19.14881028694826	33.62361751508594	-3.6361196640277433	-29.97071772288148	30.793416030551477	-0.8059181794932863	19.01617218691256	0.7021979134281422	2	missed	0.0
215.83320879994426	6.359602599986829	nogo_reward	1.0	215.85691830003634	217.726046000025	220.2652664000634	1.8691276999886668	216.87662730005104	219.24179880006704	221.26401770010125	0.8494186999739668	1.0234675999963656	0.9525031999219209	n/a	1.0	n/a	1	0	93	4	nogo_reward	1	0	1	0	0	1	0	n/a	n/a	1	1.0	1.0	867.3009035999421	1083.1578218999784	1084.1775308999931	1085.026949599967	1086.5427024000091	1087.5661700000055	n/a	n/a	1088.5649213000434	1089.5174244999653	2020-01-30 16:26:28.960895	14.9882922590958	0.0	29.1641293056054	29.1641293056054	14.1758370465095	29.1641293056054	-14.9882922590958	29.1641293056054	0.0	29.1641293056054	14.1758370465095	2.632758276061402	4.469618255551968	-4.988693372165752	25.528009641577658	19.96975645601946	5.681446348006835	25.528009641577658	1.0052236897141227	17.839537122568274	13.369918867016214	19.83711835598376	0.7021979134281422	2	missed	0.0
222.22632559994213	6.344377300003771	go_punish	1.0	222.2500351000342	224.29969560005702	226.81940090004355	2.04966050002281	223.25256880000234	225.80532929999754	227.81979540002067	1.0471268000546843	1.0140716000460088	0.7746170000173151	n/a	1.0	n/a	1	0	94	1	go_punish	1	0	-1	1	0	0	0	n/a	n/a	-1	1.0	1.0	867.3009035999421	1089.5509386999763	1090.5534723999444	1091.6005991999991	1093.1062328999396	1094.1203044999857	n/a	n/a	1095.1206989999628	1095.89531599998	2020-01-30 16:26:28.960895	-1.30647252128332	-0.353216445848896	-1.79088486994316	-0.489063314089121	-0.48441234865984	-1.79088486994316	1.30647252128332	-1.79088486994316	-0.353216445848896	-1.79088486994316	-0.48441234865984	-1.8837929247119998	-11.825146524827153	-5.341909818014648	-5.427004533970903	-9.683436163675061	-8.978803047162504	-5.427004533970903	-3.511327511059279	-13.115477052980284	-1.2903305281531263	-11.1178958195648	0.3489814675792462	2	missed	0.0
228.6086357999593	6.1676424000179395	nogo_reward	1.0	228.63234530005138	230.07285100000445	232.59582950000186	1.4405056999530643	229.63601540005766	231.57945110008586	233.60344590002205	0.43683559994678944	1.0163783999159932	1.196541800047271	n/a	1.0	n/a	1	0	95	4	nogo_reward	1	0	1	0	0	1	1	n/a	n/a	1	1.0	1.0	867.3009035999421	1095.9332488999935	1096.9369189999998	1097.3737545999466	1098.880354700028	1099.896733099944	n/a	n/a	1100.9043494999642	1102.1008913000114	2020-01-30 16:26:28.960895	15.2497981077482	0.0	29.6730838674454	29.6730838674454	14.4232857596973	29.6730838674454	-15.2497981077482	29.6730838674454	0.0	29.6730838674454	14.4232857596973	2.1238037142214026	4.731124104204367	-4.988693372165752	26.036964203417657	20.47871101785946	5.928895061194636	26.036964203417657	0.49626912787412314	18.348491684408273	13.617367580204014	20.346072917823758	0.7021979134281422	2	missed	0.0
234.8105579999974	6.813203500001691	nogo_punish	1.0	234.83426750008948	236.6230974000648	239.1544830000496	1.788829899975326	235.8534073000776	238.13065700000152	240.1635574999964	0.7696900999872014	1.023826000048075	1.4839135000947863	n/a	1.0	n/a	1	0	96	2	nogo_punish	0	0	-1	0	0	1	0	n/a	n/a	-1	1.0	1.0	867.3009035999421	1102.1351711000316	1103.1543109000197	1103.924001000007	1105.4315605999436	1106.4553865999917	n/a	n/a	1107.4644610999385	1108.9483746000333	2020-01-30 16:26:28.960895	1.36533457756253	-2.06857993026597	-1.17939305231363	-1.22608988658073	-2.54472762987616	-1.17939305231363	-1.36533457756253	-1.17939305231363	-2.06857993026597	-1.17939305231363	-2.54472762987616	-2.49528474234153	-9.153339425981303	-7.057273302431723	-4.815512716341374	-10.420462736166671	-11.039118328378825	-4.815512716341374	-4.122819328688809	-12.503985235350754	-3.3506458093694462	-10.506404001935271	-1.366382016837828	2	missed	0.0
241.65697639994323	6.307108900044113	nogo_reward	1.0	241.68068590003531	243.24193830008153	245.77502530009951	1.5612524000462145	242.67871570005082	244.7522579000797	246.78521130001172	0.5632226000307128	1.0227674000198022	1.2025835000677034	n/a	1.0	n/a	1	0	97	4	nogo_reward	1	0	1	0	0	1	1	n/a	n/a	1	1.0	1.0	867.3009035999421	1108.9815894999774	1109.979619299993	1110.5428419000236	1112.0531615000218	1113.0759289000416	n/a	n/a	1114.0861148999538	1115.2886984000215	2020-01-30 16:26:28.960895	15.45368572102	0.0	30.0697443002606	30.0697443002606	14.6160585792406	30.0697443002606	-15.45368572102	30.0697443002606	0.0	30.0697443002606	14.6160585792406	1.727143281406203	4.935011717476167	-4.988693372165752	26.433624636232857	20.875371450674656	6.1216678807379346	26.433624636232857	0.09960869505892367	18.745152117223476	13.810140399747313	20.742733350638957	0.7021979134281422	2	missed	0.0
248.0079477999825	6.809724299935624	go_reward	0.330278699984774	248.03165730007458	249.82589000009466	252.37004680000246	1.7942327000200748	249.0386514000129	251.3540877000196	253.3787037000293	0.7872386000817642	1.0159590999828652	1.4626778999809176	n/a	1.0	n/a	1	0	98	3	go_reward	1	1	0	1	1	1	0	n/a	n/a	1	0.330278699984774	1.0	867.3009035999421	1115.3325609000167	1116.339554999955	1117.1267936000368	1118.6549912999617	1119.6709503999446	n/a	n/a	1120.6796072999714	1122.1422851999523	2020-01-30 16:26:28.960895	30.3742832947483	20.400404946752	0.0	20.400404946752	30.3742832947483	0.0	-30.3742832947483	20.400404946752	0.0	30.3742832947483	0.0	11.3964826349148	19.855609291204466	15.41171157458625	-3.6361196640277433	11.20603209716606	21.879892596245632	-3.6361196640277433	9.768948048567522	19.049691111711176	-0.8059181794932863	11.07339399713036	0.7021979134281422	2	missed	0.0
254.85743559990078	6.122463200008724	nogo_punish	1.0	254.88114509999286	256.3202892000554	258.8507188000949	1.4391441000625491	255.89844210003503	257.83048890007194	259.86957030009944	0.4218471000203863	1.0202299000229686	1.134037999902148	n/a	1.0	n/a	1	0	99	2	nogo_punish	1	-1	0	0	0	1	0	n/a	n/a	0	1.0	1.0	867.3009035999421	1122.182048699935	1123.1993456999771	1123.6211927999975	1125.131392500014	1126.151622400037	n/a	n/a	1127.1704739000415	1128.3045118999437	2020-01-30 16:26:28.960895	1.03095367250578	-2.06857993026597	-1.79989429925812	-1.83889027072976	-2.8308479717639	-1.79989429925812	-1.03095367250578	-1.79989429925812	-2.06857993026597	-1.79989429925812	-2.8308479717639	1.79989429925812	-9.487720331038053	-7.057273302431723	-5.4360139632858635	-11.0332631203157	-11.325238670266565	-5.4360139632858635	0.1723597129108405	-13.124486482295245	-3.636766151257186	-11.126905248879762	-1.366382016837828	2	missed	0.0
261.0164526998999	6.292934100026969	nogo_punish	1.0	261.040162199992	262.5825270999924	265.1142802000977	1.5423649000003934	262.04486120003276	264.0977126000214	266.1142691000132	0.5376658999596202	1.0165676000763142	1.2188272000057623	n/a	1.0	n/a	1	0	100	2	nogo_punish	0	0	-1	0	0	1	0	n/a	n/a	-1	1.0	1.0	867.3009035999421	1128.341065799934	1129.3457647999749	1129.8834306999345	1131.3986161999635	1132.4151838000398	n/a	n/a	1133.4151726999553	1134.633999899961	2020-01-30 16:26:28.960895	1.29551928240099	-2.06857993026597	-1.30020121049323	-1.33290720108419	-2.59572049289423	-1.30020121049323	-1.29551928240099	-1.30020121049323	-2.06857993026597	-1.30020121049323	-2.59572049289423	-2.37447658416193	-9.223154721142842	-7.057273302431723	-4.936320874520973	-10.52728005067013	-11.090111191396895	-4.936320874520973	-4.00201117050921	-12.624793393530354	-3.401638672387516	-10.62721216011487	-1.366382016837828	2	missed	0.0
267.3471959999299	6.620220800046809	go_punish	0.4106272000353783	267.370905500022	269.1964449000079	271.7433200000087	1.825539399985928	268.38396740006283	270.726993600023	272.7434323000489	0.8124774999450892	1.0163263999857008	1.2476940000199193	n/a	1.0	n/a	1	0	101	1	go_punish	0	-1	0	1	1	1	0	n/a	n/a	-1	0.4106272000353783	1.0	867.3009035999421	1134.671809099964	1135.684871000005	1136.49734849995	1138.027897199965	1139.0442235999508	n/a	n/a	1140.044335899991	1141.292029900011	2020-01-30 16:26:28.960895	1.40663998116828	-0.353216445848896	-2.28190324854357	-1.32793699786227	-0.87526326737529	-2.28190324854357	-1.40663998116828	-0.353216445848896	-2.28190324854357	-0.87526326737529	-2.28190324854357	-3.321461348806264	-9.112034022375553	-5.341909818014648	-5.918022912571313	-10.522309847448211	-9.369653965877955	-5.918022912571313	-4.948995935153544	-12.199855450412414	-3.087821428036856	-9.680227395470537	-1.5797053351154278	2	missed	0.0
274.00079419999383	7.1674143999116495	go_punish	0.5301452000858262	274.0245037000859	276.38901100005023	278.9455599000212	2.364507299964316	275.030308800051	277.92495660006534	279.9492452000268	1.358702199999243	1.0206032999558374	1.2426728999707848	n/a	1.0	n/a	1	0	102	1	go_punish	1	0	-1	1	1	1	0	n/a	n/a	0	0.5301452000858262	1.0	867.3009035999421	1141.325407300028	1142.331212399993	1143.6899145999923	1145.2258602000074	1146.2464634999633	n/a	n/a	1147.2501487999689	1148.4928216999397	2020-01-30 16:26:28.960895	0.276209403841002	-1.21168113752398	-2.28190324854357	-1.90878436870212	-2.00569384470257	-2.28190324854357	-0.276209403841002	-1.21168113752398	-2.28190324854357	-2.00569384470257	-2.28190324854357	1.21168113752398	-10.242464599702831	-6.200374509689732	-5.918022912571313	-11.103157218288061	-10.500084543205235	-5.918022912571313	-0.41585344882329944	-13.330286027739694	-3.087821428036856	-10.538692087145622	-1.5797053351154278	2	missed	0.0
281.2034982999321	6.93423170002643	nogo_punish	1.0	281.2272078000242	283.64560360007454	286.1799054000294	2.418395800050348	282.2218040000878	285.16032870009076	287.1824952000752	1.4237995999867508	1.019576699938625	0.9789442999754101	n/a	1.0	n/a	1	0	103	2	nogo_punish	1	-1	0	0	0	1	0	n/a	n/a	0	1.0	1.0	867.3009035999421	1148.5281113999663	1149.52270760003	1150.9465072000166	1152.4612323000329	1153.4808089999715	n/a	n/a	1154.4833988000173	1155.4623430999927	2020-01-30 16:26:28.960895	0.973454301009111	-2.06857993026597	-1.89915670856053	-1.92669886211528	-2.87261100956964	-1.89915670856053	-0.973454301009111	-1.89915670856053	-2.06857993026597	-1.89915670856053	-2.87261100956964	1.89915670856053	-9.545219702534721	-7.057273302431723	-5.535276372588274	-11.121071711701221	-11.367001708072305	-5.535276372588274	0.27162212221325066	-13.223748891597655	-3.6785291890629264	-11.226167658182172	-1.366382016837828	2	missed	0.0
288.1805355999386	7.532518099993467	go_reward	0.3033910999074578	288.2042451000307	290.68672630004585	293.2381600000663	2.4824812000151724	289.2122925000731	292.2130396000575	294.2455206000013	1.4744337999727577	1.0251204000087455	1.4912426000228152	n/a	1.0	n/a	1	0	104	3	go_reward	1	1	0	1	1	1	0	n/a	n/a	1	0.3033910999074578	1.0	867.3009035999421	1155.5051486999728	1156.5131961000152	1157.987629899988	1159.5139431999996	1160.5390636000084	n/a	n/a	1161.5464241999434	1163.0376667999662	2020-01-30 16:26:28.960895	35.3660034818649	23.7835991280152	0.0	23.7835991280152	35.3660034818649	0.0	-35.3660034818649	23.7835991280152	0.0	35.3660034818649	0.0	8.013288453651601	24.84732947832107	18.79490575584945	-3.6361196640277433	14.58922627842926	26.871612783362238	-3.6361196640277433	6.385753867304322	24.041411298827775	-0.8059181794932863	14.45658817839356	0.7021979134281422	2	missed	0.0
295.75095899996813	7.664960299967788	nogo_punish	0.638735199929215	295.7746685000602	298.4872050000124	301.031283700024	2.7125364999521935	296.7786499999929	300.0078900000078	302.0335721001029	1.7085550000194871	1.023393700016186	1.4060566999251023	n/a	1.0	n/a	1	0	105	2	nogo_punish	1	-1	0	0	1	0	1	n/a	n/a	-1	0.638735199929215	1.0	867.3009035999421	1163.0755721000023	1164.079553599935	1165.7881085999545	1167.30879359995	1168.332187299966	n/a	n/a	1169.334475700045	1170.74053239997	2020-01-30 16:26:28.960895	-1.24843803042936	-2.06857993026597	-1.3812715715591	-1.40455412355543	-2.62970960198846	-1.3812715715591	1.24843803042936	-2.06857993026597	-1.3812715715591	-2.62970960198846	-1.3812715715591	-1.6060978643891897	-11.767112033973193	-7.057273302431723	-5.017391235586843	-10.59892697314137	-11.124100300491126	-5.017391235586843	-3.233632450736469	-13.954301785025585	-2.187189751052386	-11.395590879887612	-0.6790736581309578	2	missed	0.0
303.45061830000486	5.972004099981859	nogo_reward	1.0	303.47432780009694	305.0438707000576	307.5640969000524	1.569542899960652	304.480790700065	306.5586333000101	308.56261090002954	0.5630799999926239	1.005463600042276	0.8837210000492632	n/a	1.0	n/a	1	0	106	4	nogo_reward	1	0	1	0	0	1	0	n/a	n/a	1	1.0	1.0	867.3009035999421	1170.775231400039	1171.781694300007	1172.3447742999997	1173.8595368999522	1174.8650004999945	n/a	n/a	1175.8635144999716	1176.747235500021	2020-01-30 16:26:28.960895	15.6143428249761	0.0	30.3820753809228	30.3820753809228	14.7677325559467	30.3820753809228	-15.6143428249761	30.3820753809228	0.0	30.3820753809228	14.7677325559467	1.4148122007440023	5.095668821432268	-4.988693372165752	26.745955716895057	21.18770253133686	6.273341857444036	26.745955716895057	-0.21272238560327716	19.057483197885674	13.961814376453415	21.055064431301158	0.7021979134281422	2	missed	0.0
309.46583419991657	5.779617100022733	go_reward	0.4601123000029474	309.48954370000865	310.8449076000834	313.38910280005075	1.3553639000747353	310.4970141000813	312.3640052000992	314.40054320008494	0.34789350000210106	1.0250975999515504	0.8686175999464467	n/a	1.0	n/a	1	0	107	3	go_reward	1	1	0	1	1	1	0	n/a	n/a	1	0.4601123000029474	1.0	867.3009035999421	1176.7904472999508	1177.7979177000234	1178.1458112000255	1179.6649088000413	1180.6900063999929	n/a	n/a	1181.701446800027	1182.5700643999735	2020-01-30 16:26:28.960895	38.6197542507445	25.9836751985621	0.0	25.9836751985621	38.6197542507445	0.0	-38.6197542507445	25.9836751985621	0.0	38.6197542507445	0.0	5.813212383104702	28.101080247200667	20.994981826396348	-3.6361196640277433	16.789302348976157	30.125363552241836	-3.6361196640277433	4.185677796757423	27.295162067707373	-0.8059181794932863	16.65666424894046	0.7021979134281422	2	missed	0.0
315.2819850000087	7.292938199942	nogo_punish	1.0	315.3056945001008	318.0908665000461	320.6259764001006	2.7851719999453053	316.3202828000067	319.6064531999873	321.63007559999824	1.770583700039424	1.0195232001133263	0.9685571000445634	n/a	1.0	n/a	1	0	108	2	nogo_punish	1	-1	0	0	0	1	0	n/a	n/a	0	1.0	1.0	867.3009035999421	1182.606598100043	1183.6211863999488	1185.3917700999882	1186.9073567999294	1187.9268800000427	n/a	n/a	1188.9309791999403	1189.899536299985	2020-01-30 16:26:28.960895	1.86791594426084	-2.41753054240069	-1.3812715715591	-1.98504879339887	-3.24918751581994	-1.3812715715591	-1.86791594426084	-1.3812715715591	-2.41753054240069	-1.3812715715591	-3.24918751581994	1.3812715715591	-8.650758059282992	-7.406223914566442	-5.017391235586843	-11.17942164298481	-11.743578214322605	-5.017391235586843	-0.24626301478817947	-12.705863754596225	-4.055105695313227	-10.708282521180742	-1.7153326289725477	2	missed	0.0
322.6169462999096	6.70040150010027	go_reward	0.2973328999942168	322.6406558000017	324.55164469999727	327.1143747000024	1.9109888999955729	323.6399061999982	326.0900997000281	328.1291300000157	0.9117384999990463	1.0242749999742955	1.211927300086245	n/a	1.0	n/a	1	0	109	3	go_reward	1	1	0	1	1	1	1	n/a	n/a	1	0.2973328999942168	1.0	867.3009035999421	1189.9415593999438	1190.9408097999403	1191.8525482999394	1193.3910032999702	1194.4152782999445	n/a	n/a	1195.4300335999578	1196.641960900044	2020-01-30 16:26:28.960895	40.8313463546439	27.4764870459059	0.0	27.4764870459059	40.8313463546439	0.0	-40.8313463546439	27.4764870459059	0.0	40.8313463546439	0.0	4.320400535760903	30.312672351100066	22.487793673740146	-3.6361196640277433	18.28211419631996	32.336955656141235	-3.6361196640277433	2.692865949413624	29.506754171606772	-0.8059181794932863	18.149476096284257	0.7021979134281422	2	missed	0.0
329.3554128999822	6.588194199953932	go_punish	0.3904460000339895	329.37912240007427	331.60554500005674	334.15242739999667	2.2264225999824703	330.3920116000809	333.12852820008993	335.16127979999874	1.2135333999758586	1.0238991999067366	0.8060368000294602	n/a	1.0	n/a	1	0	110	1	go_punish	0	-1	0	1	1	1	0	n/a	n/a	-1	0.3904460000339895	1.0	867.3009035999421	1196.6800260000164	1197.692915200023	1198.9064485999988	1200.429431800032	1201.4533309999388	n/a	n/a	1202.4621833999408	1203.2682201999703	2020-01-30 16:26:28.960895	0.859178354697127	-0.871762562686336	-2.28190324854357	-1.38508654134463	-1.42272489384645	-2.28190324854357	-0.859178354697127	-0.871762562686336	-2.28190324854357	-1.42272489384645	-2.28190324854357	-2.8029152319688238	-9.659495648846706	-5.860455934852088	-5.918022912571313	-10.579459390930571	-9.917115592349115	-5.918022912571313	-4.430449818316103	-12.747317076883574	-3.087821428036856	-10.198773512307977	-1.5797053351154278	2	missed	0.0
335.9784397999756	7.034187600016594	go_punish	0.2992183000314981	336.0021493000677	338.3458248000825	340.8874695000702	2.343675500014797	337.0100547000768	339.866870800033	341.8904077000916	1.335770100005675	1.020598700037226	1.145929199992679	n/a	1.0	n/a	1	0	111	1	go_punish	1	0	-1	1	1	1	0	n/a	n/a	0	0.2992183000314981	1.0	867.3009035999421	1203.3030529000098	1204.310958300019	1205.6467284000246	1207.167774399975	1208.1883731000123	n/a	n/a	1209.1913113000337	1210.3372405000264	2020-01-30 16:26:28.960895	-0.122194727628172	-1.58119806955396	-2.28190324854357	-1.96791637597251	-2.40409797617175	-2.28190324854357	0.122194727628172	-1.58119806955396	-2.28190324854357	-2.40409797617175	-2.28190324854357	1.58119806955396	-10.640868731172004	-6.569891441719712	-5.918022912571313	-11.162289225558451	-10.898488674674415	-5.918022912571313	-0.046336516793319404	-13.728690159208874	-3.087821428036856	-10.908209019175601	-1.5797053351154278	2	missed	0.0
343.0477864999559	7.6787474999434835	nogo_reward	1.0	343.071496000048	345.86692679999396	348.3886031000875	2.7954307999459616	344.08727550006006	347.36774990009144	349.3977389000354	1.779651299933903	1.0208531999960542	1.3525045999560916	n/a	1.0	n/a	1	0	112	4	nogo_reward	1	0	1	0	0	1	0	n/a	n/a	1	1.0	1.0	867.3009035999421	1210.37239959999	1211.3881791000022	1213.167830399936	1214.6686535000335	1215.6895067000296	n/a	n/a	1216.6986424999775	1218.0511470999336	2020-01-30 16:26:28.960895	15.7421336760854	0.0	30.6302632712199	30.6302632712199	14.8881295951344	30.6302632712199	-15.7421336760854	30.6302632712199	0.0	30.6302632712199	14.8881295951344	1.1666243104469025	5.223459672541567	-4.988693372165752	26.994143607192157	21.435890421633957	6.393738896631735	26.994143607192157	-0.4609102759003769	19.305671088182777	14.082211415641114	21.303252321598258	0.7021979134281422	2	missed	0.0
350.7715083999792	7.070845199981704	go_reward	0.3284560999600217	350.7952179000713	353.548586799996	356.0938801000593	2.7533688999246806	351.79247890005354	355.0794649000745	357.10034770006314	1.7561078999424353	1.0144151999847963	0.7657153999898583	n/a	1.0	n/a	1	0	113	3	go_reward	1	1	0	1	1	1	0	n/a	n/a	1	0.3284560999600217	1.0	867.3009035999421	1218.0961215000134	1219.0933824999956	1220.849490399938	1222.3803685000166	1223.3947837000014	n/a	n/a	1224.4012513000052	1225.166966699995	2020-01-30 16:26:28.960895	42.3835858395828	28.5229325561632	0.0	28.5229325561632	42.3835858395828	0.0	-42.3835858395828	28.5229325561632	0.0	42.3835858395828	0.0	3.2739550255036	31.864911836038967	23.53423918399745	-3.6361196640277433	19.32855970657726	33.88919514108014	-3.6361196640277433	1.6464204391563206	31.058993656545674	-0.8059181794932863	19.19592160654156	0.7021979134281422	2	missed	0.0
357.87768649996724	6.3586911000311375	go_punish	0.4581272000214085	357.9013960000593	359.2358508000616	361.7629756000822	1.334454800002277	358.90791760000866	360.7508003000403	362.76669240009505	0.32793320005293936	1.0121753000419176	1.493394699995406	n/a	1.0	n/a	1	0	114	1	go_punish	1	0	-1	1	1	1	0	n/a	n/a	0	0.4581272000214085	1.0	867.3009035999421	1225.2022996000014	1226.2088211999508	1226.5367544000037	1228.0517038999824	1229.0638792000243	n/a	n/a	1230.0675960000372	1231.5609907000326	2020-01-30 16:26:28.960895	0.563749017591387	-1.14155568184716	-2.28190324854357	-1.43831301406776	-1.71815423095219	-2.28190324854357	-0.563749017591387	-1.14155568184716	-2.28190324854357	-1.71815423095219	-2.28190324854357	1.14155568184716	-9.954924985952445	-6.130249054012912	-5.918022912571313	-10.6326858636537	-10.212544929454854	-5.918022912571313	-0.4859789045001195	-13.042746413989313	-3.087821428036856	-10.468566631468802	-1.5797053351154278	2	missed	0.0
364.2711362999398	5.859826900064945	nogo_reward	1.0	364.2948458000319	365.70193780004047	368.2305260000285	1.4070920000085607	365.3108377000317	367.21644770004787	369.2395411999894	0.3911001000087708	1.0140782999806106	0.9151315001074636	n/a	1.0	n/a	1	0	115	4	nogo_reward	1	0	1	0	0	1	0	n/a	n/a	1	1.0	1.0	867.3009035999421	1231.595749399974	1232.6117412999738	1233.0028413999826	1234.51735129999	1235.5314295999706	n/a	n/a	1236.5404447999315	1237.455576300039	2020-01-30 16:26:28.960895	15.8446450933261	0.0	30.8291077402145	30.8291077402145	14.9844626468884	30.8291077402145	-15.8446450933261	30.8291077402145	0.0	30.8291077402145	14.9844626468884	0.9677798414523018	5.325971089782268	-4.988693372165752	27.192988076186758	21.634734890628557	6.490071948385735	27.192988076186758	-0.6597547448949777	19.504515557177378	14.178544467395113	21.50209679059286	0.7021979134281422	2	missed	0.0
370.1683764999034	6.084594500018511	go_punish	0.273138599935919	370.19208599999547	371.86775480001234	374.4280118000461	1.6756688000168651	371.2060510000447	373.4067325000651	375.43970420002006	0.661703799967654	1.0212792999809608	0.8369762999939212	n/a	1.0	n/a	1	0	116	1	go_punish	1	0	-1	1	1	1	1	n/a	n/a	0	0.273138599935919	1.0	867.3009035999421	1237.4929895999376	1238.5069545999868	1239.1686583999544	1240.7076361000072	1241.7289153999882	n/a	n/a	1242.7406077999622	1243.577584099956	2020-01-30 16:26:28.960895	1.03066223636422	-0.844281760711839	-2.28190324854357	-1.0755116723527	-1.25124101217936	-2.28190324854357	-1.03066223636422	-0.844281760711839	-2.28190324854357	-1.25124101217936	-2.28190324854357	0.844281760711839	-9.488011767179612	-5.832975132877591	-5.918022912571313	-10.269884521938641	-9.745631710682025	-5.918022912571313	-0.7832528256354404	-12.575833195216484	-3.087821428036856	-10.17129271033348	-1.5797053351154278	2	missed	0.0
376.28816689993255	5.929199400008656	go_punish	0.422268099966459	376.31187640002463	377.677659000037	380.2276412000647	1.3657826000123805	377.3273296999978	379.207967900089	381.2408305000281	0.35032930003922047	1.0196732999756932	1.00024530000519	n/a	1.0	n/a	1	0	117	1	go_punish	1	0	-1	1	1	1	0	n/a	n/a	0	0.422268099966459	1.0	867.3009035999421	1243.6127799999667	1244.62823329994	1244.978562599979	1246.508871500031	1247.5285448000068	n/a	n/a	1248.5417340999702	1249.5419793999754	2020-01-30 16:26:28.960895	1.35886857981726	-0.636493166226509	-2.28190324854357	-0.819010986013404	-0.923034668726314	-2.28190324854357	-1.35886857981726	-0.636493166226509	-2.28190324854357	-0.923034668726314	-2.28190324854357	0.636493166226509	-9.159805423726572	-5.625186538392261	-5.918022912571313	-10.013383835599345	-9.41742536722898	-5.918022912571313	-0.9910414201207705	-12.247626851763439	-3.087821428036856	-9.963504115848151	-1.5797053351154278	2	missed	0.0
382.25822239997797	6.203390399925411	go_reward	0.4531371999764815	382.28193190007005	383.57842630008236	386.1277501001023	1.2964944000123069	383.2974564000033	385.10311920009553	387.1374446999978	0.2809699000790715	1.0246309000067413	1.3478775999976733	n/a	1.0	n/a	1	0	118	3	go_reward	1	1	0	1	1	1	0	n/a	n/a	1	0.4531371999764815	1.0	867.3009035999421	1249.5828355000122	1250.5983599999454	1250.8793299000245	1252.4040228000376	1253.4286537000444	n/a	n/a	1254.43834829994	1255.7862258999376	2020-01-30 16:26:28.960895	43.5011250422417	29.2756694461515	0.0	29.2756694461515	43.5011250422417	0.0	-43.5011250422417	29.2756694461515	0.0	43.5011250422417	0.0	2.5212181355153014	32.982451038697874	24.28697607398575	-3.6361196640277433	20.081296596565558	35.00673434373904	-3.6361196640277433	0.893683549168022	32.17653285920458	-0.8059181794932863	19.94865849652986	0.7021979134281422	2	missed	0.0
388.5034741999116	6.76421819999814	nogo_punish	1.0	388.52718370000366	390.980659299996	393.5074775000103	2.4534755999923163	389.5396912000142	392.4825390999904	394.5167383000953	1.4409680999817738	1.0249384000198916	0.7746635999064893	n/a	1.0	n/a	1	0	119	2	nogo_punish	0	0	-1	0	0	1	0	n/a	n/a	-1	1.0	1.0	867.3009035999421	1255.8280872999458	1256.8405947999563	1258.281562899938	1259.7834426999325	1260.8083810999524	n/a	n/a	1261.8176419000374	1262.592305499944	2020-01-30 16:26:28.960895	1.97367060385512	-2.41753054240069	-1.02747120776605	-1.45212022296439	-3.00114181162117	-1.02747120776605	-1.97367060385512	-1.02747120776605	-2.41753054240069	-1.02747120776605	-3.00114181162117	-2.64720658688911	-8.545003399688714	-7.406223914566442	-4.663590871793794	-10.646493072550332	-11.495532510123834	-4.663590871793794	-4.274741173236389	-12.352063390803174	-3.807059991114456	-10.354482157387691	-1.7153326289725477	2	missed	0.0
395.30351319990586	7.03675980004482	nogo_reward	1.0	395.32722269999795	397.8635370000268	400.40250580001157	2.5363143000288346	396.3424002000829	399.3791697000852	401.4115524000954	1.5211367999438608	1.0233360999263823	0.952430099947378	n/a	1.0	n/a	1	0	120	4	nogo_reward	1	0	1	0	0	1	0	n/a	n/a	1	1.0	1.0	867.3009035999421	1262.62812629994	1263.643303800025	1265.1644405999689	1266.6800733000273	1267.7034093999537	n/a	n/a	1268.7124560000375	1269.6648860999849	2020-01-30 16:26:28.960895	15.9275096446863	0.0	30.9896089739629	30.9896089739629	15.0620993292766	30.9896089739629	-15.9275096446863	30.9896089739629	0.0	30.9896089739629	15.0620993292766	0.8072786077039034	5.408835641142467	-4.988693372165752	27.353489309935156	21.795236124376956	6.567708630773936	27.353489309935156	-0.8202559786433761	19.665016790925776	14.256181149783314	21.662598024341257	0.7021979134281422	2	missed	0.0
