onset	duration	trial_type	response_time	cueOnset	targetOnset	fbOnset	cueRT	firstfixOnset	secondfixOnset	waitOnset	firstfixdur	secondfixdur	waitdur	nback_fbOnset	nback_response_time	nback_targetOnset	block	wm	trial	cue	cond	is_common	outcome_go	outcome_nogo	key_correct	key_pressed	is_correct	key_correct_nback	key_pressed_nback	is_correct_nback	outcome	rt	rt_nback	time_scan	time_onset	time_isi1	time_circle	time_isi2	time_feedback	time_same	time_correct	time_iti	time_done	timestamp_scan	DV	Qgo	Qnogo	SV	Wgo	Wnogo	mDV	Qchosen	Qunchosen	Wchosen	Wunchosen	PE	DVC	QgoC	QnogoC	SVC	WgoC	WnogoC	PEC	WchosenC	WunchosenC	QchosenC	QunchosenC	run	outcome_nback	nback_targetResp
0.0	9.502764600001683	nogo_reward	1.0	0.03699129999949946	2.4675585000004503	5.006798200000048	2.430567200000951	1.0422574000003806	3.975216900000305	8.07157350000125	1.4253011000000697	1.0315812999997434	1.4681823999999324	7.054596300000412	1.0	6.0410883000004105	1	1	61	2	nogo_reward	1	0	1	0	0	1	0	n/a	0.0	1	1.0	1.0	647.1689669999996	647.2059582999991	648.2112244	649.6365255000001	651.1441838999999	652.1757651999997	653.2100553	654.2235633	655.2405405000009	656.7087229000008	2019-11-08 17:34:55.364378	13.6671589662175	0.0	11.6778103920002	11.6778103920002	-1.98934857421727	11.6778103920002	-13.6671589662175	11.6778103920002	0.0	11.6778103920002	-1.98934857421727	7.6231276296127	6.9908502368455725	-1.0154703823816438	10.767918640320223	7.843437003312544	-3.075153238801931	10.767918640320223	7.162736204342877	7.341807819181916	0.3509575823363742	7.317534200318461	2.4349140576201167	2	missed	0.0
9.565341000001354	8.51151849999951	go_punish	0.2466678000000683	9.602332300000853	11.452759600000718	14.02940959999978	1.8504272999998648	10.618101000000024	13.017054400001143	17.136133100000734	0.8346586000006937	1.0123551999986375	0.97771769999963	16.11629300000095	0.3588495999993029	15.060522100000526	1	1	62	3	go_punish	1	0	-1	1	1	1	1	0.0	0.0	0	0.2466678000000683	0.3588495999993029	647.1689669999996	656.7712993000005	657.7870679999996	658.6217266000003	660.1860214000008	661.1983765999994	662.2294891000001	663.2852600000006	664.3051001000003	665.2828178	2019-11-08 17:34:55.364378	2.27578964936848	-4.47681771405884	-5.31848143427215	-4.95320315300954	-3.04269178490367	-5.31848143427215	-2.27578964936848	-4.47681771405884	-5.31848143427215	-3.04269178490367	-5.31848143427215	4.47681771405884	-4.400519080003447	-5.492288096440484	-6.228373185952126	-8.787576541697197	-4.128496449488331	-6.228373185952126	4.016426288789017	-7.378694357721955	-2.9781752777185058	-8.83709390574058	-2.8835673766520333	2	wrong	1.0
18.142259600001125	9.477882400000453	nogo_reward	1.0	18.179250900000625	21.1495431000003	23.671541499999876	2.970292199999676	19.183973200000764	22.654841499999748	26.765873000000283	1.9655698999995366	1.016700000000128	0.8912603000007948	25.754922199999783	0.7050327000015386	24.702400600001056	1	1	63	2	nogo_reward	1	0	1	0	0	1	1	1.0	1.0	1	1.0	0.7050327000015386	647.1689669999996	665.3482179000002	666.3529402000004	668.3185100999999	669.8238084999994	670.8405084999995	671.8713676000007	672.9238891999994	673.9348399999999	674.8261003000007	2019-11-08 17:34:55.364378	15.2110923900108	0.0	12.9607859808425	12.9607859808425	-2.25030640916832	12.9607859808425	-15.2110923900108	12.9607859808425	0.0	12.9607859808425	-2.25030640916832	6.3401520407704	8.534783660638873	-1.0154703823816438	12.050894229162523	9.126412592154843	-3.3361110737529804	12.050894229162523	5.879760615500577	8.624783408024216	0.08999974738532446	8.60050978916076	2.4349140576201167	2	correct	1.0
27.66862840000067	9.033964399999604	nogo_reward	1.0	27.70561970000017	30.282076400000733	32.811081699999704	2.5764567000005627	28.723759000000427	31.78493999999955	35.896088900000905	1.5583174000003055	1.026141700000153	0.8434951999988698	34.87035560000004	0.3123894000000291	33.82990360000076	1	1	64	2	nogo_reward	1	0	1	0	0	1	0	0.0	1.0	1	1.0	0.3123894000000291	647.1689669999996	674.8745866999998	675.892726	677.4510434000003	678.9539069999992	679.9800486999993	680.9988706000004	682.0393225999997	683.0650559000005	683.9085510999994	2019-11-08 17:34:55.364378	16.4609350484743	0.0	13.9993609740821	13.9993609740821	-2.46157407439215	13.9993609740821	-16.4609350484743	13.9993609740821	0.0	13.9993609740821	-2.46157407439215	5.301577047530801	9.784626319102374	-1.0154703823816438	13.089469222402123	10.164987585394442	-3.5473787389768106	13.089469222402123	4.841185622260977	9.663358401263816	-0.12126791783850566	9.63908478240036	2.4349140576201167	2	correct	1.0
36.75398210000094	8.359169499999552	go_reward	0.5275861000009172	36.79097340000044	38.141731900001105	40.731776300001	1.3507585000006657	37.80841429999964	39.70855719999963	43.8023344000012	0.3333176000014646	1.02321910000137	1.3478084999987914	42.794077800001105	0.3925555999994685	41.75278400000025	1	1	65	1	go_reward	0	0	1	1	1	1	0	0.0	1.0	0	0.5275861000009172	0.3925555999994685	647.1689669999996	683.9599404	684.9773812999993	685.3106989000007	686.8775241999992	687.9007433000006	688.9217509999999	689.9630448000007	690.9713014000008	692.3191098999996	2019-11-08 17:34:55.364378	14.35841910832	17.5388849299239	0.0	17.5388849299239	14.35841910832	0.0	-14.35841910832	17.5388849299239	0.0	14.35841910832	0.0	-17.5388849299239	7.682110378948073	16.523414547542256	-0.9098917516799765	13.704511541236243	13.272614443735339	-0.9098917516799765	-17.99927635519372	10.022416535501716	2.3403061565536443	13.17860873824216	2.4349140576201167	2	correct	1.0
45.176070000001346	9.53358819999994	go_punish	0.2906259999999747	45.213061300000845	47.740577500000654	50.311387800000375	2.527516199999809	46.21939259999999	49.28836709999996	53.38892500000111	1.5211849000006623	1.0230207000004157	1.3577244999996765	52.36762819999967	0.2840587999999115	51.32922320000034	1	1	66	3	go_punish	1	0	-1	1	1	1	0	1.0	0.0	0	0.2906259999999747	0.2840587999999115	647.1689669999996	692.3820283000005	693.3883595999996	694.9095445000003	696.4573340999996	697.4803548	698.4981902	699.5365951999993	700.5578920000007	701.9156165000004	2019-11-08 17:34:55.364378	2.95357450235524	-3.60111465889619	-5.31848143427215	-4.01248220480778	-2.36490693191691	-5.31848143427215	-2.95357450235524	-3.60111465889619	-5.31848143427215	-2.36490693191691	-5.31848143427215	3.60111465889619	-3.7227342270166868	-4.616585041277833	-6.228373185952126	-7.8468555934954365	-3.450711596501571	-6.228373185952126	3.1407232336263666	-6.700909504735193	-2.9781752777185058	-7.96139085057793	-2.8835673766520333	2	wrong	1.0
54.764070600000196	8.44388870000148	nogo_reward	1.0	54.801061899999695	56.185798800001066	58.70975650000037	1.3847369000013714	55.81952310000088	57.68473950000043	61.79186200000004	0.3662757000001875	1.0250169999999343	1.4530886000011378	60.770914300001095	0.3563982000014221	59.72969110000122	1	1	67	2	nogo_reward	0	1	0	0	0	1	0	0.0	1.0	0	1.0	0.3563982000014221	647.1689669999996	701.9700288999993	702.9884901000005	703.3547658000007	704.8537065	705.8787235	706.8986581000008	707.9398813000007	708.9608289999996	710.4139176000008	2019-11-08 17:34:55.364378	17.4800113313767	0.0	14.8461915794482	14.8461915794482	-2.63381975192854	14.8461915794482	-17.4800113313767	14.8461915794482	0.0	14.8461915794482	-2.63381975192854	-14.8461915794482	10.803702602004774	-1.0154703823816438	13.936299827768224	11.011818190760543	-3.7196244165132004	13.936299827768224	-15.306583004718025	10.510189006629917	-0.2935135953748955	10.485915387766461	2.4349140576201167	2	correct	1.0
63.262392600001476	9.296959299999799	nogo_reward	1.0	63.299383900000976	65.7947294000005	68.32532750000064	2.49534549999953	64.31834300000082	67.30245060000016	71.40710440000112	1.476386399999683	1.0228769000004831	1.1892387999996572	70.38944660000016	0.3124148000006244	69.34789389999969	1	1	68	2	nogo_reward	1	0	1	0	0	1	0	0.0	1.0	1	1.0	0.3124148000006244	647.1689669999996	710.4683509000006	711.4873100000004	712.9636964000001	714.4714175999998	715.4942945000003	716.5168608999993	717.5584135999998	718.5760714000007	719.7653102000004	2019-11-08 17:34:55.364378	13.9625371844647	0.0	11.9223319941615	11.9223319941615	-2.04020519030317	11.9223319941615	-13.9625371844647	11.9223319941615	0.0	11.9223319941615	-2.04020519030317	7.378606027451401	7.286228455092774	-1.0154703823816438	11.012440242481523	8.087958605473844	-3.1260098548878306	11.012440242481523	6.918214602181577	7.5863294213432155	0.30010096625047433	7.56205580247976	2.4349140576201167	2	correct	1.0
72.60776560000158	8.893650299998626	nogo_punish	1.0	72.64475690000108	74.53367430000071	77.06316479999987	1.8889173999996274	73.66307919999963	76.04101869999977	80.14301350000096	0.8705951000010828	1.0221461000001	1.395393699998749	79.13006080000014	0.3222291999991284	78.09099489999971	1	1	69	4	nogo_punish	0	0	-1	0	0	1	0	0.0	1.0	-1	1.0	0.3222291999991284	647.1689669999996	719.8137239000007	720.8320461999992	721.7026413000003	723.2099856999994	724.2321317999995	725.2599618999993	726.2990277999997	727.3119805000006	728.7073741999993	2019-11-08 17:34:55.364378	8.04686169882651	-12.2108805727973	-2.73666593797915	-4.8968346934197	-10.7835276368057	-2.73666593797915	-8.04686169882651	-2.73666593797915	-12.2108805727973	-2.73666593797915	-10.7835276368057	-17.34877174709575	1.3705529694545824	-13.226350955178944	-3.6465576896591263	-8.731208082107356	-11.86933230139036	-3.6465576896591263	-17.809163172365572	-7.072668510797434	-8.443221480252054	-7.096942129660889	-9.775966515177185	2	correct	1.0
81.55150230000072	8.694490399999268	nogo_reward	1.0	81.58849360000022	83.3165186999995	85.84597190000022	1.7280250999992859	82.6097934999998	84.82311750000008	88.93209519999982	0.7067251999997097	1.022854400000142	1.350888799999666	87.90918210000018	0.5655346999992616	86.8705957000002	1	1	70	2	nogo_reward	1	0	1	0	0	1	1	1.0	1.0	1	1.0	0.5655346999992616	647.1689669999996	728.7574605999998	729.7787604999994	730.4854856999991	731.9920844999997	733.0149388999998	734.0395626999998	735.0781490999998	736.1010621999994	737.4519509999991	2019-11-08 17:34:55.364378	15.5838601155632	0.0	13.2703787730769	13.2703787730769	-2.31348134248634	13.2703787730769	-15.5838601155632	13.2703787730769	0.0	13.2703787730769	-2.31348134248634	6.030559248536001	8.907551386191273	-1.0154703823816438	12.360487021396922	9.436005384389244	-3.3992860070710007	12.360487021396922	5.5701678232661775	8.934376200258615	0.026824814067304192	8.91010258139516	2.4349140576201167	2	correct	1.0
90.29360590000033	8.935989000001427	go_reward	0.2578807999998389	90.33059719999983	92.67918550000104	95.25546720000057	2.348588300001211	91.34645660000024	94.23632069999985	98.34197400000085	1.3327289000008022	1.0191465000007156	0.9246122000004107	97.32376110000041	0.2952186000002257	96.28590000000077	1	1	71	1	go_reward	1	1	0	1	1	1	0	0.0	1.0	1	0.2578807999998389	0.2952186000002257	647.1689669999996	737.4995641999994	738.5154235999998	739.8481525000007	741.4052876999995	742.4244342000002	743.4548670000004	744.4927281	745.5109410000005	746.4355532000009	2019-11-08 17:34:55.364378	11.6783877473839	14.1757729179905	0.0	14.1757729179905	11.6783877473839	0.0	-11.6783877473839	14.1757729179905	0.0	11.6783877473839	0.0	5.1251651036224	5.0020790180119725	13.160302535608857	-0.9098917516799765	10.341399529302844	10.592583082799239	-0.9098917516799765	4.664773678352577	7.3423851745656155	2.3403061565536443	9.81549672630876	2.4349140576201167	2	correct	1.0
99.28084290000152	8.29411059999984	nogo_reward	1.0	99.31783420000102	101.12900040000022	103.660084000001	1.8111661999992066	100.33757390000028	102.63625769999999	106.74693060000027	0.7914264999999432	1.0238263000010193	0.8650142000005872	105.73299820000102	0.5887282000003324	104.69138320000093	1	1	72	2	nogo_reward	1	0	1	0	0	1	1	0.0	0.0	1	1.0	0.5887282000003324	647.1689669999996	746.4868012000006	747.5065408999999	748.2979673999998	749.8052246999996	750.8290510000006	751.8603502000005	752.9019652000006	753.9158975999999	754.7809118000005	2019-11-08 17:34:55.364378	16.8625178567204	0.0	14.3333156628789	14.3333156628789	-2.5292021938415	14.3333156628789	-16.8625178567204	14.3333156628789	0.0	14.3333156628789	-2.5292021938415	4.967622358734001	10.186209127348475	-1.0154703823816438	13.423423911198922	10.498942274191243	-3.6150068584261605	13.423423911198922	4.507230933464178	9.997313090060615	-0.18889603728785564	9.97303947119716	2.4349140576201167	2	wrong	1.0
107.63878440000008	7.911701000000903	go_punish	0.3415201000007073	107.67577569999958	109.17343419999997	111.74596930000007	1.497658500000398	108.69603240000106	110.7263182000006	114.82798399999956	0.4774017999989155	1.0196510999994643	0.7594927000009193	113.80562050000117	0.4815933999998378	112.76458170000114	1	1	73	3	go_punish	0	-1	0	1	1	1	0	0.0	1.0	-1	0.3415201000007073	0.4815933999998378	647.1689669999996	754.8447426999992	755.8649994000007	756.3424011999996	757.8952852000002	758.9149362999997	759.9335487000008	760.9745875000008	761.9969509999992	762.7564437000001	2019-11-08 17:34:55.364378	3.47892379797219	-2.92037681721151	-5.31848143427215	-3.2759530657397	-1.83955763629996	-5.31848143427215	-3.47892379797219	-2.92037681721151	-5.31848143427215	-1.83955763629996	-5.31848143427215	-17.16506086786339	-3.197384931399737	-3.935847199593154	-6.228373185952126	-7.110326454427357	-2.925362300884621	-6.228373185952126	-17.62545229313321	-6.1755602091182435	-2.9781752777185058	-7.28065300889325	-2.8835673766520333	2	correct	1.0
115.61128010000175	7.843009299998812	go_punish	0.454316800000015	115.64827140000125	117.0589443000008	119.62565470000118	1.410672899999554	116.65466980000019	118.5998638000001	122.71569629999976	0.4042745000006107	1.025790900001084	0.775584400000298	121.70418129999962	0.3018347999986872	120.65544560000126	1	1	74	3	go_punish	1	0	-1	1	1	1	0	0.0	1.0	0	0.454316800000015	0.3018347999986872	647.1689669999996	762.8172384000009	763.8236367999998	764.2279113000004	765.7688307999997	766.7946217000008	767.8244126000009	768.8731482999992	769.8846632999994	770.6602476999997	2019-11-08 17:34:55.364378	0.900546303662844	-6.17224883928671	-5.31848143427215	-6.47996248675459	-4.41793513060931	-5.31848143427215	-0.900546303662844	-6.17224883928671	-5.31848143427215	-4.41793513060931	-5.31848143427215	6.17224883928671	-5.7757624257090825	-7.187719221668354	-6.228373185952126	-10.314335875442247	-5.503739795193971	-6.228373185952126	5.711857414016887	-8.753937703427594	-2.9781752777185058	-10.53252503096845	-2.8835673766520333	2	correct	1.0
123.52395890000116	8.883686499999385	go_punish	0.3313713000006828	123.56095020000066	125.39570110000022	127.96660610000072	1.8347508999995625	124.56760790000044	126.95095500000025	131.0463466000001	0.8280931999997847	1.0156511000004684	1.3982900999999401	130.03007890000117	0.3163249000008363	128.98788220000097	1	1	75	3	go_punish	1	0	-1	1	1	1	1	1.0	1.0	0	0.3313713000006828	0.3163249000008363	647.1689669999996	770.7299172000003	771.7365749	772.5646680999998	774.1199219999999	775.1355731000003	776.1568492000006	777.1990459000008	778.2153135999997	779.6136036999997	2019-11-08 17:34:55.364378	1.87347083279086	-4.93041815230581	-5.31848143427215	-5.19705808407447	-3.44501060148129	-5.31848143427215	-1.87347083279086	-4.93041815230581	-5.31848143427215	-3.44501060148129	-5.31848143427215	4.93041815230581	-4.802837896581067	-5.9458885346874535	-6.228373185952126	-9.031431472762126	-4.530815266065951	-6.228373185952126	4.470026727035987	-7.781013174299574	-2.9781752777185058	-9.29069434398755	-2.8835673766520333	2	correct	1.0
132.45728600000075	8.884071599999515	go_reward	0.3129141999997955	132.49427730000025	134.36309489999985	136.94023870000092	1.868817599999602	133.50416020000011	135.9182610000007	140.02873060000093	0.858934699999736	1.0219777000002068	1.3496182999988378	139.01007150000078	0.3019656000014947	137.96799330000067	1	1	76	1	go_reward	1	1	0	1	1	1	0	0.0	1.0	1	0.3129141999997955	0.3019656000014947	647.1689669999996	779.6632442999999	780.6731271999997	781.5320618999995	783.0872280000003	784.1092057000005	785.1369603000003	786.1790385000004	787.1976976000005	788.5473158999994	2019-11-08 17:34:55.364378	12.4669460621753	15.1644162471525	0.0	15.1644162471525	12.4669460621753	0.0	-12.4669460621753	15.1644162471525	0.0	12.4669460621753	0.0	4.1365217744604	5.790637332803373	14.148945864770857	-0.9098917516799765	11.330042858464843	11.381141397590639	-0.9098917516799765	3.6761303491905766	8.130943489357016	2.3403061565536443	10.80414005547076	2.4349140576201167	2	correct	1.0
141.3913708	9.297941800001354	go_reward	0.2984706999995978	141.4283620999995	143.92445539999972	146.49098520000007	2.4960933000002115	142.44450529999995	145.46588150000025	149.5623916000004	1.479950099999769	1.0251036999998178	1.1639123000004474	148.55443860000014	0.2799066999996284	147.51428060000035	1	1	77	1	go_reward	1	1	0	1	1	1	0	0.0	1.0	1	0.2984706999995978	0.2799066999996284	647.1689669999996	788.5973290999991	789.6134722999996	791.0934223999993	792.6348484999999	793.6599521999997	794.6832476	795.7234055999998	796.7313586	797.8952709000005	2019-11-08 17:34:55.364378	13.0786282178534	15.9316084099601	0.0	15.9316084099601	13.0786282178534	0.0	-13.0786282178534	15.9316084099601	0.0	13.0786282178534	0.0	3.3693296116528	6.4023194884814725	14.916138027578457	-0.9098917516799765	12.097235021272443	11.992823553268739	-0.9098917516799765	2.9089381863829766	8.742625645035115	2.3403061565536443	11.57133221827836	2.4349140576201167	2	correct	1.0
150.75011600000107	9.300087100000383	go_punish	0.3513342999995075	150.78710730000057	153.1657090000008	155.73495990000083	2.3786017000002175	151.79923989999952	154.7102372999998	158.82165560000067	1.366469100001268	1.0247226000010414	1.2655388000002858	157.80765150000116	0.3896925000008195	156.76624210000045	1	1	78	3	go_punish	1	0	-1	1	1	1	0	0.0	1.0	0	0.3513342999995075	0.3896925000008195	647.1689669999996	797.9560743000002	798.9682068999991	800.3346760000004	801.8792042999994	802.9039269000004	803.9352091000001	804.9766185000008	805.9906226000003	807.2561614000006	2019-11-08 17:34:55.364378	2.62152851582629	-3.97375840401096	-5.31848143427215	-4.20512552858129	-2.69695291844586	-5.31848143427215	-2.62152851582629	-3.97375840401096	-5.31848143427215	-2.69695291844586	-5.31848143427215	3.97375840401096	-4.054780213545637	-4.989228786392603	-6.228373185952126	-8.039498917268947	-3.782757583030521	-6.228373185952126	3.5133669787411366	-7.032955491264143	-2.9781752777185058	-8.3340345956927	-2.8835673766520333	2	correct	1.0
160.1022195000005	8.398284799999601	nogo_punish	1.0	160.1392108	161.72082729999966	164.2542338000003	1.5816164999996545	161.15039830000023	163.23085619999983	167.33426320000035	0.5704289999994216	1.0233776000004582	1.2032323999992514	166.31287590000102	0.2756561999995028	165.27425980000044	1	1	79	4	nogo_punish	1	-1	0	0	0	1	0	0.0	1.0	0	1.0	0.2756561999995028	647.1689669999996	807.3081777999996	808.3193652999998	808.8897942999993	810.3998231999994	811.4232007999999	812.4432268	813.4818429000006	814.5032302	815.7064625999992	2019-11-08 17:34:55.364378	4.12223979008902	-12.2108805727973	-6.04110591931759	-7.85193463369328	-10.1633457094066	-6.04110591931759	-4.12223979008902	-6.04110591931759	-12.2108805727973	-6.04110591931759	-10.1633457094066	6.04110591931759	-2.5540689392829066	-13.226350955178944	-6.950997670997566	-11.686308022380937	-11.249150373991261	-6.950997670997566	5.580714494047767	-10.377108492135875	-7.823039552852956	-10.401382110999329	-9.775966515177185	2	correct	1.0
168.55871800000023	9.331197100000281	nogo_reward	1.0	168.59570929999973	171.0463447000002	173.5745012999996	2.450635400000465	169.61311770000066	172.55284630000097	176.65150619999986	1.4332269999995333	1.0216549999986455	1.2754002000001492	175.639110600001	0.3071505000007164	174.60084350000034	1	1	80	2	nogo_reward	1	0	1	0	0	1	0	0.0	1.0	1	1.0	0.3071505000007164	647.1689669999996	815.7646762999993	816.7820847000003	818.2153116999998	819.7218133000006	820.7434682999992	821.7698105	822.8080776000006	823.8204731999995	825.0958733999996	2019-11-08 17:34:55.364378	17.8816084604891	0.0	15.1803781031329	15.1803781031329	-2.70123035735617	15.1803781031329	-17.8816084604891	15.1803781031329	0.0	15.1803781031329	-2.70123035735617	4.12055991848	11.205299731117174	-1.0154703823816438	14.270486351452924	11.346004714445243	-3.787035021940831	14.270486351452924	3.6601684932101763	10.844375530314617	-0.3609242008025255	10.820101911451161	2.4349140576201167	2	correct	1.0
177.94912840000143	8.833308299999771	go_punish	0.2735874999998486	177.98611970000093	179.8684088000009	182.45086590000028	1.88228909999998	179.00646290000077	181.42597539999952	185.5284255000006	0.861945900000137	1.0248905000007653	1.2910025000001042	184.52010490000066	0.2594671000006201	183.47350519999964	1	1	81	3	go_punish	1	0	-1	1	1	1	0	0.0	1.0	0	0.2735874999998486	0.2594671000006201	647.1689669999996	825.1550867000005	826.1754299000004	827.0373758000005	828.5949423999991	829.6198328999999	830.6424721999992	831.6890719000003	832.6973925000002	833.9883950000003	2019-11-08 17:34:55.364378	3.20310923743687	-3.22864698452712	-5.31848143427215	-3.42969306303602	-2.11537219683528	-5.31848143427215	-3.20310923743687	-3.22864698452712	-5.31848143427215	-2.11537219683528	-5.31848143427215	3.22864698452712	-3.473199491935057	-4.244117366908764	-6.228373185952126	-7.264066451723677	-3.201176861419941	-6.228373185952126	2.7682555592572964	-6.4513747696535635	-2.9781752777185058	-7.58892317620886	-2.8835673766520333	2	correct	1.0
186.83807780000097	8.491533899999922	nogo_punish	0.3760185000010096	186.87506910000047	188.38190469999972	190.95632540000042	1.506835599999249	187.88197580000087	189.9254746000006	194.04217319999952	0.4999288999988494	1.0308507999998255	1.3244298000008712	193.03037799999947	0.2980326999986573	191.98794260000068	1	1	82	4	nogo_punish	1	-1	0	0	1	0	0	1.0	0.0	-1	0.3760185000010096	0.2980326999986573	647.1689669999996	834.0440361000001	835.0509428000005	835.5508716999993	837.0944416000002	838.1252924	839.1569096000003	840.1993449999991	841.2111401999991	842.53557	2019-11-08 17:34:55.364378	-5.64040488758268	-12.2108805727973	-4.83637279029122	-6.36103695433794	-10.4767776778739	-4.83637279029122	5.64040488758268	-12.2108805727973	-4.83637279029122	-10.4767776778739	-4.83637279029122	-7.8745571122776	-12.316713616954608	-13.226350955178944	-5.746264541971197	-10.195410343025596	-11.56258234245856	-5.746264541971197	-8.334948537547424	-14.812780250692184	-2.4960666337375756	-16.571156764479042	-2.401458732671103	2	wrong	1.0
195.3813151000013	8.078916200000094	nogo_reward	1.0	195.4183064000008	196.9909144000012	199.52304800000093	1.5726080000004004	196.4273161000001	198.49264089999997	202.6026321999998	0.5635983000011038	1.0304071000009571	0.8945904000011069	201.5935014000006	0.7400183000008838	200.54573130000063	1	1	83	2	nogo_reward	1	0	1	0	0	1	0	0.0	1.0	1	1.0	0.7400183000008838	647.1689669999996	842.5872734000004	843.5962830999997	844.1598814000008	845.6616078999996	846.6920150000005	847.7146983000002	848.7624684000002	849.7715991999994	850.6661896000005	2019-11-08 17:34:55.364378	18.7015117412431	0.0	15.8618380606087	15.8618380606087	-2.8396736806344	15.8618380606087	-18.7015117412431	15.8618380606087	0.0	15.8618380606087	-2.8396736806344	3.4390999610041995	12.025203011871172	-1.0154703823816438	14.951946308928724	12.027464671921045	-3.9254783452190605	14.951946308928724	2.978708535734376	11.525835487790417	-0.4993675240807556	11.501561868926961	2.4349140576201167	2	correct	1.0
203.51366589999998	9.856577800001105	go_reward	0.2877537999993365	203.55065719999948	206.3370971000004	208.912414800001	2.7864399000009143	204.56794939999963	207.89573650000057	212.0085670999997	1.769147700000758	1.0166783000004216	1.3986679000008735	210.98831129999962	0.4239825000004202	209.94580529999985	1	1	84	1	go_reward	1	1	0	1	1	1	0	0.0	1.0	1	0.2877537999993365	0.4239825000004202	647.1689669999996	850.7196241999991	851.7369163999992	853.5060641	855.0647035000002	856.0813818000006	857.1147722999995	858.1572782999992	859.1775340999993	860.5762020000002	2019-11-08 17:34:55.364378	13.5588214895927	16.5340446260145	0.0	16.5340446260145	13.5588214895927	0.0	-13.5588214895927	16.5340446260145	0.0	13.5588214895927	0.0	2.7668933955984016	6.882512760220774	15.518574243632855	-0.9098917516799765	12.699671237326843	12.47301682500804	-0.9098917516799765	2.3065019703285783	9.222818916774417	2.3403061565536443	12.173768434332759	2.4349140576201167	2	correct	1.0
213.4203630000011	8.351173600000038	nogo_punish	1.0	213.4573543000006	215.14644170000065	217.67234110000027	1.6890874000000622	214.47296170000118	216.6475943000005	220.74885110000105	0.6734799999994721	1.0247467999997752	1.059676799999579	219.73474560000068	0.3052728000002389	218.6895112000002	1	1	85	4	nogo_punish	1	-1	0	0	0	1	0	1.0	0.0	0	1.0	0.3052728000002389	647.1689669999996	860.6263213000002	861.6419287000008	862.3154087000003	863.8165613000001	864.8413080999999	865.8584781999998	866.9037126000003	867.9178181000007	868.9774949000002	2019-11-08 17:34:55.364378	6.37819931663174	-13.4994741106508	-4.83637279029122	-8.98143502300606	-11.214572106923	-4.83637279029122	-6.37819931663174	-4.83637279029122	-13.4994741106508	-4.83637279029122	-11.214572106923	4.83637279029122	-0.2981094127401871	-14.514944493032443	-5.746264541971197	-12.815808411693716	-12.300376771507661	-5.746264541971197	4.375981365021397	-9.172375363109504	-8.874265950369356	-9.19664898197296	-11.064560053030682	2	wrong	1.0
221.8249605000001	8.470417100001214	go_reward	0.2710694999987026	221.8619517999996	223.44680700000026	226.02621870000075	1.5848552000006748	222.8750731	225.0108736000002	229.11545750000005	0.5717339000002539	1.0153451000005589	1.216911400000754	228.09536000000116	0.6282547999999224	227.05759190000026	1	1	86	1	go_reward	1	1	0	1	1	1	1	1.0	1.0	1	0.2710694999987026	0.6282547999999224	647.1689669999996	869.0309187999992	870.0440400999996	870.6157739999999	872.1798405999998	873.1951857000004	874.2265588999999	875.2643270000008	876.2844244999997	877.5013359000004	2019-11-08 17:34:55.364378	13.9398892222249	17.0121983153833	0.0	17.0121983153833	13.9398892222249	0.0	-13.9398892222249	17.0121983153833	0.0	13.9398892222249	0.0	2.288739706229599	7.263580492852974	15.996727933001658	-0.9098917516799765	13.177824926695646	12.85408455764024	-0.9098917516799765	1.8283482809597753	9.603886649406617	2.3403061565536443	12.651922123701562	2.4349140576201167	2	correct	1.0
230.35992510000142	9.454580300000089	go_punish	0.275481700000455	230.39691640000092	233.24529690000054	235.80987970000024	2.848380499999621	231.40388189999976	234.79120180000064	238.88678319999963	1.8414150000007794	1.0186778999996022	0.9647135000013805	237.864819800001	0.411400600001798	236.8293493000001	1	1	87	3	go_punish	1	0	-1	1	1	1	0	0.0	1.0	0	0.275481700000455	0.411400600001798	647.1689669999996	877.5658834000005	878.5728488999994	880.4142639000002	881.9601688000002	882.9788466999998	883.9983162999997	885.0337868000006	886.0557501999992	887.0204637000006	2019-11-08 17:34:55.364378	3.65988168322194	-2.64243886414108	-5.31848143427215	-2.81738979922145	-1.65859975105021	-5.31848143427215	-3.65988168322194	-2.64243886414108	-5.31848143427215	-1.65859975105021	-5.31848143427215	2.64243886414108	-3.016427046149987	-3.6579092465227236	-6.228373185952126	-6.651763187909106	-2.744404415634871	-6.228373185952126	2.1820474388712565	-5.994602323868494	-2.9781752777185058	-7.0027150558228195	-2.8835673766520333	2	correct	1.0
239.86785780000173	8.077384399999573	nogo_reward	1.0	239.90484910000123	241.59193330000016	244.13112490000094	1.6870841999989352	240.91576170000008	243.10784960000092	247.20581110000057	0.6761716000000888	1.023275300000023	0.7764224000002287	246.1826476999995	0.4559739000014815	245.15308259999983	1	1	88	2	nogo_reward	1	0	1	0	0	1	0	0.0	1.0	1	1.0	0.4559739000014815	647.1689669999996	887.0738161000008	888.0847286999997	888.7609002999998	890.2768166000005	891.3000919000006	892.3220495999994	893.3516146999991	894.3747781000002	895.1512005000004	2019-11-08 17:34:55.364378	19.3667410953386	0.0	16.4147357053474	16.4147357053474	-2.95200538999126	16.4147357053474	-19.3667410953386	16.4147357053474	0.0	16.4147357053474	-2.95200538999126	2.8862023162655	12.690432365966673	-1.0154703823816438	15.504843953667423	12.580362316659745	-4.037810054575921	15.504843953667423	2.4258108909956766	12.078733132529116	-0.6116992334376157	12.05445951366566	2.4349140576201167	2	correct	1.0
247.99792020000132	7.811077099999125	go_reward	0.408997200000158	248.03491150000082	249.40586480000093	251.98828289999983	1.3709533000001102	249.04218899999978	250.96889270000065	255.06746180000118	0.36367580000114685	1.0193901999991795	0.7785267999987582	254.04681119999998	0.2954733000005944	253.01128570000037	1	1	89	1	go_reward	1	1	0	1	1	1	0	1.0	0.0	1	0.408997200000158	0.2954733000005944	647.1689669999996	895.2038785000004	896.2111559999994	896.5748318000005	898.1378597000003	899.1572498999994	900.1802527	901.2157781999996	902.2364288000008	903.0149555999996	2019-11-08 17:34:55.364378	14.2452546830541	17.3953914062778	0.0	17.3953914062778	14.2452546830541	0.0	-14.2452546830541	17.3953914062778	0.0	14.2452546830541	0.0	1.9055466153351013	7.568945953682173	16.379921023896156	-0.9098917516799765	13.561018017590143	13.159450018469439	-0.9098917516799765	1.4451551900652777	9.909252110235816	2.3403061565536443	13.03511521459606	2.4349140576201167	2	wrong	1.0
255.86156950000088	8.8099105	go_reward	0.2740566000011313	255.89856080000038	257.9217127000012	260.511392800001	2.023151900000812	256.91081140000097	259.49016409999956	263.59146499999963	1.0109013000002278	1.0212287000014157	1.117006300000753	262.5672396000008	0.3058309000007284	261.5308234000004	1	1	90	1	go_reward	1	1	0	1	1	1	0	0.0	1.0	1	0.2740566000011313	0.3058309000007284	647.1689669999996	903.0675278	904.0797784000006	905.0906797000008	906.6591310999992	907.6803598000006	908.6997904	909.7362066000004	910.7604319999992	911.8774383	2019-11-08 17:34:55.364378	14.4921127621162	17.7051666788054	0.0	17.7051666788054	14.4921127621162	0.0	-14.4921127621162	17.7051666788054	0.0	14.4921127621162	0.0	1.5957713428074989	7.815804032744273	16.689696296423758	-0.9098917516799765	13.870793290117746	13.40630809753154	-0.9098917516799765	1.1353799175376753	10.156110189297916	2.3403061565536443	13.344890487123662	2.4349140576201167	2	correct	1.0
264.7257922000009	7.910878599999592	nogo_punish	1.0	264.7627835000004	266.09776989999955	268.61888669999996	1.3349863999991385	265.7724312000008	267.60374740000043	271.70113610000044	0.3253386999987242	1.0151392999995323	0.9725259999995615	270.68619630000103	0.5471444000013435	269.6496623000004	1	1	91	4	nogo_punish	1	-1	0	0	0	1	0	0.0	1.0	0	1.0	0.5471444000013435	647.1689669999996	911.9317505	912.9413982000004	913.2667368999992	914.7727144	915.7878536999996	916.8186293	917.8551633000006	918.8701031	919.8426290999996	2019-11-08 17:34:55.364378	7.67369140116135	-13.4994741106508	-3.90608824327845	-7.24181172895829	-11.5797796444398	-3.90608824327845	-7.67369140116135	-3.90608824327845	-13.4994741106508	-3.90608824327845	-11.5797796444398	3.90608824327845	0.9973826717894232	-14.514944493032443	-4.815979994958426	-11.076185117645947	-12.66558430902446	-4.815979994958426	3.445696818008626	-8.242090816096734	-9.239473487886155	-8.26636443496019	-11.064560053030682	2	correct	1.0
272.69660940000165	8.503734799998824	go_punish	0.5319423999990249	272.73360070000115	274.5467203999996	277.1246979999996	1.813119699998424	273.74945599999955	276.10565859999963	280.2170151000008	0.7972644000000173	1.019039399999997	1.0203203999991501	279.19216980000056	0.5101993000007496	278.1574804000012	1	1	92	3	go_punish	0	-1	0	1	1	1	0	0.0	1.0	-1	0.5319423999990249	0.5101993000007496	647.1689669999996	919.9025677000008	920.9184229999992	921.7156873999992	923.2746255999992	924.2936649999992	925.3264474000008	926.3611368000002	927.3859821000004	928.4063024999996	2019-11-08 17:34:55.364378	4.02198079177769	-2.1769871212627	-5.31848143427215	-2.32945045333471	-1.29650064249446	-5.31848143427215	-4.02198079177769	-2.1769871212627	-5.31848143427215	-1.29650064249446	-5.31848143427215	-17.908450563812202	-2.6543279375942372	-3.1924575036443437	-6.228373185952126	-6.163823842022366	-2.382305307079121	-6.228373185952126	-18.368841989082025	-5.632503215312744	-2.9781752777185058	-6.5372633129444395	-2.8835673766520333	2	correct	1.0
281.24947670000086	8.764545399999179	nogo_punish	1.0	281.28646800000035	282.9708042000002	285.50086030000057	1.6843361999998478	282.3077334999998	284.48106929999994	288.57687160000023	0.6630707000003895	1.0197910000006232	1.4741417999993018	287.5583948000004	0.3588749999998981	286.5237416	1	1	93	4	nogo_punish	0	0	-1	0	0	1	1	0.0	0.0	-1	1.0	0.3588749999998981	647.1689669999996	928.455435	929.4767004999994	930.1397711999998	931.6500362999996	932.6698273000002	933.6927085999996	934.7273618	935.7458385999998	937.2199803999991	2019-11-08 17:34:55.364378	8.68486876552575	-13.4994741106508	-3.1798541552238	-5.88871772665748	-11.8647229207496	-3.1798541552238	-8.68486876552575	-3.1798541552238	-13.4994741106508	-3.1798541552238	-11.8647229207496	-16.9055835298511	2.0085600361538223	-14.514944493032443	-4.089745906903777	-9.723091115345136	-12.95052758533426	-4.089745906903777	-17.365974955120922	-7.515856728042085	-9.524416764195955	-7.54013034690554	-11.064560053030682	2	wrong	1.0
290.0754143000013	9.364879900000233	go_punish	0.3036376000000018	290.1124056000008	292.8910115	295.4613578999996	2.7786058999992065	291.12090569999964	294.4415115000012	298.53818789999957	1.7701058000003513	1.0198463999984142	0.9390976000014462	297.52641510000103	0.7633451000001514	296.4852986000004	1	1	94	3	go_punish	1	0	-1	1	1	1	1	0.0	0.0	0	0.3036376000000018	0.7633451000001514	647.1689669999996	937.2813726000004	938.2898726999993	940.0599784999996	941.6104785000008	942.6303248999992	943.6542656	944.6953821000006	945.7071548999992	946.6462525000006	2019-11-08 17:34:55.364378	1.32170898234099	-5.59072672660504	-5.31848143427215	-5.72378425063098	-3.99677245193116	-5.31848143427215	-1.32170898234099	-5.59072672660504	-5.31848143427215	-3.99677245193116	-5.31848143427215	5.59072672660504	-5.354599747030937	-6.606197108986684	-6.228373185952126	-9.558157639318637	-5.082577116515821	-6.228373185952126	5.130335301335217	-8.332775024749445	-2.9781752777185058	-9.951002918286779	-2.8835673766520333	2	wrong	1.0
299.49059470000066	8.500018500000806	nogo_reward	1.0	299.52758600000016	301.0430629000002	303.56766419999997	1.515476900000067	300.53567550000116	302.55018110000117	306.63657129999956	0.507387399999061	1.017483099998799	1.3910332000014023	305.62414490000083	0.4376114999995479	304.59402639999996	1	1	95	2	nogo_reward	0	1	0	0	0	1	0	0.0	1.0	0	1.0	0.4376114999995479	647.1689669999996	946.6965529999998	947.7046425000008	948.2120298999998	949.7191481000008	950.7366311999996	951.7629933999996	952.7931119000004	953.8055382999992	955.1965715000006	2019-11-08 17:34:55.364378	19.9105620501151	0.0	16.8667386584107	16.8667386584107	-3.04382339170437	16.8667386584107	-19.9105620501151	16.8667386584107	0.0	16.8667386584107	-3.04382339170437	-16.8667386584107	13.234253320743173	-1.0154703823816438	15.956846906730723	13.032365269723044	-4.129628056289031	15.956846906730723	-17.327130083680522	12.530736085592416	-0.7035172351507257	12.50646246672896	2.4349140576201167	2	correct	1.0
308.04014430000086	8.448190600000203	nogo_reward	1.0	308.07713560000036	309.432874600001	311.94756960000075	1.3557390000006535	309.08463700000004	310.9331065000006	315.0323411999998	0.3482376000009708	1.014463100000171	1.4929850000007718	314.0192059	0.4178406999999424	312.97467270000016	1	1	96	2	nogo_reward	0	1	0	0	0	1	0	0.0	1.0	0	1.0	0.4178406999999424	647.1689669999996	955.2461026	956.2536039999997	956.6018416000006	958.1020735000002	959.1165366000004	960.1436396999998	961.1881728999996	962.2013081999994	963.6942932000002	2019-11-08 17:34:55.364378	16.0043447709959	0.0	13.6199145082274	13.6199145082274	-2.38443026276847	13.6199145082274	-16.0043447709959	13.6199145082274	0.0	13.6199145082274	-2.38443026276847	-13.6199145082274	9.328036041623973	-1.0154703823816438	12.710022756547422	9.785541119539744	-3.4702349273531308	12.710022756547422	-14.080305933497224	9.283911935409115	-0.044124106214825876	9.25963831654566	2.4349140576201167	2	correct	1.0
316.5427935000007	9.025782900000195	nogo_punish	1.0	316.5797848000002	318.5865348000008	321.10203620000004	2.0067500000005793	317.59829770000044	320.08328869999957	324.19048420000036	0.9882371000003332	1.0187475000004724	1.415083500000037	323.16846780000014	0.3537127999989025	322.1269821000004	1	1	97	4	nogo_punish	1	-1	0	0	0	1	0	0.0	1.0	0	1.0	0.3537127999989025	647.1689669999996	963.7487517999998	964.7672647	965.7555018000004	967.2522556999992	968.2710031999997	969.2959491	970.3374347999998	971.3594512	972.7745347	2019-11-08 17:34:55.364378	4.89900023937133	-13.4994741106508	-6.39366332869175	-8.61140365919651	-11.2926635680631	-6.39366332869175	-4.89900023937133	-6.39366332869175	-13.4994741106508	-6.39366332869175	-11.2926635680631	6.39366332869175	-1.777308490000597	-14.514944493032443	-7.303555080371726	-12.445777047884167	-12.37846823264776	-7.303555080371726	5.933271903421927	-10.729665901510035	-8.952357411509455	-10.753939520373489	-11.064560053030682	2	correct	1.0
325.61676030000126	9.164296699998772	nogo_punish	1.0	325.65375160000076	327.9540930000004	330.48350070000015	2.3003413999996383	326.6691300000002	329.4627571	333.5725712000004	1.2849630000001753	1.0207436000001735	1.245477099999107	332.55072870000004	0.31383150000147	331.51056720000076	1	1	98	4	nogo_punish	1	-1	0	0	0	1	0	0.0	1.0	0	1.0	0.31383150000147	647.1689669999996	972.8227186000004	973.8380969999998	975.12306	976.6317240999996	977.6524676999998	978.6795342000004	979.7196956999996	980.7415382	981.9870152999991	2019-11-08 17:34:55.364378	6.52190985576296	-13.4994741106508	-5.11987705365405	-6.948802714385	-11.641786909417	-5.11987705365405	-6.52190985576296	-5.11987705365405	-13.4994741106508	-5.11987705365405	-11.641786909417	5.11987705365405	-0.15439887360896698	-14.514944493032443	-6.029768805334026	-10.783176103072655	-12.72759157400166	-6.029768805334026	4.6594856283842265	-9.455879626472335	-9.301480752863355	-9.480153245335789	-11.064560053030682	2	correct	1.0
334.84398780000095	8.401333600000726	go_punish	0.452388300000166	334.88097910000045	336.627161800001	339.1940749000004	1.7461827000005314	335.89010340000095	338.17985360000057	342.28524050000124	0.7370584000000235	1.0142212999998037	0.9970721999999341	341.26208980000035	0.4519875999994838	340.21856690000095	1	1	99	3	go_punish	1	0	-1	1	1	1	0	0.0	1.0	0	0.452388300000166	0.4519875999994838	647.1689669999996	982.0499461	983.0590704000006	983.7961288000006	985.3488206000002	986.3630419	987.3875339000006	988.4310568	989.4542075000008	990.4512797000008	2019-11-08 17:34:55.364378	2.2026980317299	-4.47184962855002	-5.31848143427215	-4.58813656976638	-3.11578340254225	-5.31848143427215	-2.2026980317299	-4.47184962855002	-5.31848143427215	-3.11578340254225	-5.31848143427215	4.47184962855002	-4.473610697642027	-5.487320010931663	-6.228373185952126	-8.422509958454036	-4.201588067126911	-6.228373185952126	4.011458203280196	-7.451785975360535	-2.9781752777185058	-8.83212582023176	-2.8835673766520333	2	correct	1.0
343.30060050000066	8.78436449999947	nogo_reward	1.0	343.33759180000015	345.1250837000008	347.6441797999996	1.7874919000006457	344.3543427000004	346.6253429999996	350.7210161000004	0.7707410000003847	1.018836800000031	1.4009401999992406	349.7049132000012	0.2996760000005452	348.66984969999976	1	1	100	2	nogo_reward	0	1	0	0	0	1	0	0.0	1.0	0	1.0	0.2996760000005452	647.1689669999996	990.5065587999998	991.5233097	992.2940507000004	993.7943099999992	994.8131467999992	995.8388166999994	996.8738802000008	997.8899831	999.2909232999992	2019-11-08 17:34:55.364378	12.9520909278585	0.0	11.0834221322594	11.0834221322594	-1.86866879559908	11.0834221322594	-12.9520909278585	11.0834221322594	0.0	11.0834221322594	-1.86866879559908	-11.0834221322594	6.2757821984865725	-1.0154703823816438	10.173530380579423	7.249048743571744	-2.954473460183741	10.173530380579423	-11.543813557529225	6.747419559441116	0.4716373609545643	6.723145940577661	2.4349140576201167	2	correct	1.0
352.1514932000009	8.438420199999996	go_punish	0.2995279999995546	352.1884845000004	353.4880197000002	356.0731875	1.2995351999998093	353.1964065000012	355.05023900000015	359.15600930000073	0.2916131999990057	1.0229484999998704	1.4708953999996766	358.1372967000008	0.7840028000009625	357.0984800999996	1	1	101	3	go_punish	1	0	-1	1	1	1	1	0.0	0.0	0	0.2995279999995546	0.7840028000009625	647.1689669999996	999.3574515	1000.3653735000008	1000.6569866999998	1002.2192059999998	1003.2421544999996	1004.2674470999992	1005.3062637000004	1006.3249763000003	1007.7958717	2019-11-08 17:34:55.364378	2.8807649064326	-3.60947444134269	-5.31848143427215	-3.71124679734054	-2.43771652783955	-5.31848143427215	-2.8807649064326	-3.60947444134269	-5.31848143427215	-2.43771652783955	-5.31848143427215	3.60947444134269	-3.795543822939327	-4.624944823724334	-6.228373185952126	-7.545620186028197	-3.5235211924242105	-6.228373185952126	3.1490830160728667	-6.773719100657834	-2.9781752777185058	-7.96975063302443	-2.8835673766520333	2	wrong	1.0
360.64282880000064	8.6308482000004	go_reward	0.3532950000007986	360.67982010000014	362.6559909000008	365.2151654999998	1.9761708000006593	361.68695470000057	364.19783480000115	368.2993985000012	0.9690362000002324	1.017330699998638	1.0112697999993543	367.28658390000055	0.4271702000005462	366.2432683999996	1	1	102	1	go_reward	1	1	0	1	1	1	0	0.0	1.0	1	0.3532950000007986	0.4271702000005462	647.1689669999996	1007.8487870999998	1008.8559217000002	1009.8249579000004	1011.3668018000008	1012.3841324999994	1013.4122353999992	1014.4555509000002	1015.4683655000008	1016.4796353000002	2019-11-08 17:34:55.364378	14.6932561067282	17.9575623050683	0.0	17.9575623050683	14.6932561067282	0.0	-14.6932561067282	17.9575623050683	0.0	14.6932561067282	0.0	1.3433757165445996	8.016947377356272	16.942091922686657	-0.9098917516799765	14.123188916380645	13.607451442143539	-0.9098917516799765	0.8829842912747761	10.357253533909915	2.3403061565536443	13.597286113386561	2.4349140576201167	2	correct	1.0
369.32770750000054	9.359440100000938	nogo_reward	1.0	369.36469880000004	372.1473153000006	374.68806120000033	2.782616500000586	370.37862230000076	373.66036280000117	377.76241029999983	1.768692999999871	1.0276983999991671	0.9617286000011518	376.74091639999995	0.3513079999993351	375.7041968000012	1	1	103	2	nogo_reward	1	0	1	0	0	1	0	1.0	0.0	1	1.0	0.3513079999993351	647.1689669999996	1016.5336657999997	1017.5475893000004	1019.3162823000002	1020.8293298000008	1021.8570282	1022.8731638000008	1023.9098833999996	1024.9313772999994	1025.8931059000006	2019-11-08 17:34:55.364378	10.5434694249578	0.0	9.0820891522808	9.0820891522808	-1.46138027267699	9.0820891522808	-10.5434694249578	9.0820891522808	0.0	9.0820891522808	-1.46138027267699	10.218848869332101	3.8671606955858735	-1.0154703823816438	8.172197400600822	5.247715763593143	-2.547184937261651	8.172197400600822	9.758457444062277	4.746086579462515	0.8789258838766543	4.72181296059906	2.4349140576201167	2	wrong	1.0
378.7382167000012	8.825846699999602	nogo_reward	1.0	378.7752080000007	380.96473030000016	383.50370079999993	2.189522299999453	379.7867021000002	382.4744568999995	386.57613239999955	1.1780281999999715	1.0292439000004379	1.0249223000007532	385.5553129	0.3210560000006808	384.52033909999955	1	1	104	2	nogo_reward	1	0	1	0	0	1	0	0.0	1.0	1	1.0	0.3210560000006808	647.1689669999996	1025.9441750000003	1026.9556690999998	1028.1336972999998	1029.643423899999	1030.6726677999995	1031.6893060999992	1032.7242798999996	1033.7450993999992	1034.7700217	2019-11-08 17:34:55.364378	12.9795075005214	0.0	11.1076184682835	11.1076184682835	-1.87188903223793	11.1076184682835	-12.9795075005214	11.1076184682835	0.0	11.1076184682835	-1.87188903223793	8.1933195533294	6.303198771149473	-1.0154703823816438	10.197726716603523	7.273245079595843	-2.9576936968225906	10.197726716603523	7.732928128059577	6.7716158954652155	0.46841712431571425	6.74734227660176	2.4349140576201167	2	correct	1.0
387.6140006000005	8.975585300000603	go_reward	0.3349197000006825	387.6509919	389.71130770000127	392.3166591999998	2.0603158000012627	388.6624143000008	391.2875845000001	395.4062482999998	1.048893400000452	1.0290746999996827	1.2203289000008226	394.3922924000001	0.4183071000006748	393.34507190000113	1	1	105	1	go_reward	1	1	0	1	1	1	0	0.0	1.0	1	0.3349197000006825	0.4183071000006748	647.1689669999996	1034.8199588999996	1035.8313813000004	1036.8802747000009	1038.4565514999997	1039.4856261999994	1040.5140389000007	1041.5612593999997	1042.5752152999994	1043.7955442000002	2019-11-08 17:34:55.364378	14.8583221909592	18.1646673189057	0.0	18.1646673189057	14.8583221909592	0.0	-14.8583221909592	18.1646673189057	0.0	14.8583221909592	0.0	1.1362707027072005	8.182013461587273	17.149196936524056	-0.9098917516799765	14.330293930218044	13.77251752637454	-0.9098917516799765	0.675879277437377	10.522319618140916	2.3403061565536443	13.80439112722396	2.4349140576201167	2	correct	1.0
396.6504515000015	9.080406499999299	go_punish	0.3117861000009725	396.687442800001	398.60361320000084	401.1907570000003	1.916170399999828	397.69642770000087	400.1680548000004	404.2731289000003	0.9071854999999687	1.0227021999999124	1.4947204000000056	403.25836379999964	0.4447338999998464	402.2145195000012	1	1	106	3	go_punish	1	0	-1	1	1	1	0	0.0	1.0	0	0.3117861000009725	0.4447338999998464	647.1689669999996	1043.8564098000006	1044.8653947000005	1045.7725802000004	1047.3370218	1048.359724	1049.3834865000008	1050.4273307999993	1051.4420959	1052.9368163	2019-11-08 17:34:55.364378	3.40859791051494	-2.93730113122273	-5.31848143427215	-3.02649276578185	-1.90988352375721	-5.31848143427215	-3.40859791051494	-2.93730113122273	-5.31848143427215	-1.90988352375721	-5.31848143427215	2.93730113122273	-3.2677108188569868	-3.952771513604374	-6.228373185952126	-6.860866154469507	-2.995688188341871	-6.228373185952126	2.476909705952907	-6.245886096575494	-2.9781752777185058	-7.29757732290447	-2.8835673766520333	2	correct	1.0
405.7851764000004	9.252851499999679	nogo_punish	1.0	405.8221676999999	408.58576209999956	411.1032675999995	2.763594399999647	406.8410285000007	410.0894829000008	414.16896310000084	1.744733599998881	1.0137846999987232	0.9060560999987501	413.1574830999998	0.3224012000009679	412.1242003999996	1	1	107	4	nogo_punish	1	-1	0	0	0	1	0	0.0	1.0	0	1.0	0.3224012000009679	647.1689669999996	1052.9911346999995	1054.0099955000003	1055.7547290999992	1057.2584499000004	1058.2722345999991	1059.2931673999992	1060.3264500999994	1061.3379301000004	1062.2439861999992	2019-11-08 17:34:55.364378	7.77810854790819	-13.4994741106508	-4.13629959096729	-5.65447569208851	-11.9144081388755	-4.13629959096729	-7.77810854790819	-4.13629959096729	-13.4994741106508	-4.13629959096729	-11.9144081388755	4.13629959096729	1.1017998185362634	-14.514944493032443	-5.046191342647267	-9.488849080776166	-13.00021280346016	-5.046191342647267	3.675908165697467	-8.472302163785574	-9.574101982321855	-8.49657578264903	-11.064560053030682	2	correct	1.0
415.09112990000176	8.297867899998892	nogo_punish	1.0	415.12812120000126	416.5890419000009	419.1049089999997	1.4609206999996331	416.1460822000008	418.0835242000012	422.1804996999999	0.442959700000074	1.0213847999984864	1.2454894000002241	421.1609969000001	0.2999085999999806	420.1226372000001	1	1	108	4	nogo_punish	1	-1	0	0	0	1	0	0.0	1.0	0	1.0	0.2999085999999806	647.1689669999996	1062.2970882000009	1063.3150492000004	1063.7580089000005	1065.2524912000008	1066.2738759999993	1067.2916041999997	1068.3299638999997	1069.3494666999995	1070.5949560999998	2019-11-08 17:34:55.364378	8.76101548109727	-13.4994741106508	-3.36844222325637	-4.636115825249	-12.1294577043536	-3.36844222325637	-8.76101548109727	-3.36844222325637	-13.4994741106508	-3.36844222325637	-12.1294577043536	3.36844222325637	2.084706751725342	-14.514944493032443	-4.278333974936347	-8.470489213936656	-13.21526236893826	-4.278333974936347	2.9080507979865464	-7.704444796074654	-9.789151547799955	-7.728718414938109	-11.064560053030682	2	correct	1.0
423.43826380000064	8.777314700000716	nogo_punish	1.0	423.47525510000014	425.70585630000096	428.2376855000002	2.2306012000008195	424.4847207000005	427.2129416000007	431.33600580000007	1.2211356000004798	1.024743899999521	0.9165640000007897	430.31475169999976	0.3789981000008993	429.2664068000013	1	1	109	4	nogo_punish	0	0	-1	0	0	1	1	1.0	1.0	-1	1.0	0.3789981000008993	647.1689669999996	1070.6442220999998	1071.6536877	1072.8748233000006	1074.3819086000003	1075.4066524999998	1076.435373800001	1077.4837186999994	1078.5049727999997	1079.4215368000005	2019-11-08 17:34:55.364378	9.53771294507352	-13.4994741106508	-2.76295547094699	-3.82711217378524	-12.3006684160205	-2.76295547094699	-9.53771294507352	-2.76295547094699	-13.4994741106508	-2.76295547094699	-12.3006684160205	-17.32248221412791	2.8614042157015938	-14.514944493032443	-3.6728472226269666	-7.661485562472897	-13.38647308060516	-3.6728472226269666	-17.78287363939773	-7.098958043765274	-9.960362259466855	-7.123231662628729	-11.064560053030682	2	correct	1.0
432.27552920000016	8.960778100001335	go_punish	1.0	432.31252049999966	434.24804250000125	436.78273679999984	1.9355220000015834	433.31688920000124	435.7623592	439.8511443000009	0.9311533000000054	1.020377599999847	1.422154300000102	438.841494100001	0.6423438999991049	437.80889659999957	1	1	110	3	go_punish	0	-1	0	1	0	0	0	0.0	1.0	0	1.0	0.6423438999991049	647.1689669999996	1079.4814874999993	1080.4858562000009	1081.4170095000009	1082.9313261999996	1083.9517037999994	1084.9778635999992	1086.0104611000006	1087.0201113000005	1088.4422656000006	2019-11-08 17:34:55.364378	-3.82376393697751	-2.40797801417215	-5.31848143427215	-2.48624897161297	-1.49471749729464	-5.31848143427215	3.82376393697751	-5.31848143427215	-2.40797801417215	-5.31848143427215	-1.49471749729464	5.31848143427215	-10.500072666349437	-3.423448396553794	-6.228373185952126	-6.320622360300627	-2.580522161879301	-6.228373185952126	4.858090009002327	-9.654484007090435	0.8455886592590043	-9.678757625953889	0.02693604344796663	2	correct	1.0
441.2894883000008	8.186871699999756	nogo_punish	1.0	441.3264796000003	442.7748038999998	445.28240370000094	1.4483242999995127	442.3454746999996	444.27115440000125	448.3707087000005	0.42932920000021113	1.0112492999996903	1.14264259999959	447.3522432999998	0.380446999999549	446.309001900001	1	1	111	4	nogo_punish	1	-1	0	0	0	1	1	1.0	1.0	0	1.0	0.380446999999549	647.1689669999996	1088.4954466	1089.5144416999992	1089.9437708999994	1091.4401214000009	1092.4513707000006	1093.4779689000006	1094.5212102999994	1095.5396757	1096.6823182999997	2019-11-08 17:34:55.364378	5.5739287816781	-13.4994741106508	-6.06754389152534	-6.96518170509642	-11.6414726732034	-6.06754389152534	-5.5739287816781	-6.06754389152534	-13.4994741106508	-6.06754389152534	-11.6414726732034	6.06754389152534	-1.1023799476938274	-14.514944493032443	-6.977435643205316	-10.799555093784075	-12.727277337788061	-6.977435643205316	5.607152466255517	-10.403546464343624	-9.301166516649756	-10.42782008320708	-11.064560053030682	2	correct	1.0
449.52714340000057	8.104513600001155	nogo_punish	1.0	449.56413470000007	451.05765109999993	453.58914709999954	1.4935163999998622	450.5845098000009	452.5721357000002	456.6869445000011	0.47314129999904253	1.017011399999319	0.9817038000001048	455.6635497000009	0.2779469000015524	454.61526270000127	1	1	112	4	nogo_punish	1	-1	0	0	0	1	0	0.0	1.0	0	1.0	0.2779469000015524	647.1689669999996	1096.7331016999997	1097.7534768000005	1098.2266180999995	1099.7411026999998	1100.7581140999991	1101.7842297000009	1102.8325167000005	1103.8559115000007	1104.8376153000008	2019-11-08 17:34:55.364378	7.06040273183975	-13.4994741106508	-4.8627220011129	-5.62323324758845	-11.9231247329526	-4.8627220011129	-7.06040273183975	-4.8627220011129	-13.4994741106508	-4.8627220011129	-11.9231247329526	4.8627220011129	0.38409400246782344	-14.514944493032443	-5.772613752792877	-9.457606636276108	-13.00892939753726	-5.772613752792877	4.402330575843076	-9.198724573931184	-9.582818576398955	-9.22299819279464	-11.064560053030682	2	correct	1.0
457.68289930000174	8.02995269999883	nogo_punish	1.0	457.71989060000124	459.09377049999966	461.6194188999998	1.3738798999984283	458.7318549000013	460.60653679999996	464.7036812999995	0.3619155999983832	1.0128820999998425	1.0461620000005496	463.6910769999995	0.3078433000009681	462.642440900001	1	1	113	4	nogo_punish	1	-1	0	0	0	1	1	0.0	0.0	0	1.0	0.3078433000009681	647.1689669999996	1104.8888576000008	1105.900821900001	1106.2627374999993	1107.7755037999996	1108.7883858999994	1109.8114079000006	1110.860043999999	1111.8726482999991	1112.9188102999997	2019-11-08 17:34:55.364378	8.21094512851792	-13.4994741106508	-3.93204326066637	-4.5789683255858	-12.1429883891843	-3.93204326066637	-8.21094512851792	-3.93204326066637	-13.4994741106508	-3.93204326066637	-12.1429883891843	3.93204326066637	1.5346363991459935	-14.514944493032443	-4.8419350123463465	-8.413341714273457	-13.22879305376896	-4.8419350123463465	3.471651835396546	-8.268045833484654	-9.802682232630655	-8.29231945234811	-11.064560053030682	2	wrong	1.0
465.76209570000174	8.165677299999516	go_reward	0.3013172999999369	465.79908700000124	467.3898755000007	469.9551438000001	1.5907884999994621	466.8178172000007	468.9356253999995	473.02867030000016	0.5720582999999806	1.0195184000006066	0.936094000000594	472.0170140000007	0.2499855999994906	470.9762807999996	1	1	114	1	go_reward	1	1	0	1	1	1	0	0.0	1.0	1	0.3013172999999369	0.2499855999994906	647.1689669999996	1112.9680540000008	1113.9867842000003	1114.5588425000003	1116.104592399999	1117.1241107999997	1118.1452477999992	1119.1859810000003	1120.1976372999998	1121.1337313000004	2019-11-08 17:34:55.364378	14.9946567284202	18.335699906914	0.0	18.335699906914	14.9946567284202	0.0	-14.9946567284202	18.335699906914	0.0	14.9946567284202	0.0	0.9652381146988986	8.318347999048273	17.32022952453236	-0.9098917516799765	14.501326518226346	13.908852063835539	-0.9098917516799765	0.5048466894290751	10.658654155601916	2.3403061565536443	13.975423715232262	2.4349140576201167	2	correct	1.0
473.97955770000044	9.173434100001032	nogo_reward	1.0	474.01654899999994	476.0741147999995	478.6049796999996	2.0575657999995656	475.02639160000035	477.58161870000004	481.710194700001	1.0477231999991545	1.0233609999995679	1.4797883999999613	480.6875381000009	0.2445456000004924	479.6425419000009	1	1	115	2	nogo_reward	1	0	1	0	0	1	0	0.0	1.0	1	1.0	0.2445456000004924	647.1689669999996	1121.1855159999996	1122.1953586	1123.2430817999991	1124.7505856999996	1125.7739466999992	1126.8115089000005	1127.8565051000005	1128.8791617000006	1130.3589501000006	2019-11-08 17:34:55.364378	14.8630482043212	0.0	12.6733422558425	12.6733422558425	-2.1897059484787	12.6733422558425	-14.8630482043212	12.6733422558425	0.0	12.6733422558425	-2.1897059484787	6.627595765770399	8.186739474949274	-1.0154703823816438	11.763450504162524	8.838968867154843	-3.2755106130633607	11.763450504162524	6.167204340500576	8.337339683024217	0.15060020807494423	8.313066064160761	2.4349140576201167	2	correct	1.0
483.2087832000018	8.403535199998942	nogo_reward	1.0	483.2457745000013	484.8089660000003	487.33311350000076	1.563191499998993	484.25614810000116	486.3060020000012	490.4250941999999	0.5528178999991269	1.0271114999995916	1.224215500000355	489.4063619999995	0.371433899999829	488.3627137000003	1	1	116	2	nogo_reward	1	0	1	0	0	1	0	0.0	1.0	1	1.0	0.371433899999829	647.1689669999996	1130.414741500001	1131.4251151000008	1131.977933	1133.4749690000008	1134.5020805000004	1135.5316807	1136.575328999999	1137.5940611999995	1138.8182766999998	2019-11-08 17:34:55.364378	16.3355806362752	0.0	13.8971800279875	13.8971800279875	-2.43840060828775	13.8971800279875	-16.3355806362752	13.8971800279875	0.0	13.8971800279875	-2.43840060828775	5.403757993625399	9.659271906903273	-1.0154703823816438	12.987288276307524	10.062806639299843	-3.524205272872411	12.987288276307524	4.943366568355576	9.561177455169217	-0.0980944517341058	9.536903836305761	2.4349140576201167	2	correct	1.0
491.6839926000014	9.645591399999603	go_reward	0.3414840000004915	491.7209839000009	494.466633	497.0614516000003	2.7456490999991274	492.74033750000126	496.03571159999956	500.14508399999977	1.7262954999987414	1.0257400000007237	1.2214913000007073	499.1245799999997	0.3821109999989858	498.0801767999999	1	1	117	1	go_reward	1	1	0	1	1	1	0	0.0	1.0	1	0.3414840000004915	0.3821109999989858	647.1689669999996	1138.8899509000005	1139.9093045000009	1141.6355999999996	1143.2046785999992	1144.2304186	1145.2491437999995	1146.2935469999993	1147.3140509999994	1148.5355423	2019-11-08 17:34:55.364378	15.1079195401448	18.4777649001702	0.0	18.4777649001702	15.1079195401448	0.0	-15.1079195401448	18.4777649001702	0.0	15.1079195401448	0.0	0.8231731214427	8.431610810772874	17.462294517788557	-0.9098917516799765	14.643391511482545	14.02211487556014	-0.9098917516799765	0.3627816961728765	10.771916967326517	2.3403061565536443	14.11748870848846	2.4349140576201167	2	correct	1.0
501.3820590000014	9.522255300000324	go_reward	0.3378979000008257	501.4190503000009	504.0061502000008	506.6059137000011	2.5870998999998847	502.42682630000127	505.5818969000011	509.6901900999999	1.5793238999995083	1.0240168000000267	1.2511155000013332	508.6783472999996	0.5301398000010522	507.6341874000009	1	1	118	1	go_reward	0	0	1	1	1	1	0	0.0	1.0	0	0.3378979000008257	0.5301398000010522	647.1689669999996	1148.5880173000005	1149.5957933000009	1151.1751172000004	1152.7508639000007	1153.7748807000007	1154.8031544000005	1155.8473142999992	1156.8591570999995	1158.1102726000008	2019-11-08 17:34:55.364378	15.2025152730793	18.5963928045656	0.0	18.5963928045656	15.2025152730793	0.0	-15.2025152730793	18.5963928045656	0.0	15.2025152730793	0.0	-18.5963928045656	8.526206543707373	17.580922422183956	-0.9098917516799765	14.762019415877944	14.116710608494639	-0.9098917516799765	-19.056784229835422	10.866512700261016	2.3403061565536443	14.23611661288386	2.4349140576201167	2	correct	1.0
510.9595723	9.04274890000147	nogo_reward	1.0	510.9965635999995	513.6336689	516.1607321000013	2.637105300000485	512.0138085000001	515.1348238999999	519.2308788999999	1.6198603999998795	1.0259082000013677	0.8084336000010808	518.2128582000005	0.3491101999989041	517.1768131999997	1	1	119	2	nogo_reward	1	0	1	0	0	1	0	1.0	0.0	1	1.0	0.3491101999989041	647.1689669999996	1158.165530599999	1159.1827754999997	1160.8026358999996	1162.3037908999995	1163.3296991000009	1164.3457801999994	1165.3818252	1166.3998458999995	1167.2082795000006	2019-11-08 17:34:55.364378	17.4984245110982	0.0	14.8635129439609	14.8635129439609	-2.63491156713733	14.8635129439609	-17.4984245110982	14.8635129439609	0.0	14.8635129439609	-2.63491156713733	4.437425077652	10.822115781726273	-1.0154703823816438	13.953621192280924	11.029139555273243	-3.7207162317219913	13.953621192280924	3.9770336523821763	10.527510371142617	-0.29460541058368594	10.503236752279161	2.4349140576201167	2	wrong	1.0
520.0716861000001	9.546954900000856	nogo_reward	1.0	520.1086773999996	522.5511387999995	525.0887770999998	2.4424613999999565	521.1135931000008	524.0594722000003	528.159496100001	1.4375456999987364	1.029304899999488	1.4961361999994551	527.1443490000001	0.263590500000646	526.1134555999995	1	1	120	2	nogo_reward	1	0	1	0	0	1	0	0.0	1.0	1	1.0	0.263590500000646	647.1689669999996	1167.2776443999992	1168.2825601000004	1169.7201057999991	1171.2284392	1172.2577440999994	1173.282422599999	1174.3133159999998	1175.3284631000006	1176.8245993	2019-11-08 17:34:55.364378	18.4251357396261	0.0	15.6335627075416	15.6335627075416	-2.79157303208451	15.6335627075416	-18.4251357396261	15.6335627075416	0.0	15.6335627075416	-2.79157303208451	3.6673753140713004	11.748827010254173	-1.0154703823816438	14.723670955861623	11.799189318853944	-3.8773776966691704	14.723670955861623	3.206983888801477	11.297560134723316	-0.45126687553086553	11.27328651585986	2.4349140576201167	2	correct	1.0
