onset	duration	trial_type	response_time	cueOnset	targetOnset	fbOnset	cueRT	firstfixOnset	secondfixOnset	waitOnset	firstfixdur	secondfixdur	waitdur	nback_fbOnset	nback_response_time	nback_targetOnset	block	wm	trial	cue	cond	is_common	outcome_go	outcome_nogo	key_correct	key_pressed	is_correct	key_correct_nback	key_pressed_nback	is_correct_nback	outcome	rt	rt_nback	time_scan	time_onset	time_isi1	time_circle	time_isi2	time_feedback	time_same	time_correct	time_iti	time_done	timestamp_scan	DV	Qgo	Qnogo	SV	Wgo	Wnogo	mDV	Qchosen	Qunchosen	Wchosen	Wunchosen	PE	DVC	QgoC	QnogoC	SVC	WgoC	WnogoC	PEC	WchosenC	WunchosenC	QchosenC	QunchosenC	run	outcome_nback	nback_targetResp
0.0	8.905078899988894	go_reward	0.3397834000061266	0.009553500043239183	1.8906280000228435	4.440597700013313	1.8810744999796043	1.024091300030932	3.416441900015343	7.4991708000309245	0.8665366999919115	1.0241557999979705	1.4154616000012084	6.488860700046416	0.4305026999791153	5.46192490000999	2	1	61	4	go_reward	1	1	0	1	1	1	0	0.0	1.0	1	0.3397834000061266	0.4305026999791153	2004.8827085999656	2004.8922621000088	2005.9067998999965	2006.7733365999884	2008.299150499981	2009.3233062999789	2010.3446334999755	2011.371569300012	2012.3818793999965	2013.7973409999977	2020-10-16 11:04:54.827428	10.5912598724913	11.5738456174689	0.0	11.5738456174689	10.5912598724913	0.0	-10.5912598724913	11.5738456174689	0.0	10.5912598724913	0.0	12.676183993589701	2.8948904164359712	9.742117663515575	-2.085748181826636	6.147495870385106	6.697381004717035	-2.085748181826636	11.377303050922572	3.7532616196631867	0.8583712032272223	5.849324718541374	1.8070447631475657	4	correct	1.0
8.949352199968871	9.35262810002314	go_punish	0.4335529000381939	8.95890570001211	11.737869000004139	14.287475200020936	2.7789632999920286	9.967986800009385	13.265952300047502	17.34881910000695	1.769882199994754	1.0215228999734336	0.9627147000283003	16.336683700035564	0.4277117000310682	15.307617000013352	2	1	62	2	go_punish	1	0	-1	1	1	1	1	0.0	0.0	0	0.4335529000381939	0.4277117000310682	2004.8827085999656	2013.8416142999777	2014.850695399975	2016.6205775999697	2018.148660900013	2019.1701837999865	2020.190325599979	2021.2193923000011	2022.2315276999725	2023.1942424000008	2020-10-16 11:04:54.827428	2.45574809000556	-2.49335817309577	-2.86404127276915	-3.54413959344892	-0.408293182763593	-2.86404127276915	-2.45574809000556	-2.49335817309577	-2.86404127276915	-0.408293182763593	-2.86404127276915	2.49335817309577	-5.240621366049768	-4.325086127049094	-4.949789454595786	-8.970489340532714	-4.302172050537858	-4.949789454595786	1.1944772304286404	-7.246291435591706	-2.005670069541928	-8.217879072023296	-1.0569965096215845	4	wrong	1.0
18.409033200005524	7.6946811999659985	nogo_reward	1.0	18.418586700048763	19.784158300026547	22.324850500037428	1.365571599977784	19.426018800004385	21.301117399998475	25.357970700017177	0.3581395000221619	1.0237331000389531	0.7552971999975853	24.360101600002736	0.4295334000489674	23.339084400038928	2	1	63	3	nogo_reward	1	0	1	0	0	1	0	0.0	1.0	1	1.0	0.4295334000489674	2004.8827085999656	2023.3012953000143	2024.30872739997	2024.666866899992	2026.183825999964	2027.207559100003	2028.2217930000045	2029.2428101999683	2030.2406792999827	2030.9959764999803	2020-10-16 11:04:54.827428	8.92276043843031	0.0	8.99858070364274	6.21494129348576	0.0758202652124226	8.99858070364274	-8.92276043843031	8.99858070364274	0.0	8.99858070364274	0.0758202652124226	15.251448907415861	1.2263909823749808	-1.8317279539533236	6.912832521816103	0.7885915464019666	-3.8180586025618424	6.912832521816103	13.952567964748733	2.1605824508146263	0.9341914684396448	3.274059804715214	1.8070447631475657	4	correct	1.0
26.14568630000622	9.007966899953317	nogo_reward	1.0	26.155239800049458	28.619301500031725	31.15801690000808	2.464061699982267	27.154170399997383	30.13360660005128	34.200413100013975	1.4651311000343412	1.0244102999567986	0.9627935999887995	33.19621950003807	0.4612762000178918	32.16517620004015	2	1	64	3	nogo_reward	1	0	1	0	0	1	0	0.0	1.0	1	1.0	0.4612762000178918	2004.8827085999656	2031.037948400015	2032.036878999963	2033.5020100999973	2035.0163152000168	2036.0407254999736	2037.0478848000057	2038.0789281000036	2039.0831216999795	2040.0459152999683	2020-10-16 11:04:54.827428	11.4664156759864	0.0	11.0444445610311	8.76884684592375	-0.421971114955347	11.0444445610311	-11.4664156759864	11.0444445610311	0.0	11.0444445610311	-0.421971114955347	13.205585050027501	3.7700462199310723	-1.8317279539533236	8.958696379204463	3.3424970988399574	-4.3158499827296115	8.958696379204463	11.906704107360373	4.206446308202986	0.43640008827187526	5.319923662103574	1.8070447631475657	4	correct	1.0
35.19616140000312	8.508761599951185	nogo_reward	1.0	35.20571490004636	36.78302440000675	39.31761170004006	1.5773094999603927	36.21513890003553	38.2995699000312	42.36625240003923	0.5678854999712257	1.0180418000088594	1.3482240999583155	41.36201720003737	0.3977566999965347	40.336681600019574	2	1	65	3	nogo_reward	1	0	1	0	0	1	1	1.0	1.0	1	1.0	0.3977566999965347	2004.8827085999656	2040.088423500012	2041.097847500001	2041.6657329999723	2043.1822784999968	2044.2003203000056	2045.2193901999851	2046.244725800003	2047.2489610000048	2048.597185099963	2020-10-16 11:04:54.827428	13.5570913829272	0.0	12.7281475170322	10.8490636571122	-0.828943865894974	12.7281475170322	-13.5570913829272	12.7281475170322	0.0	12.7281475170322	-0.828943865894974	11.5218820940264	5.860721926871872	-1.8317279539533236	10.642399335205564	5.422713910028407	-4.722822733669239	10.642399335205564	10.223001151359272	5.890149264204087	0.029427337332248227	7.003626618104675	1.8070447631475657	4	correct	1.0
43.748399299977336	9.149440000008326	nogo_reward	1.0	43.757952800020576	46.12671830004547	48.65432160004275	2.3687655000248924	44.766615300031845	47.630653300031554	51.7109057000489	1.3601030000136234	1.0236683000111952	1.1964870999800041	50.69204750005156	0.5539208999834955	49.66735280002467	2	1	66	3	nogo_reward	1	0	1	0	0	1	1	1.0	1.0	1	1.0	0.5539208999834955	2004.8827085999656	2048.640661399986	2049.6493238999974	2051.009426900011	2052.513361899997	2053.5370302000083	2054.55006139999	2055.574756100017	2056.5936143000145	2057.7901013999945	2020-10-16 11:04:54.827428	15.2984443964514	0.0	14.1323281870105	12.5670409688739	-1.16611620944086	14.1323281870105	-15.2984443964514	14.1323281870105	0.0	14.1323281870105	-1.16611620944086	10.1177014240481	7.602074940396071	-1.8317279539533236	12.046580005183865	7.1406912217901075	-5.059995077215125	12.046580005183865	8.818820481380971	7.294329934182388	-0.30774500621363765	8.407807288082974	1.8070447631475657	4	correct	1.0
52.92302609997614	8.026627900020685	nogo_punish	1.0	52.93257960001938	54.30228750000242	56.81671730004018	1.369707899983041	53.9441542000277	55.81742920004763	59.854950200009625	0.35813329997472465	0.9992880999925546	1.10425730003044	58.842290900007356	0.5825307000195608	57.82686359999934	2	1	67	1	nogo_punish	0	0	-1	0	0	1	0	0.0	1.0	-1	1.0	0.5825307000195608	2004.8827085999656	2057.815288199985	2058.8268627999933	2059.184996099968	2060.700137800013	2061.6994259000057	2062.709572199965	2063.724999499973	2064.737658799975	2065.8419161000056	2020-10-16 11:04:54.827428	1.43678895251301	-5.59077557785441	-1.87154488403588	-4.44147726496335	-3.30833383654889	-1.87154488403588	-1.43678895251301	-1.87154488403588	-5.59077557785441	-1.87154488403588	-3.30833383654889	-8.319049747565021	-6.259580503542319	-7.422503531807734	-3.9572930658625163	-9.867827012047144	-7.202212704323155	-3.9572930658625163	-9.61793069023215	-8.709543136863992	-2.4499626333216677	-7.5960657829634055	-3.7837308147068445	4	correct	1.0
60.99379350000572	8.818951699999161	go_punish	0.3083081999793648	61.00334700004896	62.831024100014474	65.39562220004154	1.8276770999655128	62.01315220003062	64.37084860005461	68.4389785000235	0.8178718999838566	1.0247735999869292	1.3833202000246274	67.4255511000515	0.7117690999875776	66.41259410005296	2	1	68	2	go_punish	0	-1	0	1	1	1	0	0.0	1.0	-1	0.3083081999793648	0.7117690999875776	2004.8827085999656	2065.8860556000145	2066.895860799996	2067.71373269998	2069.25355720002	2070.278330800007	2071.2953027000185	2072.308259700017	2073.321687099989	2074.7050073000137	2020-10-16 11:04:54.827428	2.72303048899514	-2.11859150710825	-2.86404127276915	-3.04826002065399	-0.141010783774007	-2.86404127276915	-2.72303048899514	-2.11859150710825	-2.86404127276915	-0.141010783774007	-2.86404127276915	-8.07200312449265	-4.973338967060188	-3.9503194610615733	-4.949789454595786	-8.474609767737784	-4.034889651548272	-4.949789454595786	-9.370884067159778	-6.97900903660212	-2.005670069541928	-7.843112406035775	-1.0569965096215845	4	correct	1.0
69.8368476000037	8.949775299988687	go_reward	0.3155581000028178	69.84640110004693	71.68662400002358	74.24380600004224	1.8402228999766521	70.85133140004473	73.2190958000142	77.30094220000319	0.8352925999788567	1.0247102000280393	1.495234200032428	76.2878284000326	0.6318895000149496	75.25852250005119	2	1	69	4	go_reward	1	1	0	1	1	1	0	0.0	1.0	1	0.3155581000028178	0.6318895000149496	2004.8827085999656	2074.7291097000125	2075.7340400000103	2076.569332599989	2078.1018043999798	2079.126514600008	2080.1412311000167	2081.170536999998	2082.1836507999687	2083.678885000001	2020-10-16 11:04:54.827428	11.9675148626594	13.2846519685242	0.0	13.2846519685242	11.9675148626594	0.0	-11.9675148626594	13.2846519685242	0.0	11.9675148626594	0.0	10.965377642534401	4.271145406604071	11.452924014570875	-2.085748181826636	7.858302221440407	8.073635994885134	-2.085748181826636	9.666496699867272	5.1295166098312865	0.8583712032272223	7.560131069596674	1.8070447631475657	4	correct	1.0
78.83118899998999	7.645100299967453	go_punish	0.4467104999930598	78.84074250003323	80.12764670001343	82.6684249000391	1.2869041999801993	79.84682650002651	81.6598194000544	85.72674780001398	0.28082019998691976	1.0086054999846965	0.7590949999867007	84.70650930004194	0.9719625000143424	83.68433640000876	2	1	70	2	go_punish	0	-1	0	1	1	1	1	0.0	0.0	-1	0.4467104999930598	0.9719625000143424	2004.8827085999656	2083.723451099999	2084.729535099992	2085.010355299979	2086.54252800002	2087.5511335000047	2088.5670449999743	2089.5892179000075	2090.6094563999795	2091.3685513999662	2020-10-16 11:04:54.827428	1.96613086311585	-3.05751437632454	-2.86404127276915	-3.88363699173715	-0.897910409653296	-2.86404127276915	-1.96613086311585	-3.05751437632454	-2.86404127276915	-0.897910409653296	-2.86404127276915	-7.133080255276361	-5.730238592939479	-4.889242330277863	-4.949789454595786	-9.309986738820943	-4.791789277427561	-4.949789454595786	-8.43196119794349	-7.735908662481409	-2.005670069541928	-8.782035275252065	-1.0569965096215845	4	wrong	1.0
86.50049239996633	9.106317900004797	go_reward	0.2968803999829106	86.51004590000957	88.80446840001923	91.34577680000803	2.2944225000096594	87.52358840004308	90.32171500002733	94.40362789999926	1.2808799999761504	1.0240617999807	1.2127359000151046	93.390295899997	0.6043637999682687	92.361035000009	2	1	71	4	go_reward	1	1	0	1	1	1	1	0.0	0.0	1	0.2968803999829106	0.6043637999682687	2004.8827085999656	2091.392754499975	2092.4062970000086	2093.687176999985	2095.204423599993	2096.2284853999736	2097.2437435999746	2098.2730044999626	2099.286336499965	2100.49907239998	2020-10-16 11:04:54.827428	13.0984729650612	14.6915253896343	0.0	14.6915253896343	13.0984729650612	0.0	-13.0984729650612	14.6915253896343	0.0	13.0984729650612	0.0	9.5585042214243	5.4021035090058716	12.859797435680976	-2.085748181826636	9.265175642550506	9.204594097286936	-2.085748181826636	8.259623278757172	6.260474712233087	0.8583712032272223	8.967004490706774	1.8070447631475657	4	wrong	1.0
95.63187769998422	8.839670400018804	go_reward	0.3042235000175424	95.64143120002745	97.62306200002786	100.1784896000172	1.9816308000004028	96.65291310002749	99.15454519999912	103.23704310000221	0.9701489000003676	1.023944400018081	1.2440585000440478	102.2291477000108	0.5092875999980606	101.19392370001879	2	1	72	4	go_reward	1	1	0	1	1	1	0	1.0	0.0	1	0.3042235000175424	0.5092875999980606	2004.8827085999656	2100.524139799993	2101.535621699993	2102.5057705999934	2104.0372537999647	2105.0611981999828	2106.0766322999843	2107.1118562999764	2108.1197516999678	2109.363810200012	2020-10-16 11:04:54.827428	14.0392184518181	15.8626892396876	0.0	15.8626892396876	14.0392184518181	0.0	-14.0392184518181	15.8626892396876	0.0	14.0392184518181	0.0	8.387340371371002	6.342848995762771	14.030961285734275	-2.085748181826636	10.436339492603807	10.145339584043835	-2.085748181826636	7.088459428703872	7.201220198989986	0.8583712032272223	10.138168340760075	1.8070447631475657	4	wrong	1.0
104.49570249998987	7.939853199990466	go_reward	0.6017491000238806	104.50525600003311	105.99460650002584	108.53551290003861	1.4893504999927245	105.50517740001669	107.51881940005114	111.58545850001974	0.4894291000091471	1.0166934999874684	0.85965070000384	110.57985740003642	0.5271731999819167	109.55616360000568	2	1	73	4	go_reward	1	1	0	1	1	1	1	1.0	1.0	1	0.6017491000238806	0.5271731999819167	2004.8827085999656	2109.3879645999987	2110.3878859999822	2110.8773150999914	2112.4015280000167	2113.418221500004	2114.4388721999712	2115.462566000002	2116.4681670999853	2117.327817799989	2020-10-16 11:04:54.827428	14.8298497746253	16.8477867205456	0.0	16.8477867205456	14.8298497746253	0.0	-14.8298497746253	16.8477867205456	0.0	14.8298497746253	0.0	7.402242890513001	7.133480318569972	15.016058766592275	-2.085748181826636	11.421436973461805	10.935970906851036	-2.085748181826636	6.103361947845872	7.991851521797187	0.8583712032272223	11.123265821618073	1.8070447631475657	4	correct	1.0
112.48028159997239	9.202926500001922	go_punish	0.313278799992986	112.48983510001563	115.24096740002278	117.79674260003958	2.751132300007157	113.50522330001695	116.7767641000105	120.85591540002497	1.7357441000058316	1.019978500029083	0.8368461999925785	119.84254250000231	0.7134765000082552	118.81582590000471	2	1	74	2	go_punish	1	0	-1	1	1	1	0	0.0	1.0	0	0.313278799992986	0.7134765000082552	2004.8827085999656	2117.372543699981	2118.3879318999825	2120.1236759999883	2121.659472699976	2122.679451200005	2123.6985344999703	2124.725251099968	2125.7386239999905	2126.575470199983	2020-10-16 11:04:54.827428	1.32860928798569	-3.84819058658164	-2.86404127276915	-4.58518267785158	-1.53543198478346	-2.86404127276915	-1.32860928798569	-3.84819058658164	-2.86404127276915	-1.53543198478346	-2.86404127276915	3.84819058658164	-6.367760168069639	-5.679918540534963	-4.949789454595786	-10.011532424935373	-5.429310852557725	-4.949789454595786	2.54930964391451	-8.373430237611572	-2.005670069541928	-9.572711485509165	-1.0569965096215845	4	correct	1.0
121.72488579998026	8.72914210002682	go_punish	0.44394160003867	121.7344393000235	123.90339859999949	126.4556895000278	2.1689592999759952	122.7329678000533	125.43544810003368	129.50183520000428	1.170430799946189	1.02024139999412	0.9617462000460364	128.49440730002243	0.4170449000084772	127.46528960001888	2	1	75	2	go_punish	1	0	-1	1	1	1	0	0.0	1.0	0	0.44394160003867	0.4170449000084772	2004.8827085999656	2126.617147899989	2127.615676400019	2128.786107199965	2130.3181566999992	2131.3383980999934	2132.3479981999844	2133.377115899988	2134.38454379997	2135.346290000016	2020-10-16 11:04:54.827428	1.75550328161168	-3.28180216889809	-2.86404127276915	-3.94161026728797	-1.10853799115747	-2.86404127276915	-1.75550328161168	-3.28180216889809	-2.86404127276915	-1.10853799115747	-2.86404127276915	3.28180216889809	-5.940866174443649	-5.113530122851413	-4.949789454595786	-9.367960014371763	-5.002416858931735	-4.949789454595786	1.9829212262309606	-7.946536243985583	-2.005670069541928	-9.006323067825615	-1.0569965096215845	4	correct	1.0
130.4784233999676	7.9782508999924175	go_reward	0.473611900000833	130.48797690001084	131.8857315000496	134.44923070003279	1.397754600038752	131.50041040003953	133.43143789999885	137.49843330000294	0.38532110001006004	1.0177928000339307	0.9677945000003092	136.49607440002728	0.4273371999734081	135.46493750001537	2	1	76	4	go_reward	1	1	0	1	1	1	0	0.0	1.0	1	0.473611900000833	0.4273371999734081	2004.8827085999656	2135.3706854999764	2136.383119000005	2136.768440100015	2138.3141464999644	2139.3319392999983	2140.347646099981	2141.378782999993	2142.3811418999685	2143.348936399969	2020-10-16 11:04:54.827428	15.5002901688224	17.6838301558113	0.0	17.6838301558113	15.5002901688224	0.0	-15.5002901688224	17.6838301558113	0.0	15.5002901688224	0.0	6.5661994552473	7.803920712767071	15.852102201857976	-2.085748181826636	12.257480408727506	11.606411301048134	-2.085748181826636	5.267318512580171	8.662291915994286	0.8583712032272223	11.959309256883774	1.8070447631475657	4	correct	1.0
138.50095009995903	9.826251100050285	go_punish	0.3646911999676376	138.51050360000227	141.27257349999854	143.81067800003848	2.762069899996277	139.5055600000196	142.78675420000263	146.8719375000219	1.7670134999789298	1.0239238000358455	1.4648172000306658	145.85851210000692	0.4090087999938987	144.8232157000457	2	1	77	2	go_punish	1	0	-1	1	1	1	1	1.0	1.0	0	0.3646911999676376	0.4090087999938987	2004.8827085999656	2143.393212199968	2144.388268599985	2146.155282099964	2147.669462799968	2148.693386600004	2149.7059243000112	2150.7412206999725	2151.7546460999874	2153.219463300018	2020-10-16 11:04:54.827428	2.09885788301759	-2.82456711036318	-2.86404127276915	-3.41717809386886	-0.765183389751561	-2.86404127276915	-2.09885788301759	-2.82456711036318	-2.86404127276915	-0.765183389751561	-2.86404127276915	2.82456711036318	-5.597511573037739	-4.656295064316503	-4.949789454595786	-8.843527840952653	-4.659062257525826	-4.949789454595786	1.5256861676960505	-7.603181642579674	-2.005670069541928	-8.549088009290706	-1.0569965096215845	4	correct	1.0
148.37098449998348	9.289533299976029	nogo_reward	1.0	148.38053800002672	150.87195540004222	153.41251540003577	2.491417400015507	149.3872908000485	152.38910650002072	156.45538880000822	1.484664599993721	1.0234089000150561	1.2146824999945238	155.4410433000303	0.5451727000181563	154.42713230004347	2	1	78	3	nogo_reward	1	0	1	0	0	1	0	0.0	1.0	1	1.0	0.5451727000181563	2004.8827085999656	2153.2632465999923	2154.269999400014	2155.754664000008	2157.2718150999863	2158.2952240000013	2159.309840900009	2160.323751899996	2161.338097399974	2162.5527798999683	2020-10-16 11:04:54.827428	16.7643964073874	0.0	15.3157517579044	14.0017518560904	-1.44864464948299	15.3157517579044	-16.7643964073874	15.3157517579044	0.0	15.3157517579044	-1.44864464948299	8.934277853154201	9.068026951332072	-1.8317279539533236	13.230003576077763	8.575402109006607	-5.342523517257255	13.230003576077763	7.635396910487072	8.477753505076286	-0.5902734462557678	9.591230858976875	1.8070447631475657	4	correct	1.0
157.70313009998108	8.757861100020818	nogo_reward	1.0	157.71268360002432	159.93956200004322	162.48319560004165	2.2268784000189044	158.72042920003878	161.45576510002138	165.52344690001337	1.219132800004445	1.027430500020273	0.94709780003177	164.50859630003106	0.5851475999807008	163.49622560001444	2	1	79	3	nogo_reward	1	0	1	0	0	1	0	0.0	1.0	1	1.0	0.5851475999807008	2004.8827085999656	2162.59539219999	2163.6031378000043	2164.822270600009	2166.338473699987	2167.365904200007	2168.37893419998	2169.3913048999966	2170.406155499979	2171.3532533000107	2020-10-16 11:04:54.827428	18.0096804577406	0.0	16.3220071019587	15.2113340396762	-1.68767335578194	16.3220071019587	-18.0096804577406	16.3220071019587	0.0	16.3220071019587	-1.68767335578194	7.9280225090999	10.313311001685271	-1.8317279539533236	14.236258920132064	9.784984292592405	-5.581552223556205	14.236258920132064	6.629141566432771	9.484008849130587	-0.8293021525547178	10.597486203031174	1.8070447631475657	4	correct	1.0
166.50429179996763	8.89798220002558	go_punish	0.5598412999534048	166.51384530001087	168.31148220005025	170.87296810001135	1.7976369000393788	167.52352590003284	169.85184480005455	173.93316020001657	0.787956300017413	1.0211232999567983	1.478667300019879	172.91933020000624	0.5346249000285752	171.89076280000154	2	1	80	2	go_punish	1	0	-1	1	1	1	0	0.0	1.0	0	0.5598412999534048	0.5346249000285752	2004.8827085999656	2171.3965538999764	2172.4062344999984	2173.194190800016	2174.73455340002	2175.755676699977	2176.773471399967	2177.802038799972	2178.815868799982	2180.294536100002	2020-10-16 11:04:54.827428	2.37925703912405	-2.44989906827159	-2.86404127276915	-2.98372608103453	-0.484784233645098	-2.86404127276915	-2.37925703912405	-2.44989906827159	-2.86404127276915	-0.484784233645098	-2.86404127276915	2.44989906827159	-5.317112416931279	-4.281627022224914	-4.949789454595786	-8.410075828118323	-4.378663101419363	-4.949789454595786	1.1510181256044605	-7.322782486473211	-2.005670069541928	-8.174419967199116	-1.0569965096215845	4	correct	1.0
175.42855949996783	8.133616700011771	nogo_punish	1.0	175.43811300001107	176.77523570001358	179.29751650005346	1.33712270000251	176.4475334000308	178.2819918000023	182.34887560003017	0.327702299982775	1.0155247000511736	1.2228540999926736	181.34535519999918	0.4200309999869205	180.31627090001712	2	1	81	1	nogo_punish	1	-1	0	0	0	1	0	0.0	1.0	0	1.0	0.4200309999869205	2004.8827085999656	2180.3208215999766	2181.3302419999964	2181.657944299979	2183.164700399968	2184.180225100019	2185.1989794999827	2186.2280637999647	2187.2315841999957	2188.4544382999884	2020-10-16 11:04:54.827428	0.330106807932521	-5.59077557785441	-2.83866008920337	-5.08104093236866	-3.16876689713589	-2.83866008920337	-0.330106807932521	-2.83866008920337	-5.59077557785441	-2.83866008920337	-3.16876689713589	2.83866008920337	-7.366262648122808	-7.422503531807734	-4.924408271030006	-10.507390679452453	-7.062645764910155	-4.924408271030006	1.5397791465362405	-9.676658342031484	-2.310395693908668	-8.563180988130895	-3.7837308147068445	4	correct	1.0
183.58638180000753	8.690056199964602	go_reward	0.3559747000108473	183.59593530005077	185.43635070003847	187.99626490002265	1.8404153999877053	184.59668750001583	186.96887530002277	191.03710770001635	0.8396632000226418	1.0273895999998786	1.248883799999021	190.02390550001292	0.6342277999501675	189.0090557000367	2	1	82	4	go_reward	1	1	0	1	1	1	0	0.0	1.0	1	0.3559747000108473	0.6342277999501675	2004.8827085999656	2188.4786439000163	2189.4793960999814	2190.319059300004	2191.8515838999883	2192.878973499988	2193.8917643000023	2194.9066140999785	2195.919816299982	2197.168700099981	2020-10-16 11:04:54.827428	16.0732901883715	18.3989443606095	0.0	18.3989443606095	16.0732901883715	0.0	-16.0732901883715	18.3989443606095	0.0	16.0732901883715	0.0	5.851085250449099	8.376920732316172	16.56721640665618	-2.085748181826636	12.972594613525708	12.179411320597236	-2.085748181826636	4.552204307781969	9.235291935543389	0.8583712032272223	12.674423461681975	1.8070447631475657	4	correct	1.0
192.3179786999831	9.521552000020165	go_punish	0.4206280999933369	192.32753220002633	195.09963710000739	197.642487300036	2.772104899981059	193.33234160003485	196.63131430000067	200.68289320002077	1.7672954999725334	1.0111730000353418	1.1661910000257194	199.67020510003204	0.4343021999811753	198.64698600000747	2	1	83	2	go_punish	1	0	-1	1	1	1	0	0.0	1.0	0	0.4206280999933369	0.4343021999811753	2004.8827085999656	2197.210240799992	2198.2150502000004	2199.982345699973	2201.514022899966	2202.5251959000016	2203.529694599973	2204.5529136999976	2205.5656017999863	2206.731792800012	2020-10-16 11:04:54.827428	2.61109374643796	-2.13909944393568	-2.86404127276915	-2.62127865860764	-0.252947526331191	-2.86404127276915	-2.61109374643796	-2.13909944393568	-2.86404127276915	-0.252947526331191	-2.86404127276915	2.13909944393568	-5.085275709617369	-3.9708273978890034	-4.949789454595786	-8.047628405691434	-4.146826394105456	-4.949789454595786	0.8402185012685506	-7.090945779159304	-2.005670069541928	-7.863620342863205	-1.0569965096215845	4	correct	1.0
201.88191920000827	9.603776899981767	go_punish	0.3311083000153303	201.8914727000515	204.4500498000416	207.00604700000258	2.5585770999900888	202.90148030000273	205.98018900002353	210.04752160003454	1.548569500038866	1.0258579999790527	1.4477279999987331	209.03418130002683	0.4319570000516251	208.0192882000115	2	1	84	2	go_punish	0	-1	0	1	1	1	0	0.0	1.0	-1	0.3311083000153303	0.4319570000516251	2004.8827085999656	2206.774181300017	2207.7841888999683	2209.332758400007	2210.862897599989	2211.888755599968	2212.901996799977	2213.9168898999924	2214.9302302	2216.377958199999	2020-10-16 11:04:54.827428	2.80481025348699	-1.87857230401613	-2.86404127276915	-2.31519410887237	-0.0592310192821578	-2.86404127276915	-2.80481025348699	-1.87857230401613	-2.86404127276915	-0.0592310192821578	-2.86404127276915	-8.31202232758477	-4.891559202568338	-3.7103002579694535	-4.949789454595786	-7.741543855956163	-3.9531098870564225	-4.949789454595786	-9.6109032702519	-6.897229272110271	-2.005670069541928	-7.603093202943655	-1.0569965096215845	4	correct	1.0
211.52924010000424	7.89927219995343	nogo_reward	1.0	211.53879360004748	212.95897930004867	215.49397020001152	1.4201857000011842	212.5378263000166	214.4700043000048	218.54367140005343	0.4211530000320636	1.023965900006715	0.8943943999474868	217.52707330003614	0.4981032999930903	216.50998610001943	2	1	85	3	nogo_reward	1	0	1	0	0	1	0	0.0	1.0	1	1.0	0.4981032999930903	2004.8827085999656	2216.421502200013	2217.420534899982	2217.841687900014	2219.3527128999704	2220.376678799977	2221.392694699985	2222.4097819000017	2223.426380000019	2224.3207743999665	2020-10-16 11:04:54.827428	19.0757652627297	0.0	17.1841954633083	16.2395626221202	-1.89156979942143	17.1841954633083	-19.0757652627297	17.1841954633083	0.0	17.1841954633083	-1.89156979942143	7.0658341477503015	11.37939580667437	-1.8317279539533236	15.098447281481663	10.813212875036406	-5.785448667195695	15.098447281481663	5.766953205083172	10.346197210480186	-1.0331985961942078	11.459674564380773	1.8070447631475657	4	correct	1.0
219.45603050000545	8.373252299963497	nogo_punish	0.7339380999910645	219.4655840000487	221.1943146000267	223.74525670002913	1.7287305999780074	220.4631809000275	222.72955869999714	226.7905931000132	0.7311336999991909	1.015698000031989	1.0482431999989785	225.77790220000315	0.4742155999992974	224.76407850004034	2	1	86	1	nogo_punish	0	0	-1	0	1	0	0	0.0	1.0	0	0.7339380999910645	0.4742155999992974	2004.8827085999656	2224.3482926000142	2225.345889499993	2226.0770231999923	2227.6122672999627	2228.6279652999947	2229.646787100006	2230.6606107999687	2231.6733016999788	2232.7215448999777	2020-10-16 11:04:54.827428	-0.904498980338547	-5.59077557785441	-2.41532956885586	-4.38478134332503	-3.31982854919441	-2.41532956885586	0.904498980338547	-5.59077557785441	-2.41532956885586	-3.31982854919441	-2.41532956885586	5.59077557785441	-8.600868436393876	-7.422503531807734	-4.501077750682496	-9.811131090408823	-7.213707416968675	-4.501077750682496	4.291894635187281	-10.157826802022523	-1.5569583656286379	-11.315296476781935	-0.6082848057082944	4	correct	1.0
227.87168599996994	8.643968200020026	go_punish	0.9608876999700442	227.88123950001318	229.6663595000282	232.2182812000392	1.785120000015013	228.8859496000223	231.19758300000103	235.27993060002336	0.7804099000059068	1.0206982000381686	1.2452771000098437	234.2665215000161	0.4452152000158094	233.2440115000354	2	1	87	2	go_punish	1	0	-1	1	1	1	0	0.0	1.0	0	0.9608876999700442	0.4452152000158094	2004.8827085999656	2232.7639480999787	2233.768658199988	2234.5490680999937	2236.0802915999666	2237.1009898000048	2238.126720100001	2239.1492300999817	2240.162639199989	2241.4079162999988	2020-10-16 11:04:54.827428	1.99824346596018	-2.89797643485333	-2.86404127276915	-3.29426764859388	-0.865797806808972	-2.86404127276915	-1.99824346596018	-2.89797643485333	-2.86404127276915	-0.865797806808972	-2.86404127276915	2.89797643485333	-5.698125990095148	-4.7297043888066534	-4.949789454595786	-8.720617395677673	-4.759676674583237	-4.949789454595786	1.5990954921862006	-7.703796059637085	-2.005670069541928	-8.622497333780856	-1.0569965096215845	4	correct	1.0
236.54196639999327	8.633368299982976	nogo_punish	0.3403740000212565	236.5515199000365	238.56480700004659	241.11861500004306	2.013287100010075	237.5665297000087	240.09403870004462	244.15971940004965	0.9982773000378984	1.0245762999984436	1.0251687999698333	243.1488489000476	0.4868208999978378	242.13250400003744	2	1	88	1	nogo_punish	1	-1	0	0	1	0	1	1.0	1.0	-1	0.3403740000212565	0.4868208999978378	2004.8827085999656	2241.434228500002	2242.4492382999742	2243.447515600012	2244.97674730001	2246.0013236000086	2247.015212600003	2248.031557500013	2249.042428000015	2250.067596799985	2020-10-16 11:04:54.827428	-0.216558397153252	-4.77900449351623	-2.41532956885586	-3.81509961317757	-2.63188796600911	-2.41532956885586	0.216558397153252	-4.77900449351623	-2.41532956885586	-2.63188796600911	-2.41532956885586	-5.41159013808467	-7.91292785320858	-6.6107324474695535	-4.501077750682496	-9.241449360261363	-6.525766833783375	-4.501077750682496	-6.7104710807518	-9.469886218837223	-1.5569583656286379	-10.503525392443755	-0.6082848057082944	4	correct	1.0
245.21922759997005	9.087986800005183	nogo_reward	1.0	245.2287811000133	247.2854173000087	249.8123150000465	2.0566361999954097	246.23712340003112	248.78702290001092	252.8548007000354	1.0482938999775797	1.0252921000355855	1.4619671999830643	251.84792000002926	0.7483179999981076	250.82694700005231	2	1	89	3	nogo_reward	1	0	1	0	0	1	0	0.0	1.0	1	1.0	0.7483179999981076	2004.8827085999656	2250.111489699979	2251.1198319999967	2252.1681258999743	2253.6697314999765	2254.695023600012	2255.709655600018	2256.730628599995	2257.737509300001	2259.199476499984	2020-10-16 11:04:54.827428	19.9946469169914	0.0	17.9279089930065	17.1199869481296	-2.06673792398496	17.9279089930065	-19.9946469169914	17.9279089930065	0.0	17.9279089930065	-2.06673792398496	6.3221206180521	12.29827746093607	-1.8317279539533236	15.842160811179864	11.693637201045807	-5.960616791759225	15.842160811179864	5.02323967538497	11.089910740178388	-1.2083667207577378	12.203388094078974	1.8070447631475657	4	correct	1.0
254.33302909997337	8.651600699988194	nogo_punish	0.5740121999988332	254.3425826000166	256.0161493000346	258.5412047000136	1.6735667000180001	255.35230410000077	257.5303369000321	261.59260450000875	0.6638452000338475	1.0108677999814972	1.4015787999960594	260.57834220002405	0.6249491000198759	259.55022690002806	2	1	90	1	nogo_punish	1	-1	0	0	1	0	1	0.0	0.0	-1	0.5740121999988332	0.6249491000198759	2004.8827085999656	2259.225291199982	2260.2350126999663	2260.8988579	2262.4130454999977	2263.423913299979	2264.4329354999936	2265.4610507999896	2266.4753130999743	2267.8768918999704	2020-10-16 11:04:54.827428	-0.630800867004568	-5.36019952526142	-2.41532956885586	-4.58222084019757	-3.04613043586043	-2.41532956885586	0.630800867004568	-5.36019952526142	-2.41532956885586	-3.04613043586043	-2.41532956885586	-4.8303951063394805	-8.327170323059896	-7.191927479214743	-4.501077750682496	-10.008570587281362	-6.940009303634695	-4.501077750682496	-6.12927604900661	-9.884128688688543	-1.5569583656286379	-11.084720424188944	-0.6082848057082944	4	wrong	1.0
263.02939109999033	8.053594099998008	nogo_reward	1.0	263.0389446000336	264.3725268000271	266.9154014000087	1.3335821999935433	264.04522240004735	265.8904855000437	269.9578401000472	0.32730439997976646	1.0249158999649808	1.1346985999844037	268.94533670000965	0.3846290000365115	267.93156560003945	2	1	91	3	nogo_reward	1	0	1	0	0	1	1	1.0	1.0	1	1.0	0.3846290000365115	2004.8827085999656	2267.921653199999	2268.927931000013	2269.2552353999927	2270.7731941000093	2271.7981099999743	2272.814274200005	2273.828045299975	2274.8405487000127	2275.975247299997	2020-10-16 11:04:54.827428	20.7913994824683	0.0	18.5732372560435	17.8787132167094	-2.21816222642477	18.5732372560435	-20.7913994824683	18.5732372560435	0.0	18.5732372560435	-2.21816222642477	5.676792355015099	13.09503002641297	-1.8317279539533236	16.487489074216867	12.452363469625606	-6.112041094199035	16.487489074216867	4.377911412347969	11.735239003215389	-1.3597910231975479	12.848716357115975	1.8070447631475657	4	correct	1.0
271.1087024000012	8.664612900000066	go_reward	0.7332650999887846	271.11825590004446	272.8139173000236	275.3718726000516	1.6956613999791443	272.1185282000224	274.3487848000368	278.42806260002544	0.6953891000011936	1.023087800014764	1.354806200019084	277.4151416000095	0.6100558000034653	276.38715340005047	2	1	92	4	go_reward	1	1	0	1	1	1	0	0.0	1.0	1	0.7332650999887846	0.6100558000034653	2004.8827085999656	2276.00096450001	2277.001236799988	2277.696625899989	2279.2314934000024	2280.254581200017	2281.269862000016	2282.297850199975	2283.310771199991	2284.66557740001	2020-10-16 11:04:54.827428	16.5664244532598	19.0148530254583	0.0	19.0148530254583	16.5664244532598	0.0	-16.5664244532598	19.0148530254583	0.0	16.5664244532598	0.0	5.2351765856003	8.87005499720447	17.18312507150498	-2.085748181826636	13.588503278374507	12.672545585485533	-2.085748181826636	3.93629564293317	9.728426200431686	0.8583712032272223	13.290332126530775	1.8070447631475657	4	correct	1.0
279.802571699955	9.41310580004938	go_reward	0.552367799973581	279.81212519999826	282.22877010004595	284.79941220005276	2.416644900047686	280.8176979999989	283.77550330001395	287.8310714000254	1.411072100047022	1.0239089000388049	1.394159600022249	286.8280494000064	0.4892486999742687	285.80993430002127	2	1	93	4	go_reward	1	1	0	1	1	1	0	0.0	1.0	1	0.552367799973581	0.4892486999742687	2004.8827085999656	2284.694833799964	2285.7004065999645	2287.1114787000115	2288.6582118999795	2289.6821208000183	2290.692642899987	2291.710757999972	2292.713779999991	2294.107939600013	2020-10-16 11:04:54.827428	16.9934609320748	19.5485788479196	0.0	19.5485788479196	16.9934609320748	0.0	-16.9934609320748	19.5485788479196	0.0	16.9934609320748	0.0	4.701450763139	9.297091476019471	17.716850893966278	-2.085748181826636	14.122229100835806	13.099582064300535	-2.085748181826636	3.4025698204718706	10.155462679246687	0.8583712032272223	13.824057948992074	1.8070447631475657	4	correct	1.0
289.24743139999964	8.675691799959623	nogo_punish	0.6627308999886736	289.2569849000429	290.83044900000095	293.3802431000513	1.5734640999580733	290.26281490002293	292.35626030003186	296.4387276000343	0.5676340999780223	1.0239828000194393	1.4939490999681766	295.4255788000305	0.6676242999965325	294.3956053000293	2	1	94	1	nogo_punish	1	-1	0	0	1	0	0	0.0	1.0	-1	0.6627308999886736	0.6676242999965325	2004.8827085999656	2294.1396935000084	2295.1455234999885	2295.7131575999665	2297.2389688999974	2298.262951700017	2299.278313899995	2300.308287399996	2301.3214362	2302.815385299968	2020-10-16 11:04:54.827428	-0.985708803554761	-5.85452096122635	-2.41532956885586	-5.22162020621706	-3.40103837241062	-2.41532956885586	0.985708803554761	-5.85452096122635	-2.41532956885586	-3.40103837241062	-2.41532956885586	-4.33607367037455	-8.682078259610089	-7.686248915179673	-4.501077750682496	-10.647969953300853	-7.294917240184885	-4.501077750682496	-5.63495461304168	-10.239036625238732	-1.5569583656286379	-11.579041860153875	-0.6082848057082944	4	correct	1.0
297.9671897999947	8.225610499968298	go_punish	0.5543959999922663	297.9767433000379	299.62569559999974	302.17192790005356	1.6489522999618202	298.97979360003956	301.1571701000212	305.2234580000513	0.6459019999601878	1.0147578000323847	0.9788957999548984	304.21517250000034	0.6108470000326633	303.18226920004236	2	1	95	2	go_punish	0	-1	0	1	1	1	0	0.0	1.0	-1	0.5543959999922663	0.6108470000326633	2004.8827085999656	2302.8594519000035	2303.862502200005	2304.5084041999653	2306.0398786999867	2307.054636500019	2308.064977800008	2309.097881099966	2310.106166600017	2311.085062399972	2020-10-16 11:04:54.827428	2.29687974479066	-2.50638471470903	-2.86404127276915	-2.86685371794574	-0.567161527978489	-2.86404127276915	-2.29687974479066	-2.50638471470903	-2.86404127276915	-0.567161527978489	-2.86404127276915	-7.68420991689187	-5.3994897112646685	-4.338112668662354	-4.949789454595786	-8.293203465029533	-4.461040395752754	-4.949789454595786	-8.983090859558999	-7.405159780806602	-2.005670069541928	-8.230905613636555	-1.0569965096215845	4	correct	1.0
306.23579389997803	8.526322600024287	go_punish	0.2657995999907143	306.2453474000213	308.3073543000505	310.84278510004515	2.062006900029246	307.25402490003034	309.82524340000236	313.87564949999796	1.053329400020175	1.0175417000427842	0.896020500047598	312.87325010000495	0.3827758999541402	311.8592117000371	2	1	96	2	go_punish	1	0	-1	1	1	1	0	0.0	1.0	0	0.2657995999907143	0.3827758999541402	2004.8827085999656	2311.128055999987	2312.136733499996	2313.190062900016	2314.707951999968	2315.7254937000107	2316.7419203000027	2317.7559586999705	2318.7583580999635	2319.654378600011	2020-10-16 11:04:54.827428	1.57119636142045	-3.4249369550343	-2.86404127276915	-3.75349038574948	-1.2928449113487	-2.86404127276915	-1.57119636142045	-3.4249369550343	-2.86404127276915	-1.2928449113487	-2.86404127276915	3.4249369550343	-6.125173094634878	-5.256664908987624	-4.949789454595786	-9.179840132833274	-5.186723779122965	-4.949789454595786	2.1260560123671706	-8.130843164176813	-2.005670069541928	-9.149457853961826	-1.0569965096215845	4	correct	1.0
314.8191073999633	8.166054100030578	nogo_reward	1.0	314.8286609000065	316.4946932000462	319.02744560001884	1.6660323000396602	315.8390575000085	318.0110549000092	322.07766589999665	0.655635700037692	1.0163907000096515	0.9170491000404581	321.06479820003733	0.5082793000037782	320.04182480002055	2	1	97	3	nogo_reward	1	0	1	0	0	1	0	0.0	1.0	1	1.0	0.5082793000037782	2004.8827085999656	2319.711369499972	2320.721766099974	2321.3774018000117	2322.8937634999747	2323.9101541999844	2324.924533399986	2325.947506800003	2326.960374499962	2327.8774236000027	2020-10-16 11:04:54.827428	21.485940281124	0.0	19.1361603637313	18.5363290291913	-2.3497799173927	19.1361603637313	-21.485940281124	19.1361603637313	0.0	19.1361603637313	-2.3497799173927	5.113869247327301	13.789570825068672	-1.8317279539533236	17.05041218190466	13.109979282107506	-6.243658785166964	17.05041218190466	3.8149883046601714	12.298162110903187	-1.4914087141654777	13.411639464803773	1.8070447631475657	4	correct	1.0
323.0097031999617	8.27710260002641	go_reward	0.6084707999834791	323.0192567000049	324.48866660002386	327.05635420000226	1.4694099000189453	324.01910060003866	326.03000830003293	330.09874280000804	0.46956599998520687	1.0263458999693285	1.1976165000232868	329.08993780001765	0.4704514000331983	328.06962160003604	2	1	98	4	go_reward	1	1	0	1	1	1	0	0.0	1.0	1	0.6084707999834791	0.4704514000331983	2004.8827085999656	2327.9019652999705	2328.901809200004	2329.3713751999894	2330.9127168999985	2331.939062799968	2332.9523302000016	2333.972646399983	2334.9814513999736	2336.179067899997	2020-10-16 11:04:54.827428	17.3653208519797	20.0136320944194	0.0	20.0136320944194	17.3653208519797	0.0	-17.3653208519797	20.0136320944194	0.0	17.3653208519797	0.0	4.236397516639201	9.66895139592437	18.181904140466077	-2.085748181826636	14.587282347335606	13.471441984205434	-2.085748181826636	2.937516573972071	10.527322599151587	0.8583712032272223	14.289111195491873	1.8070447631475657	4	correct	1.0
331.31209089997037	8.460970400017686	go_reward	0.2758490999694913	331.3216444000136	333.1785747000249	335.73378500004765	1.8569303000112996	332.3322722000303	334.7150564000476	338.76636690000305	0.8463024999946356	1.0187286000000313	1.0162479000282474	337.76272759999847	0.5191579000093043	336.7389751000446	2	1	99	4	go_reward	1	1	0	1	1	1	0	0.0	1.0	1	0.2758490999694913	0.5191579000093043	2004.8827085999656	2336.204352999979	2337.214980799996	2338.0612832999905	2339.597765000013	2340.616493600013	2341.62168370001	2342.645436199964	2343.6490754999686	2344.665323399997	2020-10-16 11:04:54.827428	17.6907644488119	20.4208578028867	0.0	20.4208578028867	17.6907644488119	0.0	-17.6907644488119	20.4208578028867	0.0	17.6907644488119	0.0	3.8291718081718997	9.994394992756572	18.58912984893338	-2.085748181826636	14.994508055802907	13.796885581037635	-2.085748181826636	2.53029086550477	10.852766195983788	0.8583712032272223	14.696336903959175	1.8070447631475657	4	correct	1.0
339.8187866999656	8.575894900015555	go_punish	0.4105317000066861	339.8283402000088	341.33759609999834	343.8786170000094	1.5092558999895118	340.83832200005463	342.85356730001513	346.9370095000486	0.49927409994370464	1.0250496999942698	1.4672255999757908	345.922158500005	0.4429579999996349	344.89313250000123	2	1	100	2	go_punish	0	-1	0	1	1	1	0	0.0	1.0	-1	0.4105317000066861	0.4429579999996349	2004.8827085999656	2344.7110487999744	2345.72103060002	2346.220304699964	2347.7362758999807	2348.761325599975	2349.775841099967	2350.8048670999706	2351.819718100014	2353.28694369999	2020-10-16 11:04:54.827428	1.93365226013956	-2.95395541205922	-2.86404127276915	-3.25399280530176	-0.930389012629587	-2.86404127276915	-1.93365226013956	-2.95395541205922	-2.86404127276915	-0.930389012629587	-2.86404127276915	-7.23663921954168	-5.762717195915768	-4.7856833660125435	-4.949789454595786	-8.680342552385554	-4.824267880403852	-4.949789454595786	-8.53552016220881	-7.7683872654577	-2.005670069541928	-8.678476310986746	-1.0569965096215845	4	correct	1.0
348.43658149999146	9.317171300004702	go_punish	0.3812535000033676	348.4461350000347	350.7968417000375	353.35066300001927	2.3507067000027746	349.45848750002915	352.3276533000171	356.4100344000035	1.3383542000083253	1.0230097000021487	1.3532719000359066	355.39577750000217	0.612425200000871	354.36971180001274	2	1	101	2	go_punish	1	0	-1	1	1	1	0	0.0	1.0	0	0.3812535000033676	0.612425200000871	2004.8827085999656	2353.3288436000003	2354.3411960999947	2355.679550300003	2357.2103618999827	2358.233371599985	2359.2524203999783	2360.2784860999677	2361.292742999969	2362.646014900005	2020-10-16 11:04:54.827428	1.25922502528399	-3.80888270676165	-2.86404127276915	-4.08337384846612	-1.60481624748516	-2.86404127276915	-1.25922502528399	-3.80888270676165	-2.86404127276915	-1.60481624748516	-2.86404127276915	3.80888270676165	-6.437144430771339	-5.640610660714974	-4.949789454595786	-9.509723595549914	-5.498695115259425	-4.949789454595786	2.510001764094521	-8.442814500313272	-2.005670069541928	-9.533403605689175	-1.0569965096215845	4	correct	1.0
357.7983817000063	9.412710799952038	nogo_reward	1.0	357.80793520004954	360.24020940001355	362.77915470005246	2.432274199964013	358.8089252000209	361.7543744000145	365.83536450000247	1.4312841999926604	1.0247803000379463	1.3852814999991097	364.823305500031	0.4519347000168636	363.79310910002096	2	1	102	3	nogo_reward	1	0	1	0	0	1	0	0.0	1.0	1	1.0	0.4519347000168636	2004.8827085999656	2362.690643800015	2363.6916337999864	2365.122917999979	2366.63708299998	2367.661863300018	2368.6758176999865	2369.7060140999965	2370.718073099968	2372.103354599967	2020-10-16 11:04:54.827428	22.0942793459959	0.0	19.6295381736172	19.1092632249275	-2.46474117237865	19.6295381736172	-22.0942793459959	19.6295381736172	0.0	19.6295381736172	-2.46474117237865	4.620491437441402	14.397909889940571	-1.8317279539533236	17.54378999179056	13.682913477843705	-6.358620040152915	17.54378999179056	3.321610494774272	12.791539920789086	-1.606369969151428	13.905017274689673	1.8070447631475657	4	correct	1.0
367.2548687999956	8.366722400009166	nogo_reward	1.0	367.26442230003886	369.02855400001863	371.5645820000209	1.764131699979771	368.2715041000047	370.53790010005423	374.6225905000465	0.7570499000139534	1.0266818999666611	1.0085542000015266	373.60687430005055	0.534666899999138	372.5794267000165	2	1	103	3	nogo_reward	1	0	1	0	0	1	0	0.0	1.0	1	1.0	0.534666899999138	2004.8827085999656	2372.1471309000044	2373.1542126999702	2373.911262599984	2375.42060870002	2376.4472905999864	2377.462135299982	2378.489582900016	2379.505299100012	2380.5138533000136	2020-10-16 11:04:54.827428	22.6294213275837	0.0	20.0638263793859	19.6107647962958	-2.56559494819787	20.0638263793859	-22.6294213275837	20.0638263793859	0.0	20.0638263793859	-2.56559494819787	4.1862032316727	14.93305187152837	-1.8317279539533236	17.978078197559263	14.184415049212006	-6.459473815972135	17.978078197559263	2.88732228900557	13.225828126557788	-1.7072237449706478	14.339305480458375	1.8070447631475657	4	correct	1.0
375.65150390000827	7.927291199971933	nogo_punish	1.0	375.6610574000515	377.2292715000226	379.75196410005447	1.568214099971101	376.66580210003303	378.73577510000905	382.81251020001946	0.5634693999895717	1.016189000045415	0.7758384000039769	381.80062000005273	0.548058399988804	380.769997000054	2	1	104	1	nogo_punish	1	-1	0	0	0	1	0	0.0	1.0	0	1.0	0.548058399988804	2004.8827085999656	2380.543766000017	2381.5485106999986	2382.111980099988	2383.6184836999746	2384.63467270002	2385.6527056000195	2386.6833286000183	2387.695218799985	2388.471057199989	2020-10-16 11:04:54.827428	1.29314172960298	-6.27986627787872	-2.41532956885586	-5.76161527438531	-3.70847129845884	-2.41532956885586	-1.29314172960298	-2.41532956885586	-6.27986627787872	-2.41532956885586	-3.70847129845884	2.41532956885586	-6.403227726452348	-8.111594231832044	-4.501077750682496	-11.187965021469104	-7.602350166233105	-4.501077750682496	1.1164486261887305	-9.253327821683973	-2.850100095231618	-8.139850467783386	-4.472821514731154	4	correct	1.0
383.6309894999722	7.983706300030917	nogo_reward	1.0	383.64054300001544	385.017857800005	387.5410130000091	1.3773147999895627	384.6560301000136	386.51614290004363	390.5826344000525	0.36182769999140874	1.024870099965483	1.0416148999938741	389.5710070000496	0.3388176000444218	388.55632870004047	2	1	105	3	nogo_reward	1	0	1	0	0	1	1	1.0	1.0	1	1.0	0.3388176000444218	2004.8827085999656	2388.523251599981	2389.538738699979	2389.9005663999706	2391.398851500009	2392.4237215999747	2393.439037300006	2394.453715600015	2395.465343000018	2396.506957900012	2020-10-16 11:04:54.827428	23.1020281427786	0.0	20.4476039288009	20.0516195241088	-2.65442421397772	20.4476039288009	-23.1020281427786	20.4476039288009	0.0	20.4476039288009	-2.65442421397772	3.8024256822577023	15.405658686723271	-1.8317279539533236	18.361855746974264	14.625269777025007	-6.548303081751985	18.361855746974264	2.5035447395905726	13.609605675972785	-1.796053010750498	14.723083029873372	1.8070447631475657	4	correct	1.0
391.6412185999802	9.08852879999904	nogo_punish	1.0	391.65077210002346	394.2292362000444	396.7619343000115	2.5784641000209376	392.6611860000412	395.74001930002123	399.82248900004197	1.5680502000031993	1.0219149999902584	0.9168118999805301	398.8108255999982	0.3846070999861695	397.7794954000274	2	1	106	1	nogo_punish	1	-1	0	0	0	1	1	1.0	1.0	0	1.0	0.3846070999861695	2004.8827085999656	2396.533480699989	2397.5438946000068	2399.11194480001	2400.622727899987	2401.644642899977	2402.662203999993	2403.693534199964	2404.7051976000075	2405.622009499988	2020-10-16 11:04:54.827428	1.80200051029063	-6.27986627787872	-2.07552246565782	-4.98279136778251	-3.87752297594845	-2.07552246565782	-1.80200051029063	-2.07552246565782	-6.27986627787872	-2.07552246565782	-3.87752297594845	2.07552246565782	-5.894368945764699	-8.111594231832044	-4.161270647484456	-10.409141114866303	-7.771401843722715	-4.161270647484456	0.7766415229906907	-8.913520718485934	-3.019151772721228	-7.8000433645853455	-4.472821514731154	4	correct	1.0
400.7757567999656	8.918001300014566	go_punish	0.4397013999987393	400.78531030000886	402.76039030001266	405.3083984000259	1.9750800000037998	401.7904760000529	404.28213030000916	408.35868900001515	0.9699142999597825	1.0262681000167504	1.3446226000082788	407.3454742000322	0.4660665999981574	406.3189363999991	2	1	107	2	go_punish	0	-1	0	1	1	1	0	0.0	1.0	-1	0.4397013999987393	0.4660665999981574	2004.8827085999656	2405.6680188999744	2406.6731846000184	2407.643098899978	2409.1648388999747	2410.1911069999915	2411.2016449999646	2412.2281827999977	2413.2413975999807	2414.586020199989	2020-10-16 11:04:54.827428	1.66346305161096	-3.28613241695789	-2.86404127276915	-3.53768102110532	-1.20057822115819	-2.86404127276915	-1.66346305161096	-3.28613241695789	-2.86404127276915	-1.20057822115819	-2.86404127276915	-6.904462214643011	-6.032906404444368	-5.117860370911213	-4.949789454595786	-8.964030768189113	-5.0944570889324545	-4.949789454595786	-8.20334315731014	-8.038576473986303	-2.005670069541928	-9.010653315885415	-1.0569965096215845	4	correct	1.0
409.7391219999995	8.593090299982578	go_punish	0.7219439999898896	409.74867550004274	411.31007040000986	413.86519209999824	1.5613948999671265	410.7639224000159	412.8428536000429	416.9252935000113	0.5461479999939911	1.0223384999553673	1.416472300013993	415.9119555000216	0.4163070999784395	414.88273810001556	2	1	108	2	go_punish	1	0	-1	1	1	1	0	0.0	1.0	0	0.7219439999898896	0.4163070999784395	2004.8827085999656	2414.6313841000083	2415.6466309999814	2416.1927789999754	2417.7255622000084	2418.747900699964	2419.765446699981	2420.794664099987	2421.808002099977	2423.224474399991	2020-10-16 11:04:54.827428	1.0235325891075	-4.09838530477486	-2.86404127276915	-4.32928177524963	-1.84050868366165	-2.86404127276915	-1.0235325891075	-4.09838530477486	-2.86404127276915	-1.84050868366165	-2.86404127276915	4.09838530477486	-6.672836866947828	-5.930113258728183	-4.949789454595786	-9.755631522333424	-5.734387551435915	-4.949789454595786	2.7995043621077302	-8.678506936489763	-2.005670069541928	-9.822906203702384	-1.0569965096215845	4	correct	1.0
418.3868137999675	9.857667100033723	nogo_reward	1.0	418.39636730001075	421.37965950003127	423.9195405000355	2.9832922000205144	419.41583860001947	422.8951225000201	426.9620867000194	1.9638209000117968	1.0244180000154302	1.291947700025048	425.94668000005186	0.4760282000061124	424.92499610001687	2	1	109	3	nogo_reward	1	0	1	0	0	1	0	0.0	1.0	1	1.0	0.4760282000061124	2004.8827085999656	2423.2790758999763	2424.298547199985	2426.262368099997	2427.7778310999856	2428.802249100001	2429.8077046999824	2430.8293886000174	2431.844795299985	2433.13674300001	2020-10-16 11:04:54.827428	23.5209136610565	0.0	20.7879675706381	20.4406826477791	-2.73294609041834	20.7879675706381	-23.5209136610565	20.7879675706381	0.0	20.7879675706381	-2.73294609041834	3.462062040420502	15.824544205001171	-1.8317279539533236	18.702219388811464	15.014332900695305	-6.626824958192605	18.702219388811464	2.1631810977533723	13.949969317809986	-1.8745748871911179	15.063446671710572	1.8070447631475657	4	correct	1.0
428.271332099976	8.930348400027015	go_reward	0.4947045999579131	428.28088560001925	430.82138840004336	433.3951326000388	2.5405028000241145	429.29591860005166	432.3694289000123	436.43757030001143	1.525469799991697	1.0257037000264972	0.773663700034831	435.4221990000224	0.4382801000028848	434.3978280000156	2	1	110	4	go_reward	1	1	0	1	1	1	0	0.0	1.0	1	0.4947045999579131	0.4382801000028848	2004.8827085999656	2433.163594199985	2434.178627200017	2435.704097000009	2437.252137499978	2438.2778412000043	2439.280536599981	2440.304907599988	2441.320278899977	2442.093942600012	2020-10-16 11:04:54.827428	17.9768892496909	20.7790503640067	0.0	20.7790503640067	17.9768892496909	0.0	-17.9768892496909	20.7790503640067	0.0	17.9768892496909	0.0	3.4709792470519005	10.28051979363557	18.947322410053378	-2.085748181826636	15.352700616922906	14.083010381916633	-2.085748181826636	2.172098304384771	11.138890996862786	0.8583712032272223	15.054529465079174	1.8070447631475657	4	correct	1.0
437.247141300003	9.459329299977526	go_punish	0.9320770999765956	437.25669480004626	440.10277300002053	442.66059830004815	2.846078199974272	438.26297680003336	441.63856930000475	445.7209839000134	1.8397961999871768	1.0220290000434034	0.9950402000104077	444.71334840002237	0.5000705999555066	443.6799651000183	2	1	111	2	go_punish	1	0	-1	1	1	1	0	0.0	1.0	0	0.9320770999765956	0.5000705999555066	2004.8827085999656	2442.139403400012	2443.145685399999	2444.985481599986	2446.5212778999703	2447.5433069000137	2448.562673699984	2449.596056999988	2450.603692499979	2451.5987326999893	2020-10-16 11:04:54.827428	1.4565691952037	-3.54005785237649	-2.86404127276915	-3.75232326375932	-1.40747207756545	-2.86404127276915	-1.4565691952037	-3.54005785237649	-2.86404127276915	-1.40747207756545	-2.86404127276915	3.54005785237649	-6.239800260851628	-5.371785806329814	-4.949789454595786	-9.178673010843113	-5.301350945339715	-4.949789454595786	2.2411769097093606	-8.245470330393562	-2.005670069541928	-9.264578751304015	-1.0569965096215845	4	correct	1.0
446.7325031000082	7.730086700000811	nogo_punish	1.0	446.74205660005146	448.0953696000506	450.61799050000263	1.3533129999991615	447.7520628000493	449.60234170005424	453.6622188000474	0.34330680000130087	1.0156487999483943	0.809924500004854	452.6505925000529	0.4621556999627501	451.6358290000353	2	1	112	1	nogo_punish	1	-1	0	0	0	1	0	0.0	1.0	0	1.0	0.4621556999627501	2004.8827085999656	2451.624765200017	2452.634771400015	2452.978078200016	2454.48505030002	2455.500699099968	2456.518537600001	2457.5333011000184	2458.544927400013	2459.354851900018	2020-10-16 11:04:54.827428	2.21820864536656	-6.27986627787872	-1.79827803313273	-4.34377163143143	-4.01648667849929	-1.79827803313273	-2.21820864536656	-1.79827803313273	-6.27986627787872	-1.79827803313273	-4.01648667849929	1.79827803313273	-5.4781608106887685	-8.111594231832044	-3.8840262149593663	-9.770121378515224	-7.910365546273555	-3.8840262149593663	0.49939709046560044	-8.636276285960843	-3.158115475272068	-7.5227989320602555	-4.472821514731154	4	correct	1.0
454.50990740000316	8.313303300004918	nogo_reward	1.0	454.5194609000464	455.9581179000088	458.4957669000146	1.4386569999624044	455.5208751000464	457.4732159000123	461.5571757000289	0.4372427999624051	1.022551000002295	1.2755885000224225	460.55010280001443	0.384953000000678	459.51505880005425	2	1	113	3	nogo_reward	0	1	0	0	0	1	0	0.0	1.0	0	1.0	0.384953000000678	2004.8827085999656	2459.402169500012	2460.403583700012	2460.8408264999744	2462.355924499978	2463.37847549998	2464.39776740002	2465.43281139998	2466.4398842999944	2467.715472800017	2020-10-16 11:04:54.827428	23.8934183450756	0.0	21.0908311727152	20.7852802941648	-2.80258717236044	21.0908311727152	-23.8934183450756	21.0908311727152	0.0	21.0908311727152	-2.80258717236044	-21.0908311727152	16.19704888902027	-1.8317279539533236	19.00508299088856	15.358930547081005	-6.696466040134705	19.00508299088856	-22.389712115382327	14.252832919887085	-1.944215969133218	15.366310273787672	1.8070447631475657	4	correct	1.0
462.86673359997894	8.523571999976411	nogo_reward	1.0	462.8762871000222	464.3532232000143	466.8807363000233	1.4769360999921446	463.88507620000746	465.8638168000034	469.9385552000026	0.4681470000068657	1.016919500019867	1.4613038999959826	468.92538280005147	0.3351904000155628	467.89381259999936	2	1	114	3	nogo_reward	1	0	1	0	0	1	0	0.0	1.0	1	1.0	0.3351904000155628	2004.8827085999656	2467.7589956999877	2468.767784799973	2469.23593179998	2470.746525399969	2471.763444899989	2472.776521199965	2473.808091400017	2474.821263799968	2476.282567699964	2020-10-16 11:04:54.827428	20.0973803997693	0.0	17.9060220719118	17.6363821960916	-2.19135832785747	17.9060220719118	-20.0973803997693	17.9060220719118	0.0	17.9060220719118	-2.19135832785747	6.344007539146801	12.40101094371397	-1.8317279539533236	15.820273890085163	12.210032449007805	-6.085237195631735	15.820273890085163	5.045126596479672	11.068023819083686	-1.332987124630248	12.181501172984273	1.8070447631475657	4	correct	1.0
471.41903499997034	9.209615600004327	nogo_punish	1.0	471.4285885000136	474.1399670000542	476.6777000000002	2.7113785000406097	472.43533720000414	475.6557483000215	479.7389182000188	1.7046298000500428	1.021951699978672	0.8992858999990858	478.7260576999979	0.4070261999731883	477.69599050004035	2	1	115	1	nogo_punish	1	-1	0	0	0	1	0	0.0	1.0	0	1.0	0.4070261999731883	2004.8827085999656	2476.311297099979	2477.3180457999697	2479.0226756000197	2480.538456899987	2481.5604085999657	2482.578699100006	2483.6087662999635	2484.6216267999844	2485.5209126999835	2020-10-16 11:04:54.827428	2.5631900392424	-6.27986627787872	-1.56906292552688	-3.81228223741108	-4.13225296476928	-1.56906292552688	-2.5631900392424	-1.56906292552688	-6.27986627787872	-1.56906292552688	-4.13225296476928	1.56906292552688	-5.133179416812928	-8.111594231832044	-3.654811107353516	-9.238631984494873	-8.026131832543545	-3.654811107353516	0.2701819828597505	-8.407061178354994	-3.2738817615420577	-7.293583824454405	-4.472821514731154	4	correct	1.0
480.65384899999526	9.151944499986712	go_reward	0.4553642999962903	480.6634025000385	483.2685975000495	485.8213730000425	2.6051950000110082	481.6626519000274	484.8011668000254	488.8852275000536	1.6059456000220962	1.0202062000171281	0.9301194999716245	487.86968300002627	0.61523739999393	486.8397962000454	2	1	116	4	go_reward	0	0	1	1	1	1	0	0.0	1.0	0	0.4553642999962903	0.61523739999393	2004.8827085999656	2485.546111100004	2486.545360499993	2488.151306100015	2489.683875399991	2490.704081600008	2491.722504800011	2492.752391599992	2493.767936100019	2494.6980555999908	2020-10-16 11:04:54.827428	18.2294977706538	21.0954065350425	0.0	21.0954065350425	18.2294977706538	0.0	-18.2294977706538	21.0954065350425	0.0	18.2294977706538	0.0	-21.0954065350425	10.533128314598471	19.263678581089177	-2.085748181826636	15.669056787958706	14.335618902879535	-2.085748181826636	-22.39428747770963	11.391499517825688	0.8583712032272223	15.370885636114973	1.8070447631475657	4	correct	1.0
489.8541798999654	8.841689100023359	nogo_reward	1.0	489.86373340000864	491.78829590004216	494.3298140999982	1.9245625000335167	490.86714340001345	493.3055053999992	497.38727330003167	0.9211525000287111	1.0243086999989828	1.3181492000003345	496.37368190003326	0.3938396000303328	495.34513980004704	2	1	117	3	nogo_reward	1	0	1	0	0	1	0	0.0	1.0	1	1.0	0.3938396000303328	2004.8827085999656	2494.746441999974	2495.749851999979	2496.6710045000077	2498.188213999965	2499.2125226999638	2500.2278484000126	2501.256390499999	2502.269981899997	2503.5881310999976	2020-10-16 11:04:54.827428	21.1511879806698	0.0	18.7828634492585	18.5442417945772	-2.36832453141131	18.7828634492585	-21.1511879806698	18.7828634492585	0.0	18.7828634492585	-2.36832453141131	5.467166161800101	13.45481852461447	-1.8317279539533236	16.69711526743186	13.117892047493406	-6.262203399185575	16.69711526743186	4.168285219132971	11.944865196430387	-1.5099533281840878	13.058342550330973	1.8070447631475657	4	correct	1.0
498.7396399999857	9.421201399993606	nogo_reward	1.0	498.7491935000289	501.1862274000305	503.7274272000068	2.437033900001552	499.7571515000309	502.70143000001553	506.7687339000404	1.4290758999995887	1.0259971999912523	1.4016609999821412	505.7550903000515	0.4868958999868482	504.73101040004985	2	1	118	3	nogo_reward	1	0	1	0	0	1	0	0.0	1.0	1	1.0	0.4868958999868482	2004.8827085999656	2503.6319020999945	2504.6398600999964	2506.068935999996	2507.584138599981	2508.6101357999723	2509.6137190000154	2510.637798900017	2511.651442500006	2513.053103499988	2020-10-16 11:04:54.827428	22.000470232198	0.0	19.4886723409387	19.276938315382	-2.51179789125935	19.4886723409387	-22.000470232198	19.4886723409387	0.0	19.4886723409387	-2.51179789125935	4.761357270119902	14.304100776142672	-1.8317279539533236	17.40292415911206	13.850588568298207	-6.405676759033614	17.40292415911206	3.462476327452772	12.650674088110586	-1.6534266880321278	13.764151442011173	1.8070447631475657	4	correct	1.0
508.1885295999823	8.711129200004962	nogo_punish	1.0	508.19808310002554	510.1067466000095	512.6338190000388	1.908663499983959	509.20740190002834	511.61899670003913	515.6806832000148	0.8993446999811567	1.0148222999996506	1.2285291000157486	514.6719197000493	0.4308495000004768	513.6531198000303	2	1	119	1	nogo_punish	1	-1	0	0	0	1	0	0.0	1.0	0	1.0	0.4308495000004768	2004.8827085999656	2513.080791699991	2514.090110499994	2514.989455199975	2516.5017053000047	2517.5165276000043	2518.535828399996	2519.554628300015	2520.5633917999803	2521.791920899996	2020-10-16 11:04:54.827428	2.85237381418916	-6.27986627787872	-1.37741976708106	-3.36525897313607	-4.22979358127021	-1.37741976708106	-2.85237381418916	-1.37741976708106	-6.27986627787872	-1.37741976708106	-4.22979358127021	1.37741976708106	-4.843995641866169	-8.111594231832044	-3.463167948907696	-8.791608720219863	-8.123672449044474	-3.463167948907696	0.07853882441393045	-8.215418019909173	-3.3714223780429875	-7.101940666008585	-4.472821514731154	4	correct	1.0
516.9262182000098	8.417349199997261	go_reward	0.4843332000309601	516.935771700053	518.4926638000179	521.0507837000187	1.556892099964898	517.9361227000481	520.0309722000384	524.1082448000088	0.5565410999697633	1.0198114999802783	1.244876100041438	523.0889830000233	0.8460770999663509	522.0638671000488	2	1	120	4	go_reward	1	1	0	1	1	1	0	0.0	1.0	1	0.4843332000309601	0.8460770999663509	2004.8827085999656	2521.8184803000186	2522.8188313000137	2523.3753723999835	2524.913680800004	2525.933492299984	2526.9465757000144	2527.971691599989	2528.9909533999744	2530.235829500016	2020-10-16 11:04:54.827428	15.6714217398556	17.9207306372522	0.0	17.9207306372522	15.6714217398556	0.0	-15.6714217398556	17.9207306372522	0.0	15.6714217398556	0.0	6.329298973806402	7.975052283800271	16.089002683298876	-2.085748181826636	12.494380890168404	11.777542872081334	-2.085748181826636	5.0304180311392725	8.833423487027487	0.8583712032272223	12.196209738324672	1.8070447631475657	4	correct	1.0
