onset	duration	trial_type	response_time	cueOnset	targetOnset	fbOnset	cueRT	firstfixOnset	secondfixOnset	waitOnset	firstfixdur	secondfixdur	waitdur	nback_fbOnset	nback_response_time	nback_targetOnset	block	wm	trial	cue	cond	is_common	outcome_go	outcome_nogo	key_correct	key_pressed	is_correct	key_correct_nback	key_pressed_nback	is_correct_nback	outcome	rt	rt_nback	time_scan	time_onset	time_isi1	time_circle	time_isi2	time_feedback	time_same	time_correct	time_iti	time_done	timestamp_scan	DV	Qgo	Qnogo	SV	Wgo	Wnogo	mDV	Qchosen	Qunchosen	Wchosen	Wunchosen	PE	DVC	QgoC	QnogoC	SVC	WgoC	WnogoC	PEC	WchosenC	WunchosenC	QchosenC	QunchosenC	run	outcome_nback	nback_targetResp
0.0	8.902264699979924	nogo_reward	0.4518802000093274	0.044077500002686065	2.400488899962511	4.941995900007896	2.356411399959825	1.0386976999579929	3.9309163999860175	7.998978599964175	1.361791200004518	1.0110795000218786	0.9473636000184342	6.991306599986274	0.4719301000004634	5.964456999965478	2	1	1	3	nogo_reward	1	0	1	0	1	0	0	0.0	1.0	0	0.4518802000093274	0.4719301000004634	1417.533330700011	1417.5774082000137	1418.572028399969	1419.9338195999735	1421.464247099997	1422.475326600019	1423.4977876999765	1424.5246372999973	1425.5323092999752	1426.4796728999936	2020-10-16 10:55:07.478687	1.30913162153134	0.0	0.0	0.0	1.30913162153134	0.0	-1.30913162153134	0.0	0.0	1.30913162153134	0.0	0.0	-6.387237834523988	-1.8317279539533236	-2.085748181826636	-5.426349747083793	-2.584747246242925	-2.085748181826636	-1.2988809426671295	-5.528866631296773	0.8583712032272223	-5.724520898927525	1.8070447631475657	3	correct	1.0
8.948601599957101	9.069391800032463	nogo_reward	0.3180302999680862	8.992679099959787	10.99932559998706	13.551390199980233	2.006646500027273	9.999613999971189	12.53125999995973	16.598128399986308	0.9997116000158712	1.0201302000205033	1.4639425000059418	15.587400699965656	0.7370203000027686	14.563161899975967	2	1	2	3	nogo_reward	1	0	1	0	1	0	0	0.0	1.0	0	0.3180302999680862	0.7370203000027686	1417.533330700011	1426.5260097999708	1427.5329446999822	1428.532656299998	1430.0645906999707	1431.0847208999912	1432.096492599987	1433.1207313999766	1434.1314590999973	1435.5954016000032	2020-10-16 10:55:07.478687	1.30913162153134	0.0	0.0	0.0	1.30913162153134	0.0	-1.30913162153134	0.0	0.0	1.30913162153134	0.0	0.0	-6.387237834523988	-1.8317279539533236	-2.085748181826636	-5.426349747083793	-2.584747246242925	-2.085748181826636	-1.2988809426671295	-5.528866631296773	0.8583712032272223	-5.724520898927525	1.8070447631475657	3	correct	1.0
18.059122799953684	8.167832100007217	nogo_reward	1.0	18.10320029995637	19.434285399969895	21.96984340000199	1.3310851000135244	19.102992400002904	20.943224699992925	25.026692099985894	0.33129299996699046	1.0266187000090667	1.2443402999776936	24.016680600005202	0.4250614000484347	22.98237749998225	2	1	3	3	nogo_reward	1	0	1	0	0	1	1	1.0	1.0	1	1.0	0.4250614000484347	1417.533330700011	1435.6365309999674	1436.636323100014	1436.967616099981	1438.476555400004	1439.503174100013	1440.5157081999932	1441.5500113000162	1442.560022799997	1443.8043630999746	2020-10-16 10:55:07.478687	-1.30913162153134	0.0	0.0	0.0	1.30913162153134	0.0	1.30913162153134	0.0	0.0	0.0	1.30913162153134	24.2500296110586	-9.005501077586668	-1.8317279539533236	-2.085748181826636	-5.426349747083793	-2.584747246242925	-2.085748181826636	22.951148668391472	-6.837998252828113	2.167502824758562	-5.724520898927525	1.8070447631475657	3	correct	1.0
26.270554699993227	9.040663499967195	nogo_reward	1.0	26.314632199995913	28.76107349997619	31.286862000008114	2.446441299980279	27.323142399953213	30.26229859999148	34.3468715999627	1.437931100022979	1.024563400016632	1.0084241000004113	33.331867999979295	0.4152450999827124	32.30303949996596	2	1	4	3	nogo_reward	1	0	1	0	0	1	1	1.0	1.0	1	1.0	0.4152450999827124	1417.533330700011	1443.847962900007	1444.8564730999642	1446.2944041999872	1447.7956293000025	1448.820192700019	1449.836370199977	1450.8651986999903	1451.8802022999737	1452.888626399974	2020-10-16 10:55:07.478687	2.81918465228274	0.0	3.45513361556338	3.45513361556338	0.63594896328064	3.45513361556338	-2.81918465228274	3.45513361556338	0.0	3.45513361556338	0.63594896328064	20.79489599549522	-4.877184803772588	-1.8317279539533236	1.3693854337367437	-1.9712161315204133	-3.2579299044936247	1.3693854337367437	19.496015052828092	-3.382864637264733	1.4943201665078623	-2.2693872833641455	1.8070447631475657	3	correct	1.0
35.33900109998626	9.342324599972926	go_reward	1.0	35.38307859998895	37.86622309999052	40.39880530000664	2.483144500001572	36.391368399956264	39.377783500007354	43.44430259999331	1.474854700034257	1.0210217999992892	1.2811005999685676	42.426606699998956	1.0	41.41793719999259	2	1	5	4	go_reward	1	1	0	1	0	0	0	n/a	0.0	0	1.0	1.0	1417.533330700011	1452.9164093	1453.9246990999673	1455.3995538000015	1456.9111142000183	1457.9321360000176	1458.9512679000036	1459.95993740001	1460.9776333000043	1462.2587338999729	2020-10-16 10:55:07.478687	-1.30913162153134	0.0	0.0	0.0	1.30913162153134	0.0	1.30913162153134	0.0	0.0	0.0	1.30913162153134	0.0	-9.005501077586668	-1.8317279539533236	-2.085748181826636	-5.426349747083793	-2.584747246242925	-2.085748181826636	-1.2988809426671295	-6.837998252828113	2.167502824758562	-5.724520898927525	1.8070447631475657	3	missed	0.0
44.73082189995307	9.092511700000614	go_punish	0.3989157000323757	44.77489939995576	47.338331699953414	49.8829252999858	2.5634322999976575	45.77260689996183	48.8686536999885	52.90831529995194	1.5657247999915853	1.0142715999973007	0.9590958000044338	51.90515730000334	0.4433226999826729	50.892951699963305	2	1	6	2	go_punish	0	-1	0	1	1	1	0	0.0	1.0	-1	0.3989157000323757	0.4433226999826729	1417.533330700011	1462.3082300999667	1463.3059375999728	1464.8716623999644	1466.4019843999995	1467.4162559999968	1468.4262823999743	1469.4384880000143	1470.441645999963	1471.4007417999674	2020-10-16 10:55:07.478687	1.30913162153134	0.0	0.0	0.0	1.30913162153134	0.0	-1.30913162153134	0.0	0.0	1.30913162153134	0.0	-10.1905946316009	-6.387237834523988	-1.8317279539533236	-2.085748181826636	-5.426349747083793	-2.584747246242925	-2.085748181826636	-11.48947557426803	-5.528866631296773	0.8583712032272223	-5.724520898927525	1.8070447631475657	3	correct	1.0
53.84888339997224	8.49622089997888	nogo_punish	0.6316627999767661	53.89296089997492	55.56063849997008	58.101981699990574	1.6676775999951587	54.9099203000078	57.09241699997801	61.14498439995805	0.6507181999622844	1.009564700012561	1.2441973999957554	60.14113979996182	0.7217383999959566	59.11655649996828	2	1	7	1	nogo_punish	1	-1	0	0	1	0	0	0.0	1.0	-1	0.6316627999767661	0.7217383999959566	1417.533330700011	1471.426291599986	1472.4432510000188	1473.093969199981	1474.625747699989	1475.6353124000016	1476.6498871999793	1477.6744704999728	1478.678315099969	1479.9225124999648	2020-10-16 10:55:07.478687	1.30913162153134	0.0	0.0	0.0	1.30913162153134	0.0	-1.30913162153134	0.0	0.0	1.30913162153134	0.0	-10.1905946316009	-6.387237834523988	-1.8317279539533236	-2.085748181826636	-5.426349747083793	-2.584747246242925	-2.085748181826636	-11.48947557426803	-5.528866631296773	0.8583712032272223	-5.724520898927525	1.8070447631475657	3	correct	1.0
62.38934699998913	8.60252399998717	nogo_reward	1.0	62.433424499991816	64.64565789996414	67.17083739995724	2.2122333999723196	63.42894949996844	66.15082290000282	70.2196562999743	1.2167083999956958	1.0200144999544136	0.816292200004682	69.21429969999008	0.5558958000037819	68.18649219995132	2	1	8	3	nogo_reward	1	0	1	0	0	1	0	0.0	1.0	1	1.0	0.5558958000037819	1417.533330700011	1479.9667552000028	1480.9622801999794	1482.1789885999751	1483.6841536000138	1484.7041680999682	1485.7198228999623	1486.747630400001	1487.7529869999853	1488.56927919999	2020-10-16 10:55:07.478687	6.1909369132815	0.0	6.27539803339754	6.27539803339754	0.0844611201160354	6.27539803339754	-6.1909369132815	6.27539803339754	0.0	6.27539803339754	0.0844611201160354	17.97463157766106	-1.5054325427738284	-1.8317279539533236	4.189649851570904	0.8490482863137467	-3.8094177476582294	4.189649851570904	16.675750634993932	-0.562600219430573	0.9428323233432576	0.5508771344700145	1.8070447631475657	3	correct	1.0
71.01731929997891	9.123014600016177	nogo_punish	0.385444900020957	71.0613967999816	73.5869045999716	76.14594939997187	2.5255077999900095	72.07207239995478	75.1261024999551	79.20383379998384	1.5148322000168264	1.0198469000167734	0.9805776000139304	78.19312429998536	0.5457948999828659	77.1603269999614	2	1	9	1	nogo_punish	1	-1	0	0	1	0	1	0.0	0.0	-1	0.385444900020957	0.5457948999828659	1417.533330700011	1488.5947274999926	1489.6054030999658	1491.1202352999826	1492.659433199966	1493.6792800999829	1494.6936576999724	1495.7264549999963	1496.7371644999948	1497.7177421000088	2020-10-16 10:55:07.478687	0.339214927662388	-1.23977120162583	0.0	-1.23977120162583	0.339214927662388	0.0	-0.339214927662388	-1.23977120162583	0.0	0.339214927662388	0.0	-8.95082342997507	-7.3571545283929405	-3.0714991555791533	-2.085748181826636	-6.666120948709623	-3.554663940111877	-2.085748181826636	-10.2497043726422	-6.498783325165725	0.8583712032272223	-6.964292100553355	1.8070447631475657	3	wrong	1.0
80.18323019996728	9.63890389999142	go_punish	0.6715357999783009	80.22730769996997	82.93980429996736	85.4930637999787	2.712496599997394	81.22550159995444	84.47763559996383	88.52365729998564	1.7143027000129223	1.0154282000148669	1.3425542999757454	87.52325179998297	0.5717136000166647	86.50344989995938	2	1	10	2	go_punish	1	0	-1	1	1	1	0	0.0	1.0	0	0.6715357999783009	0.5717136000166647	1417.533330700011	1497.760638399981	1498.7588322999654	1500.4731349999784	1502.0109662999748	1503.0263944999897	1504.0367805999704	1505.056582499994	1506.0569879999966	1507.3995422999724	2020-10-16 10:55:07.478687	0.339214927662388	-1.23977120162583	0.0	-1.23977120162583	0.339214927662388	0.0	-0.339214927662388	-1.23977120162583	0.0	0.339214927662388	0.0	1.23977120162583	-7.3571545283929405	-3.0714991555791533	-2.085748181826636	-6.666120948709623	-3.554663940111877	-2.085748181826636	-0.05910974104129951	-6.498783325165725	0.8583712032272223	-6.964292100553355	1.8070447631475657	3	correct	1.0
89.8488017999914	8.19700919999741	go_reward	0.5190575000015087	89.89287929999409	91.16309190000175	93.68516689998796	1.2702126000076532	90.88760469999397	92.6707220999524	96.73378899996192	0.27548720000777394	1.0144448000355624	1.3560995000295861	95.71758369996678	0.5159971000393853	94.69518749997951	2	1	11	4	go_reward	0	0	1	1	1	1	0	0.0	1.0	0	0.5190575000015087	0.5159971000393853	1417.533330700011	1507.426210000005	1508.420935400005	1508.6964226000127	1510.2040527999634	1511.218497599999	1512.2285181999905	1513.2509143999778	1514.267119699973	1515.6232192000025	2020-10-16 10:55:07.478687	1.30913162153134	0.0	0.0	0.0	1.30913162153134	0.0	-1.30913162153134	0.0	0.0	1.30913162153134	0.0	0.0	-6.387237834523988	-1.8317279539533236	-2.085748181826636	-5.426349747083793	-2.584747246242925	-2.085748181826636	-1.2988809426671295	-5.528866631296773	0.8583712032272223	-5.724520898927525	1.8070447631475657	3	correct	1.0
98.07021489995509	8.928670399996918	nogo_punish	1.0	98.11429239995778	100.3868156999813	102.92359269998269	2.272523300023522	99.11180849996163	101.90441029996146	105.98557279998204	1.2750072000196724	1.0191824000212364	1.0573899999726564	104.97776629996952	0.3730199999990873	103.94220419996418	2	1	12	1	nogo_punish	1	-1	0	0	0	1	0	0.0	1.0	0	1.0	0.3730199999990873	1417.533330700011	1515.6476230999688	1516.6451391999726	1517.9201463999923	1519.4377409999724	1520.4569233999937	1521.4755348999752	1522.5110969999805	1523.518903499993	1524.5762934999657	2020-10-16 10:55:07.478687	0.470914699908064	-2.27582195174586	0.0	-2.27582195174586	-0.470914699908064	0.0	-0.470914699908064	0.0	-2.27582195174586	0.0	-0.470914699908064	0.0	-7.225454756147265	-4.107549905699184	-2.085748181826636	-7.702171698829654	-4.364793567682328	-2.085748181826636	-1.2988809426671295	-6.837998252828113	0.38745650331915826	-5.724520898927525	-0.4687771885982943	3	correct	1.0
107.04394849995128	9.289611500047613	go_punish	1.0	107.08802599995397	109.86294759996213	112.40342930000043	2.774921600008156	108.09561779996147	111.37862350000069	115.46247879997827	1.7673298000006525	1.02480579999974	0.9151587000233121	114.44816379999975	0.5161454000044614	113.41917029995238	2	1	13	2	go_punish	1	0	-1	1	0	0	0	1.0	0.0	-1	1.0	0.5161454000044614	1417.533330700011	1524.621356699965	1525.6289484999725	1527.3962782999731	1528.9119542000117	1529.9367600000114	1530.9525009999634	1531.9814945000107	1532.9958094999893	1533.9109682000126	2020-10-16 10:55:07.478687	-0.499001993960883	-1.03605075012003	0.0	-1.03605075012003	0.499001993960883	0.0	0.499001993960883	0.0	-1.03605075012003	0.0	0.499001993960883	-10.1905946316009	-8.19537145001621	-2.867778704073354	-2.085748181826636	-6.462400497203824	-3.3948768738133817	-2.085748181826636	-11.48947557426803	-6.837998252828113	1.3573731971881053	-5.724520898927525	0.7709940130275357	3	wrong	1.0
116.37371129996586	8.032669699983671	go_punish	1.0	116.41778879996855	117.78305309999269	120.30301679996774	1.365264300024137	117.42793639999582	119.28707149997331	123.34016919997521	0.35511669999687	1.0159452999944278	1.110289299977012	122.33063159999438	0.6156228999607265	121.31663349998416	2	1	14	2	go_punish	1	0	-1	1	0	0	0	0.0	1.0	-1	1.0	0.6156228999607265	1417.533330700011	1533.9511194999795	1534.9612671000068	1535.3163838000037	1536.8204021999843	1537.8363474999787	1538.8499641999952	1539.8639623000054	1540.8734998999862	1541.9837891999632	2020-10-16 10:55:07.478687	-1.97406366539974	-1.03605075012003	-1.23977120162583	-2.11588359285637	0.734292463773914	-1.23977120162583	1.97406366539974	-1.23977120162583	-1.03605075012003	-1.23977120162583	0.734292463773914	-8.95082342997507	-9.67043312145507	-2.867778704073354	-3.325519383452466	-7.542233339940163	-3.159586404000351	-3.325519383452466	-10.2497043726422	-8.077769454453943	1.5926636670011363	-6.964292100553355	0.7709940130275357	3	correct	1.0
124.44921190000582	9.003495699958876	go_punish	0.5060153999947943	124.4932894000085	126.4181489999753	128.96320969995577	1.9248595999667941	125.50854449998587	127.94996609998611	132.01867809996452	0.9096044999894275	1.0132435999696554	1.4781070000028649	131.0030829999596	0.6462930000270717	129.98083650000626	2	1	15	2	go_punish	1	0	-1	1	1	1	1	1.0	1.0	0	0.5060153999947943	0.6462930000270717	1417.533330700011	1542.0266201000195	1543.0418751999969	1543.9514796999863	1545.483296799997	1546.4965403999668	1547.5141672000173	1548.5364136999706	1549.5520087999755	1551.0301157999784	2020-10-16 10:55:07.478687	3.20836249214775	-1.03605075012003	-2.27582195174586	-3.02397963165864	0.932540540401892	-2.27582195174586	-3.20836249214775	-1.03605075012003	-2.27582195174586	0.932540540401892	-2.27582195174586	1.03605075012003	-4.488006963907578	-2.867778704073354	-4.361570133572496	-8.450329378742433	-2.961338327372373	-4.361570133572496	-0.2628301925470995	-5.905457712426221	-1.4174507485186378	-6.760571649047556	-0.4687771885982943	3	correct	1.0
133.47902299999237	8.69890519999899	go_reward	1.0	133.52310049999505	135.19381359999534	137.71208759996807	1.6707131000002846	134.53852579998784	136.7051913999603	140.7475994999986	0.6552878000074998	1.006896200007759	1.4744061999954283	139.74472909996985	0.5319369999924675	138.72008529998152	2	1	16	4	go_reward	1	1	0	1	0	0	0	0.0	1.0	0	1.0	0.5319369999924675	1417.533330700011	1551.056431200006	1552.0718564999988	1552.7271443000063	1554.2385220999713	1555.245418299979	1556.2534159999925	1557.2780597999808	1558.2809302000096	1559.755336400005	2020-10-16 10:55:07.478687	-1.30913162153134	0.0	0.0	0.0	1.30913162153134	0.0	1.30913162153134	0.0	0.0	0.0	1.30913162153134	0.0	-9.005501077586668	-1.8317279539533236	-2.085748181826636	-5.426349747083793	-2.584747246242925	-2.085748181826636	-1.2988809426671295	-6.837998252828113	2.167502824758562	-5.724520898927525	1.8070447631475657	3	correct	1.0
142.20362939999882	8.313006799959112	nogo_punish	0.8143075999687426	142.2477069000015	143.72688999999082	146.26937509997492	1.4791830999893136	143.25788200000534	145.24986669997452	149.31034829997225	0.4690079999854788	1.0195084000004044	1.2503653999883682	148.29908549995162	0.6796814000117593	147.2835945999832	2	1	17	1	nogo_punish	1	-1	0	0	1	0	0	0.0	1.0	-1	0.8143075999687426	0.6796814000117593	1417.533330700011	1559.7810376000125	1560.7912127000163	1561.2602207000018	1562.7831973999855	1563.802705799986	1564.8169252999942	1565.8324161999626	1566.8436789999832	1568.0940443999716	2020-10-16 10:55:07.478687	-0.54941212305922	-2.27582195174586	0.0	-1.91216314135057	-0.54941212305922	0.0	0.54941212305922	-2.27582195174586	0.0	-0.54941212305922	0.0	-7.914772679855041	-8.24578157911455	-4.107549905699184	-2.085748181826636	-7.338512888434363	-4.443290990833485	-2.085748181826636	-9.21365362252217	-7.387410375887333	0.8583712032272223	-8.000342850673386	1.8070447631475657	3	correct	1.0
150.5447998999732	8.770355399989057	nogo_punish	1.0	150.5888773999759	152.5604219000088	155.09173310000892	1.9715445000329055	151.5929154999901	154.07660069997655	158.1450283000015	0.9675064000186921	1.0151324000323712	1.2142044999634436	157.13016050000442	0.587363499973435	156.10188989999006	2	1	18	1	nogo_punish	0	0	-1	0	0	1	0	0.0	1.0	-1	1.0	0.587363499973435	1417.533330700011	1568.122208099987	1569.126246200001	1570.0937526000198	1571.6099313999875	1572.62506380002	1573.635220600001	1574.6634912000154	1575.6783590000125	1576.892563499976	2020-10-16 10:55:07.478687	1.21790709039833	-3.1519343429764	0.0	-2.86404127276915	-1.21790709039833	0.0	-1.21790709039833	0.0	-3.1519343429764	0.0	-1.21790709039833	-10.1905946316009	-6.478462365656998	-4.983662296929723	-2.085748181826636	-8.290391019852944	-5.111785958172595	-2.085748181826636	-11.48947557426803	-6.837998252828113	-0.35953588717110774	-5.724520898927525	-1.3448895798288343	3	correct	1.0
159.34168670000463	8.759052699955873	nogo_punish	0.2917285000439733	159.38576420000732	161.23850559996208	163.78125219995854	1.8527413999547662	160.38559570000507	162.76267919997917	166.82215629995335	0.8529098999570124	1.0185729999793693	1.32266060000984	165.80929399997694	0.4221814999473281	164.7820605000013	2	1	19	1	nogo_punish	1	-1	0	0	1	0	1	1.0	1.0	-1	0.2917285000439733	0.4221814999473281	1417.533330700011	1576.9190949000183	1577.918926400016	1578.771836299973	1580.2960098999902	1581.3145828999695	1582.3153912000123	1583.342624699988	1584.3554869999643	1585.6781475999742	2020-10-16 10:55:07.478687	0.197614691734342	-3.1519343429764	-1.23977120162583	-3.6682198097922	-1.04215650989149	-1.23977120162583	-0.197614691734342	-3.1519343429764	-1.23977120162583	-1.04215650989149	-1.23977120162583	-7.0386602886245	-7.498754764320986	-4.983662296929723	-3.325519383452466	-9.094569556875992	-4.936035377665755	-3.325519383452466	-8.33754123129163	-7.880154762719603	-0.3813999983986077	-8.876455241903926	0.5672735615217357	3	correct	1.0
168.14423579996196	9.323022700031288	go_punish	1.0	168.18831329996465	170.9187358999627	173.45472609996796	2.7304225999980645	169.1876668999903	172.4344591999543	176.51671100000385	1.7310689999724218	1.0202669000136666	0.9946249999920838	175.50299299997278	0.5843921999912709	174.4737628999867	2	1	20	2	go_punish	0	-1	0	1	0	0	0	0.0	1.0	0	1.0	0.5843921999912709	1417.533330700011	1585.7216439999756	1586.7209976000013	1588.4520665999737	1589.9677898999653	1590.988056799979	1592.0070935999977	1593.0363236999838	1594.0500417000148	1595.044666700007	2020-10-16 10:55:07.478687	-3.26730593176495	-0.876112391230541	-2.27582195174586	-2.55640331948413	0.991483980019088	-2.27582195174586	3.26730593176495	-2.27582195174586	-0.876112391230541	-2.27582195174586	0.991483980019088	2.27582195174586	-10.963675387820278	-2.7078403451838646	-4.361570133572496	-7.982753066567923	-2.902394887755177	-4.361570133572496	0.9769410090787305	-9.113820204573972	1.8498551832463104	-8.000342850673386	0.9309323719170247	3	correct	1.0
177.4888236999975	8.639894299965817	go_reward	0.4364385000080801	177.5329012000002	179.371711099986	181.92664039996453	1.8388098999857903	178.53192290000152	180.90882499999134	184.96147399995243	0.8397881999844685	1.0178153999731876	1.2113215000135824	183.95661249995464	0.9261763000395148	182.93296379997628	2	1	21	4	go_reward	1	1	0	1	1	1	0	0.0	1.0	1	0.4364385000080801	0.9261763000395148	1417.533330700011	1595.0662319000112	1596.0652536000125	1596.905041799997	1598.4421557000023	1599.4599710999755	1600.4662944999873	1601.4899431999656	1602.4948046999634	1603.706126199977	2020-10-16 10:55:07.478687	1.30913162153134	0.0	0.0	0.0	1.30913162153134	0.0	-1.30913162153134	0.0	0.0	1.30913162153134	0.0	24.2500296110586	-6.387237834523988	-1.8317279539533236	-2.085748181826636	-5.426349747083793	-2.584747246242925	-2.085748181826636	22.951148668391472	-5.528866631296773	0.8583712032272223	-5.724520898927525	1.8070447631475657	3	correct	1.0
186.1516207999664	8.421166300016921	go_reward	0.3147221999824978	186.19569829996908	187.70946109999204	190.23679739999352	1.5137628000229597	187.20976719999453	189.2166216999758	193.27876529999776	0.49969389999751	1.0201757000177167	1.3380992999882437	192.26400299998932	0.6606170000159182	191.24960159999318	2	1	22	4	go_reward	0	0	1	1	1	1	0	0.0	1.0	0	0.3147221999824978	0.6606170000159182	1417.533330700011	1603.72902899998	1604.7430979000055	1605.242791800003	1606.7499523999868	1607.7701281000045	1608.7829323000042	1609.7973337000003	1610.8120960000088	1612.150195299997	2020-10-16 10:55:07.478687	4.09108257884402	3.45513361556338	0.0	3.45513361556338	4.09108257884402	0.0	-4.09108257884402	3.45513361556338	0.0	4.09108257884402	0.0	-3.45513361556338	-3.6052868772113085	1.6234056616100563	-2.085748181826636	-1.9712161315204133	0.1972037110697551	-2.085748181826636	-4.75401455823051	-2.746915673984093	0.8583712032272223	-2.2693872833641455	1.8070447631475657	3	correct	1.0
194.61540409998224	7.945445999969024	nogo_reward	1.0	194.65948159998493	196.10892369999783	198.64587020000909	1.4494421000129023	195.66949979995843	197.6224745999791	201.7038527999539	0.4394239000394009	1.0233956000299713	0.9010748000000603	200.69910339999478	0.6405730000115	199.66162819997407	2	1	23	3	nogo_reward	1	0	1	0	0	1	0	0.0	1.0	1	1.0	0.6405730000115	1417.533330700011	1612.192812299996	1613.2028304999694	1613.6422544000088	1615.15580529999	1616.17920090002	1617.194958899985	1618.2324341000058	1619.2371834999649	1620.138258299965	2020-10-16 10:55:07.478687	8.98001945322277	0.0	8.60702629005335	8.60702629005335	-0.372993163169419	8.60702629005335	-8.98001945322277	8.60702629005335	0.0	8.60702629005335	-0.372993163169419	15.643003321005251	1.2836499971674415	-1.8317279539533236	6.5212781082267135	3.1806765429695565	-4.266872030943684	6.5212781082267135	14.344122378338122	1.7690280372252367	0.4853780400578033	2.8825053911258243	1.8070447631475657	3	correct	1.0
202.60269289999223	8.4664365999638	go_punish	0.684854399994947	202.64677039999492	204.2202829999735	206.7734247999615	1.573512599978585	203.65805939998245	205.76326789997984	209.83461119997082	0.5622235999910572	1.0101568999816664	1.2785957999878974	208.82204239995917	0.6105275999871083	207.798574299959	2	1	24	2	go_punish	1	0	-1	1	1	1	0	0.0	1.0	0	0.684854399994947	0.6105275999871083	1417.533330700011	1620.180101100006	1621.1913900999934	1621.7536136999845	1623.2965985999908	1624.3067554999725	1625.33190499997	1626.3553730999702	1627.3679418999818	1628.6465376999697	2020-10-16 10:55:07.478687	2.82287810369174	-0.876112391230541	-1.91216314135057	-2.18303349394343	0.910714962341173	-1.91216314135057	-2.82287810369174	-0.876112391230541	-1.91216314135057	0.910714962341173	-1.91216314135057	0.876112391230541	-4.8734913523635885	-2.7078403451838646	-3.997911323177206	-7.609383241027223	-2.983163905433092	-3.997911323177206	-0.42276855143658854	-5.92728329048694	-1.0537919381233478	-6.600633290158067	-0.10511837820300429	3	correct	1.0
211.0964577999548	8.35702480003215	go_reward	0.3370022000162862	211.1405352999575	213.1331397999893	215.69852149998792	1.9926045000318027	212.14995239995187	214.6798578999585	218.73220079997532	0.9831874000374228	1.018663600029413	0.7653593000143246	217.7179397	0.601790799992159	216.70536409999477	2	1	25	4	go_reward	1	1	0	1	1	1	0	0.0	1.0	1	0.3370022000162862	0.601790799992159	1417.533330700011	1628.6738659999685	1629.6832830999629	1630.6664705000003	1632.2131885999695	1633.231852199999	1634.2386948000058	1635.251270400011	1636.2655314999863	1637.0308908000006	2020-10-16 10:55:07.478687	3.57790819620088	2.82026441783415	0.0	2.82026441783415	3.57790819620088	0.0	-3.57790819620088	2.82026441783415	0.0	3.57790819620088	0.0	21.42976519322445	-4.118461259854449	0.9885364638808263	-2.085748181826636	-2.6060853292496433	-0.315970671573385	-2.085748181826636	20.130884250557322	-3.260090056627233	0.8583712032272223	-2.9042564810933755	1.8070447631475657	3	correct	1.0
219.47934379999037	9.006422000005841	nogo_punish	1.0	219.52342129999306	221.57613879995188	224.10213019995717	2.052717499958817	220.53506679995917	223.08000660000812	227.1266418999876	1.0410719999927096	1.0221235999490546	1.4032014000113122	226.12088820000645	0.6632915000081994	225.10810339997988	2	1	26	1	nogo_punish	0	0	-1	0	0	1	0	0.0	1.0	-1	1.0	0.6632915000081994	1417.533330700011	1637.056752000004	1638.0683974999702	1639.1094694999629	1640.613337300019	1641.6354608999682	1642.6414340999909	1643.6542189000174	1644.6599725999986	1646.06317400001	2020-10-16 10:55:07.478687	0.400215333506314	-3.90009202288918	-1.23977120162583	-4.35493794391006	-1.63998653513214	-1.23977120162583	-0.400215333506314	-1.23977120162583	-3.90009202288918	-1.23977120162583	-1.63998653513214	-8.95082342997507	-7.296154122549014	-5.7318199768425036	-3.325519383452466	-9.781287690993853	-5.533865402906405	-3.325519383452466	-10.2497043726422	-8.077769454453943	-0.7816153319049178	-6.964292100553355	-2.0930472597416143	3	correct	1.0
228.53015689999984	9.88594989996659	nogo_reward	0.458666400052607	228.57423440000252	231.4134528999566	233.96923170000082	2.839218499954086	229.582682200009	232.943596099969	237.0113912000088	1.8307706999476068	1.0256356000318192	1.4487930999603122	236.00447409995832	0.5704470999771729	234.97551689995453	2	1	27	3	nogo_reward	1	0	1	0	1	0	0	0.0	1.0	0	0.458666400052607	0.5704470999771729	1417.533330700011	1646.1075651000135	1647.11601290002	1648.9467835999676	1650.47692679998	1651.5025624000118	1652.5088475999655	1653.5378047999693	1654.5447219000198	1655.99351499998	2020-10-16 10:55:07.478687	-11.3114324926406	0.0	10.5549259057053	10.5549259057053	-0.756506586935265	10.5549259057053	11.3114324926406	0.0	10.5549259057053	-0.756506586935265	10.5549259057053	0.0	-19.007801948695928	-1.8317279539533236	8.469177723878664	5.128576158621507	-4.65038545470953	8.469177723878664	-1.2988809426671295	-7.594504839763378	11.413297108932522	-5.724520898927525	12.361970668852866	3	correct	1.0
238.4412863999603	8.137689199997112	go_reward	0.560595299990382	238.48536389996298	239.85460289998446	242.39659789996222	1.36923900002148	239.49559449998196	241.37591389997397	245.4368784999824	0.35900840000249445	1.0206839999882504	1.1861745999776758	244.42501299997093	0.603534399997443	243.3994731999701	2	1	28	4	go_reward	1	1	0	1	1	1	0	0.0	1.0	1	0.560595299990382	0.603534399997443	1417.533330700011	1656.018694599974	1657.028925199993	1657.3879335999954	1658.909244599985	1659.9299285999732	1660.932803899981	1661.958343699982	1662.9702091999934	1664.156383799971	2020-10-16 10:55:07.478687	5.96525655221439	5.7867618722192	0.0	5.7867618722192	5.96525655221439	0.0	-5.96525655221439	5.7867618722192	0.0	5.96525655221439	0.0	18.4632677388394	-1.7311129038409385	3.955033918265877	-2.085748181826636	0.3604121251354071	2.071377684440125	-2.085748181826636	17.16438679617227	-0.872741700613723	0.8583712032272223	0.062240973291674884	1.8070447631475657	3	correct	1.0
246.60191799997096	8.357157199992798	go_reward	0.3991720999474637	246.64599549997365	248.4999691999983	251.05937719997019	1.8539737000246532	247.65697710000677	250.0332971999885	254.10223659995245	0.8429920999915339	1.0260799999816754	0.9009161000140011	253.08683769998606	0.4307178999879397	252.0743332999989	2	1	29	4	go_reward	1	1	0	1	1	1	0	0.0	1.0	1	0.3991720999474637	0.4307178999879397	1417.533330700011	1664.1793261999846	1665.1903078000178	1666.0332999000093	1667.5666278999995	1668.5927078999812	1669.60766400001	1670.620168399997	1671.6355672999634	1672.5364833999774	2020-10-16 10:55:07.478687	7.92424534539966	8.22329764904947	0.0	8.22329764904947	7.92424534539966	0.0	-7.92424534539966	8.22329764904947	0.0	7.92424534539966	0.0	16.02673196200913	0.22787588934433156	6.391569695096147	-2.085748181826636	2.7969479019656776	4.030366477625395	-2.085748181826636	14.727851019342001	1.086247092571547	0.8583712032272223	2.4987767501219453	1.8070447631475657	3	correct	1.0
255.0041273999957	8.638743499992415	go_punish	1.0	255.04820489999838	256.7267782999552	259.2508639000007	1.6785733999568038	256.05346179998014	258.2323682999704	262.2987341999542	0.6733164999750443	1.0184956000302918	1.3882142000366002	261.28520549996756	0.6615190000156872	260.26662149996264	2	1	30	2	go_punish	1	0	-1	1	0	0	0	0.0	1.0	-1	1.0	0.6615190000156872	1417.533330700011	1672.5815356000094	1673.5867924999911	1674.2601089999662	1675.7656989999814	1676.7841946000117	1677.7999521999736	1678.8185361999786	1679.8320648999652	1681.2202791000018	2020-10-16 10:55:07.478687	-2.88522357405395	-0.74815767991278	-1.91216314135057	-1.88007781207791	0.973060432703381	-1.91216314135057	2.88522357405395	-1.91216314135057	-0.74815767991278	-1.91216314135057	0.973060432703381	-8.27843149025033	-10.581593030109278	-2.5798856338661036	-3.997911323177206	-7.306427559161703	-2.920818435070884	-3.997911323177206	-9.57731243291746	-8.750161394178683	1.8314316359306033	-7.636684040278095	1.0588870832347856	3	correct	1.0
263.6652427999652	9.960299000027362	go_reward	0.4994556999881752	263.7093202999679	266.65464699995937	269.2121541000088	2.945326699991483	264.7125996999673	268.1868358000065	272.25398139999015	1.9420472999920548	1.0253183000022545	1.4156379000050947	271.2474056999781	0.4901572000235319	270.2269544999581	2	1	31	4	go_reward	1	1	0	1	1	1	1	0.0	0.0	1	0.4994556999881752	0.4901572000235319	1417.533330700011	1681.2426509999789	1682.2459303999783	1684.1879776999704	1685.7201665000175	1686.7454848000198	1687.760285199969	1688.780736399989	1689.7873121000011	1691.2029500000062	2020-10-16 10:55:07.478687	9.55156807669989	10.2490151501806	0.0	10.2490151501806	9.55156807669989	0.0	-9.55156807669989	10.2490151501806	0.0	9.55156807669989	0.0	14.001014460878	1.855198620644562	8.417287196227276	-2.085748181826636	4.822665403096807	5.657689208925626	-2.085748181826636	12.702133518210871	2.7135698238717776	0.8583712032272223	4.524494251253075	1.8070447631475657	3	wrong	1.0
273.6521723999756	8.465117299987469	nogo_punish	1.0	273.6962498999783	275.7587918000063	278.2780976999784	2.062541900028009	274.71100929996464	277.2703170999887	281.32240649999585	1.0477825000416487	1.007780599989701	0.8389606999699026	280.3096446999698	0.7552738999947906	279.2948781999876	2	1	32	1	nogo_punish	1	-1	0	0	0	1	0	0.0	1.0	0	1.0	0.7552738999947906	1417.533330700011	1691.2295805999893	1692.2443399999756	1693.2921225000173	1694.8036477999997	1695.8114283999894	1696.8282088999986	1697.8429753999808	1698.8557372000068	1699.6946978999767	2020-10-16 10:55:07.478687	-0.765548822572561	-3.90009202288918	-2.27582195174586	-4.94653539972085	-1.5102731291733	-2.27582195174586	0.765548822572561	-2.27582195174586	-3.90009202288918	-2.27582195174586	-1.5102731291733	2.27582195174586	-8.46191827862789	-5.7318199768425036	-4.361570133572496	-10.372885146804643	-5.404151996947565	-4.361570133572496	0.9769410090787305	-9.113820204573972	-0.6519019259460778	-8.000342850673386	-2.0930472597416143	3	correct	1.0
282.1406085999913	9.153661899967119	go_reward	0.3509699999704025	282.184686099994	284.6251191999761	287.1794526999581	2.4404330999821013	283.19742019998375	286.1530173000067	290.2190110000081	1.4276989999923444	1.0264353999514242	1.1193369999530205	289.2067745999666	0.5070904999738559	288.1931125999547	2	1	33	4	go_reward	1	1	0	1	1	1	1	0.0	0.0	1	0.3509699999704025	0.5070904999738559	1417.533330700011	1699.718016800005	1700.7307508999947	1702.158449899987	1703.6863480000177	1704.712783399969	1705.7264432999657	1706.7401052999776	1707.752341700019	1708.871678699972	2020-10-16 10:55:07.478687	10.9167929393225	11.949938143196	0.0	11.949938143196	10.9167929393225	0.0	-10.9167929393225	11.949938143196	0.0	10.9167929393225	0.0	12.3000914678626	3.2204234832671714	10.118210189242676	-2.085748181826636	6.523588396112207	7.022914071548235	-2.085748181826636	11.001210525195471	4.078794686494387	0.8583712032272223	6.225417244268475	1.8070447631475657	3	wrong	1.0
291.34752539999295	8.638925099978223	nogo_reward	1.0	291.39160289999563	292.96247569995467	295.4802557000073	1.5708727999590337	292.39501649996964	294.46906829997897	298.5364941000007	0.5674591999850236	1.0111874000283478	1.4940338999731466	297.52432819997193	0.532915799994953	296.492185399984	2	1	34	3	nogo_reward	0	1	0	0	0	1	0	0.0	1.0	0	1.0	0.532915799994953	1417.533330700011	1708.9249336000066	1709.9283471999806	1710.4958063999657	1712.00239899999	1713.0135864000183	1714.025516099995	1715.057658899983	1716.0698248000117	1717.5638586999848	2020-10-16 10:55:07.478687	10.9627037447012	0.0	10.5549259057053	8.74178115026916	-0.40777783899587	10.5549259057053	-10.9627037447012	10.5549259057053	0.0	10.5549259057053	-0.40777783899587	-10.5549259057053	3.2663342886458713	-1.8317279539533236	8.469177723878664	3.315431403185367	-4.301656706770135	8.469177723878664	-11.853806848372429	3.716927652877187	0.45059336423135227	4.830405006777775	1.8070447631475657	3	correct	1.0
300.01122409995855	8.816109400009736	nogo_punish	1.0	300.05530159996124	301.7876937999972	304.3227124999976	1.7323922000359744	301.05771389999427	303.3020570999943	307.36924989998806	0.7299799000029452	1.0206554000033066	1.5021610999829136	306.36081749998266	0.6225815000361763	305.3335216999985	2	1	35	1	nogo_punish	1	-1	0	0	0	1	0	0.0	1.0	0	1.0	0.6225815000361763	1417.533330700011	1717.5886322999722	1718.5910446000053	1719.3210245000082	1720.8353878000053	1721.8560432000086	1722.8668524000095	1723.8941481999937	1724.902580599999	1726.404741699982	2020-10-16 10:55:07.478687	-0.244795693126654	-3.90009202288918	-1.91216314135057	-4.22024107071612	-1.66736744822392	-1.91216314135057	0.244795693126654	-1.91216314135057	-3.90009202288918	-1.91216314135057	-1.66736744822392	1.91216314135057	-7.941165149181982	-5.7318199768425036	-3.997911323177206	-9.646590817799913	-5.561246315998185	-3.997911323177206	0.6132821986834405	-8.750161394178683	-0.8089962449966978	-7.636684040278095	-2.0930472597416143	3	correct	1.0
308.8714798999715	9.574879200023133	nogo_reward	0.4897375999717042	308.9155573999742	311.6722093999849	314.2245016999659	2.7566520000107175	309.9162670999649	313.1976675000042	317.24495369999204	1.755942300020024	1.0268341999617405	1.2454829000052996	316.2532119999521	0.6304080000263639	315.23366979998536	2	1	36	3	nogo_reward	1	0	1	0	1	0	1	1.0	1.0	0	0.4897375999717042	0.6304080000263639	1417.533330700011	1726.4488880999852	1727.449597799976	1729.205540099996	1730.7309982000152	1731.757832399977	1732.7670004999964	1733.786542699963	1734.778284400003	1736.0237673000083	2020-10-16 10:55:07.478687	-8.87470976303861	0.0	8.74178115026916	7.31652896992571	-0.13292861276945	8.74178115026916	8.87470976303861	0.0	8.74178115026916	-0.13292861276945	8.74178115026916	0.0	-16.57107921909394	-1.8317279539533236	6.656032968442524	1.8901792228419172	-4.026807480543715	6.656032968442524	-1.2988809426671295	-6.970926865597563	9.600152353496382	-5.724520898927525	10.548825913416726	3	correct	1.0
318.47488549997774	8.170507100003306	nogo_punish	1.0	318.51896299998043	319.90794399997685	322.41964909998933	1.38898099999642	319.53050259995507	321.4172018999816	325.48801979998825	0.3774414000217803	1.0024472000077367	1.2014502999954857	324.4689566000013	0.4543851999915205	323.44180689996574	2	1	37	1	nogo_punish	1	-1	0	0	0	1	1	0.0	0.0	0	1.0	0.4543851999915205	1417.533330700011	1736.0522936999914	1737.063833299966	1737.4412746999878	1738.9505325999926	1739.9529798000003	1740.9751375999767	1742.0022873000123	1743.0213504999992	1744.2228007999947	2020-10-16 10:55:07.478687	0.170370075006216	-3.90009202288918	-1.62427007114332	-3.63274836960403	-1.79464014614954	-1.62427007114332	-0.170370075006216	-1.62427007114332	-3.90009202288918	-1.62427007114332	-1.79464014614954	1.62427007114332	-7.525999381049113	-5.7318199768425036	-3.710018252969956	-9.059098116687823	-5.688519013923805	-3.710018252969956	0.3253891284761905	-8.462268323971433	-0.9362689429223178	-7.348790970070845	-2.0930472597416143	3	wrong	1.0
326.68751610000595	8.837437199952547	go_punish	0.3338260999880731	326.73159360000864	328.5452823999801	331.1082526999526	1.8136887999714872	327.7339675999831	330.0874946999829	334.15482840000186	0.8113147999970352	1.0207579999696463	1.414202399959322	333.1391494999991	0.4195829999516718	332.12762749998365	2	1	38	2	go_punish	1	0	-1	1	1	1	0	0.0	1.0	0	0.3338260999880731	0.4195829999516718	1417.533330700011	1744.2649243000196	1745.267298299994	1746.0786130999911	1747.620825399994	1748.6415833999636	1749.6609581999946	1750.67248020001	1751.6881591000129	1753.1023614999722	2020-10-16 10:55:07.478687	4.0529391283519	-0.74815767991278	-2.86404127276915	-2.87077491984714	1.18889785558275	-2.86404127276915	-4.0529391283519	-0.74815767991278	-2.86404127276915	1.18889785558275	-2.86404127276915	0.74815767991278	-3.6434303277034283	-2.5798856338661036	-4.949789454595786	-8.297124666930934	-2.7049810121915145	-4.949789454595786	-0.5507232627543495	-5.649100397245363	-2.005670069541928	-6.472678578840306	-1.0569965096215845	3	correct	1.0
335.5479374999993	7.732187399989925	go_reward	0.5623757999856025	335.592015000002	336.94837669999106	339.50576999998884	1.3563616999890655	336.5962745999568	338.480681999994	342.5484069999659	0.35210210003424436	1.0250879999948665	0.775795400026027	341.5396106999833	0.5279090999974869	340.5221055999864	2	1	39	4	go_reward	1	1	0	1	1	1	0	0.0	1.0	1	0.5623757999856025	0.5279090999974869	1417.533330700011	1753.125345700013	1754.1296052999678	1754.481707400002	1756.014012700005	1757.0391006999998	1758.0554362999974	1759.0729413999943	1760.0817376999769	1760.857533100003	2020-10-16 10:55:07.478687	12.0718957002541	13.3903303383712	0.0	13.3903303383712	12.0718957002541	0.0	-12.0718957002541	13.3903303383712	0.0	12.0718957002541	0.0	10.8596992726874	4.375526244198771	11.558602384417876	-2.085748181826636	7.963980591287407	8.178016832479834	-2.085748181826636	9.560818330020272	5.233897447425987	0.8583712032272223	7.665809439443675	1.8070447631475657	3	correct	1.0
343.30817229999184	8.504002599977184	nogo_punish	1.0	343.3522497999945	344.8977598999627	347.41274050000357	1.545510099968169	344.3604447999969	346.3995755999931	350.47371819999535	0.537315099965781	1.0131649000104517	1.3825341999763623	349.459212799964	0.4334995999815874	348.4325373999891	2	1	40	1	nogo_punish	1	-1	0	0	0	1	0	0.0	1.0	0	1.0	0.4334995999815874	1417.533330700011	1760.8855805000055	1761.893775500008	1762.4310905999737	1763.932906300004	1764.9460712000146	1765.9658681	1766.992543499975	1768.0070489000063	1769.3895830999827	2020-10-16 10:55:07.478687	0.50681934733458	-3.90009202288918	-1.39239785804634	-3.15069889219284	-1.89921720538092	-1.39239785804634	-0.50681934733458	-1.39239785804634	-3.90009202288918	-1.39239785804634	-1.89921720538092	1.39239785804634	-7.1895501087207485	-5.7318199768425036	-3.478146039872976	-8.577048639276633	-5.793096073155185	-3.478146039872976	0.09351691537921059	-8.230396110874453	-1.0408460021536978	-7.116918756973865	-2.0930472597416143	3	correct	1.0
351.86205389996735	8.519624300010037	nogo_reward	1.0	351.90613139997004	353.366087900009	355.8880764999776	1.4599565000389703	352.9077039999538	354.8723643999547	358.94621709996136	0.45838390005519614	1.015712100022938	1.4795386000187136	357.93256129999645	0.4333159999805502	356.90356329997303	2	1	41	3	nogo_reward	1	0	1	0	0	1	0	0.0	1.0	1	1.0	0.4333159999805502	1417.533330700011	1769.439462099981	1770.4410346999648	1770.89941860002	1772.4056950999657	1773.4214071999886	1774.436893999984	1775.4658920000074	1776.4795477999724	1777.959086399991	2020-10-16 10:55:07.478687	8.6547296206237	0.0	8.74178115026916	6.17831628580858	0.0870515296454565	8.74178115026916	-8.6547296206237	8.74178115026916	0.0	8.74178115026916	0.0870515296454565	15.50824846078944	0.9583601645683713	-1.8317279539533236	6.656032968442524	0.7519665387247869	-3.8068273381288082	6.656032968442524	14.209367518122312	1.9037828974410473	0.9454227328726788	3.017260251341635	1.8070447631475657	3	correct	1.0
360.40556260000426	8.903400899958797	go_reward	0.3717853999696672	360.44964010000695	362.3682086999761	364.9155324999592	1.9185685999691486	361.4637971000045	363.9018446999835	367.9661581999969	0.9044115999715814	1.0136877999757417	1.3868827999688165	366.9519132999701	0.990858000004664	365.9281932999729	2	1	42	4	go_reward	1	1	0	1	1	1	0	0.0	1.0	1	0.3717853999696672	0.990858000004664	1417.533330700011	1777.982970800018	1778.9971278000155	1779.901539399987	1781.4351753999945	1782.4488631999702	1783.461523999984	1784.485243999981	1785.499488900008	1786.8863716999767	2020-10-16 10:55:07.478687	13.0565223421948	14.6191930219785	0.0	14.6191930219785	13.0565223421948	0.0	-13.0565223421948	14.6191930219785	0.0	13.0565223421948	0.0	9.6308365890801	5.360152886139471	12.787465068025176	-2.085748181826636	9.192843274894706	9.162643474420534	-2.085748181826636	8.331955646412972	6.218524089366687	0.8583712032272223	8.894672123050974	1.8070447631475657	3	correct	1.0
369.33249649999175	8.386856600001693	go_reward	0.360090299975127	369.37657399999443	370.95102149999	373.5022273999639	1.5744474999955855	370.3887188999797	372.48296170000685	376.5518112999855	0.5623026000102982	1.0192656999570318	1.211619300010625	375.5361626999802	0.4159165999735705	374.52303499996196	2	1	43	4	go_reward	0	0	1	1	1	1	0	0.0	1.0	0	0.360090299975127	0.4159165999735705	1417.533330700011	1786.9099047000054	1787.9220495999907	1788.484352200001	1790.0162924000178	1791.0355580999749	1792.056365699973	1793.0694933999912	1794.0851419999965	1795.2967613000071	2020-10-16 10:55:07.478687	13.9013973280702	15.67449861516	0.0	15.67449861516	13.9013973280702	0.0	-13.9013973280702	15.67449861516	0.0	13.9013973280702	0.0	-15.67449861516	6.205027872014871	13.842770661206675	-2.085748181826636	10.248148868076207	10.007518460295934	-2.085748181826636	-16.97337955782713	7.063399075242087	0.8583712032272223	9.949977716232475	1.8070447631475657	3	correct	1.0
377.7655964999574	8.928294800047297	go_punish	0.3345286000403575	377.80967399996007	380.23843889997806	382.8226378999534	2.4287649000179954	378.8149063999881	381.80159009998897	385.85359099996253	1.4235324999899603	1.0210477999644354	0.884377800044831	384.85410599998454	0.8855084999813698	383.83158689999254	2	1	44	2	go_punish	1	0	-1	1	1	1	0	0.0	1.0	0	0.3345286000403575	0.8855084999813698	1417.533330700011	1795.343004699971	1796.348237099999	1797.771769599989	1799.3349208	1800.3559685999644	1801.3649176000035	1802.3874366999955	1803.3869216999735	1804.2712995000184	2020-10-16 10:55:07.478687	4.06793408301588	-0.644240178133559	-2.86404127276915	-2.4599687071911	1.20389281024673	-2.86404127276915	-4.06793408301588	-0.644240178133559	-2.86404127276915	1.20389281024673	-2.86404127276915	0.644240178133559	-3.6284353730394487	-2.4759681320868827	-4.949789454595786	-7.8863184542748925	-2.689986057527535	-4.949789454595786	-0.6546407645335705	-5.634105442581383	-2.005670069541928	-6.368761077061085	-1.0569965096215845	3	correct	1.0
386.7186281000031	7.938001199974451	nogo_punish	1.0	386.7627056000058	388.13396419998026	390.67099419998704	1.3712585999744533	387.7742775999941	389.65045539999824	393.7324943999995	0.35968659998616204	1.020538799988799	0.9682123999807573	392.7191691999906	0.6787866000086069	391.6906790999931	2	1	45	1	nogo_punish	1	-1	0	0	0	1	0	1.0	0.0	0	1.0	0.6787866000086069	1417.533330700011	1804.2960363000168	1805.307608300005	1805.6672948999912	1807.1837861000092	1808.204324899998	1809.224009800004	1810.2524999000016	1811.2658251000105	1812.2340374999912	2020-10-16 10:55:07.478687	0.783188244004397	-3.90009202288918	-1.20300360093366	-2.75045735466293	-1.98619184493806	-1.20300360093366	-0.783188244004397	-1.20300360093366	-3.90009202288918	-1.20300360093366	-1.98619184493806	1.20300360093366	-6.913181212050931	-5.7318199768425036	-3.288751782760296	-8.176807101746723	-5.880070712712325	-3.288751782760296	-0.09587734173346951	-8.041001853761774	-1.1278206417108376	-6.927524499861185	-2.0930472597416143	3	wrong	1.0
394.68169709999324	8.144664599967427	nogo_punish	0.6903812999953516	394.72577459999593	396.23064099997305	398.7884076999619	1.504866399977118	395.731238299981	397.7629409999938	401.84630949998973	0.49940269999206066	1.0254666999680921	1.0241296999736278	400.83181889995467	0.7606681000324897	399.80226179998135	2	1	46	1	nogo_punish	1	-1	0	0	1	0	0	0.0	1.0	-1	0.6903812999953516	0.7606681000324897	1417.533330700011	1812.259105300007	1813.264568999992	1813.763971699984	1815.2962717000048	1816.321738399973	1817.3355924999923	1818.3651495999657	1819.3796402000007	1820.4037698999743	2020-10-16 10:55:07.478687	-1.01283675107493	-3.90009202288918	-1.04644337683167	-2.41475621181622	-2.0592801279066	-1.04644337683167	1.01283675107493	-3.90009202288918	-1.04644337683167	-2.0592801279066	-1.04644337683167	-6.29050260871172	-8.709206207130258	-5.7318199768425036	-3.132191558658306	-7.8411059589000125	-5.953158995680865	-3.132191558658306	-7.58938355137885	-8.897278380734713	-0.18807217360444783	-9.624612921816706	0.7606013863158956	3	correct	1.0
402.86850869999034	9.624401599983685	go_punish	0.3409070000052452	402.91258619999303	405.53412569995294	408.135242999997	2.6215394999599084	403.92244609998306	407.1112662999658	411.19292299996596	1.6116795999698752	1.0239767000311986	1.3440648000107558	410.17980230000103	0.5013114000321366	409.1516769999871	2	1	47	2	go_punish	0	-1	0	1	1	1	0	0.0	1.0	-1	0.3409070000052452	0.5013114000321366	1417.533330700011	1820.445916900004	1821.455776799994	1823.067456399964	1824.6445969999768	1825.668573700008	1826.685007699998	1827.713133000012	1828.726253699977	1830.0703184999877	2020-10-16 10:55:07.478687	4.08100309126805	-0.558763422800105	-2.86404127276915	-2.12617553962519	1.2169618184989	-2.86404127276915	-4.08100309126805	-0.558763422800105	-2.86404127276915	1.2169618184989	-2.86404127276915	-9.631831208800795	-3.6153663647872785	-2.3904913767534284	-4.949789454595786	-7.552525286708983	-2.6769170492753647	-4.949789454595786	-10.930712151467924	-5.621036434329213	-2.005670069541928	-6.28328432172763	-1.0569965096215845	3	correct	1.0
412.52339029998984	8.591496000008192	nogo_punish	1.0	412.5674677999925	414.3945940999547	416.9077078999835	1.827126299962174	413.5625899999866	415.89590919995703	419.94668890000344	0.8320040999681169	1.0117987000264748	1.2122748999972828	418.936023199989	0.61186440003803	417.9188018999994	2	1	48	1	nogo_punish	1	-1	0	0	0	1	1	0.0	0.0	0	1.0	0.61186440003803	1417.533330700011	1830.1007985000035	1831.0959206999976	1831.9279247999657	1833.429239899968	1834.4410385999945	1835.4521326000104	1836.4693539	1837.4800196000144	1838.6922945000117	2020-10-16 10:55:07.478687	1.44919160240308	-4.54433220102274	-1.04644337683167	-3.37047535776516	-2.49563497923475	-1.04644337683167	-1.44919160240308	-1.04644337683167	-4.54433220102274	-1.04644337683167	-2.49563497923475	1.04644337683167	-6.247177853652248	-6.376060154976063	-3.132191558658306	-8.796825104848953	-6.389513847009015	-3.132191558658306	-0.2524375658354594	-7.884441629659783	-1.637263776007528	-6.770964275759195	-2.7372874378751737	3	wrong	1.0
421.1374888999851	8.483649800007697	go_reward	0.3936066000023857	421.1815663999878	422.6023606999661	425.154643799993	1.4207942999782972	422.1807780999809	424.1338347999847	428.20117899996694	0.4215825999851859	1.0208090000082848	1.4640372000285424	427.18711769999936	0.4626056999550201	426.17435950000095	2	1	49	4	go_reward	0	0	1	1	1	1	0	0.0	1.0	0	0.3936066000023857	0.4626056999550201	1417.533330700011	1838.7148970999988	1839.714108799992	1840.135691399977	1841.6671654999957	1842.687974500004	1843.707690200012	1844.7204484000104	1845.734509699978	1847.1985469000065	2020-10-16 10:55:07.478687	11.8487048883587	13.1309503852917	0.0	13.1309503852917	11.8487048883587	0.0	-11.8487048883587	13.1309503852917	0.0	11.8487048883587	0.0	-13.1309503852917	4.152335432303372	11.299222431338375	-2.085748181826636	7.704600638207906	7.954826020584435	-2.085748181826636	-14.429831327958828	5.010706635530587	0.8583712032272223	7.406429486364174	1.8070447631475657	3	correct	1.0
429.64662709995105	9.276504400012072	nogo_punish	1.0	429.69070459995373	432.4690845999867	434.9953376000051	2.7783800000329393	430.7007601999794	433.98345899995184	438.05077539995546	1.768324400007259	1.011878600053251	0.9164336000103503	437.04228890000377	0.3398316000238992	436.0071387999926	2	1	50	1	nogo_punish	1	-1	0	0	0	1	1	1.0	1.0	0	1.0	0.3398316000238992	1417.533330700011	1847.2240352999647	1848.2340908999904	1850.0024152999977	1851.5167896999628	1852.528668300016	1853.5404695000036	1854.5756196000148	1855.5841060999664	1856.5005396999768	2020-10-16 10:55:07.478687	1.67683798085655	-4.54433220102274	-0.915680071319213	-2.92455152457162	-2.59251805217576	-0.915680071319213	-1.67683798085655	-0.915680071319213	-4.54433220102274	-0.915680071319213	-2.59251805217576	0.915680071319213	-6.019531475198779	-6.376060154976063	-3.001428253145849	-8.350901271655413	-6.486396919950025	-3.001428253145849	-0.38320087134791647	-7.753678324147326	-1.7341468489485377	-6.640200970246738	-2.7372874378751737	3	correct	1.0
438.9681471999504	8.325885700003482	nogo_reward	1.0	439.0122246999531	440.80125119996933	443.3228761999635	1.7890265000162344	440.0192455999786	442.30209909996506	446.3695402999874	0.7820055999907254	1.0207770999984405	0.9685700999691562	445.35553319996666	0.5099212999921292	444.3440063999733	2	1	51	3	nogo_reward	0	1	0	0	0	1	0	1.0	0.0	0	1.0	0.5099212999921292	1417.533330700011	1856.545555399964	1857.5525762999896	1858.3345818999803	1859.835429799976	1860.8562068999745	1861.8773370999843	1862.8888638999777	1863.9028709999984	1864.8714410999676	2020-10-16 10:55:07.478687	11.1793518559274	0.0	10.7716625854891	8.71281630437527	-0.407689270438283	10.7716625854891	-11.1793518559274	10.7716625854891	0.0	10.7716625854891	-0.407689270438283	-10.7716625854891	3.482982399872072	-1.8317279539533236	8.685914403662464	3.286466557291477	-4.301568138212548	8.685914403662464	-12.070543528156229	3.933664332660987	0.45068193278893925	5.047141686561575	1.8070447631475657	3	wrong	1.0
447.31836099998304	9.286781399976007	nogo_punish	0.9553719999967144	447.3624384999857	449.887523899961	452.4402626999654	2.5250853999752962	448.35719279997306	451.41547710000305	455.483312700002	1.5303310999879614	1.0247855999623425	1.1659071999597472	454.469661799958	0.521110099973157	453.4547639999655	2	1	52	1	nogo_punish	1	-1	0	0	1	0	1	1.0	1.0	-1	0.9553719999967144	0.521110099973157	1417.533330700011	1864.8957691999967	1865.890523499984	1867.420854599972	1868.948807800014	1869.9735933999764	1870.9880946999765	1872.002992499969	1873.016643400013	1874.1825505999727	2020-10-16 10:55:07.478687	-1.86715754679175	-4.54433220102274	-0.805474697527042	-2.55668836108927	-2.67263224431879	-0.805474697527042	1.86715754679175	-4.54433220102274	-0.805474697527042	-2.67263224431879	-0.805474697527042	-5.646262430578161	-9.563527002847078	-6.376060154976063	-2.8912228793536783	-7.983038108173063	-6.566511112093055	-2.8912228793536783	-6.9451433732452905	-9.510630497146902	0.05289650570018023	-10.268853099950265	1.0015700656205238	3	correct	1.0
456.63837209995836	9.050907000025973	nogo_punish	0.6823842999874614	456.68244959996105	459.1695289000054	461.7256129999878	2.4870793000443427	457.7017391999834	460.7014990999594	464.78454009996494	1.4677897000219673	1.0241139000283965	0.9488165000220761	463.77111299999547	0.5298944999813102	462.7430485999794	2	1	53	1	nogo_punish	1	-1	0	0	1	0	0	0.0	1.0	-1	0.6823842999874614	0.5298944999813102	1417.533330700011	1874.215780299972	1875.2350698999944	1876.7028596000164	1878.2348297999704	1879.2589436999988	1880.2763792999904	1881.3044437000065	1882.317870799976	1883.266687299998	2020-10-16 10:55:07.478687	-2.22315876959995	-5.10309562382284	-0.805474697527042	-3.48892831604717	-3.02863346712699	-0.805474697527042	2.22315876959995	-5.10309562382284	-0.805474697527042	-3.02863346712699	-0.805474697527042	-5.08749900777806	-9.919528225655279	-6.9348235777761635	-2.8912228793536783	-8.915278063130962	-6.9225123349012545	-2.8912228793536783	-6.38637995044519	-9.866631719955103	0.05289650570018023	-10.827616522750365	1.0015700656205238	3	correct	1.0
465.73337729997	7.943087599996716	go_punish	0.5275647999951616	465.7774547999727	467.10031039995374	469.64915889996337	1.3228555999810396	466.7832853999571	468.6271178000022	472.6821758999722	0.31702499999664724	1.0220410999611431	1.0383664999972098	471.6802350999785	0.3939560999860987	470.6568506999754	2	1	54	2	go_punish	1	0	-1	1	1	1	0	0.0	1.0	0	0.5275647999951616	0.3939560999860987	1417.533330700011	1883.3107854999837	1884.316616099968	1884.6336410999647	1886.1604485000132	1887.1824895999744	1888.1901813999864	1889.2135657999895	1890.2155065999832	1891.2538730999804	2020-10-16 10:55:07.478687	3.12238913563336	-1.7274511556574	-2.86404127276915	-3.09079418440026	0.258347862864212	-2.86404127276915	-3.12238913563336	-1.7274511556574	-2.86404127276915	0.258347862864212	-2.86404127276915	1.7274511556574	-4.573980320421969	-3.5591791096107235	-4.949789454595786	-8.517143931484053	-3.6355310049100527	-4.949789454595786	0.4285702129902704	-6.579650389963901	-2.005670069541928	-7.4519720545849255	-1.0569965096215845	3	correct	1.0
473.7004819999563	8.028071600012481	go_reward	0.5036511999787763	473.744559499959	475.43326399999205	477.96642489999067	1.6887045000330545	474.7562655999791	476.959825499973	481.0137803999821	0.6769984000129625	1.0065994000176488	0.7588506999893525	480.0007925999819	0.3470020999666303	478.9849128999631	2	1	55	4	go_reward	0	0	1	1	1	1	0	0.0	1.0	0	0.5036511999787763	0.3470020999666303	1417.533330700011	1891.27789019997	1892.28959629999	1892.966594700003	1894.493156199984	1895.4997556000017	1896.518243599974	1897.5341232999929	1898.5471110999931	1899.3059617999825	2020-10-16 10:55:07.478687	10.2127566772543	11.1022827508349	0.0	11.1022827508349	10.2127566772543	0.0	-10.2127566772543	11.1022827508349	0.0	10.2127566772543	0.0	-11.1022827508349	2.516387221198971	9.270554796881576	-2.085748181826636	5.6759330037511075	6.318877809480035	-2.085748181826636	-12.40116369350203	3.3747584244261866	0.8583712032272223	5.377761851907375	1.8070447631475657	3	correct	1.0
481.7549462000022	8.133444099978078	nogo_punish	1.0	481.7990237000049	483.5645779999902	486.09560880000936	1.765554299985297	482.8001210999789	485.07440099999053	489.1573741000029	0.7644569000112824	1.0212078000188285	0.7750936999800615	488.1436882999842	0.3909853000077419	487.1137483000059	2	1	56	1	nogo_punish	1	-1	0	0	0	1	0	0.0	1.0	0	1.0	0.3909853000077419	1417.533330700011	1899.332354400016	1900.33345179999	1901.0979087000012	1902.6077317000015	1903.6289395000204	1904.647079000017	1905.6770189999952	1906.690704800014	1907.465798499994	2020-10-16 10:55:07.478687	2.54171018879831	-5.59077557785441	-0.805474697527042	-4.26512905210081	-3.34718488632535	-0.805474697527042	-2.54171018879831	-0.805474697527042	-5.59077557785441	-0.805474697527042	-3.34718488632535	0.805474697527042	-5.154659267257019	-7.422503531807734	-2.8912228793536783	-9.691478799184603	-7.241063754099615	-2.8912228793536783	-0.49340624514008746	-7.643472950355155	-2.488813683098128	-6.529995596454567	-3.7837308147068445	3	correct	1.0
489.91461099998537	8.371067199972458	nogo_punish	1.0	489.95868849998806	491.73442689998774	494.26110800000606	1.7757383999996819	490.9570994999958	493.2355638999727	497.30791209999006	0.7773273999919184	1.0255441000333576	1.0218435999704525	496.2935298999655	0.3881694999872707	495.26675239996985	2	1	57	1	nogo_punish	0	0	-1	0	0	1	0	0.0	1.0	-1	1.0	0.3881694999872707	1417.533330700011	1907.492019199999	1908.4904302000068	1909.2677575999987	1910.7688945999837	1911.794438700017	1912.8000830999808	1913.8268605999765	1914.841242800001	1915.8630863999715	2020-10-16 10:55:07.478687	2.76233579977315	-5.59077557785441	-0.711857657314833	-3.67993146106276	-3.47419345708798	-0.711857657314833	-2.76233579977315	-0.711857657314833	-5.59077557785441	-0.711857657314833	-3.47419345708798	-9.478736974286068	-4.934033656282178	-7.422503531807734	-2.797605839141469	-9.106281208146553	-7.368072324862245	-2.797605839141469	-10.777617916953197	-7.549855910142946	-2.615822253860758	-6.436378556242358	-3.7837308147068445	3	correct	1.0
498.30843089998234	8.041869100008398	go_reward	0.4266404000227339	498.352508399985	499.92824479995784	502.4746693999623	1.5757363999728113	499.36457519995747	501.4587484999795	505.5249377999571	0.5636696000003667	1.0159208999828024	0.8694397000363097	504.5115761999623	0.4635060000000521	503.48341960000107	2	1	58	4	go_reward	1	1	0	1	1	1	0	0.0	1.0	1	0.4266404000227339	0.4635060000000521	1417.533330700011	1915.885839099996	1916.8979058999685	1917.4615754999688	1918.9920791999905	1920.0080000999733	1921.016750300012	1922.0449068999733	1923.058268499968	1923.9277082000044	2020-10-16 10:55:07.478687	8.89039552828818	9.46134291763409	0.0	9.46134291763409	8.89039552828818	0.0	-8.89039552828818	9.46134291763409	0.0	8.89039552828818	0.0	14.788686693424511	1.1940260722328508	7.629614963680766	-2.085748181826636	4.034993170550297	4.996516660513914	-2.085748181826636	13.489805750757382	2.0523972754600663	0.8583712032272223	3.7368220187065644	1.8070447631475657	3	correct	1.0
506.39526099996874	9.351177000033204	nogo_reward	0.5958675000001676	506.4393384999714	508.77599880000344	511.3289194999961	2.3366603000320083	507.4377956999815	510.30712379998295	514.3893928999898	1.3382031000219285	1.0217957000131719	1.4011226000147872	513.3777289999998	0.5360649999929592	512.3457605000006	2	1	59	3	nogo_reward	1	0	1	0	1	0	0	0.0	1.0	0	0.5958675000001676	0.5360649999929592	1417.533330700011	1923.9726691999824	1924.9711263999925	1926.3093295000144	1927.840454499994	1928.862250200007	1929.8790912000115	1930.9110597000108	1931.9227236000008	1933.3238462000156	2020-10-16 10:55:07.478687	-9.13814928071812	0.0	8.99858070364274	7.32511428581689	-0.139568577075387	8.99858070364274	9.13814928071812	0.0	8.99858070364274	-0.139568577075387	8.99858070364274	0.0	-16.834518736773447	-1.8317279539533236	6.912832521816103	1.8987645387330971	-4.033447444849652	6.912832521816103	-1.2988809426671295	-6.9775668299035	9.856951906869961	-5.724520898927525	10.805625466790305	3	correct	1.0
515.7885487999879	8.713419999985945	go_punish	0.4570203999755904	515.8326262999906	518.0167626999901	520.5719209999661	2.1841363999994883	516.8422824000011	519.5460272000055	523.6140259999663	1.1744802999889998	1.0258937999606133	0.9320203000102083	522.6018422999771	0.5280682999873534	521.5867654999602	2	1	60	2	go_punish	0	-1	0	1	1	1	0	0.0	1.0	-1	0.4570203999755904	0.5280682999873534	1417.533330700011	1933.3659570000016	1934.375613100012	1935.550093400001	1937.0793579000165	1938.105251699977	1939.1200961999712	1940.135172999988	1941.1473566999773	1942.0793769999875	2020-10-16 10:55:07.478687	3.2919126924607	-1.46405086740768	-2.86404127276915	-2.65759611769132	0.427871419691549	-2.86404127276915	-3.2919126924607	-1.46405086740768	-2.86404127276915	0.427871419691549	-2.86404127276915	-8.72654376419322	-4.404456763594629	-3.2957788213610035	-4.949789454595786	-8.083945864775114	-3.4660074480827157	-4.949789454595786	-10.025424706860349	-6.410126833136564	-2.005670069541928	-7.188571766335206	-1.0569965096215845	3	correct	1.0
