onset	duration	trial_type	response_time	cueOnset	targetOnset	fbOnset	cueRT	firstfixOnset	secondfixOnset	waitOnset	firstfixdur	secondfixdur	waitdur	nback_fbOnset	nback_response_time	nback_targetOnset	block	wm	trial	cue	cond	is_common	outcome_go	outcome_nogo	key_correct	key_pressed	is_correct	key_correct_nback	key_pressed_nback	is_correct_nback	outcome	rt	rt_nback	time_scan	time_onset	time_isi1	time_circle	time_isi2	time_feedback	time_same	time_correct	time_iti	time_done	timestamp_scan	DV	Qgo	Qnogo	SV	Wgo	Wnogo	mDV	Qchosen	Qunchosen	Wchosen	Wunchosen	PE	DVC	QgoC	QnogoC	SVC	WgoC	WnogoC	PEC	WchosenC	WunchosenC	QchosenC	QunchosenC	run	outcome_nback	nback_targetResp
0.0	6.9434082000516355	go_punish	0.4261916000396013	0.025577799882739782	1.9393245000392199	4.489183899946511	1.91374670015648	1.0255752999798915	3.4683067000005394	5.500870899995789	0.9137492000593284	1.0208771999459714	1.4681150999385864	n/a	1.0	n/a	1	0	61	2	go_punish	1	0	-1	1	1	1	0	n/a	n/a	0	0.4261916000396013	1.0	1036.4345029001124	1036.4600806999952	1037.4600782000923	1038.3738274001516	1039.902809600113	1040.923686800059	n/a	n/a	1041.9353738001082	1043.4034889000468	2020-04-08 16:31:29.298864	5.95272322252186	-1.51849089836102	-8.26665665833101	-1.57224234881657	-2.31393343580915	-8.26665665833101	-5.95272322252186	-1.51849089836102	-8.26665665833101	-2.31393343580915	-8.26665665833101	1.51849089836102	-4.63442029207875	-5.704943155854578	-11.685627223098038	-10.491965849154866	-7.348493819191833	-11.685627223098038	0.48793416149883084	-11.834270667184306	-7.199850375105559	-10.596423895451398	-6.794146483501221	2	missed	0.0
6.976211000001058	5.875787300057709	nogo_punish	1.0	7.001788799883798	8.339141999837011	10.863370500039082	1.3373531999532133	7.9940638998523355	9.854519199812785	11.868947000009939	0.34507809998467565	1.008851300226297	1.008629099931568	n/a	1.0	n/a	1	0	62	1	nogo_punish	1	-1	0	0	0	1	0	n/a	n/a	0	1.0	1.0	1036.4345029001124	1043.4362916999962	1044.4285667999648	1044.7736448999494	1046.2890220999252	1047.2978734001515	n/a	n/a	1048.3034499001224	1049.312079000054	2020-04-08 16:31:29.298864	4.19774457844081	-4.25171931590345	-0.402382973897336	-0.672256508081675	-4.60012755233815	-0.402382973897336	-4.19774457844081	-0.402382973897336	-4.25171931590345	-0.402382973897336	-4.60012755233815	0.402382973897336	-6.3893989361598	-8.438171573397007	-3.8213535386643644	-9.591980008419972	-9.634687935720834	-3.8213535386643644	-0.628173762964853	-9.922720205272492	-3.5333212691126987	-9.480315970987714	-2.77920914107366	2	missed	0.0
12.88676210003905	7.257275199983496	go_punish	0.4438434999901801	12.91233989992179	15.287556799827144	17.835354999871925	2.375216899905354	13.928748099832092	16.824603099841624	18.848103399854153	1.358808699995052	1.0107519000303	1.3215117000511327	n/a	1.0	n/a	1	0	63	2	go_punish	1	0	-1	1	1	1	1	n/a	n/a	0	0.4438434999901801	1.0	1036.4345029001124	1049.3468428000342	1050.3632509999445	1051.7220596999396	1053.259105999954	1054.2698578999843	n/a	n/a	1055.2826062999666	1056.6041180000177	2020-04-08 16:31:29.298864	6.80970295637665	-0.9516525197913	-8.26665665833101	-0.991936319169606	-1.45695370195436	-8.26665665833101	-6.80970295637665	-0.9516525197913	-8.26665665833101	-1.45695370195436	-8.26665665833101	0.9516525197913	-3.7774405582239607	-5.138104777284858	-11.685627223098038	-9.911659819507902	-6.491514085337043	-11.685627223098038	-0.07890421707088913	-10.977290933329517	-7.199850375105559	-10.029585516881678	-6.794146483501221	2	missed	0.0
20.1792174000293	7.045099999988452	go_reward	0.3822518000379205	20.20479519991204	22.93707159999758	25.483135299989954	2.7322764000855386	21.211529499851167	24.458783600013476	26.489363699918613	1.7255421001464128	1.024351699976478	0.7605314999818802	n/a	1.0	n/a	1	0	64	4	go_reward	1	1	0	1	1	1	0	n/a	n/a	1	0.3822518000379205	1.0	1036.4345029001124	1056.6392981000245	1057.6460323999636	1059.37157450011	1060.893286500126	1061.9176382001024	n/a	n/a	1062.923866600031	1063.684398100013	2020-04-08 16:31:29.298864	39.8115202454324	26.0891452907451	0.0	25.5488169119975	39.8115202454324	0.0	-39.8115202454324	26.0891452907451	0.0	39.8115202454324	0.0	6.2443558022904995	29.224376730831786	21.902693033251545	-3.4189705647670285	16.629093411659202	34.776959862049715	-3.4189705647670285	5.213799065428311	30.29118301405724	1.0668062832254512	17.011212293654722	1.4725101748297893	2	missed	0.0
27.268106900155544	7.405242199776694	nogo_reward	1.0	27.293684700038284	29.78479679999873	32.30558659997769	2.4911120999604464	28.30057549988851	31.29472279991046	33.304988799849525	1.484221300110221	1.0108638000672272	1.3939380999654531	n/a	1.0	n/a	1	0	65	3	nogo_reward	1	0	1	0	0	1	0	n/a	n/a	1	1.0	1.0	1036.4345029001124	1063.7281876001507	1064.735078400001	1066.2192997001112	1067.7292257000229	1068.74008950009	n/a	n/a	1069.739491699962	1071.1334297999274	2020-04-08 16:31:29.298864	6.45830737327704	0.0	14.6869467879244	14.6869467879244	8.22863941464737	14.6869467879244	-6.45830737327704	14.6869467879244	0.0	14.6869467879244	8.22863941464737	17.646554305111202	-4.12883614132357	-4.186452257493558	11.267976223157373	5.767223287586104	3.194079031264687	11.267976223157373	16.615997568249014	5.166609556549243	9.295445697872822	5.609013790834021	1.4725101748297893	2	missed	0.0
34.71387850004248	7.10201989999041	nogo_reward	1.0	34.73945629992522	36.80306759988889	39.34180339984596	2.063611299963668	35.74970699986443	38.31831440003589	40.350987299811095	1.0533606000244617	1.0234889998100698	1.4904889001045376	n/a	1.0	n/a	1	0	66	3	nogo_reward	1	0	1	0	0	1	0	n/a	n/a	1	1.0	1.0	1036.4345029001124	1071.1739592000376	1072.1842098999768	1073.2375705000013	1074.7528173001483	1075.7763062999584	n/a	n/a	1076.7854901999235	1078.275979100028	2020-04-08 16:31:29.298864	9.9698850406236	0.0	21.8483428795601	21.8483428795601	11.8784578389365	21.8483428795601	-9.9698850406236	21.8483428795601	0.0	21.8483428795601	11.8784578389365	10.4851582134755	-0.6172584739770102	-4.186452257493558	18.42937231479307	12.928619379221804	6.843897455553817	18.42937231479307	9.45460147661331	12.328005648184943	12.945264122161952	12.770409882469721	1.4725101748297893	2	missed	0.0
41.85282160015777	6.367471299832687	go_reward	0.3847194998525083	41.87839940004051	43.44970480003394	46.00067729991861	1.5713053999934345	42.8871406998951	44.980209399946034	47.00397549988702	0.5625641001388431	1.020467899972573	1.2418951999861747	n/a	1.0	n/a	1	0	67	4	go_reward	0	0	1	1	1	1	0	n/a	n/a	0	0.3847194998525083	1.0	1036.4345029001124	1078.312902300153	1079.3216436000075	1079.8842077001464	1081.4147123000585	1082.435180200031	n/a	n/a	1083.4384783999994	1084.6803735999856	2020-04-08 16:31:29.298864	43.3041765669052	28.2632478230234	0.0	27.9018392540268	43.3041765669052	0.0	-43.3041765669052	28.2632478230234	0.0	43.3041765669052	0.0	-28.2632478230234	32.717033052304586	24.076795565529842	-3.4189705647670285	18.982115753688504	38.269616183522515	-3.4189705647670285	-29.293804559885587	33.78383933553004	1.0668062832254512	19.18531482593302	1.4725101748297893	2	missed	0.0
48.259673699969426	6.883998600067571	go_punish	0.309434900060296	48.285251499852166	50.56900579994567	53.13140269997507	2.2837543000935057	49.28790739993565	52.1117505999282	54.14389429986477	1.2810984000100234	1.0196521000468692	1.0253558000549674	n/a	1.0	n/a	1	0	68	2	go_punish	1	0	-1	1	1	1	0	n/a	n/a	0	0.309434900060296	1.0	1036.4345029001124	1084.7197543999646	1085.722410300048	1087.003508700058	1088.5462535000406	1089.5659056000875	n/a	n/a	1090.5783971999772	1091.6037530000322	2020-04-08 16:31:29.298864	7.32900120213819	-0.61192441578832	-8.26665665833101	-0.642365926218166	-0.93765545619282	-8.26665665833101	-7.32900120213819	-0.61192441578832	-8.26665665833101	-0.93765545619282	-8.26665665833101	0.61192441578832	-3.2581423124624207	-4.7983766732818784	-11.685627223098038	-9.562089426556462	-5.972215839575503	-11.685627223098038	-0.41863232107386905	-10.457992687567977	-7.199850375105559	-9.689857412878698	-6.794146483501221	2	missed	0.0
55.17930030007847	6.519126599887386	nogo_punish	1.0	55.204878099961206	57.40964700002246	59.94472619984299	2.2047689000612536	56.20891559985466	58.92538749985397	60.94754510000348	1.200731400167797	1.0193386999890208	0.7764595998451114	n/a	1.0	n/a	1	0	69	1	nogo_punish	1	-1	0	0	0	1	0	n/a	n/a	0	1.0	1.0	1036.4345029001124	1091.6393810000736	1092.643418499967	1093.8441499001349	1095.3598903999664	1096.3792290999554	n/a	n/a	1097.382048000116	1098.158507599961	2020-04-08 16:31:29.298864	4.21301768307147	-4.25171931590345	-0.26987353418434	-0.454089845651645	-4.48289121725581	-0.26987353418434	-4.21301768307147	-0.26987353418434	-4.25171931590345	-0.26987353418434	-4.48289121725581	0.26987353418434	-6.37412583152914	-8.438171573397007	-3.6888440989513684	-9.37381334598994	-9.517451600638493	-3.6888440989513684	-0.7606832026778491	-9.790210765559497	-3.416084934030359	-9.347806531274719	-2.77920914107366	2	missed	0.0
61.733170200139284	6.450164099922404	nogo_punish	1.0	61.758748000022024	63.22076820000075	65.74685160000809	1.4620201999787241	62.752779899863526	64.73661369993351	66.75106779998168	0.4679883001372218	1.0102379000745714	1.4578442999627441	n/a	1.0	n/a	1	0	70	1	nogo_punish	1	-1	0	0	0	1	0	n/a	n/a	0	1.0	1.0	1036.4345029001124	1098.1932509001344	1099.187282799976	1099.6552711001132	1101.171116600046	1102.1813545001205	n/a	n/a	1103.185570700094	1104.6434150000568	2020-04-08 16:31:29.298864	4.22104435500497	-4.25171931590345	-0.184216311467305	-0.311968928170961	-4.40526066647228	-0.184216311467305	-4.22104435500497	-0.184216311467305	-4.25171931590345	-0.184216311467305	-4.40526066647228	0.184216311467305	-6.36609915959564	-8.438171573397007	-3.6031868762343335	-9.231692428509257	-9.439821049854963	-3.6031868762343335	-0.8463404253948841	-9.704553542842461	-3.338454383246829	-9.262149308557683	-2.77920914107366	2	missed	0.0
68.22280990006402	7.154128199908882	go_punish	0.3391617001034319	68.24838769994676	70.96329250000417	73.52145589981228	2.714904800057411	69.25564039987512	72.50159500003792	74.53421189985238	1.707652100129053	1.0198608997743577	0.8683040000032634	n/a	1.0	n/a	1	0	71	2	go_punish	1	0	-1	1	1	1	0	n/a	n/a	0	0.3391617001034319	1.0	1036.4345029001124	1104.6828906000592	1105.6901432999875	1107.3977954001166	1108.9360979001503	1109.9559587999247	n/a	n/a	1110.9687147999648	1111.837018799968	2020-04-08 16:31:29.298864	7.65251203540713	-0.402382973897336	-8.26665665833101	-0.425565375667301	-0.614144622923877	-8.26665665833101	-7.65251203540713	-0.402382973897336	-8.26665665833101	-0.614144622923877	-8.26665665833101	0.402382973897336	-2.93463147919348	-4.588835231390894	-11.685627223098038	-9.345288876005597	-5.64870500630656	-11.685627223098038	-0.628173762964853	-10.134481854299034	-7.199850375105559	-9.480315970987714	-6.794146483501221	2	missed	0.0
75.41867909999564	6.944555599940713	nogo_reward	1.0	75.44425689987838	77.34983379999176	79.88903929991648	1.905576900113374	76.4426656998694	78.86551189981401	80.8877937998625	0.9071681001223624	1.0235274001024663	1.501018699956603	n/a	1.0	n/a	1	0	72	3	nogo_reward	1	0	1	0	0	1	0	n/a	n/a	1	1.0	1.0	1036.4345029001124	1111.8787597999908	1112.8771685999818	1113.7843367001042	1115.3000147999264	1116.323542200029	n/a	n/a	1117.322296699975	1118.8233153999315	2020-04-08 16:31:29.298864	11.8754168256797	0.0	25.8838807525902	25.8838807525902	14.0084639269105	25.8838807525902	-11.8754168256797	25.8838807525902	0.0	25.8838807525902	14.0084639269105	6.449620340445399	1.2882733110790898	-4.186452257493558	22.464910187823172	16.964157252251905	8.973903543527816	22.464910187823172	5.4190636035832105	16.363543521215043	15.075270210135951	16.805947755499822	1.4725101748297893	2	missed	0.0
82.39951020013541	6.899021799908951	nogo_punish	1.0	82.42508800001815	84.4350451999344	86.96224149991758	2.0099571999162436	83.43053080001846	85.95179239986464	87.98108299984597	1.0045143999159336	1.0104491000529379	1.3430268000811338	n/a	1.0	n/a	1	0	73	1	nogo_punish	1	-1	0	0	0	1	0	n/a	n/a	0	1.0	1.0	1036.4345029001124	1118.8595909001306	1119.8650337001309	1120.8695481000468	1122.386295299977	1123.39674440003	n/a	n/a	1124.4155858999584	1125.7586127000395	2020-04-08 16:31:29.298864	4.22523419744707	-4.25171931590345	-0.127752616703656	-0.217626542111743	-4.35298681415073	-0.127752616703656	-4.22523419744707	-0.127752616703656	-4.25171931590345	-0.127752616703656	-4.35298681415073	0.127752616703656	-6.361909317153541	-8.438171573397007	-3.5467231814706848	-9.13735004245004	-9.387547197533413	-3.5467231814706848	-0.9028041201585331	-9.648089848078813	-3.286180530925279	-9.205685613794035	-2.77920914107366	2	missed	0.0
89.3384632000234	6.10813260008581	go_reward	0.4861055000219494	89.36404099990614	90.72631779988296	93.27574680000566	1.3622767999768257	90.36524039995857	92.25193869997747	94.28475049999543	0.36107739992439747	1.023808100028191	1.187423099996522	n/a	1.0	n/a	1	0	74	4	go_reward	1	1	0	1	1	1	0	n/a	n/a	1	0.4861055000219494	1.0	1036.4345029001124	1125.7985439000186	1126.799743300071	1127.1608206999954	1128.68644160009	1129.710249700118	n/a	n/a	1130.7192534001078	1131.9066765001044	2020-04-08 16:31:29.298864	26.2795097297553	16.9906759789868	0.0	16.7449750422512	26.2795097297553	0.0	-26.2795097297553	16.9906759789868	0.0	26.2795097297553	0.0	15.3428251140488	15.69236621515469	12.804223721493242	-3.4189705647670285	7.825251541912902	21.244949346372618	-3.4189705647670285	14.31226837718661	16.759172498380146	1.0668062832254512	7.912742981896422	1.4725101748297893	2	missed	0.0
95.4803045000881	7.228987399954349	nogo_punish	1.0	95.50588229997084	97.94119949988067	100.46529379999265	2.435317199909832	96.5180261998903	99.44579959986709	101.46951869991608	1.423173299990367	1.019494200125564	1.2653510000091046	n/a	1.0	n/a	1	0	75	1	nogo_punish	1	-1	0	0	0	1	1	n/a	n/a	0	1.0	1.0	1036.4345029001124	1131.9403852000833	1132.9525291000027	1134.375702399993	1135.8803024999795	1136.899796700105	n/a	n/a	1137.9040216000285	1139.1693726000376	2020-04-08 16:31:29.298864	4.22737449207442	-4.25171931590345	-0.089873925408087	-0.153930405468311	-4.3172484174825	-0.089873925408087	-4.22737449207442	-0.089873925408087	-4.25171931590345	-0.089873925408087	-4.3172484174825	0.089873925408087	-6.359769022526191	-8.438171573397007	-3.5088444901751155	-9.073653905806607	-9.351808800865182	-3.5088444901751155	-0.940682811454102	-9.610211156783244	-3.250442134257049	-9.167806922498466	-2.77920914107366	2	missed	0.0
102.74350859993115	6.642293800134439	nogo_punish	1.0	102.76908639981389	104.64504470000975	107.1707691999618	1.8759583001958617	103.78577849990688	106.16036039986648	108.18360039987601	0.8592662001028657	1.0104088000953197	1.2277798000723124	n/a	1.0	n/a	1	0	76	1	nogo_punish	1	-1	0	0	0	1	0	n/a	n/a	0	1.0	1.0	1036.4345029001124	1139.2035892999263	1140.2202814000193	1141.0795476001222	1142.594863299979	1143.6052721000742	n/a	n/a	1144.6181032999884	1145.8458831000607	2020-04-08 16:31:29.298864	4.22841748407872	-4.25171931590345	-0.0640564800602236	-0.110260223797393	-4.29247396413895	-0.0640564800602236	-4.22841748407872	-0.0640564800602236	-4.25171931590345	-0.0640564800602236	-4.29247396413895	0.0640564800602236	-6.358726030521891	-8.438171573397007	-3.483027044827252	-9.02998372413569	-9.327034347521632	-3.483027044827252	-0.9665002568019655	-9.58439371143538	-3.225667680913499	-9.141989477150602	-2.77920914107366	2	missed	0.0
109.4307778000366	6.042720400029793	nogo_reward	1.0	109.45635559991933	110.96742259990447	113.49723969982006	1.5110669999851325	110.46229439997114	112.47343169990927	114.49556109984405	0.5051281999333241	1.0238079999107867	1.003514900105074	n/a	1.0	n/a	1	0	77	3	nogo_reward	1	0	1	0	0	1	0	n/a	n/a	1	1.0	1.0	1036.4345029001124	1145.8908585000318	1146.8967973000836	1147.401925500017	1148.9079346000217	1149.9317425999325	n/a	n/a	1150.9300639999565	1151.9335789000615	2020-04-08 16:31:29.298864	12.955505846281	0.0	28.2485260659347	28.2485260659347	15.2930202196537	28.2485260659347	-12.955505846281	28.2485260659347	0.0	28.2485260659347	15.2930202196537	4.084975027100899	2.3683623316803892	-4.186452257493558	24.829555501167672	19.328802565596405	10.258459836271017	24.829555501167672	3.0544182902387105	18.728188834559546	16.35982650287915	19.170593068844322	1.4725101748297893	2	missed	0.0
115.51514209993184	6.600140100112185	nogo_reward	1.0	115.54071989981458	117.10267569986149	119.64139349991456	1.561955800046917	116.55376879987307	118.61775169987231	120.65045890002511	0.5489068999884239	1.0236418000422418	1.4904010999016464	n/a	1.0	n/a	1	0	78	3	nogo_reward	1	0	1	0	0	1	0	n/a	n/a	1	1.0	1.0	1036.4345029001124	1151.975222799927	1152.9882716999855	1153.537178599974	1155.0522545999847	1156.075896400027	n/a	n/a	1157.0849618001375	1158.5753629000392	2020-04-08 16:31:29.298864	13.5907511893175	0.0	29.6804217775053	29.6804217775053	16.0896705881877	29.6804217775053	-13.5907511893175	29.6804217775053	0.0	29.6804217775053	16.0896705881877	2.6530793155303023	3.003607674716889	-4.186452257493558	26.26145121273827	20.760698277167002	11.055110204805018	26.26145121273827	1.6225225786681132	20.160084546130143	17.15647687141315	20.60248878041492	1.4725101748297893	2	missed	0.0
122.15389210008993	5.794633999933012	nogo_reward	1.0	122.17946989997267	123.55073449993529	126.09021779987961	1.3712645999626147	123.19165079994127	125.06642739987001	127.09002440003678	0.35908369999401657	1.0237904000096023	0.8840794998689034	n/a	1.0	n/a	1	0	79	3	nogo_reward	1	0	1	0	0	1	1	n/a	n/a	1	1.0	1.0	1036.4345029001124	1158.613972800085	1159.6261537000537	1159.9852374000477	1161.5009302999824	1162.524720699992	n/a	n/a	1163.5245273001492	1164.408606800018	2020-04-08 16:31:29.298864	13.9763846999401	0.0	30.5722273871404	30.5722273871404	16.5958426872003	30.5722273871404	-13.9763846999401	30.5722273871404	0.0	30.5722273871404	16.5958426872003	1.7612737058951993	3.3892411853394897	-4.186452257493558	27.153256822373372	21.652503886802105	11.561282303817617	27.153256822373372	0.7307169690330102	21.051890155765243	17.66264897042575	21.494294390050023	1.4725101748297893	2	missed	0.0
127.99051610007882	6.16488409996964	nogo_reward	1.0	128.01609389996156	129.58696660003648	132.11494340002537	1.570872700074915	129.024890499888	131.0939241999297	133.12519409996457	0.562076100148488	1.0210192000956795	1.0557838999666274	n/a	1.0	n/a	1	0	80	3	nogo_reward	1	0	1	0	0	1	1	n/a	n/a	1	1.0	1.0	1036.4345029001124	1164.450596800074	1165.4593934000004	1166.021469500149	1167.528427100042	1168.5494463001378	n/a	n/a	1169.559697000077	1170.6154809000436	2020-04-08 16:31:29.298864	14.217016537363	0.0	31.1413895583671	31.1413895583671	16.9243730210042	31.1413895583671	-14.217016537363	31.1413895583671	0.0	31.1413895583671	16.9243730210042	1.192111534668502	3.629873022762389	-4.186452257493558	27.72241899360007	22.221666058028802	11.889812637621517	27.72241899360007	0.161554797806313	21.621052326991943	17.99117930422965	22.06345656127672	1.4725101748297893	2	missed	0.0
134.19402990001254	6.84009509999305	go_reward	0.4465582000557333	134.21960769989528	136.03492629993707	138.59543600003235	1.8153186000417918	135.22260800004005	137.57134309993125	139.5925423000008	0.8123182998970151	1.0240929001010954	1.467160499887541	n/a	1.0	n/a	1	0	81	4	go_reward	1	1	0	1	1	1	0	n/a	n/a	1	0.4465582000557333	1.0	1036.4345029001124	1170.6541106000077	1171.6571109001525	1172.4694292000495	1174.0058460000437	1175.0299389001448	n/a	n/a	1176.0270452001132	1177.4942057000007	2020-04-08 16:31:29.298864	35.6762534242624	23.1831890696748	0.0	23.0136730354241	35.6762534242624	0.0	-35.6762534242624	23.1831890696748	0.0	35.6762534242624	0.0	9.1503120233608	25.089109909661786	18.99673681218124	-3.4189705647670285	14.093949535085805	30.641693040879716	-3.4189705647670285	8.119755286498611	26.15591619288724	1.0668062832254512	14.105256072584421	1.4725101748297893	2	missed	0.0
141.07040060008876	5.928666800027713	nogo_punish	1.0	141.0959783999715	142.53158599999733	145.058834400028	1.4356076000258327	142.10902969981566	144.0453108998479	146.0718249999918	0.4225563001816681	1.0135235001800993	0.9528202000074089	n/a	1.0	n/a	1	0	82	1	nogo_punish	1	-1	0	0	0	1	0	n/a	n/a	0	1.0	1.0	1036.4345029001124	1177.530481300084	1178.543532599928	1178.9660889001098	1180.4798137999603	1181.4933373001404	n/a	n/a	1182.5063279001042	1183.4591481001116	2020-04-08 16:31:29.298864	4.22887652451574	-4.25171931590345	-0.0462037437371694	-0.079898108860743	-4.27508026825291	-0.0462037437371694	-4.22887652451574	-0.0462037437371694	-4.25171931590345	-0.0462037437371694	-4.27508026825291	0.0462037437371694	-6.3582669900848705	-8.438171573397007	-3.465174308504198	-8.999621609199039	-9.309640651635593	-3.465174308504198	-0.9843529931250197	-9.566540975112327	-3.2082739850274584	-9.124136740827549	-2.77920914107366	2	missed	0.0
147.04275740007893	6.705035999882739	nogo_reward	1.0	147.06833519996167	148.86851789988577	151.39455439988524	1.8001826999241075	148.0812635999173	150.3739880998619	152.39824619982392	0.7872542999684811	1.0205663000233471	1.375125000020489	n/a	1.0	n/a	1	0	83	3	nogo_reward	0	1	0	0	0	1	0	n/a	n/a	0	1.0	1.0	1036.4345029001124	1183.502838100074	1184.5157665000297	1185.3030207999982	1186.8084909999743	1187.8290572999977	n/a	n/a	1188.8327490999363	1190.2078740999568	2020-04-08 16:31:29.298864	14.3708455838964	0.0	31.5125333233848	31.5125333233848	17.1416877394884	31.5125333233848	-14.3708455838964	31.5125333233848	0.0	31.5125333233848	17.1416877394884	-31.5125333233848	3.7837020692957903	-4.186452257493558	28.09356275861777	22.592809823046505	12.107127356105718	28.09356275861777	-32.54309006024699	21.992196092009642	18.20849402271385	22.434600326294422	1.4725101748297893	2	missed	0.0
153.78756120009348	6.530407099984586	go_punish	0.5684897000901401	153.81313899997622	155.6710190998856	158.22768799983896	1.85788009990938	154.82528460002527	157.2077921000307	159.2408329998143	0.8457344998603276	1.0198958998082617	1.1027131001465023	n/a	1.0	n/a	1	0	84	2	go_punish	1	0	-1	1	1	1	0	n/a	n/a	0	0.5684897000901401	1.0	1036.4345029001124	1190.2476419000886	1191.2597875001377	1192.105521999998	1193.6422950001431	1194.6621908999514	n/a	n/a	1195.6753358999267	1196.7780490000732	2020-04-08 16:31:29.298864	7.85897347106945	-0.26987353418434	-8.26665665833101	-0.287656038186187	-0.407683187261561	-8.26665665833101	-7.85897347106945	-0.26987353418434	-8.26665665833101	-0.407683187261561	-8.26665665833101	0.26987353418434	-2.7281700435311604	-4.456325791677898	-11.685627223098038	-9.207379538524483	-5.442243570644244	-11.685627223098038	-0.7606832026778491	-9.928020418636718	-7.199850375105559	-9.347806531274719	-6.794146483501221	2	missed	0.0
160.35711280000396	6.844074700027704	nogo_punish	1.0	160.3826905998867	162.22024869988672	164.74893999984488	1.8375581000000238	161.38593799993396	163.7252980999183	165.75809929985553	0.8343106999527663	1.023641899926588	1.4686660000588745	n/a	1.0	n/a	1	0	85	1	nogo_punish	0	0	-1	0	0	1	0	n/a	n/a	-1	1.0	1.0	1036.4345029001124	1196.8171934999991	1197.8204409000464	1198.6547515999991	1200.1598010000307	1201.1834428999573	n/a	n/a	1202.192602199968	1203.6612682000268	2020-04-08 16:31:29.298864	4.22903031182058	-4.25171931590345	-0.0336943651235735	-0.0585163248420491	-4.26272467694415	-0.0336943651235735	-4.22903031182058	-0.0336943651235735	-4.25171931590345	-0.0336943651235735	-4.26272467694415	-11.119250083583127	-6.3581132027800304	-8.438171573397007	-3.4526649298906023	-8.978239825180346	-9.297285060326832	-3.4526649298906023	-12.149806820445317	-9.55403159649873	-3.195918393718699	-9.111627362213952	-2.77920914107366	2	missed	0.0
167.2383757000789	6.115000399993733	nogo_punish	1.0	167.26395349996164	168.60575579991564	171.13152169994987	1.3418022999539971	168.2776241998654	170.12077139993198	172.1358181999533	0.32813160005025566	1.0107503000178895	1.2431357000020853	n/a	1.0	n/a	1	0	86	1	nogo_punish	1	-1	0	0	0	1	0	n/a	n/a	0	1.0	1.0	1036.4345029001124	1203.698456400074	1204.7121270999778	1205.040258700028	1206.5552743000444	1207.5660246000623	n/a	n/a	1208.5703211000657	1209.8134568000678	2020-04-08 16:31:29.298864	2.05136548734342	-4.25171931590345	-4.27654127562192	-4.29499947529016	-6.32790676296535	-4.27654127562192	-2.05136548734342	-4.27654127562192	-4.25171931590345	-4.27654127562192	-6.32790676296535	4.27654127562192	-8.53577802725719	-8.438171573397007	-7.695511840388948	-13.214722975628456	-11.362467146348033	-7.695511840388948	3.245984538759731	-13.796878506997077	-5.261100479739898	-13.354474272712299	-2.77920914107366	2	missed	0.0
173.3976052000653	6.140723600052297	nogo_reward	1.0	173.42318299994804	174.8198769998271	177.34602679987438	1.3966939998790622	174.42977369995788	176.33540380001068	178.3588874998968	0.39010329986922443	1.010622999863699	1.2050191001035273	n/a	1.0	n/a	1	0	87	3	nogo_reward	0	1	0	0	0	1	0	n/a	n/a	0	1.0	1.0	1036.4345029001124	1209.8576859000605	1210.8642766000703	1211.2543798999395	1212.769906700123	1213.7805296999868	n/a	n/a	1214.7933904000092	1215.9984095001128	2020-04-08 16:31:29.298864	8.43273353648204	0.0	19.1253280264479	19.1253280264479	10.6925944899658	19.1253280264479	-8.43273353648204	19.1253280264479	0.0	19.1253280264479	10.6925944899658	-19.1253280264479	-2.1544099781185704	-4.186452257493558	15.70635746168087	10.205604526109603	5.658034106583116	15.70635746168087	-20.155884763310087	9.604990795072743	11.75940077319125	10.04739502935752	1.4725101748297893	2	missed	0.0
179.57577769993804	6.460718100192025	go_reward	0.3852403999771923	179.60135549982078	181.07919580000453	183.63415259984322	1.4778403001837432	180.60505949985236	182.6142722000368	184.64703270001337	0.4741363001521677	1.019880399806425	1.4150408999994397	n/a	1.0	n/a	1	0	88	4	go_reward	0	0	1	1	1	1	0	n/a	n/a	0	0.3852403999771923	1.0	1036.4345029001124	1216.0358583999332	1217.0395623999648	1217.513698700117	1219.0487751001492	1220.0686554999556	n/a	n/a	1221.0815356001258	1222.4965765001252	2020-04-08 16:31:29.298864	41.051396108123	26.6789224232007	0.0	26.5603886929726	41.051396108123	0.0	-41.051396108123	26.6789224232007	0.0	41.051396108123	0.0	-26.6789224232007	30.46425259352239	22.49247016570714	-3.4189705647670285	17.640665192634305	36.01683572474032	-3.4189705647670285	-27.709479160062887	31.531058876747842	1.0668062832254512	17.60098942611032	1.4725101748297893	2	missed	0.0
186.07505009998567	6.112863900139928	nogo_punish	1.0	186.1006278998684	187.76832769997418	190.30271439999342	1.6676998001057655	187.1037890999578	189.28312829998322	191.30735050002113	0.6645386000163853	1.0195861000102013	0.9061412999872118	n/a	1.0	n/a	1	0	89	1	nogo_punish	1	-1	0	0	0	1	0	n/a	n/a	0	1.0	1.0	1036.4345029001124	1222.5351307999808	1223.5382920000702	1224.2028306000866	1225.7176312000956	1226.7372173001058	n/a	n/a	1227.7418534001336	1228.6479947001208	2020-04-08 16:31:29.298864	2.99124223001065	-4.25171931590345	-2.51490464373478	-2.52875080862081	-5.50614687374544	-2.51490464373478	-2.99124223001065	-2.51490464373478	-4.25171931590345	-2.51490464373478	-5.50614687374544	2.51490464373478	-7.59590128458996	-8.438171573397007	-5.933875208501808	-11.448474308959106	-10.540707257128123	-5.933875208501808	1.484347906872591	-12.035241875109937	-4.439340590519988	-11.59283764082516	-2.77920914107366	2	missed	0.0
192.22776290006004	6.772687499877293	nogo_reward	1.0	192.25334069994278	194.6923303999938	197.20716600003652	2.4389897000510246	193.2557693000415	196.19724379992113	198.2208181000317	1.4365610999523142	1.0099222001153976	0.8052100997883826	n/a	1.0	n/a	1	0	90	3	nogo_reward	0	1	0	0	0	1	0	n/a	n/a	0	1.0	1.0	1036.4345029001124	1228.6878436000552	1229.690272200154	1231.1268333001062	1232.6317467000335	1233.641668900149	n/a	n/a	1234.655321000144	1235.4605310999325	2020-04-08 16:31:29.298864	5.12700834979878	0.0	11.9782929755447	11.9782929755447	6.85128462574587	11.9782929755447	-5.12700834979878	11.9782929755447	0.0	11.9782929755447	6.85128462574587	-11.9782929755447	-5.46013516480183	-4.186452257493558	8.559322410777671	3.0585694752064043	1.816724242363187	8.559322410777671	-13.00884971240689	2.457955744169544	7.918090908971321	2.900359978454322	1.4725101748297893	2	missed	0.0
199.0401119000744	6.548086300026625	nogo_reward	1.0	199.06568969995715	200.6235493000131	203.15935129998252	1.5578596000559628	200.076553999912	202.13447389984526	204.1675544998143	0.5469953001011163	1.0248774001372567	1.4462215001694858	n/a	1.0	n/a	1	0	91	3	nogo_reward	1	0	1	0	0	1	0	n/a	n/a	1	1.0	1.0	1036.4345029001124	1235.5001926000696	1236.5110569000244	1237.0580522001255	1238.5689767999577	1239.593854200095	n/a	n/a	1240.6020573999267	1242.0482789000962	2020-04-08 16:31:29.298864	3.21068972706494	0.0	7.70400217539017	7.70400217539017	4.49331244832523	7.70400217539017	-3.21068972706494	7.70400217539017	0.0	7.70400217539017	4.49331244832523	24.62949891764543	-7.37645378753567	-4.186452257493558	4.285031610623141	-1.2157213249481265	-0.5412479350574531	4.285031610623141	23.598942180783244	-1.816335055984987	5.560118731550681	-1.3739308217002089	1.4725101748297893	2	missed	0.0
205.62727609998547	6.6966226999647915	nogo_punish	1.0	205.6528538998682	207.42868039989844	209.95489479997195	1.7758265000302345	206.656319799833	208.93521319981664	210.95761739998125	0.7723606000654399	1.0196816001553088	1.3918591998517513	n/a	1.0	n/a	1	0	92	1	nogo_punish	1	-1	0	0	0	1	0	n/a	n/a	0	1.0	1.0	1036.4345029001124	1242.0873567999806	1243.0908226999454	1243.8631833000109	1245.369716099929	1246.3893977000844	n/a	n/a	1247.3921203000937	1248.7839794999454	2020-04-08 16:31:29.298864	3.49737290060979	-4.25171931590345	-1.53233706324704	-1.54280835431588	-5.02970996385683	-1.53233706324704	-3.49737290060979	-1.53233706324704	-4.25171931590345	-1.53233706324704	-5.02970996385683	1.53233706324704	-7.0897706139908205	-8.438171573397007	-4.951307628014069	-10.462531854654177	-10.064270347239514	-4.951307628014069	0.501780326384851	-11.052674294622197	-3.962903680631379	-10.610270060337418	-2.77920914107366	2	missed	0.0
212.36482020001836	6.423681300133694	nogo_reward	1.0	212.3903979999011	214.36770599987358	216.8847052999772	1.9773079999724814	213.4084747999441	215.87533399998188	217.8987344999332	0.9592311999294907	1.0093712999953368	0.9153448001015931	n/a	1.0	n/a	1	0	93	3	nogo_reward	0	1	0	0	0	1	1	n/a	n/a	0	1.0	1.0	1036.4345029001124	1248.8249009000135	1249.8429777000565	1250.802208899986	1252.3098369000943	1253.3192082000896	n/a	n/a	1254.3332374000456	1255.2485822001472	2020-04-08 16:31:29.298864	8.09976616022897	0.0	17.7033340224893	17.7033340224893	9.60356786226035	17.7033340224893	-8.09976616022897	17.7033340224893	0.0	17.7033340224893	9.60356786226035	-17.7033340224893	-2.48737735437164	-4.186452257493558	14.284363457722272	8.783610522151005	4.569007478877667	14.284363457722272	-18.73389075935149	8.182996791114144	10.670374145485802	8.625401025398922	1.4725101748297893	2	missed	0.0
218.82821119995788	7.569763900013868	nogo_punish	1.0	218.85378899984062	221.48633380001388	224.01107469992712	2.632544800173264	219.8702173999045	222.99127070000395	225.0244407998398	1.6161164001093766	1.0198039999231696	1.3991121000146904	n/a	1.0	n/a	1	0	94	1	nogo_punish	1	-1	0	0	0	1	1	n/a	n/a	0	1.0	1.0	1036.4345029001124	1255.288291899953	1256.304720300017	1257.9208367001263	1259.4257736001164	1260.4455776000395	n/a	n/a	1261.4589436999522	1262.858055799967	2020-04-08 16:31:29.298864	3.78188268164193	-4.25171931590345	-0.962123810860137	-0.970103245684177	-4.74400649250207	-0.962123810860137	-3.78188268164193	-0.962123810860137	-4.25171931590345	-0.962123810860137	-4.74400649250207	0.962123810860137	-6.80526083295868	-8.438171573397007	-4.381094375627166	-9.889826746022473	-9.778566875884753	-4.381094375627166	-0.06843292600205209	-10.482461042235293	-3.6772002092766187	-10.040056807950515	-2.77920914107366	2	missed	0.0
226.4356790999882	6.539069600170478	nogo_punish	1.0	226.46125689987093	228.12903359998018	230.65747069986537	1.6677767001092434	227.46859820000827	229.6336165999528	231.65745699987747	0.6604353999719024	1.023854099912569	1.3428695001639426	n/a	1.0	n/a	1	0	95	1	nogo_punish	0	0	-1	0	0	1	0	n/a	n/a	-1	1.0	1.0	1036.4345029001124	1262.8957597999834	1263.9031011001207	1264.5635365000926	1266.0681195000652	1267.0919735999778	n/a	n/a	1268.09195989999	1269.4348294001538	2020-04-08 16:31:29.298864	3.94776174033204	-4.25171931590345	-0.61990385061236	-0.626027905087342	-4.5676655909444	-0.61990385061236	-3.94776174033204	-0.61990385061236	-4.25171931590345	-0.61990385061236	-4.5676655909444	-10.53304059809434	-6.63938177426857	-8.438171573397007	-4.0388744153793885	-9.545751405425639	-9.602225974327084	-4.0388744153793885	-11.56359733495653	-10.140241081987517	-3.5008593077189487	-9.697836847702739	-2.77920914107366	2	missed	0.0
233.01165520003997	6.264637199928984	go_reward	0.4134068998973816	233.0372329999227	234.613507400034	237.15896030003205	1.5762744001112878	234.0511763999241	236.14439619984478	238.16776839992963	0.5623310001099071	1.0145641001872718	1.134101799922064	n/a	1.0	n/a	1	0	96	4	go_reward	1	1	0	1	1	1	0	n/a	n/a	1	0.4134068998973816	1.0	1036.4345029001124	1269.4717359000351	1270.4856793000365	1271.0480103001464	1272.5788990999572	1273.5934632001445	n/a	n/a	1274.602271300042	1275.736373099964	2020-04-08 16:31:29.298864	25.0170868803686	16.0997518731361	0.0	16.0158420277313	25.0170868803686	0.0	-25.0170868803686	16.0997518731361	0.0	25.0170868803686	0.0	16.2337492198995	14.429943365767988	11.913299615642542	-3.4189705647670285	7.096118527393003	19.982526496985916	-3.4189705647670285	15.203192483037311	15.496749648993442	1.0668062832254512	7.021818876045721	1.4725101748297893	2	missed	0.0
239.31307819997892	6.072693600086495	go_reward	0.7889340000692755	239.33865599986166	240.6345233998727	243.1838433998637	1.2958674000110477	240.3528915999923	242.16032089991495	244.19318369985558	0.2816317998804152	1.02352249994874	1.218165900092572	n/a	1.0	n/a	1	0	97	4	go_reward	1	1	0	1	1	1	0	n/a	n/a	1	0.7889340000692755	1.0	1036.4345029001124	1275.773158899974	1276.7873945001047	1277.0690262999851	1278.5948238000274	1279.618346299976	n/a	n/a	1280.627686599968	1281.8458525000606	2020-04-08 16:31:29.298864	34.9521754406789	22.6690449965394	0.0	22.6089690166764	34.9521754406789	0.0	-34.9521754406789	22.6690449965394	0.0	34.9521754406789	0.0	9.664456096496199	24.365031926078288	18.48259273904584	-3.4189705647670285	13.689245516338104	29.917615057296217	-3.4189705647670285	8.63389935963401	25.43183820930374	1.0668062832254512	13.591111999449023	1.4725101748297893	2	missed	0.0
245.42351220012642	6.0854077998083085	nogo_punish	1.0	245.44909000000916	246.8116381999571	249.32812329987064	1.3625481999479234	246.4618458999321	248.31599649996497	250.35627430002205	0.34979230002500117	1.0121267999056727	1.178223499795422	n/a	1.0	n/a	1	0	98	1	nogo_punish	1	-1	0	0	0	1	0	n/a	n/a	0	1.0	1.0	1036.4345029001124	1281.8835929001216	1282.8963488000445	1283.2461411000695	1284.7504994000774	1285.762626199983	n/a	n/a	1286.7907772001345	1287.96900069993	2020-04-08 16:31:29.298864	1.86989532857014	-4.25171931590345	-4.66022634427577	-4.66495802015285	-6.53012167284591	-4.66022634427577	-1.86989532857014	-4.66022634427577	-4.25171931590345	-4.66022634427577	-6.53012167284591	4.66022634427577	-8.71724818603047	-8.438171573397007	-8.0791969090428	-13.584681520491147	-11.564682056228593	-8.0791969090428	3.6296696074135815	-14.180563575650927	-5.463315389620458	-13.73815934136615	-2.77920914107366	2	missed	0.0
251.54526000004262	7.214359499979764	go_punish	0.4377711000852287	251.57083779992536	254.40640589990653	256.9449634999037	2.835568099981174	252.57547429995589	255.93076439993456	257.9542590000199	1.8309315999506452	1.0141990999691188	0.830938299885247	n/a	1.0	n/a	1	0	99	2	go_punish	0	-1	0	1	1	1	0	n/a	n/a	-1	0.4377711000852287	1.0	1036.4345029001124	1288.0053407000378	1289.0099772000683	1290.840908800019	1292.365267300047	1293.379466400016	n/a	n/a	1294.3887619001323	1295.2197002000175	2020-04-08 16:31:29.298864	7.99356952594808	-0.184216311467305	-8.26665665833101	-0.197949675629953	-0.273087132382934	-8.26665665833101	-7.99356952594808	-0.184216311467305	-8.26665665833101	-0.273087132382934	-8.26665665833101	-10.968728137239395	-2.5935739886525306	-4.370668568960863	-11.685627223098038	-9.11767317596825	-5.307647515765617	-11.685627223098038	-11.999284874101585	-9.79342436375809	-7.199850375105559	-9.262149308557683	-6.794146483501221	2	missed	0.0
258.80263800010994	6.572295599850122	nogo_reward	1.0	258.8282157999927	260.8204252999276	263.3474963000044	1.9922094999349156	259.8363536999095	262.3371720998548	264.36040609981865	0.9840716000180691	1.0103242001496255	1.0401053000241518	n/a	1.0	n/a	1	0	100	3	nogo_reward	0	1	0	0	0	1	0	n/a	n/a	0	1.0	1.0	1036.4345029001124	1295.262718700105	1296.270856600022	1297.25492820004	1298.7716749999672	1299.7819992001168	n/a	n/a	1300.794908999931	1301.8350142999552	2020-04-08 16:31:29.298864	4.72379776589639	0.0	10.7169335322127	10.7169335322127	5.99313576631632	10.7169335322127	-4.72379776589639	10.7169335322127	0.0	10.7169335322127	5.99313576631632	-10.7169335322127	-5.86334574870422	-4.186452257493558	7.297962967445671	1.7972100318744033	0.9585753829336374	7.297962967445671	-11.74749026907489	1.1965963008375429	7.059942049541771	1.639000535122321	1.4725101748297893	2	missed	0.0
265.41583029995695	7.269962900085147	nogo_punish	1.0	265.4414080998397	268.21357429982163	270.7458999999799	2.772166199981939	266.45784419984557	269.72637789999135	271.74350770004094	1.7557300999760628	1.019522099988535	0.9678632998839021	n/a	1.0	n/a	1	0	101	1	nogo_punish	1	-1	0	0	0	1	0	n/a	n/a	0	1.0	1.0	1036.4345029001124	1301.875910999952	1302.892347099958	1304.648077199934	1306.1608808001038	1307.1804029000923	n/a	n/a	1308.1780106001534	1309.1458739000373	2020-04-08 16:31:29.298864	2.87154925464788	-4.25171931590345	-2.77105165412797	-2.7747306688308	-5.64260090877585	-2.77105165412797	-2.87154925464788	-2.77105165412797	-4.25171931590345	-2.77105165412797	-5.64260090877585	2.77105165412797	-7.715594259952731	-8.438171573397007	-6.190022218894999	-11.694454169169097	-10.677161292158534	-6.190022218894999	1.7404949172657809	-12.291388885503126	-4.575794625550399	-11.848984651218348	-2.77920914107366	2	missed	0.0
272.7203206999693	6.708514600060653	nogo_punish	1.0	272.74589849985205	274.5208805999721	277.05033269990236	1.7749821001200417	273.76199439982884	276.037003000034	278.0494057999458	0.7588862001432517	1.0133296998683363	1.4050072999668828	n/a	1.0	n/a	1	0	102	1	nogo_punish	0	0	-1	0	0	1	0	n/a	n/a	-1	1.0	1.0	1036.4345029001124	1309.1804013999645	1310.1964972999413	1310.9553835000845	1312.4715059001464	1313.4848356000148	n/a	n/a	1314.4839087000582	1315.8889160000251	2020-04-08 16:31:29.298864	3.41686106913857	-4.25171931590345	-1.70638622453115	-1.70926385834173	-5.12324729366972	-1.70638622453115	-3.41686106913857	-1.70638622453115	-4.25171931590345	-1.70638622453115	-5.12324729366972	-9.44655822417555	-7.170282445462041	-8.438171573397007	-5.125356789298179	-10.628987358680027	-10.157807677052404	-5.125356789298179	-10.47711496103774	-11.226723455906306	-4.056441010444269	-10.784319221621528	-2.77920914107366	2	missed	0.0
279.46934140007943	6.929077599896118	nogo_reward	1.0	279.49491919996217	281.5348787000403	284.0610233999323	2.039959500078112	280.50618309993297	283.03987580002286	285.0710070999339	1.0286956001073122	1.0211475999094546	1.3529896999243647	n/a	1.0	n/a	1	0	103	3	nogo_reward	1	0	1	0	0	1	0	n/a	n/a	1	1.0	1.0	1036.4345029001124	1315.9294221000746	1316.9406860000454	1317.9693816001527	1319.4743787001353	1320.4955263000447	n/a	n/a	1321.5055100000463	1322.8584996999707	2020-04-08 16:31:29.298864	2.86299299390894	0.0	6.71406575653511	6.71406575653511	3.85107276262617	6.71406575653511	-2.86299299390894	6.71406575653511	0.0	6.71406575653511	3.85107276262617	25.61943533650049	-7.724150520691671	-4.186452257493558	3.2950951917680813	-2.2056577438031866	-1.1834876207565128	3.2950951917680813	24.588878599638303	-2.806271474840047	4.917879045851621	-2.363867240555269	1.4725101748297893	2	missed	0.0
286.44291580002755	7.267273999983445	go_punish	0.3403237999882549	286.4684935999103	289.23716339981206	291.7831788000185	2.7686697999017724	287.4721984998323	290.7680283999073	292.79801709996536	1.7649648999797591	1.0151504001112244	0.9377504999283701	n/a	1.0	n/a	1	0	104	2	go_punish	1	0	-1	1	1	1	0	n/a	n/a	0	0.3403237999882549	1.0	1036.4345029001124	1322.9029965000227	1323.9067013999447	1325.6716662999245	1327.2025313000197	1328.217681700131	n/a	n/a	1329.2325200000778	1330.1702705000062	2020-04-08 16:31:29.298864	1.75722233407728	-4.3794719326071	-8.26665665833101	-4.39014615843482	-6.50943432425373	-8.26665665833101	-1.75722233407728	-4.3794719326071	-8.26665665833101	-6.50943432425373	-8.26665665833101	4.3794719326071	-8.82992118052333	-8.565924190100658	-11.685627223098038	-13.309869658773117	-11.543994707636413	-11.685627223098038	3.348915195744911	-16.029771555628887	-7.199850375105559	-13.457404929697478	-6.794146483501221	2	missed	0.0
293.74508509994484	6.430590700125094	go_reward	0.4016661001369357	293.7706628998276	295.6229875998106	298.1677013998851	1.8523246999830008	294.7785739998799	297.14253139984794	299.1768318999091	0.8444135999307036	1.0251700000371784	1.0244217000436038	n/a	1.0	n/a	1	0	105	4	go_reward	1	1	0	1	1	1	0	n/a	n/a	1	0.4016661001369357	1.0	1036.4345029001124	1330.20516579994	1331.2130768999923	1332.057490499923	1333.5770342999604	1334.6022042999975	n/a	n/a	1335.6113348000215	1336.635756500065	2020-04-08 16:31:29.298864	40.6280917583188	26.375675164949	0.0	26.3322106010749	40.6280917583188	0.0	-40.6280917583188	26.375675164949	0.0	40.6280917583188	0.0	5.957825928086599	30.04094824371819	22.189222907455445	-3.4189705647670285	17.412487100736605	35.59353137493612	-3.4189705647670285	4.92726919122441	31.107754526943644	1.0668062832254512	17.297742167858623	1.4725101748297893	2	missed	0.0
300.2161511001177	6.1886201000306755	nogo_reward	1.0	300.24172890000045	301.96163309994154	304.48649409995414	1.7199041999410838	301.2417478999123	303.466710699955	305.4993370999582	0.7198852000292391	1.0197833999991417	0.9310119000729173	n/a	1.0	n/a	1	0	106	3	nogo_reward	0	1	0	0	0	1	0	n/a	n/a	0	1.0	1.0	1036.4345029001124	1336.6762318001129	1337.6762508000247	1338.396136000054	1339.9012136000674	1340.9209970000666	n/a	n/a	1341.9338400000706	1342.8648519001435	2020-04-08 16:31:29.298864	7.82922821449474	0.0	16.962346651059	16.962346651059	9.13311843656427	16.962346651059	-7.82922821449474	16.962346651059	0.0	16.962346651059	9.13311843656427	-16.962346651059	-2.7579153001058705	-4.186452257493558	13.543376086291971	8.042623150720704	4.098558053181588	13.543376086291971	-17.99290338792119	7.442009419683844	10.199924719789722	7.884413653968622	1.4725101748297893	2	missed	0.0
306.4465308000799	6.59440299984999	go_punish	0.526245899964124	306.47210859996267	308.13033529999666	310.6705503000412	1.6582267000339925	307.4742135000415	309.6614246999379	311.6754632999655	0.6561217999551445	1.0091256001032889	1.3910482998471707	n/a	1.0	n/a	1	0	107	2	go_punish	1	0	-1	1	1	1	0	n/a	n/a	0	0.526245899964124	1.0	1036.4345029001124	1342.906611500075	1343.908716400154	1344.564838200109	1346.0959276000503	1347.1050532001536	n/a	n/a	1348.109966200078	1349.501014499925	2020-04-08 16:31:29.298864	4.38825800743711	-2.58632036947463	-8.26665665833101	-2.59466704143449	-3.8783986508939	-8.26665665833101	-4.38825800743711	-2.58632036947463	-8.26665665833101	-3.8783986508939	-8.26665665833101	2.58632036947463	-6.1988855071635	-6.772772626968188	-11.685627223098038	-11.514390541772787	-8.912959034276582	-11.685627223098038	1.555763632612441	-13.398735882269056	-7.199850375105559	-11.66425336656501	-6.794146483501221	2	missed	0.0
313.07574800006114	6.833203600021079	nogo_punish	1.0	313.1013257999439	315.44038149993867	317.9649394999724	2.3390556999947876	314.1122876999434	316.954737899825	318.9720046999864	1.3280937999952585	1.0102016001474112	0.9625246999785304	n/a	1.0	n/a	1	0	108	1	nogo_punish	1	-1	0	0	0	1	0	n/a	n/a	0	1.0	1.0	1036.4345029001124	1349.5358287000563	1350.5467906000558	1351.874884400051	1353.3892407999374	1354.3994424000848	n/a	n/a	1355.4065076000988	1356.3690323000774	2020-04-08 16:31:29.298864	1.54909867288514	-4.25171931590345	-5.33400208620898	-5.33626562145678	-6.88310075909412	-5.33400208620898	-1.54909867288514	-5.33400208620898	-4.25171931590345	-5.33400208620898	-6.88310075909412	5.33400208620898	-9.03804484171547	-8.438171573397007	-8.752972650976009	-14.255989121795077	-11.917661142476803	-8.752972650976009	4.3034453493467915	-14.854339317584138	-5.816294475868668	-14.411935083299358	-2.77920914107366	2	missed	0.0
319.9460054000374	6.123408500105143	nogo_punish	1.0	319.97158319992013	321.31897859997116	323.8447296000086	1.3473954000510275	320.9853874999101	322.8248033998534	324.8578073999379	0.33359110006108494	1.0199262001551688	1.2371843000873923	n/a	1.0	n/a	1	0	109	1	nogo_punish	1	-1	0	0	0	1	0	n/a	n/a	0	1.0	1.0	1036.4345029001124	1356.4060861000326	1357.4198904000225	1357.7534815000836	1359.2593062999658	1360.279232500121	n/a	n/a	1361.2923103000503	1362.5294946001377	2020-04-08 16:31:29.298864	2.67170500686937	-4.25171931590345	-3.20050832051075	-3.20229834395721	-5.87221332738012	-3.20050832051075	-2.67170500686937	-3.20050832051075	-4.25171931590345	-3.20050832051075	-5.87221332738012	3.20050832051075	-7.91543850773124	-8.438171573397007	-6.619478885277779	-12.122021844295507	-10.906773710762803	-6.619478885277779	2.1699515836485608	-12.720845551885906	-4.805407044154668	-12.278441317601128	-2.77920914107366	2	missed	0.0
326.11141310003586	7.215443700086098	go_punish	0.3418638000730425	326.1369908999186	328.6518033000175	331.1985335999634	2.51481240009889	327.1352637000382	330.1820958999451	332.19349139998667	1.5165395999792963	1.0164377000182867	1.1589432000180295	n/a	1.0	n/a	1	0	110	2	go_punish	1	0	-1	1	1	1	0	n/a	n/a	0	0.3418638000730425	1.0	1036.4345029001124	1362.571493800031	1363.5697666001506	1365.08630620013	1366.6165988000575	1367.6330365000758	n/a	n/a	1368.627994300099	1369.7869375001171	2020-04-08 16:31:29.298864	5.87942207301471	-1.58254737842124	-8.26665665833101	-1.58911130928392	-2.3872345853163	-8.26665665833101	-5.87942207301471	-1.58254737842124	-8.26665665833101	-2.3872345853163	-8.26665665833101	1.58254737842124	-4.707721441585901	-5.768999635914798	-11.685627223098038	-10.508834809622217	-7.421794968698983	-11.685627223098038	0.551990641559051	-11.907571816691457	-7.199850375105559	-10.660480375511618	-6.794146483501221	2	missed	0.0
333.3633328001015	6.539644900010899	go_punish	0.4734738001134246	333.38891059998423	335.0841938999947	337.6253384000156	1.6952833000104874	334.4030807998495	336.61408159998246	338.6381657999009	0.6811131001452395	1.011256800033152	1.290389700094238	n/a	1.0	n/a	1	0	111	2	go_punish	1	0	-1	1	1	1	0	n/a	n/a	0	0.4734738001134246	1.0	1036.4345029001124	1369.8234135000966	1370.837583699962	1371.5186968001071	1373.0485845000949	1374.059841300128	n/a	n/a	1375.0726687000133	1376.3630584001075	2020-04-08 16:31:29.298864	6.75736117065209	-0.997856263528469	-8.26665665833101	-1.00304613805929	-1.50929548767892	-8.26665665833101	-6.75736117065209	-0.997856263528469	-8.26665665833101	-1.50929548767892	-8.26665665833101	0.997856263528469	-3.82978234394852	-5.184308521022027	-11.685627223098038	-9.922769638397586	-6.543855871061603	-11.685627223098038	-0.03270047333372006	-11.029632719054076	-7.199850375105559	-10.075789260618848	-6.794146483501221	2	missed	0.0
339.94329620013013	6.944905899930745	nogo_reward	1.0	339.9688740000129	342.41385429981165	344.94285879982635	2.4449802997987717	340.9791976998097	343.91872789990157	345.9515211000107	1.434656600001972	1.024130899924785	0.9622587999328971	n/a	1.0	n/a	1	0	112	3	nogo_reward	1	0	1	0	0	1	0	n/a	n/a	1	1.0	1.0	1036.4345029001124	1376.4033769001253	1377.413700599922	1378.848357199924	1380.353230800014	1381.3773616999388	n/a	n/a	1382.3860240001231	1383.348282800056	2020-04-08 16:31:29.298864	4.5217772564952	0.0	10.1730727518574	10.1730727518574	5.65129549536217	10.1730727518574	-4.5217772564952	10.1730727518574	0.0	10.1730727518574	5.65129549536217	22.1604283411782	-6.06536625810541	-4.186452257493558	6.754102187090372	1.2533492515191043	0.6167351119794873	6.754102187090372	21.129871604316012	0.6527355204822438	6.718101778587622	1.0951397547670219	1.4725101748297893	2	missed	0.0
346.92818340007193	6.804560600081686	go_punish	0.4183926000259816	346.95376119995467	349.4391787999775	351.9812719998879	2.4854176000228563	347.9702869998291	350.96954229986295	352.9993254998699	1.4688918001484126	1.0117297000249437	0.7589963001664728	n/a	1.0	n/a	1	0	113	2	go_punish	1	0	-1	1	1	1	1	n/a	n/a	0	0.4183926000259816	1.0	1036.4345029001124	1383.388264100067	1384.4047898999415	1385.87368170009	1387.4040451999754	1388.4157749000003	n/a	n/a	1389.4338283999823	1390.1928247001488	2020-04-08 16:31:29.298864	7.2912019655794	-0.645618780911893	-8.26665665833101	-0.649743280254358	-0.975454692751608	-8.26665665833101	-7.2912019655794	-0.645618780911893	-8.26665665833101	-0.975454692751608	-8.26665665833101	0.645618780911893	-3.2959415490212107	-4.832071038405451	-11.685627223098038	-9.569466780592654	-6.010015076134291	-11.685627223098038	-0.3849379559502961	-10.495791924126765	-7.199850375105559	-9.723551778002271	-6.794146483501221	2	missed	0.0
353.7738848000299	7.515158500056714	nogo_reward	1.0	353.79946259991266	356.56748289987445	359.09205179987475	2.7680202999617904	354.8020972998347	358.07261399994604	360.09575109998696	1.7653856000397354	1.0194377999287099	1.2188699999824166	n/a	1.0	n/a	1	0	114	3	nogo_reward	0	1	0	0	0	1	1	n/a	n/a	0	1.0	1.0	1036.4345029001124	1390.233965500025	1391.2366001999471	1393.0019857999869	1394.5071169000585	1395.5265546999872	n/a	n/a	1396.5302540000994	1397.7491240000818	2020-04-08 16:31:29.298864	8.75328175045367	0.0	18.9516290806418	18.9516290806418	10.1983473301881	18.9516290806418	-8.75328175045367	18.9516290806418	0.0	18.9516290806418	10.1983473301881	-18.9516290806418	-1.8338617641469401	-4.186452257493558	15.532658515874772	10.031905580303505	5.163786946805416	15.532658515874772	-19.98218581750399	9.431291849266644	11.26515361341355	9.873696083551422	1.4725101748297893	2	missed	0.0
361.3234908001032	5.771368899848312	nogo_punish	1.0	361.3490685999859	362.8372420000378	365.3499443999026	1.4881734000518918	362.3449446000159	364.34098330000415	366.35529759991914	0.49229740002192557	1.0089610998984426	0.7651398999150842	n/a	1.0	n/a	1	0	115	1	nogo_punish	1	-1	0	0	0	1	0	n/a	n/a	0	1.0	1.0	1036.4345029001124	1397.7835715000983	1398.7794475001283	1399.2717449001502	1400.7754862001166	1401.784447300015	n/a	n/a	1402.7898005000316	1403.5549403999466	2020-04-08 16:31:29.298864	3.28901696419186	-4.25171931590345	-1.98672037576504	-1.98814313756934	-5.27573733995689	-1.98672037576504	-3.28901696419186	-1.98672037576504	-4.25171931590345	-1.98672037576504	-5.27573733995689	1.98672037576504	-7.2981265504087505	-8.438171573397007	-5.405690940532068	-10.907866637907636	-10.310297723339573	-5.405690940532068	0.9561636389028509	-11.507057607140197	-4.208931056731439	-11.06465337285542	-2.77920914107366	2	missed	0.0
367.13255260000005	6.623699499992881	go_reward	0.3779490001033991	367.1581303998828	369.3286990998313	371.8633006999735	2.1705686999484897	368.1524304000195	370.851610600017	372.86672959988937	1.1762686998117715	1.0116900999564677	0.9151002999863067	n/a	1.0	n/a	1	0	116	4	go_reward	0	0	1	1	1	1	0	n/a	n/a	0	0.3779490001033991	1.0	1036.4345029001124	1403.5926332999952	1404.586933300132	1405.7632019999437	1407.2861135001294	1408.297803600086	n/a	n/a	1409.3012325000018	1410.216332799988	2020-04-08 16:31:29.298864	43.9949735865996	28.5514759661344	0.0	28.5197226573678	43.9949735865996	0.0	-43.9949735865996	28.5514759661344	0.0	43.9949735865996	0.0	-28.5514759661344	33.40783007199899	24.36502370864084	-3.4189705647670285	19.599999157029504	38.960413203216916	-3.4189705647670285	-29.58203270299659	34.47463635522444	1.0668062832254512	19.473542969044022	1.4725101748297893	2	missed	0.0
373.7952761000488	7.8586707001086324	go_reward	0.28376379981637	373.82085389993154	376.7920390998479	379.32676419988275	2.9711851999163628	374.83308639982715	378.3125662000384	380.3255708999932	1.9589527000207454	1.0141979998443276	1.3539537000469863	n/a	1.0	n/a	1	0	117	4	go_reward	1	1	0	1	1	1	0	n/a	n/a	1	0.28376379981637	1.0	1036.4345029001124	1410.255356800044	1411.2675892999396	1413.2265419999603	1414.7470691001508	1415.7612670999952	n/a	n/a	1416.7600738001056	1418.1140275001526	2020-04-08 16:31:29.298864	26.8269810163714	17.2378454736822	0.0	17.2144371414042	26.8269810163714	0.0	-26.8269810163714	17.2378454736822	0.0	26.8269810163714	0.0	15.095655619353401	16.239837501770786	13.051393216188641	-3.4189705647670285	8.294713641065904	21.792420632988716	-3.4189705647670285	14.065098882491212	17.30664378499624	1.0668062832254512	8.15991247659182	1.4725101748297893	2	missed	0.0
381.69064050004795	7.0778204000093865	nogo_punish	1.0	381.7162182999307	384.29386839992367	386.831685999874	2.5776500999929794	382.7215169998815	385.80843740003206	387.8315944999922	1.57235140004218	1.0232485998419634	0.9624441999478677	n/a	1.0	n/a	1	0	118	1	nogo_punish	0	0	-1	0	0	1	0	n/a	n/a	-1	1.0	1.0	1036.4345029001124	1418.150721200043	1419.156019899994	1420.728371300036	1422.2429403001445	1423.2661888999864	n/a	n/a	1424.2660974001046	1425.2285416000525	2020-04-08 16:31:29.298864	3.6430467013659	-4.25171931590345	-1.26915255951711	-1.27028887535367	-4.91219926088301	-1.26915255951711	-3.6430467013659	-1.26915255951711	-4.25171931590345	-1.26915255951711	-4.91219926088301	-9.88379188918959	-6.94409681323471	-8.438171573397007	-4.688123124284139	-10.190012375691966	-9.946759644265693	-4.688123124284139	-10.91434862605178	-10.789489790892267	-3.8453929776575584	-10.347085556607489	-2.77920914107366	2	missed	0.0
388.8086912999861	5.894275299971923	go_reward	0.4695531001780182	388.83426909986883	390.2732424000278	392.832264599856	1.4389733001589775	389.8358875999693	391.8178113999311	393.83002440002747	0.4373548000585288	1.0144531999249011	0.8985199998132885	n/a	1.0	n/a	1	0	119	4	go_reward	1	1	0	1	1	1	1	n/a	n/a	1	0.4695531001780182	1.0	1036.4345029001124	1425.2687719999813	1426.2703905000817	1426.7077453001402	1428.2523143000435	1429.2667674999684	n/a	n/a	1430.26452730014	1431.1630472999532	2020-04-08 16:31:29.298864	36.097457557268	23.3819810840488	0.0	23.3645783013177	36.097457557268	0.0	-36.097457557268	23.3819810840488	0.0	36.097457557268	0.0	8.951520008986801	25.51031404266739	19.19552882655524	-3.4189705647670285	14.444854800979403	31.062897173885318	-3.4189705647670285	7.920963272124612	26.577120325892842	1.0668062832254512	14.30404808695842	1.4725101748297893	2	missed	0.0
394.7392305000685	7.351885800017044	go_reward	0.3427426998969167	394.76480829995126	397.3058630998712	399.8565899999812	2.541054799919948	395.7701556000393	398.83781880000606	400.86592300003394	1.535707499831915	1.0187711999751627	1.2507710999343544	n/a	1.0	n/a	1	0	120	4	go_reward	1	1	0	1	1	1	0	n/a	n/a	1	0.3427426998969167	1.0	1036.4345029001124	1431.1993112000637	1432.2046585001517	1433.7403659999836	1435.2723217001185	1436.2910929000936	n/a	n/a	1437.3004259001464	1438.5511970000807	2020-04-08 16:31:29.298864	41.3710245644479	26.8340763829487	0.0	26.8210357613488	41.3710245644479	0.0	-41.3710245644479	26.8340763829487	0.0	41.3710245644479	0.0	5.499424710086899	30.783881049847288	22.647624125455145	-3.4189705647670285	17.901312261010503	36.33646418106522	-3.4189705647670285	4.46886797322471	31.85068733307274	1.0668062832254512	17.756143385858323	1.4725101748297893	2	missed	0.0
