onset	duration	trial_type	response_time	cueOnset	targetOnset	fbOnset	cueRT	firstfixOnset	secondfixOnset	waitOnset	firstfixdur	secondfixdur	waitdur	nback_fbOnset	nback_response_time	nback_targetOnset	block	wm	trial	cue	cond	is_common	outcome_go	outcome_nogo	key_correct	key_pressed	is_correct	key_correct_nback	key_pressed_nback	is_correct_nback	outcome	rt	rt_nback	time_scan	time_onset	time_isi1	time_circle	time_isi2	time_feedback	time_same	time_correct	time_iti	time_done	timestamp_scan	DV	Qgo	Qnogo	SV	Wgo	Wnogo	mDV	Qchosen	Qunchosen	Wchosen	Wunchosen	PE	DVC	QgoC	QnogoC	SVC	WgoC	WnogoC	PEC	WchosenC	WunchosenC	QchosenC	QunchosenC	run	outcome_nback	nback_targetResp
0.0	8.307303899898898	go_punish	0.7310786000452936	0.0367149000524023	1.548436899902299	4.10004199994728	1.5117219998498967	1.0471800998782328	3.077699000015855	7.132175700040534	0.5012568000240663	1.0223429999314249	1.2118430999107659	6.122772099915892	1.0	5.113491999916732	2	1	1	2	go_punish	1	0	-1	1	1	1	0	n/a	0.0	-1	0.7310786000452936	1.0	1517.880955700064	1517.9176706001165	1518.9281357999423	1519.4293925999664	1520.95865470008	1521.9809977000114	1522.9944476999808	1524.00372779998	1525.0131314001046	1526.2249745000154	2020-04-08 16:39:30.755791	0.0236211513564241	0.0	0.0	0.0	0.0236211513564241	0.0	-0.0236211513564241	0.0	0.0	0.0236211513564241	0.0	0.0	-10.563522363244186	-4.186452257493558	-3.4189705647670285	-8.919723500338296	-5.010939232026259	-3.4189705647670285	-1.030556736862189	-9.496716080018732	1.0668062832254512	-9.077932997090379	1.4725101748297893	3	missed	0.0
8.336216900032014	8.58100139978319	nogo_punish	0.3583156999666244	8.372931800084416	10.352043499937281	12.895995399914682	1.979111699852865	9.377221599919721	11.875975999981165	15.960556099890027	0.9748219000175595	1.020019399933517	0.9933770999775788	14.944893999956548	0.8016714998520911	13.912798899924383	2	1	2	1	nogo_punish	0	0	-1	0	1	0	0	0.0	1.0	0	0.3583156999666244	0.8016714998520911	1517.880955700064	1526.2538875001485	1527.2581772999838	1528.2329992000014	1529.7569317000452	1530.7769510999788	1531.7937545999885	1532.8258497000206	1533.841511799954	1534.8348888999317	2020-04-08 16:39:30.755791	0.0236211513564241	0.0	0.0	0.0	0.0236211513564241	0.0	-0.0236211513564241	0.0	0.0	0.0236211513564241	0.0	0.0	-10.563522363244186	-4.186452257493558	-3.4189705647670285	-8.919723500338296	-5.010939232026259	-3.4189705647670285	-1.030556736862189	-9.496716080018732	1.0668062832254512	-9.077932997090379	1.4725101748297893	3	correct	1.0
16.942636199994013	8.981516399886232	nogo_punish	1.0	16.979351100046415	18.983008600072935	21.512965099885832	2.00365750002652	17.982409100048244	20.493717399891466	24.554038899950683	1.0005995000246912	1.0192476999943665	1.4068285999819636	23.551462499890476	0.3896929000038653	22.523763600038365	2	1	3	1	nogo_punish	1	-1	0	0	0	1	0	0.0	1.0	0	1.0	0.3896929000038653	1517.880955700064	1534.8603068001105	1535.8633648001123	1536.863964300137	1538.3746730999555	1539.39392079995	1540.4047193001024	1541.4324181999546	1542.4349946000148	1543.8418231999967	2020-04-08 16:39:30.755791	-0.0236211513564241	0.0	0.0	0.0	0.0236211513564241	0.0	0.0236211513564241	0.0	0.0	0.0	0.0236211513564241	0.0	-10.610764665957035	-4.186452257493558	-3.4189705647670285	-8.919723500338296	-5.010939232026259	-3.4189705647670285	-1.030556736862189	-9.520337231375157	1.0904274345818754	-9.077932997090379	1.4725101748297893	3	correct	1.0
25.9762557998763	8.381071500014514	nogo_reward	1.0	26.0129706999287	27.746671499917284	30.257986899930984	1.7337007999885827	27.020736099919304	29.254133800044656	33.29138120007701	0.7259353999979794	1.003853099886328	1.1026609998662025	32.284102299949154	0.789836100069806	31.263560299994424	2	1	4	3	nogo_reward	1	0	1	0	0	1	0	0.0	1.0	1	1.0	0.789836100069806	1517.880955700064	1543.8939263999928	1544.9016917999834	1545.6276271999814	1547.1350895001087	1548.138942599995	1549.1445160000585	1550.1650580000132	1551.172336900141	1552.2749979000073	2020-04-08 16:39:30.755791	-0.0236211513564241	0.0	0.0	0.0	0.0236211513564241	0.0	0.0236211513564241	0.0	0.0	0.0	0.0236211513564241	32.3335010930356	-10.610764665957035	-4.186452257493558	-3.4189705647670285	-8.919723500338296	-5.010939232026259	-3.4189705647670285	31.302944356173413	-9.520337231375157	1.0904274345818754	-9.077932997090379	1.4725101748297893	3	correct	1.0
34.38315290003061	8.973785199923213	go_reward	0.320419100113213	34.41986780008301	36.87185389990918	39.42583379987627	2.451986099826172	35.43556230003014	38.405122299911454	42.47289690002799	1.4362915998790413	1.0207114999648184	0.9207560999782345	41.46949930000119	0.4156331000849604	40.440745800035074	2	1	5	4	go_reward	0	0	1	1	1	1	0	0.0	1.0	0	0.320419100113213	0.4156331000849604	1517.880955700064	1552.300823500147	1553.3165180000942	1554.7528095999733	1556.2860779999755	1557.3067894999404	1558.3217015000992	1559.3504550000653	1560.353852600092	1561.2746087000703	2020-04-08 16:39:30.755791	0.0236211513564241	0.0	0.0	0.0	0.0236211513564241	0.0	-0.0236211513564241	0.0	0.0	0.0236211513564241	0.0	0.0	-10.563522363244186	-4.186452257493558	-3.4189705647670285	-8.919723500338296	-5.010939232026259	-3.4189705647670285	-1.030556736862189	-9.496716080018732	1.0668062832254512	-9.077932997090379	1.4725101748297893	3	correct	1.0
43.38385199988238	9.527678899932653	nogo_punish	1.0	43.420566899934784	45.90452679991722	48.43951529986225	2.4839598999824375	44.43000359996222	47.41941550001502	51.49512650002703	1.4745231999550015	1.0200997998472303	1.4531192998404094	50.48181589995511	0.4469763000961393	49.45738969999343	2	1	6	1	nogo_punish	1	-1	0	0	0	1	0	0.0	1.0	0	1.0	0.4469763000961393	1517.880955700064	1561.3015225999989	1562.3109593000263	1563.7854824999813	1565.300371200079	1566.3204709999263	1567.3383454000575	1568.3627716000192	1569.376082200091	1570.8292014999315	2020-04-08 16:39:30.755791	-0.0236211513564241	0.0	0.0	0.0	0.0236211513564241	0.0	0.0236211513564241	0.0	0.0	0.0	0.0236211513564241	0.0	-10.610764665957035	-4.186452257493558	-3.4189705647670285	-8.919723500338296	-5.010939232026259	-3.4189705647670285	-1.030556736862189	-9.520337231375157	1.0904274345818754	-9.077932997090379	1.4725101748297893	3	correct	1.0
52.94057209999278	9.049248199909925	go_reward	1.0	52.97728700004518	55.51575229992159	58.04244880005717	2.538465299876407	53.978255399968475	57.02272089989856	61.1113598998636	1.537496899953112	1.019727900158614	0.915175300091505	60.092373999999836	0.4267631000839174	59.06469439994544	2	1	7	4	go_reward	1	1	0	1	0	0	1	1.0	1.0	0	1.0	0.4267631000839174	1517.880955700064	1570.8582427001093	1571.8592111000326	1573.3967079999857	1574.9036765999626	1575.9234045001213	1576.9456501000095	1577.973329700064	1578.9923155999277	1579.9074909000192	2020-04-08 16:39:30.755791	-0.0236211513564241	0.0	0.0	0.0	0.0236211513564241	0.0	0.0236211513564241	0.0	0.0	0.0	0.0236211513564241	0.0	-10.610764665957035	-4.186452257493558	-3.4189705647670285	-8.919723500338296	-5.010939232026259	-3.4189705647670285	-1.030556736862189	-9.520337231375157	1.0904274345818754	-9.077932997090379	1.4725101748297893	3	correct	1.0
62.017323900013935	8.76650089980103	nogo_punish	0.5304026000667363	62.05403880006634	63.990939599927515	66.54943839996122	1.9369007998611778	63.067587200086564	65.52599869994424	69.59680030005984	0.923352399840951	1.0234397000169793	1.2237393998075277	68.59241249994375	0.5656733999494463	67.56362530007027	2	1	8	1	nogo_punish	1	-1	0	0	1	0	1	1.0	1.0	-1	0.5304026000667363	0.5656733999494463	1517.880955700064	1579.9349945001304	1580.9485429001506	1581.8718952999916	1583.4069544000083	1584.4303941000253	1585.4445810001343	1586.4733682000078	1587.477756000124	1588.7014953999314	2020-04-08 16:39:30.755791	0.0236211513564241	0.0	0.0	0.0	0.0236211513564241	0.0	-0.0236211513564241	0.0	0.0	0.0236211513564241	0.0	-11.1529444487067	-10.563522363244186	-4.186452257493558	-3.4189705647670285	-8.919723500338296	-5.010939232026259	-3.4189705647670285	-12.18350118556889	-9.496716080018732	1.0668062832254512	-9.077932997090379	1.4725101748297893	3	correct	1.0
70.82700869999803	7.750560599844903	nogo_reward	1.0	70.86372360005043	72.26714839995839	74.79846700001508	1.4034247999079525	71.8715530000627	73.7838483999949	77.83819220005535	0.39559539989568293	1.0146186000201851	0.7760919998399913	76.83381049986929	0.825692999875173	75.81160790007561	2	1	9	3	nogo_reward	1	0	1	0	0	1	0	0.0	1.0	1	1.0	0.825692999875173	1517.880955700064	1588.7446793001145	1589.7525087001268	1590.1481041000225	1591.664804100059	1592.6794227000792	1593.6925636001397	1594.7147661999334	1595.7191479001194	1596.4952398999594	2020-04-08 16:39:30.755791	13.7207414685048	0.0	10.4877821035672	10.4877821035672	-3.23295936493768	10.4877821035672	-13.7207414685048	10.4877821035672	0.0	10.4877821035672	-3.23295936493768	21.845718989468402	3.1335979539041894	-4.186452257493558	7.068811538800172	1.568058603228904	-8.267519748320364	7.068811538800172	20.815162252606214	0.9674448721920434	-2.166153081712229	1.4098491064768215	1.4725101748297893	3	correct	1.0
78.60018089995697	8.759702200070251	go_reward	0.7462611999362707	78.63689580000937	80.30095899989828	82.85401979996823	1.6640631998889148	79.63863780000224	81.833426400088	85.90341429994442	0.6623211998960414	1.0205933998802266	1.493183700135205	84.89011589996517	0.3303584000095725	83.87112029991113	2	1	10	4	go_reward	0	0	1	1	1	1	0	0.0	1.0	0	0.7462611999362707	0.3303584000095725	1517.880955700064	1596.5178515000734	1597.5195935000663	1598.1819146999624	1599.714382100152	1600.7349755000323	1601.7520759999752	1602.7710716000292	1603.7843700000085	1605.2775537001437	2020-04-08 16:39:30.755791	0.0236211513564241	0.0	0.0	0.0	0.0236211513564241	0.0	-0.0236211513564241	0.0	0.0	0.0236211513564241	0.0	0.0	-10.563522363244186	-4.186452257493558	-3.4189705647670285	-8.919723500338296	-5.010939232026259	-3.4189705647670285	-1.030556736862189	-9.496716080018732	1.0668062832254512	-9.077932997090379	1.4725101748297893	3	correct	1.0
87.40308009996056	8.347427600063384	go_punish	0.4630498001351952	87.43979500001296	88.80731260008201	91.36256300006062	1.3675176000690499	88.44751490000635	90.33526359987422	94.41345979995094	0.35979770007566003	1.0272994001863935	1.3737628001254052	93.4026881000027	0.859253800008446	92.37703950004652	2	1	11	2	go_punish	0	-1	0	1	1	1	0	0.0	1.0	-1	0.4630498001351952	0.859253800008446	1517.880955700064	1605.320750700077	1606.3284706000704	1606.688268300146	1608.2162192999383	1609.2435187001247	1610.2579952001106	1611.2836438000668	1612.294415500015	1613.6681783001404	2020-04-08 16:39:30.755791	-2.37724518462724	-3.50942812303233	0.0	-3.50942812303233	-2.37724518462724	0.0	2.37724518462724	-3.50942812303233	0.0	-2.37724518462724	0.0	-7.64351632567437	-12.96438869922785	-7.695880380525888	-3.4189705647670285	-12.429151623370625	-7.411805568009923	-3.4189705647670285	-8.674073062536559	-11.897582416002397	1.0668062832254512	-12.587361120122708	1.4725101748297893	3	correct	1.0
95.79208970000013	9.097499399911612	go_punish	1.0	95.82880460005254	97.884867799934	100.40354139986448	2.0560631998814642	96.83817639993504	99.400191199966	103.45977650000714	1.0466913999989629	1.0033501998984775	1.4665274999570101	102.44749759999104	0.484489900059998	101.4209344999399	2	1	12	2	go_punish	1	0	-1	1	0	0	0	0.0	1.0	-1	1.0	0.484489900059998	1517.880955700064	1613.7097603001166	1614.7191320999991	1615.765823499998	1617.28114690003	1618.2844970999286	1619.301890200004	1620.3284533000551	1621.3407322000712	1622.8072597000282	2020-04-08 16:39:30.755791	3.985785750847	-5.86348671881663	0.0	-5.86348671881663	-3.985785750847	0.0	-3.985785750847	0.0	-5.86348671881663	0.0	-3.985785750847	-11.1529444487067	-6.60135776375361	-10.049938976310187	-3.4189705647670285	-14.783210219154928	-9.020346134229683	-3.4189705647670285	-12.18350118556889	-9.520337231375157	-2.918979467621549	-9.077932997090379	-4.390976543986841	3	correct	1.0
104.93383859982691	8.405608000000939	go_punish	0.4611505998764187	104.97055349987932	106.44617530005053	108.98474980005994	1.4756218001712114	105.97722729993984	107.97270209994144	112.02361589996144	0.4689480001106858	1.0120477001185009	1.3525455999188125	111.01061500003561	0.3838601999450475	109.99165600002743	2	1	13	2	go_punish	1	0	-1	1	1	1	1	1.0	1.0	0	0.4611505998764187	0.3838601999450475	1517.880955700064	1622.8515091999434	1623.858183000004	1624.3271310001146	1625.8536578000055	1626.865705500124	1627.8726117000915	1628.8915707000997	1629.9045716000255	1631.2571171999443	2020-04-08 16:39:30.755791	0.0304694496482589	-5.86348671881663	-3.50942812303233	-7.45937508369045	-3.47895867338407	-3.50942812303233	-0.0304694496482589	-5.86348671881663	-3.50942812303233	-3.47895867338407	-3.50942812303233	5.86348671881663	-10.556674064952352	-10.049938976310187	-6.928398687799358	-16.379098584028746	-8.513519056766754	-6.928398687799358	4.832929981954441	-12.999295904759226	-2.4426218398068786	-14.94141971590701	-2.0369179482025404	3	correct	1.0
113.36269510001853	8.339708199957386	go_reward	1.0	113.39941000007093	114.74332290003076	117.28043709998042	1.3439128999598324	114.41149859991856	116.26035579992481	120.32279010000639	0.33182430011220276	1.0200813000556082	1.4163281000219285	119.32008139998652	0.4236081000417471	118.29178710002452	2	1	14	4	go_reward	1	1	0	1	0	0	0	0.0	1.0	0	1.0	0.4236081000417471	1517.880955700064	1631.280365700135	1632.2924542999826	1632.6242786000948	1634.141311499989	1635.1613928000445	1636.1727428000886	1637.2010371000506	1638.2037458000705	1639.6200739000924	2020-04-08 16:39:30.755791	-0.0236211513564241	0.0	0.0	0.0	0.0236211513564241	0.0	0.0236211513564241	0.0	0.0	0.0	0.0236211513564241	0.0	-10.610764665957035	-4.186452257493558	-3.4189705647670285	-8.919723500338296	-5.010939232026259	-3.4189705647670285	-1.030556736862189	-9.520337231375157	1.0904274345818754	-9.077932997090379	1.4725101748297893	3	correct	1.0
121.72540339990496	9.27554940013215	go_reward	0.2825561000499874	121.76211829995736	124.06186929997057	126.60648299986497	2.2997510000132024	122.77429069997743	125.58287040004507	129.6455469999928	1.2875785999931395	1.0236125998198986	1.3921207000967115	128.62507559987716	1.0	127.61392869986594	2	1	15	4	go_reward	1	1	0	1	1	1	0	n/a	0.0	0	0.2825561000499874	1.0	1517.880955700064	1639.6430740000214	1640.6552464000415	1641.9428250000346	1643.4638261001091	1644.487438699929	1645.49488439993	1646.5060312999412	1647.5265027000569	1648.9186234001536	2020-04-08 16:39:30.755791	0.0236211513564241	0.0	0.0	0.0	0.0236211513564241	0.0	-0.0236211513564241	0.0	0.0	0.0236211513564241	0.0	32.3335010930356	-10.563522363244186	-4.186452257493558	-3.4189705647670285	-8.919723500338296	-5.010939232026259	-3.4189705647670285	31.302944356173413	-9.496716080018732	1.0668062832254512	-9.077932997090379	1.4725101748297893	3	missed	0.0
131.04572910000547	8.5760437999852	nogo_reward	0.6373276999220252	131.08244400005788	132.65201979992003	135.20784040004946	1.5695757998621502	132.08889089990407	134.1821969000157	138.23830779991113	0.5631289000159541	1.025643500033766	1.4201800001319498	137.23845810000785	0.52081110002473	136.22169420006685	2	1	16	3	nogo_reward	0	1	0	0	1	0	0	1.0	0.0	1	0.6373276999220252	0.52081110002473	1517.880955700064	1648.963399700122	1649.9698465999682	1650.532975499984	1652.0631526000798	1653.0887961001135	1654.102649900131	1655.119413800072	1656.1192634999752	1657.5394435001072	2020-04-08 16:39:30.755791	-22.8126332167284	0.0	17.4182729106142	17.4182729106142	-5.39436030611419	17.4182729106142	22.8126332167284	0.0	17.4182729106142	-5.39436030611419	17.4182729106142	32.3335010930356	-33.39977673132901	-4.186452257493558	13.99930234584717	8.498549410275903	-10.428920689496874	13.99930234584717	31.302944356173413	-14.914697537489346	18.48507919383965	-9.077932997090379	18.89078308544399	3	wrong	1.0
139.66138860001183	8.990407399833202	go_punish	1.0	139.69810350006424	142.13653080002382	144.6788703999482	2.438427299959585	140.70811840007082	143.6514689999167	147.72642709990032	1.4284123999530038	1.027401400031522	0.9620837999971172	146.71688929991797	0.8094692998565733	145.69496589992195	2	1	17	2	go_punish	1	0	-1	1	0	0	0	0.0	1.0	-1	1.0	0.8094692998565733	1517.880955700064	1657.5790592001283	1658.589074100135	1660.017486500088	1661.5324246999808	1662.5598261000123	1663.575921599986	1664.597844999982	1665.6073827999644	1666.5694665999615	2020-04-08 16:39:30.755791	-1.18348224938844	-3.94994696065812	-3.50942812303233	-5.04256162802886	-2.32594587364389	-3.50942812303233	1.18348224938844	-3.50942812303233	-3.94994696065812	-3.50942812303233	-2.32594587364389	-7.64351632567437	-11.77062576398905	-8.136399218151677	-6.928398687799358	-13.962285128367157	-7.360506257026573	-6.928398687799358	-8.674073062536559	-13.029765354407488	-1.2591395904184388	-12.587361120122708	-2.4774367858283304	3	correct	1.0
148.67483659996628	8.89895679987967	go_reward	0.3960665999911725	148.7115515000187	150.54038859996945	153.09659380000085	1.8288370999507606	149.72135549993254	152.07218530005775	156.14286080002785	0.8190331000369042	1.0244084999430925	1.467647499870509	155.12947380007222	0.6826311000622809	154.11073890002422	2	1	18	4	go_reward	1	1	0	1	1	1	0	0.0	1.0	1	0.3960665999911725	0.6826311000622809	1517.880955700064	1666.5925072000828	1667.6023111999966	1668.4213443000335	1669.9531410001218	1670.977549500065	1671.9916946000883	1673.0104295001363	1674.023816500092	1675.4914639999624	2020-04-08 16:39:30.755791	0.0236211513564241	0.0	0.0	0.0	0.0236211513564241	0.0	-0.0236211513564241	0.0	0.0	0.0236211513564241	0.0	32.3335010930356	-10.563522363244186	-4.186452257493558	-3.4189705647670285	-8.919723500338296	-5.010939232026259	-3.4189705647670285	31.302944356173413	-9.496716080018732	1.0668062832254512	-9.077932997090379	1.4725101748297893	3	correct	1.0
157.59838570002444	8.445238399785012	nogo_punish	1.0	157.63510060007684	159.49153769994155	162.02047230000608	1.8564370998647064	158.645943899872	160.9997854998801	165.0710728999693	0.8455938000695369	1.0206868001259863	1.0092660998925567	164.06602120003663	0.4059582999907434	163.03746720007643	2	1	19	1	nogo_punish	1	-1	0	0	0	1	0	0.0	1.0	0	1.0	0.4059582999907434	1517.880955700064	1675.516056300141	1676.526899599936	1677.3724934000056	1678.8807411999442	1679.9014280000702	1680.9184229001405	1681.9469769001007	1682.9520286000334	1683.961294699926	2020-04-08 16:39:30.755791	2.37724518462724	-3.50942812303233	0.0	-3.50942812303233	-2.37724518462724	0.0	-2.37724518462724	0.0	-3.50942812303233	0.0	-2.37724518462724	0.0	-8.20989832997337	-7.695880380525888	-3.4189705647670285	-12.429151623370625	-7.411805568009923	-3.4189705647670285	-1.030556736862189	-9.520337231375157	-1.3104389014017888	-9.077932997090379	-2.0369179482025404	3	correct	1.0
166.08617639983981	9.431570300133899	go_punish	0.3579500000923872	166.12289129989222	168.64728450006783	171.19800579990283	2.5243932001756093	167.13148409989662	170.18333519995213	174.24247940001078	1.5158004001712015	1.0146705999507049	1.3119822000153363	173.22931599989533	0.5869177000131458	172.210444400087	2	1	20	2	go_punish	0	-1	0	1	1	1	0	0.0	1.0	-1	0.3579500000923872	0.5869177000131458	1517.880955700064	1684.0038469999563	1685.0124397999607	1686.528240200132	1688.0642909000162	1689.078961499967	1690.091400100151	1691.1102716999594	1692.1234351000749	1693.4354173000902	2020-04-08 16:39:30.755791	4.14182014938266	-3.94994696065812	-5.86348671881663	-6.95288538057425	-1.72166656943397	-5.86348671881663	-4.14182014938266	-3.94994696065812	-5.86348671881663	-1.72166656943397	-5.86348671881663	-7.20299748804858	-6.44532336521795	-8.136399218151677	-9.282457283583659	-15.872608880912546	-6.756226952816653	-9.282457283583659	-8.233554224910769	-11.242003800809126	-4.796680435591179	-13.0278799577485	-4.390976543986841	3	correct	1.0
175.5607803999444	8.974212399916723	nogo_reward	0.3482554999645799	175.5974952999968	178.22012529987842	180.76926849992014	2.6226299998816103	176.60542719997466	179.75564039987512	183.8127707000824	1.6146980999037623	1.0136281000450253	0.7589369998311213	182.81425269995816	0.7451690000016242	181.78731329995207	2	1	21	3	nogo_reward	1	0	1	0	1	0	0	0.0	1.0	0	0.3482554999645799	0.7451690000016242	1517.880955700064	1693.4784510000609	1694.4863829000387	1696.1010809999425	1697.6365960999392	1698.6502241999842	1699.6682690000162	1700.6952084000222	1701.6937264001465	1702.4526633999776	2020-04-08 16:39:30.755791	-13.7762114075707	10.4877821035672	17.4182729106142	22.0503698886973	3.64206150304347	17.4182729106142	13.7762114075707	10.4877821035672	17.4182729106142	3.64206150304347	17.4182729106142	-10.4877821035672	-24.36335492217131	6.301329846073642	13.99930234584717	13.130646388359004	-1.3924988803392129	13.99930234584717	-11.51833884042939	-5.878275728331687	18.48507919383965	1.4098491064768215	18.89078308544399	3	correct	1.0
184.55981220002263	8.13117039995268	nogo_punish	1.0	184.59652710007504	185.97236349992454	188.49997889995575	1.3758363998495042	185.6137123000808	187.48003789992072	191.56181390001439	0.3586511998437345	1.0199410000350326	1.1658836000133306	190.54768449999392	0.7068805999588221	189.5095363999717	2	1	22	1	nogo_punish	1	-1	0	0	0	1	0	0.0	1.0	0	1.0	0.7068805999588221	1517.880955700064	1702.4774828001391	1703.4946680001449	1703.8533191999886	1705.3609935999848	1706.3809346000198	1707.3904921000358	1708.428640200058	1709.4427696000785	1710.6086532000918	2020-04-08 16:39:30.755791	2.74028894211136	-3.50942812303233	0.0	-2.3540585957843	-2.74028894211136	0.0	-2.74028894211136	0.0	-3.50942812303233	0.0	-2.74028894211136	0.0	-7.84685457248925	-7.695880380525888	-3.4189705647670285	-11.273782096122597	-7.774849325494043	-3.4189705647670285	-1.030556736862189	-9.520337231375157	-1.6734826588859089	-9.077932997090379	-2.0369179482025404	3	correct	1.0
192.71657349984162	9.604048100067075	nogo_punish	0.3666974999941885	192.75328839989402	195.53390570008196	198.0769942998886	2.7806173001879415	193.76292370003648	197.0656407000497	201.1295723998919	1.7709820000454783	1.0113535998389125	1.2277641000691801	200.12557490007043	0.5142254000529647	199.09227210003883	2	1	23	1	nogo_punish	1	-1	0	0	1	0	0	0.0	1.0	-1	0.3666974999941885	0.5142254000529647	1517.880955700064	1710.634244099958	1711.6438794001006	1713.414861400146	1714.9465964001138	1715.9579499999527	1716.973227800103	1718.0065306001345	1719.010528099956	1720.2382922000252	2020-04-08 16:39:30.755791	-2.97897989421298	-3.50942812303233	0.0	-1.59588836487382	-2.97897989421298	0.0	2.97897989421298	-3.50942812303233	0.0	-2.97897989421298	0.0	-7.64351632567437	-13.56612340881359	-7.695880380525888	-3.4189705647670285	-10.515611865212117	-8.013540277595663	-3.4189705647670285	-8.674073062536559	-12.499317125588137	1.0668062832254512	-12.587361120122708	1.4725101748297893	3	correct	1.0
202.3644963998811	9.7474861999508	nogo_reward	1.0	202.4012112999335	205.2425229998771	207.76122139999643	2.841311699943617	203.40826960001164	206.74700669990852	210.79643810004927	1.8342533998654744	1.014214700087905	1.3522593998350203	209.79088229988702	0.8223520000465214	208.7650999999605	2	1	24	3	nogo_reward	1	0	1	0	0	1	0	0.0	1.0	1	1.0	0.8223520000465214	1517.880955700064	1720.2821669999976	1721.2892253000757	1723.1234786999412	1724.6279623999726	1725.6421771000605	1726.6460557000246	1727.671837999951	1728.6773938001134	1730.0296531999484	2020-04-08 16:39:30.755791	15.062067031895	6.93049080704703	17.4182729106142	14.6914410013929	2.35620587871917	17.4182729106142	-15.062067031895	17.4182729106142	6.93049080704703	17.4182729106142	2.35620587871917	14.915228182421401	4.474923517294389	2.744038549553472	13.99930234584717	5.771717501054603	-2.678354504663513	13.99930234584717	13.884671445559212	7.897935679239042	3.423012161944621	8.34033991352382	8.403000981876819	3	correct	1.0
212.15471679996676	9.343033599899854	nogo_reward	1.0	212.19143170001917	215.145872999914	217.68383320001885	2.9544412998948246	213.19240169995464	216.66073659993708	220.7286586998964	1.9534712999593467	1.0230966000817716	0.8058066000226063	219.71748239989392	0.6010722001083195	218.69933239999227	2	1	25	3	nogo_reward	1	0	1	0	0	1	0	0.0	1.0	1	1.0	0.6010722001083195	1517.880955700064	1730.0723874000832	1731.0733574000187	1733.026828699978	1734.5416923000012	1735.564788900083	1736.5802881000564	1737.598438099958	1738.6096143999605	1739.415420999983	2020-04-08 16:39:30.755791	21.4647571673665	6.93049080704703	22.0503698886973	20.3831498610934	0.58561272133079	22.0503698886973	-21.4647571673665	22.0503698886973	6.93049080704703	22.0503698886973	0.58561272133079	10.2831312043383	10.87761365276589	2.744038549553472	18.63139932393027	11.463426360755104	-4.448947662051893	18.63139932393027	9.25257446747611	12.530032657322144	1.6524190045562412	12.972436891606922	8.403000981876819	3	correct	1.0
221.52441810001596	7.801503999857232	go_reward	0.906860199989751	221.56113300006837	222.93668429995887	225.48562399996422	1.3755512998905033	222.57548579992704	224.47129940008745	228.52572460006922	0.36119850003183274	1.0143245998767725	0.8369123998563737	227.52071959991008	0.821282200049609	226.4985702999404	2	1	26	4	go_reward	1	1	0	1	1	1	0	0.0	1.0	1	0.906860199989751	0.821282200049609	1517.880955700064	1739.4420887001324	1740.4564414999911	1740.817640000023	1742.3522551001515	1743.3665797000283	1744.3795260000045	1745.4016752999742	1746.4066803001333	1747.2435926999897	2020-04-08 16:39:30.755791	7.25482273862948	10.4877821035672	0.0	10.4877821035672	7.25482273862948	0.0	-7.25482273862948	10.4877821035672	0.0	7.25482273862948	0.0	21.845718989468402	-3.33232077597113	6.301329846073642	-3.4189705647670285	1.568058603228904	2.2202623552467973	-3.4189705647670285	20.815162252606214	-2.2655144927456767	1.0668062832254512	1.4098491064768215	1.4725101748297893	3	correct	1.0
229.3546722999306	9.08931960002542	nogo_punish	1.0	229.391387199983	231.61325809988193	234.1500222000759	2.2218708998989314	230.39876589993946	233.13031039992347	237.2002248999197	1.2144921999424696	1.019711800152436	1.2804819000887164	236.18690109997988	0.3842689001467079	235.15899230004288	2	1	27	1	nogo_punish	1	-1	0	0	0	1	0	0.0	1.0	0	1.0	0.3842689001467079	1517.880955700064	1747.272342900047	1748.2797216000035	1749.494213799946	1751.0112660999876	1752.03097790014	1753.039948000107	1754.067856800044	1755.0811805999838	1756.3616625000725	2020-04-08 16:39:30.755791	4.38326895178121	-5.86348671881663	0.0	-4.60204279040308	-4.38326895178121	0.0	-4.38326895178121	0.0	-5.86348671881663	0.0	-4.38326895178121	0.0	-6.203874562819401	-10.049938976310187	-3.4189705647670285	-13.521766290741375	-9.417829335163892	-3.4189705647670285	-1.030556736862189	-9.520337231375157	-3.3164626685557583	-9.077932997090379	-4.390976543986841	3	correct	1.0
238.48993749986403	7.897505200002115	nogo_reward	1.0	238.52665239991643	240.08956429990963	242.6151975998655	1.5629118999931961	239.52014079992682	241.5949788999278	245.64945239992812	0.5694234999828041	1.0202186999376863	0.7747051999904215	244.65423159999773	0.8134090001694858	243.63214510004036	2	1	28	3	nogo_reward	0	1	0	0	0	1	0	0.0	1.0	0	1.0	0.8134090001694858	1517.880955700064	1756.4076080999805	1757.401096499991	1757.9705199999737	1759.475934599992	1760.4961532999296	1761.5131008001044	1762.5351873000618	1763.5304080999922	1764.3051132999826	2020-04-08 16:39:30.755791	25.7710412456555	6.93049080704703	25.17922310496	24.1510821371343	-0.591818140695459	25.17922310496	-25.7710412456555	25.17922310496	6.93049080704703	25.17922310496	-0.591818140695459	-25.17922310496	15.18389773105489	2.744038549553472	21.76025254019297	15.231358636796003	-5.626378524078142	21.76025254019297	-26.209779841822186	15.658885873584842	0.4749881425299922	16.10129010786962	8.403000981876819	3	correct	1.0
246.43163919984363	8.217676700092625	nogo_reward	1.0	246.46835409989603	248.14819679991342	250.68453409988433	1.6798427000173888	247.47593110008143	249.66505030007102	253.75039030006155	0.6722656998319962	1.0194837998133153	0.9356404999271035	252.73631300008856	0.5182781000621617	251.7012628999073	2	1	29	3	nogo_reward	1	0	1	0	0	1	0	1.0	0.0	1	1.0	0.5182781000621617	1517.880955700064	1764.34930979996	1765.3568868001455	1766.0291524999775	1767.546006000135	1768.5654897999484	1769.5822185999714	1770.6172687001526	1771.6313460001256	1772.5669865000527	2020-04-08 16:39:30.755791	14.9535656049491	6.93049080704703	16.8258585645733	16.1870969158423	1.87229295962417	16.8258585645733	-14.9535656049491	16.8258585645733	6.93049080704703	16.8258585645733	1.87229295962417	15.507642528462302	4.36642209034849	2.744038549553472	13.406887999806269	7.267373415504004	-3.1622674237585127	13.406887999806269	14.477085791600112	7.305521333198142	2.939099242849621	7.74792556748292	8.403000981876819	3	wrong	1.0
254.67886889982015	8.375730200204998	nogo_punish	1.0	254.71558379987255	256.26482459995896	258.8007888998836	1.5492408000864089	255.72870650002733	257.78084359993227	261.856439899886	0.5361180999316275	1.0199452999513596	1.2348741001915187	260.84270709985867	0.3797108000144362	259.81790570006706	2	1	30	1	nogo_punish	1	-1	0	0	0	1	0	1.0	0.0	0	1.0	0.3797108000144362	1517.880955700064	1772.5965394999366	1773.6096622000914	1774.145780300023	1775.6617992999963	1776.6817445999477	1777.6988614001311	1778.7236627999227	1779.73739559995	1780.9722697001416	2020-04-08 16:39:30.755791	4.85311199116986	-5.86348671881663	0.0	-3.10901282108166	-4.85311199116986	0.0	-4.85311199116986	0.0	-5.86348671881663	0.0	-4.85311199116986	0.0	-5.73403152343075	-10.049938976310187	-3.4189705647670285	-12.028736321419956	-9.887672374552544	-3.4189705647670285	-1.030556736862189	-9.520337231375157	-3.786305707944409	-9.077932997090379	-4.390976543986841	3	wrong	1.0
263.0979842999948	8.976321199908853	go_punish	0.3525662000756711	263.1346992000472	265.308990099933	267.8616297999397	2.1742908998858184	264.1441953999456	266.8406742999796	270.91305570001714	1.1647946999873966	1.0209554999601096	1.1979646999388933	269.9022122998724	0.86661950009875	268.87981289997697	2	1	31	2	go_punish	1	0	-1	1	1	1	0	0.0	1.0	0	0.3525662000756711	0.86661950009875	1517.880955700064	1781.0156549001113	1782.0251511000097	1783.189945799997	1784.7216300000437	1785.7425855000038	1786.760768600041	1787.7831679999365	1788.7940114000812	1789.99197610002	2020-04-08 16:39:30.755791	2.30119819093379	-6.19793115527689	-5.86348671881663	-8.23719673192623	-3.56228852788283	-5.86348671881663	-2.30119819093379	-6.19793115527689	-5.86348671881663	-3.56228852788283	-5.86348671881663	6.19793115527689	-8.28594532366682	-10.384383412770447	-9.282457283583659	-17.156920232264525	-8.596848911265512	-9.282457283583659	5.167374418414701	-13.082625759257986	-4.796680435591179	-15.27586415236727	-4.390976543986841	3	correct	1.0
272.0959939998572	7.86761730001308	go_reward	0.7050477999728173	272.13270889990963	273.41043579997495	275.9624105000403	1.2777269000653177	273.12846789998	274.9472727999091	279.0174050000496	0.28196789999492466	1.015137700131163	0.9829211998730898	278.0046651998998	0.7160784001462162	276.9753533999901	2	1	32	4	go_reward	1	1	0	1	1	1	0	0.0	1.0	1	0.7050477999728173	0.7160784001462162	1517.880955700064	1790.0136645999737	1791.009423600044	1791.291391500039	1792.8282284999732	1793.8433662001044	1794.8563091000542	1795.885620899964	1796.8983607001137	1797.8812818999868	2020-04-08 16:39:30.755791	12.0239126045	17.4182729106142	0.0	17.4182729106142	12.0239126045	0.0	-12.0239126045	17.4182729106142	0.0	12.0239126045	0.0	14.915228182421401	1.4367690898993892	13.231820653120641	-3.4189705647670285	8.498549410275903	6.989352221117317	-3.4189705647670285	13.884671445559212	2.5035753731248427	1.0668062832254512	8.34033991352382	1.4725101748297893	3	correct	1.0
280.00801739981375	8.583030000096187	go_punish	0.6545520999934524	280.04473229986615	281.8088909999933	284.3606366000604	1.7641587001271546	281.04373489995487	283.3395714999642	287.3832548998764	0.765156100038439	1.0210651000961661	1.2445074000859222	286.38171099987835	0.3167268000543117	285.3688461999409	2	1	33	2	go_punish	1	0	-1	1	1	1	1	1.0	1.0	0	0.6545520999934524	0.3167268000543117	1517.880955700064	1797.9256879999302	1798.924690600019	1799.6898467000574	1801.2205272000283	1802.2415923001245	1803.249801900005	1804.2626666999424	1805.2642105999405	1806.5087180000264	2020-04-08 16:39:30.755791	3.46663041816264	-4.2016274884524	-5.86348671881663	-5.60067979555518	-2.39685630065399	-5.86348671881663	-3.46663041816264	-4.2016274884524	-5.86348671881663	-2.39685630065399	-5.86348671881663	4.2016274884524	-7.12051309643797	-8.388079745945959	-9.282457283583659	-14.520403295893477	-7.431416684036673	-9.282457283583659	3.171070751590211	-11.917193532029147	-4.796680435591179	-13.279560485542778	-4.390976543986841	3	correct	1.0
288.6177332999648	9.605120699852705	nogo_punish	1.0	288.6544482000172	291.3788504998663	293.91415060008876	2.724402299849089	289.66302750003547	292.8943012000527	296.9695271998644	1.7158229998308343	1.019849400036037	1.2900417000055313	295.9548339000903	0.2973794001154601	294.9312066999264	2	1	34	1	nogo_punish	1	-1	0	0	0	1	0	0.0	1.0	0	1.0	0.2973794001154601	1517.880955700064	1806.5354039000813	1807.5439832000995	1809.2598061999304	1810.7752569001168	1811.7951063001528	1812.8121623999905	1813.8357896001544	1814.8504828999285	1816.140524599934	2020-04-08 16:39:30.755791	5.16436720592898	-5.86348671881663	0.0	-2.12202948531532	-5.16436720592898	0.0	-5.16436720592898	0.0	-5.86348671881663	0.0	-5.16436720592898	0.0	-5.42277630867163	-10.049938976310187	-3.4189705647670285	-11.041752985653616	-10.198927589311662	-3.4189705647670285	-1.030556736862189	-9.520337231375157	-4.097560922703529	-9.077932997090379	-4.390976543986841	3	correct	1.0
298.26601939997636	9.807296099839505	go_punish	0.2924013000447303	298.30273430002876	301.0741429000627	303.61365579999983	2.771408600033965	299.31048409990035	302.6044947998598	306.6641728999091	1.763658800162375	1.0091610001400113	1.4458574999591747	305.65122279990464	0.4171334998682141	304.63350420002826	2	1	35	2	go_punish	1	0	-1	1	1	1	1	1.0	1.0	0	0.2924013000447303	0.4171334998682141	1517.880955700064	1816.1836900000928	1817.1914397999644	1818.9550986001268	1820.485450499924	1821.494611500064	1822.5144599000923	1823.5321784999687	1824.5451285999732	1825.9909860999323	2020-04-08 16:39:30.755791	4.23700923973144	-2.87698371061268	-5.86348671881663	-3.84593606930714	-1.62647747908519	-5.86348671881663	-4.23700923973144	-2.87698371061268	-5.86348671881663	-1.62647747908519	-5.86348671881663	2.87698371061268	-6.350134274869171	-7.063435968106238	-9.282457283583659	-12.765659569645436	-6.6610378624678726	-9.282457283583659	1.8464269737504908	-11.146814710460347	-4.796680435591179	-11.95491670770306	-4.390976543986841	3	correct	1.0
308.1152857998384	8.408805400133133	go_punish	0.6558044999837875	308.1520006998908	309.7238884998951	312.2864806998987	1.5718878000043333	309.16158469999186	311.2620137999768	315.3172575000208	0.5623037999032476	1.0244668999218902	1.2435486000031233	314.31164379999996	1.0	313.3002728000283	2	1	36	2	go_punish	0	-1	0	1	1	1	0	n/a	0.0	0	0.6558044999837875	1.0	1517.880955700064	1826.0329563999549	1827.042540400056	1827.6048441999592	1829.1429695000409	1830.1674363999628	1831.1812285000924	1832.192599500064	1833.1982132000849	1834.441761800088	2020-04-08 16:39:30.755791	4.75175559564888	-1.98839327697046	-5.86348671881663	-2.66539744473983	-1.11173112316775	-5.86348671881663	-4.75175559564888	-1.98839327697046	-5.86348671881663	-1.11173112316775	-5.86348671881663	-9.16455117173624	-5.835387918951731	-6.174845534464018	-9.282457283583659	-11.585120945078126	-6.146291506550433	-9.282457283583659	-10.19510790859843	-10.632068354542907	-4.796680435591179	-11.066326274060838	-4.390976543986841	3	missed	0.0
316.5468586999923	8.105773999821167	go_reward	0.4320604999084025	316.5835736000447	318.064492699923	320.6153293000532	1.4809190998782924	317.5962044999469	319.5955485000743	323.67199860000983	0.4682881999760866	1.0197807999788893	1.0173489998560399	322.6594718999695	0.3414183999411762	321.6302431998772	2	1	37	4	go_reward	1	1	0	1	1	1	0	0.0	1.0	1	0.4320604999084025	0.3414183999411762	1517.880955700064	1834.4645293001088	1835.477160200011	1835.945448399987	1837.4765042001384	1838.4962850001173	1839.5111988999413	1840.5404276000336	1841.552954300074	1842.57030329993	2020-04-08 16:39:30.755791	15.2046492881736	22.0503698886973	0.0	22.0503698886973	15.2046492881736	0.0	-15.2046492881736	22.0503698886973	0.0	15.2046492881736	0.0	10.2831312043383	4.61750577357299	17.86391763120374	-3.4189705647670285	13.130646388359004	10.170088904790918	-3.4189705647670285	9.25257446747611	5.6843120567984435	1.0668062832254512	12.972436891606922	1.4725101748297893	3	correct	1.0
324.69458739995	8.277340800035972	go_punish	0.8488134001381695	324.7313023000024	326.0597560000608	328.60614619986154	1.3284537000583896	325.7312723000068	327.5899084999687	331.6563653999476	0.32848370005399374	1.0162376998928266	1.3522777000907809	330.6420175998935	0.3392093000002205	329.61743159987986	2	1	38	2	go_punish	1	0	-1	1	1	1	1	1.0	1.0	0	0.8488134001381695	0.3392093000002205	1517.880955700064	1842.6122580000665	1843.612228000071	1843.940711700125	1845.4708642000328	1846.4871018999256	1847.498387299944	1848.5229732999576	1849.5373211000117	1850.8895988001025	2020-04-08 16:39:30.755791	5.09915708431999	-1.38624614191843	-5.86348671881663	-1.86316376072331	-0.764329634496634	-5.86348671881663	-5.09915708431999	-1.38624614191843	-5.86348671881663	-0.764329634496634	-5.86348671881663	1.38624614191843	-5.48798643028062	-5.572698399411988	-9.282457283583659	-10.782887261061607	-5.798890017879317	-9.282457283583659	0.3556894050562409	-10.284666865871792	-4.796680435591179	-10.46417913900881	-4.390976543986841	3	correct	1.0
333.0129180999936	8.519905399996787	go_punish	0.2587846999522298	333.049633000046	334.95990970008984	337.5047247998882	1.9102767000438234	334.05177880008705	336.48252639989346	340.5542224000676	0.9081309000027886	1.0221983999947497	1.0153159999752006	339.55047099990793	0.2474626000039279	338.52117899991595	2	1	39	2	go_punish	1	0	-1	1	1	1	0	0.0	1.0	0	0.2587846999522298	0.2474626000039279	1517.880955700064	1850.93058870011	1851.9327345001511	1852.840865400154	1854.3634820999575	1855.3856804999523	1856.40213469998	1857.431426699972	1858.4351781001317	1859.4504941001069	2020-04-08 16:39:30.755791	5.33582143837997	-0.974332183355022	-5.86348671881663	-1.31288565530916	-0.527665280436657	-5.86348671881663	-5.33582143837997	-0.974332183355022	-5.86348671881663	-0.527665280436657	-5.86348671881663	0.974332183355022	-5.2513220762206405	-5.16078444084858	-9.282457283583659	-10.232609155647456	-5.56222566381934	-9.282457283583659	-0.05622455350716704	-10.048002511811815	-4.796680435591179	-10.052265180445401	-4.390976543986841	3	correct	1.0
341.557367299916	8.640825300012011	nogo_punish	1.0	341.5940821999684	343.2917480999604	345.8215075000189	1.6976658999919891	342.60492870002076	344.80728439986706	348.87741170008667	0.6868193999396226	1.0142231001518667	1.3574957998937407	347.86428630002797	0.560948999831453	346.83604469988495	2	1	40	1	nogo_punish	0	0	-1	0	0	1	0	0.0	1.0	-1	1.0	0.560948999831453	1517.880955700064	1859.4750379000325	1860.4858844000848	1861.1727038000245	1862.6882400999311	1863.702463200083	1864.717000399949	1865.745242000092	1866.7583674001507	1868.1158632000445	2020-04-08 16:39:30.755791	5.37293264020946	-5.86348671881663	0.0	-1.46225215652896	-5.37293264020946	0.0	-5.37293264020946	0.0	-5.86348671881663	0.0	-5.37293264020946	-11.1529444487067	-5.21421087439115	-10.049938976310187	-3.4189705647670285	-10.381975656867256	-10.407493023592142	-3.4189705647670285	-12.18350118556889	-9.520337231375157	-4.306126356984009	-9.077932997090379	-4.390976543986841	3	correct	1.0
350.2451724000275	9.007432899903506	nogo_reward	1.0	350.2818873000799	352.3323520999404	354.8599471000489	2.0504647998604923	351.2784623000766	353.836771100061	357.903765700059	1.0538897998637822	1.0231759999878705	1.3855544999244103	356.8945754000447	0.3746228998061269	355.8651385998819	2	1	41	3	nogo_reward	1	0	1	0	0	1	0	0.0	1.0	1	1.0	0.3746228998061269	1517.880955700064	1868.162843000144	1869.1594180001407	1870.2133078000045	1871.717726800125	1872.740902800113	1873.746094299946	1874.7755311001088	1875.784721400123	1877.1702759000475	2020-04-08 16:39:30.755791	21.614895650384	6.93049080704703	21.8526883081703	21.4533394765623	0.23779265778632	21.8526883081703	-21.614895650384	21.8526883081703	6.93049080704703	21.8526883081703	0.23779265778632	10.4808127848653	11.02775213578339	2.744038549553472	18.43371774340327	12.533615976224002	-4.7967677255963626	18.43371774340327	9.45025604800311	12.332351076795144	1.3045989410117713	12.774755311079922	8.403000981876819	3	correct	1.0
359.294847999932	8.865333500085399	nogo_reward	1.0	359.3315628999844	361.66555149992905	364.2035036000889	2.3339885999446324	360.329375100089	363.1802920999471	367.2348048998972	1.336176399840042	1.0232115001417696	0.9620915001726189	366.22163749998435	0.7067174001131207	365.2080794000067	2	1	42	3	nogo_reward	1	0	1	0	0	1	0	0.0	1.0	1	1.0	0.7067174001131207	1517.880955700064	1877.2125186000485	1878.210330800153	1879.5465071999931	1881.0612478000112	1882.084459300153	1883.0890351000708	1884.1025932000484	1885.1157605999613	1886.077852100134	2020-04-08 16:39:30.755791	26.0147034731884	6.93049080704703	25.1716352575891	24.9206908973058	-0.843068215599327	25.1716352575891	-26.0147034731884	25.1716352575891	6.93049080704703	25.1716352575891	-0.843068215599327	7.161865835446502	15.427559958587791	2.744038549553472	21.75266469282207	16.000967396967503	-5.87762859898201	21.75266469282207	6.131309098584313	15.651298026213942	0.22373806762612425	16.09370226049872	8.403000981876819	3	correct	1.0
368.20134159992426	8.792827900033672	nogo_reward	1.0	368.23805649997666	370.58873010007665	373.11668360000476	2.350673600099981	369.2387081000488	372.0930748998651	376.162404499948	1.3500220000278205	1.0236087001396754	0.8684799000623116	375.1426385999655	0.3681588000617921	374.13032500003465	2	1	43	3	nogo_reward	1	0	1	0	0	1	1	0.0	0.0	1	1.0	0.3681588000617921	1517.880955700064	1886.1190122000407	1887.119663800113	1888.4696858001407	1889.9740305999292	1890.9976393000688	1892.0112807000987	1893.0235943000296	1894.043360200012	1894.9118401000744	2020-04-08 16:39:30.755791	28.9560764778964	6.93049080704703	27.389394630527	27.2311008518733	-1.56668184736934	27.389394630527	-28.9560764778964	27.389394630527	6.93049080704703	27.389394630527	-1.56668184736934	4.9441064625086	18.36893296329579	2.744038549553472	23.97042406575997	18.311377351535004	-6.601242230752023	23.97042406575997	3.913549725646411	17.869057399151842	-0.4998755641438888	18.311461633436622	8.403000981876819	3	wrong	1.0
377.0172871998511	9.123034200165193	go_reward	0.3732664999552071	377.0540020999035	379.54128600005083	382.09210149990395	2.487283900147304	378.0732090000529	381.0684946998956	385.13104350003437	1.4680769999979475	1.0236068000083378	1.0459928000343552	384.11795539991	0.7109429000411183	383.1068336998578	2	1	44	4	go_reward	1	1	0	1	1	1	0	0.0	1.0	1	0.3732664999552071	0.7109429000411183	1517.880955700064	1894.9349577999676	1895.954164700117	1897.422241700115	1898.9494503999597	1899.973057199968	1900.987789399922	1901.998911099974	1903.0119992000984	1904.0579920001328	2020-04-08 16:39:30.755791	17.3483576603381	25.17922310496	0.0	25.17922310496	17.3483576603381	0.0	-17.3483576603381	25.17922310496	0.0	17.3483576603381	0.0	7.154277988075602	6.761214145737489	20.99277084746644	-3.4189705647670285	16.259499604621702	12.313797276955416	-3.4189705647670285	6.123721251213413	7.828020428962942	1.0668062832254512	16.10129010786962	1.4725101748297893	3	correct	1.0
386.18350539985113	9.470771400024887	nogo_reward	1.0	386.22022029990353	388.9873287000228	391.5128428998869	2.767108400119241	387.2191703000567	390.4885338000024	394.5638275998642	1.7681583999660688	1.0243090998844764	1.127164100064192	393.54954240005463	0.7905381999444216	392.5290423999538	2	1	45	3	nogo_reward	0	1	0	0	0	1	1	0.0	0.0	0	1.0	0.7905381999444216	1517.880955700064	1904.1011759999676	1905.1001260001208	1906.8682844000868	1908.3694895000665	1909.393798599951	1910.409998100018	1911.4304981001187	1912.4447832999283	1913.5719473999925	2020-04-08 16:39:30.755791	30.944574606959	6.93049080704703	28.8879087592854	28.7878150373324	-2.05666584767361	28.8879087592854	-30.944574606959	28.8879087592854	6.93049080704703	28.8879087592854	-2.05666584767361	-28.8879087592854	20.35743109235839	2.744038549553472	25.46893819451837	19.868091536994104	-7.091226231056293	25.46893819451837	-29.918465496147586	19.367571527910243	-0.9898595644481589	19.80997576219502	8.403000981876819	3	wrong	1.0
395.69791129999794	8.576032999902282	nogo_reward	1.0	395.73462620005034	397.24236209993273	399.7679451000879	1.507735899882391	396.74200009997	398.7479910999534	402.81766649987594	0.5003619999627062	1.0199540001344758	1.4929927000766838	401.8058879999444	0.9676012001000344	400.7819721999115	2	1	46	3	nogo_reward	0	1	0	0	0	1	0	1.0	0.0	0	1.0	0.9676012001000344	1517.880955700064	1913.6155819001144	1914.622955800034	1915.1233177999968	1916.6289468000175	1917.648900800152	1918.6629278999756	1919.6868437000085	1920.69862219994	1922.1916149000167	2020-04-08 16:39:30.755791	18.5585669307323	6.93049080704703	19.4231866379468	19.359840663817	0.864619707214561	19.4231866379468	-18.5585669307323	19.4231866379468	6.93049080704703	19.4231866379468	0.864619707214561	-19.4231866379468	7.971423416131691	2.744038549553472	16.00421607317977	10.440117163478703	-4.169940676168122	16.00421607317977	-20.453743374808987	9.902849406571642	1.9314259904400122	10.34525364085642	8.403000981876819	3	wrong	1.0
404.31499270000427	9.22466469998517	go_punish	0.3384479999076575	404.35170760005667	407.08624059986346	409.6370127000848	2.734532999806788	405.3509986998979	408.61729090008885	412.6765183999669	1.7352418999655583	1.0197217999959776	0.8998539000749588	411.66387599986024	0.4441754000727087	410.644425699953	2	1	47	2	go_punish	1	0	-1	1	1	1	0	0.0	1.0	0	0.3384479999076575	0.4441754000727087	1517.880955700064	1922.2326633001207	1923.231954399962	1924.9671962999275	1926.498246600153	1927.517968400149	1928.525381400017	1929.5448316999243	1930.557474100031	1931.457328000106	2020-04-08 16:39:30.755791	5.4984657803435	-0.690051476679802	-5.86348671881663	-0.932117867066396	-0.365020938473134	-5.86348671881663	-5.4984657803435	-0.690051476679802	-5.86348671881663	-0.365020938473134	-5.86348671881663	0.690051476679802	-5.08867773425711	-4.87650373417336	-9.282457283583659	-9.851841367404692	-5.399581321855817	-9.282457283583659	-0.340505260182387	-9.88535816984829	-4.796680435591179	-9.76798447377018	-4.390976543986841	3	correct	1.0
413.5830749999727	8.651383499847498	nogo_reward	1.0	413.6197899000251	415.28828239999666	417.82857870007865	1.668492499971535	414.62777699995786	416.80438119988	420.87033779988997	0.6605054000388009	1.0241975001986248	1.4008355999826563	419.8612480000595	0.4052856001071632	418.8334665999282	2	1	48	3	nogo_reward	1	0	1	0	0	1	1	1.0	1.0	1	1.0	0.4052856001071632	1517.880955700064	1931.5007456000892	1932.508732700022	1933.1692381000607	1934.685336899944	1935.7095344001427	1936.7144222999923	1937.7422037001236	1938.751293499954	1940.1521290999367	2020-04-08 16:39:30.755791	10.4035943390738	6.93049080704703	13.1979221805614	13.157873312966	2.79432784148751	13.1979221805614	-10.4035943390738	13.1979221805614	6.93049080704703	13.1979221805614	2.79432784148751	19.1355789124742	-0.18354917552681016	2.744038549553472	9.778951615794373	4.238149812627704	-2.240232541895173	9.778951615794373	18.105022175612014	3.677584949186244	3.861134124712961	4.119989183471022	8.403000981876819	3	correct	1.0
422.2773914998395	8.834908799966797	nogo_reward	1.0	422.3141063998919	424.1036674999634	426.63487250008643	1.7895611000715235	423.32231509988196	425.6112806000747	429.6896816000808	0.7813524000814596	1.023591900011752	1.4593335997778922	428.6765842998868	0.4088320999871939	427.6481433000879	2	1	49	3	nogo_reward	1	0	1	0	0	1	0	0.0	1.0	1	1.0	0.4088320999871939	1517.880955700064	1940.195062099956	1941.203270799946	1941.9846232000275	1943.4922363001388	1944.5158282001505	1945.529099000152	1946.557539999951	1947.5706373001449	1949.0299708999228	2020-04-08 16:39:30.755791	18.7165919178216	6.93049080704703	19.5441362938894	19.5188999356534	0.827544376067793	19.5441362938894	-18.7165919178216	19.5441362938894	6.93049080704703	19.5441362938894	0.827544376067793	12.789364799146199	8.129448403220989	2.744038549553472	16.125165729122372	10.599176435315105	-4.2070160073148894	16.125165729122372	11.75880806228401	10.023799062514245	1.8943506592932442	10.466203296799023	8.403000981876819	3	correct	1.0
431.13970159995347	8.613559300079942	nogo_punish	1.0	431.17641650000587	433.0276488999368	435.5346512000542	1.8512323999309501	432.1843594999518	434.5220147999935	438.57792919990584	0.8432893999849966	1.0126364000607282	1.2120466001799741	437.5650980998764	0.616423400118947	436.5514072999358	2	1	50	1	nogo_punish	1	-1	0	0	0	1	0	0.0	1.0	0	1.0	0.616423400118947	1517.880955700064	1949.05737220007	1950.065315200016	1950.908604600001	1952.4029705000576	1953.4156069001183	1954.432363	1955.4460537999405	1956.45888489997	1957.67093150015	2020-04-08 16:39:30.755791	0.89618631926432	-5.86348671881663	-3.50942812303233	-4.52603677579255	-4.40561444229665	-3.50942812303233	-0.89618631926432	-3.50942812303233	-5.86348671881663	-3.50942812303233	-4.40561444229665	3.50942812303233	-9.69095719533629	-10.049938976310187	-6.928398687799358	-13.445760276130846	-9.440174825679332	-6.928398687799358	2.478871386170141	-13.029765354407488	-3.3388081590711987	-12.587361120122708	-4.390976543986841	3	correct	1.0
439.7771407999096	8.079544099978648	go_reward	0.4661952999886125	439.813855699962	441.25555699993834	443.8018090000844	1.4417012999763301	440.8211205999835	442.77681359997996	446.8526188000103	0.43443639995484773	1.0249954001044443	1.0407809999303481	445.8416835998646	0.785478200064972	444.81513189990073	2	1	51	4	go_reward	1	1	0	1	1	1	0	0.0	1.0	1	0.4661952999886125	0.785478200064972	1517.880955700064	1957.694811400026	1958.7020763000476	1959.1365127000024	1960.657769300044	1961.6827647001485	1962.6960875999648	1963.7226392999287	1964.7335745000744	1965.7743555000047	2020-04-08 16:39:30.755791	18.8073616412477	27.3136406681404	0.0	27.3136406681404	18.8073616412477	0.0	-18.8073616412477	27.3136406681404	0.0	18.8073616412477	0.0	5.0198604248951995	8.220218126647088	23.127188410646845	-3.4189705647670285	18.393917167802105	13.772801257865016	-3.4189705647670285	3.9893036880330106	9.287024409872542	1.0668062832254512	18.235707671050022	1.4725101748297893	3	correct	1.0
447.90131510002516	7.9564822998363525	nogo_reward	1.0	447.93803000007756	449.36605309997685	451.89423409989104	1.428023099899292	448.9444156999234	450.868847599952	454.942131199874	0.4216374000534415	1.0253864999390316	0.9523811000399292	453.92911759996787	0.3895229999907315	452.90822690003597	2	1	52	3	nogo_reward	1	0	1	0	0	1	0	0.0	1.0	1	1.0	0.3895229999907315	1517.880955700064	1965.8189857001416	1966.8253713999875	1967.247008800041	1968.749803300016	1969.7751897999551	1970.7891826001	1971.810073300032	1972.823086899938	1973.775467999978	2020-04-08 16:39:30.755791	24.1521822419996	6.93049080704703	23.6898515401382	23.6740480223454	-0.462330701861353	23.6898515401382	-24.1521822419996	23.6898515401382	6.93049080704703	23.6898515401382	-0.462330701861353	8.6436495528974	13.56503872739899	2.744038549553472	20.27088097537117	14.754324522007103	-5.496891085244036	20.27088097537117	7.613092816035212	14.169514308763043	0.6044755813640983	14.611918543047821	8.403000981876819	3	correct	1.0
455.89885520003713	8.616499099880457	go_punish	0.6372030000202358	455.93557010008954	457.7266015000639	460.27283390006073	1.791031399974372	456.94596689986065	459.25239000003785	463.3142001000235	0.7806346002032569	1.020443900022883	1.2378690999464652	462.29612590000033	1.0	461.2856129999275	2	1	53	2	go_punish	1	0	-1	1	1	1	0	n/a	0.0	-1	0.6372030000202358	1.0	1517.880955700064	1973.8165258001536	1974.8269225999247	1975.607557200128	1977.133345700102	1978.1537896001248	1979.1665686999916	1980.1770816000644	1981.1951558000876	1982.433024900034	2020-04-08 16:39:30.755791	5.61116387212944	-0.492224837721657	-5.86348671881663	-0.666476240100491	-0.252322846687186	-5.86348671881663	-5.61116387212944	-0.492224837721657	-5.86348671881663	-0.252322846687186	-5.86348671881663	0.492224837721657	-4.97597964247117	-4.678677095215215	-9.282457283583659	-9.586199740438788	-5.2868832300698685	-9.282457283583659	-0.5383318991405321	-9.772660078062342	-4.796680435591179	-9.570157834812036	-4.390976543986841	3	missed	0.0
464.560649999883	9.040085199987288	nogo_reward	1.0	464.5973648999354	466.57967730006203	469.1040932999458	1.9823124001266024	465.5938883000051	468.08445469988465	472.160258699907	0.9857890000569114	1.019638600061171	1.4771914000157267	471.1486537000162	0.3922363999299705	470.1215681999456	2	1	54	3	nogo_reward	0	1	0	0	0	1	1	1.0	1.0	0	1.0	0.3922363999299705	1517.880955700064	1982.4783205999995	1983.4748440000692	1984.460633000126	1985.9654103999487	1986.98504900001	1988.0025239000097	1989.0296094000803	1990.041214399971	1991.5184057999868	2020-04-08 16:39:30.755791	27.7496075517932	6.93049080704703	26.4307927093723	26.4209966193877	-1.31881484242087	26.4307927093723	-27.7496075517932	26.4307927093723	6.93049080704703	26.4307927093723	-1.31881484242087	-26.4307927093723	17.162464037192592	2.744038549553472	23.011822144605272	17.501273119049404	-6.353375225803553	23.011822144605272	-27.46134944623449	16.910455477997147	-0.25200855919541887	17.352859712281923	8.403000981876819	3	correct	1.0
473.62372839986347	8.38869370007842	go_reward	0.3385005998425185	473.66044329991587	475.53713080007583	478.092529400019	1.87668750015996	474.6730736999307	477.06927630002633	481.1496061999351	0.8640571001451463	1.023253099992644	0.8995308000592104	480.135499099968	0.5754110999405384	479.10724320006557	2	1	55	4	go_reward	1	1	0	1	1	1	0	0.0	1.0	1	0.3385005998425185	0.5754110999405384	1517.880955700064	1991.54139899998	1992.5540293999948	1993.41808650014	1994.9502320000904	1995.973485100083	1996.9881989001296	1998.016454800032	1999.0305618999992	1999.9300927000584	2020-04-08 16:39:30.755791	19.8095098730653	28.7831791152173	0.0	28.7831791152173	19.8095098730653	0.0	-19.8095098730653	28.7831791152173	0.0	19.8095098730653	0.0	3.5503219778182995	9.222366358464688	24.596726857723745	-3.4189705647670285	19.863455614879005	14.774949489682616	-3.4189705647670285	2.5197652409561107	10.289172641690142	1.0668062832254512	19.705246118126922	1.4725101748297893	3	correct	1.0
482.0589020999612	8.087752599967644	nogo_reward	1.0	482.0956170000136	483.4274293000344	485.93781380006067	1.3318123000208288	483.09921859996393	484.92221869994	488.9870124999436	0.3282107000704855	1.0155951001206631	1.1963571000376305	487.973961299984	0.7313727999571711	486.94232099992223	2	1	56	3	nogo_reward	1	0	1	0	0	1	1	1.0	1.0	1	1.0	0.7313727999571711	1517.880955700064	1999.9765727000777	2000.980174300028	2001.3083850000985	2002.803174400004	2003.8187695001247	2004.8232766999863	2005.854917000048	2006.8679682000077	2008.0643253000453	2020-04-08 16:39:30.755791	16.4130911008752	6.93049080704703	17.77558903401	17.7696122569003	1.36249793313481	17.77558903401	-16.4130911008752	17.77558903401	6.93049080704703	17.77558903401	1.36249793313481	14.5579120590256	5.825947586274589	2.744038549553472	14.35661846924297	8.849888756562002	-3.672062450247873	14.35661846924297	13.52735532216341	8.255251802634843	2.4293042163602614	8.697656036919621	8.403000981876819	3	correct	1.0
490.18872129986994	8.140398300020024	nogo_reward	1.0	490.22543619992234	491.7943694998976	494.3335744999349	1.5689332999752423	491.2326237000527	493.3101403000762	497.39416859997436	0.5617457998448572	1.0234341998586842	0.9716658999680021	496.38159119989723	0.3766288999468088	495.3481771000663	2	1	57	3	nogo_reward	1	0	1	0	0	1	0	0.0	1.0	1	1.0	0.3766288999468088	1517.880955700064	2008.1063918999864	2009.1135794001168	2009.6753251999617	2011.1910960001403	2012.214530199999	2013.2291328001304	2014.2625468999613	2015.2751243000384	2016.2467902000064	2020-04-08 16:39:30.755791	22.6942144954136	6.93049080704703	22.5710149318934	22.5674567506365	-0.123199563520228	22.5710149318934	-22.6942144954136	22.5710149318934	6.93049080704703	22.5710149318934	-0.123199563520228	9.7624861611422	12.10707098081299	2.744038549553472	19.152044367126372	13.647733250298202	-5.157759946902911	19.152044367126372	8.73192942428001	13.050677700518245	0.9436067197052233	13.493081934803023	8.403000981876819	3	correct	1.0
498.3727648998606	9.02815130003728	nogo_reward	1.0	498.409479799913	500.99668630003	503.5164576999375	2.587206500116963	499.4166490999048	502.50341759994626	506.55337670003064	1.5800372001251617	1.013040099991258	0.884254399919655	505.53912890003994	0.2893934999592602	504.52043269993715	2	1	58	3	nogo_reward	1	0	1	0	0	1	1	1.0	1.0	1	1.0	0.2893934999592602	1517.880955700064	2016.290435499977	2017.297604799969	2018.877642000094	2020.3843733000103	2021.3974134000016	2022.4013884000012	2023.420084600104	2024.4343324000947	2025.3185868000144	2020-04-08 16:39:30.755791	26.8151272701795	6.93049080704703	25.7141493088662	25.712112265055	-1.10097796131327	25.7141493088662	-26.8151272701795	25.7141493088662	6.93049080704703	25.7141493088662	-1.10097796131327	6.6193517841694	16.22798375557889	2.744038549553472	22.29517874409917	16.792388764716705	-6.135538344695953	22.29517874409917	5.588795047307211	16.193812077491046	-0.034171678087818735	16.636216311775822	8.403000981876819	3	correct	1.0
507.42620430001944	8.395403999835708	go_reward	0.3468019999563694	507.46291920007184	509.32297990005463	511.88192799990065	1.860060699982796	508.4785933999808	510.86658250004984	514.9210483999923	0.8443865000738242	1.0153454998508096	0.937274799915258	513.9154254000168	0.5999032000545412	512.8958743000403	2	1	59	4	go_reward	1	1	0	1	1	1	0	0.0	1.0	1	0.3468019999563694	0.5999032000545412	1517.880955700064	2025.343874900136	2026.359549100045	2027.2039356001187	2028.747538200114	2029.7628836999647	2030.7768300001044	2031.796381100081	2032.8020041000564	2033.7392788999716	2020-04-08 16:39:30.755791	20.503809027857	29.8037322356722	0.0	29.8037322356722	20.503809027857	0.0	-20.503809027857	29.8037322356722	0.0	20.503809027857	0.0	2.5297688573634005	9.916665513256389	25.617279978178644	-3.4189705647670285	20.884008735333904	15.469248644474316	-3.4189705647670285	1.4992121205012114	10.983471796481842	1.0668062832254512	20.72579923858182	1.4725101748297893	3	correct	1.0
515.866345999995	8.745158500038087	nogo_reward	1.0	515.9030609000474	518.3171687999275	520.8368233998772	2.4141078998800367	516.9000103999858	519.8228553000372	523.889153999975	1.417158399941627	1.0139680998399854	0.7590654001105577	522.8743233999703	0.5293916999362409	521.8563902000894	2	1	60	3	nogo_reward	1	0	1	0	0	1	1	1.0	1.0	1	1.0	0.5293916999362409	1517.880955700064	2033.7840166001115	2034.78096610005	2036.1981244999915	2037.7038110001013	2038.7177790999413	2039.7373459001535	2040.7552791000344	2041.770109700039	2042.5291751001496	2020-04-08 16:39:30.755791	29.5514978183453	6.93049080704703	27.7990429718186	27.7979523762329	-1.75245484652675	27.7990429718186	-29.5514978183453	27.7990429718186	6.93049080704703	27.7990429718186	-1.75245484652675	4.534458121217	18.964354303744692	2.744038549553472	24.38007240705157	18.878228875894603	-6.787015229909433	24.38007240705157	3.503901384354811	18.278705740443442	-0.6856485633012988	18.721109974728222	8.403000981876819	3	correct	1.0
