onset	duration	trial_type	response_time	cueOnset	targetOnset	fbOnset	cueRT	firstfixOnset	secondfixOnset	waitOnset	firstfixdur	secondfixdur	waitdur	nback_fbOnset	nback_response_time	nback_targetOnset	block	wm	trial	cue	cond	is_common	outcome_go	outcome_nogo	key_correct	key_pressed	is_correct	key_correct_nback	key_pressed_nback	is_correct_nback	outcome	rt	rt_nback	time_scan	time_onset	time_isi1	time_circle	time_isi2	time_feedback	time_same	time_correct	time_iti	time_done	timestamp_scan	DV	Qgo	Qnogo	SV	Wgo	Wnogo	mDV	Qchosen	Qunchosen	Wchosen	Wunchosen	PE	DVC	QgoC	QnogoC	SVC	WgoC	WnogoC	PEC	WchosenC	WunchosenC	QchosenC	QunchosenC	run	outcome_nback	nback_targetResp
0.0	5.885108399903402	go_reward	1.0	0.05491559999063611	1.636430999962613	4.153444200055674	1.5815153999719769	1.0731788999401033	3.1328465999104083	5.165471199899912	0.5632521000225097	1.0205976001452655	0.774552799994126	n/a	1.0	n/a	1	0	1	4	go_reward	1	1	0	1	0	0	0	n/a	n/a	0	1.0	1.0	549.6710896000732	549.7260052000638	550.7442685000133	551.3075206000358	552.8039361999836	553.8245338001288	n/a	n/a	554.8365607999731	555.6111135999672	2020-04-08 16:23:22.546931	-0.0236211513564241	0.0	0.0	0.0	0.0236211513564241	0.0	0.0236211513564241	0.0	0.0	0.0	0.0236211513564241	0.0	-10.610764665957035	-4.186452257493558	-3.4189705647670285	-8.919723500338296	-5.010939232026259	-3.4189705647670285	-1.030556736862189	-9.520337231375157	1.0904274345818754	-9.077932997090379	1.4725101748297893	1	missed	0.0
5.9237446000333875	6.941003900021315	nogo_punish	1.0	5.978660200024024	8.32845879998058	10.860193599946797	2.349798599956557	6.979264099849388	9.840815000003204	11.873578900005668	1.3491947001311928	1.0193785999435931	1.0460852000396699	n/a	1.0	n/a	1	0	2	1	nogo_punish	1	-1	0	0	0	1	0	n/a	n/a	0	1.0	1.0	549.6710896000732	555.6497498000972	556.6503536999226	557.9995484000538	559.5119046000764	560.53128320002	n/a	n/a	561.5446685000788	562.5907537001185	2020-04-08 16:23:22.546931	-0.0236211513564241	0.0	0.0	0.0	0.0236211513564241	0.0	0.0236211513564241	0.0	0.0	0.0	0.0236211513564241	0.0	-10.610764665957035	-4.186452257493558	-3.4189705647670285	-8.919723500338296	-5.010939232026259	-3.4189705647670285	-1.030556736862189	-9.520337231375157	1.0904274345818754	-9.077932997090379	1.4725101748297893	1	missed	0.0
12.904785200022161	6.78974899998866	go_punish	0.3030286999419331	12.959700800012797	14.805260899942368	17.346149099990726	1.8455600999295712	13.961662899935618	16.335663500009105	18.35884239990264	0.8435980000067502	1.010485599981621	1.3906074000988156	n/a	1.0	n/a	1	0	3	2	go_punish	1	0	-1	1	1	1	0	n/a	n/a	0	0.3030286999419331	1.0	549.6710896000732	562.630790400086	563.6327525000088	564.4763505000155	566.0067531000823	567.0172387000639	n/a	n/a	568.0299319999758	569.4205394000746	2020-04-08 16:23:22.546931	0.0236211513564241	0.0	0.0	0.0	0.0236211513564241	0.0	-0.0236211513564241	0.0	0.0	0.0236211513564241	0.0	0.0	-10.563522363244186	-4.186452257493558	-3.4189705647670285	-8.919723500338296	-5.010939232026259	-3.4189705647670285	-1.030556736862189	-9.496716080018732	1.0668062832254512	-9.077932997090379	1.4725101748297893	1	missed	0.0
19.741689200047404	5.911325799999759	nogo_reward	0.6227239000145346	19.79660480003804	21.131918200058863	23.68026930000633	1.3353134000208229	20.80433229985647	22.660871899919584	24.698583099991083	0.32758590020239353	1.0193974000867456	1.0093475000467151	n/a	1.0	n/a	1	0	4	3	nogo_reward	1	0	1	0	1	0	0	n/a	n/a	0	0.6227239000145346	1.0	549.6710896000732	569.4676944001112	570.4754218999296	570.803007800132	572.3319614999928	573.3513589000795	n/a	n/a	574.3696727000643	575.379020200111	2020-04-08 16:23:22.546931	0.0236211513564241	0.0	0.0	0.0	0.0236211513564241	0.0	-0.0236211513564241	0.0	0.0	0.0236211513564241	0.0	0.0	-10.563522363244186	-4.186452257493558	-3.4189705647670285	-8.919723500338296	-5.010939232026259	-3.4189705647670285	-1.030556736862189	-9.496716080018732	1.0668062832254512	-9.077932997090379	1.4725101748297893	1	missed	0.0
25.68944270000793	6.011051499983296	go_reward	0.5873769999016076	25.744358299998567	27.30501769995317	29.85654509998858	1.5606593999546021	26.758905400056392	28.830897700041533	30.871587099973112	0.5461122998967767	1.0256473999470472	0.88382270000875	n/a	1.0	n/a	1	0	5	4	go_reward	1	1	0	1	1	1	0	n/a	n/a	1	0.5873769999016076	1.0	549.6710896000732	575.4154479000717	576.4299950001296	576.9761073000263	578.5019873001147	579.5276347000618	n/a	n/a	580.5426767000463	581.426499400055	2020-04-08 16:23:22.546931	0.0236211513564241	0.0	0.0	0.0	0.0236211513564241	0.0	-0.0236211513564241	0.0	0.0	0.0236211513564241	0.0	32.3335010930356	-10.563522363244186	-4.186452257493558	-3.4189705647670285	-8.919723500338296	-5.010939232026259	-3.4189705647670285	31.302944356173413	-9.496716080018732	1.0668062832254512	-9.077932997090379	1.4725101748297893	1	missed	0.0
31.739581499947235	6.6716618000064045	nogo_reward	0.6560874001588672	31.79449709993787	33.66538770007901	36.22169220005162	1.8708906001411378	32.806460099993274	35.201586100040004	37.22543330001645	0.8589276000857353	1.020106100011617	1.2407255999278277	n/a	1.0	n/a	1	0	6	3	nogo_reward	1	0	1	0	1	0	1	n/a	n/a	0	0.6560874001588672	1.0	549.6710896000732	581.465586700011	582.4775497000664	583.3364773001522	584.8726757001132	585.8927818001248	n/a	n/a	586.8965229000896	588.1372485000174	2020-04-08 16:23:22.546931	0.0236211513564241	0.0	0.0	0.0	0.0236211513564241	0.0	-0.0236211513564241	0.0	0.0	0.0236211513564241	0.0	0.0	-10.563522363244186	-4.186452257493558	-3.4189705647670285	-8.919723500338296	-5.010939232026259	-3.4189705647670285	-1.030556736862189	-9.496716080018732	1.0668062832254512	-9.077932997090379	1.4725101748297893	1	missed	0.0
38.44901810004376	7.31059499992989	go_reward	0.2960516000166535	38.503933700034395	40.919385799905285	43.472661199979484	2.4154520998708904	39.507234500022605	42.456642400007695	44.471913599874824	1.4121512998826802	1.0160187999717891	1.3426151000894606	n/a	1.0	n/a	1	0	7	4	go_reward	1	1	0	1	1	1	1	n/a	n/a	1	0.2960516000166535	1.0	549.6710896000732	588.1750233001076	589.1783241000958	590.5904753999785	592.1277320000809	593.1437508000527	n/a	n/a	594.143003199948	595.4856183000375	2020-04-08 16:23:22.546931	19.25284431171	12.6339063463575	0.0	12.6339063463575	19.25284431171	0.0	-19.25284431171	12.6339063463575	0.0	19.25284431171	0.0	19.699594746678102	8.66570079710939	8.447454088863942	-3.4189705647670285	3.714182846019204	14.218283928327317	-3.4189705647670285	18.669038009815914	9.732507080334843	1.0668062832254512	3.5559733492671217	1.4725101748297893	1	missed	0.0
45.79082029988058	6.663112699985504	nogo_punish	1.0	45.845735899871215	47.62883999990299	50.14329540007748	1.7831041000317782	46.84746690001339	49.13371629989706	51.15621499996632	0.7813730998896062	1.0095791001804173	1.352633599890396	n/a	1.0	n/a	1	0	8	1	nogo_punish	1	-1	0	0	0	1	0	n/a	n/a	0	1.0	1.0	549.6710896000732	595.5168254999444	596.5185565000866	597.2999295999762	598.8048058999702	599.8143850001507	n/a	n/a	600.8273046000395	602.1799381999299	2020-04-08 16:23:22.546931	-0.0236211513564241	0.0	0.0	0.0	0.0236211513564241	0.0	0.0236211513564241	0.0	0.0	0.0	0.0236211513564241	0.0	-10.610764665957035	-4.186452257493558	-3.4189705647670285	-8.919723500338296	-5.010939232026259	-3.4189705647670285	-1.030556736862189	-9.520337231375157	1.0904274345818754	-9.077932997090379	1.4725101748297893	1	missed	0.0
52.49885750003159	7.10299459984526	go_punish	0.2824210000690073	52.55377310002223	55.33800720004365	57.89508549985476	2.784234100021422	53.57117179990746	56.87426159996539	58.896405400009826	1.7668354001361877	1.0208238998893648	0.7603622998576611	n/a	1.0	n/a	1	0	9	2	go_punish	1	0	-1	1	1	1	0	n/a	n/a	0	0.2824210000690073	1.0	549.6710896000732	602.2248627000954	603.2422613999806	605.0090968001168	606.5453512000386	607.5661750999279	n/a	n/a	608.567495000083	609.3278572999407	2020-04-08 16:23:22.546931	0.0236211513564241	0.0	0.0	0.0	0.0236211513564241	0.0	-0.0236211513564241	0.0	0.0	0.0236211513564241	0.0	0.0	-10.563522363244186	-4.186452257493558	-3.4189705647670285	-8.919723500338296	-5.010939232026259	-3.4189705647670285	-1.030556736862189	-9.496716080018732	1.0668062832254512	-9.077932997090379	1.4725101748297893	1	missed	0.0
59.640414000023156	5.9940636998508126	go_punish	1.0	59.69532960001379	61.27513780002482	63.80533459992148	1.5798082000110298	60.7077782000415	62.781417599879205	64.82087429985404	0.5673595999833196	1.0239170000422746	0.8685190000105649	n/a	1.0	n/a	1	0	10	2	go_punish	1	0	-1	1	0	0	0	n/a	n/a	-1	1.0	1.0	549.6710896000732	609.366419200087	610.3788678001147	610.946227400098	612.4525071999524	613.4764241999947	n/a	n/a	614.4919638999272	615.3604828999378	2020-04-08 16:23:22.546931	-0.0236211513564241	0.0	0.0	0.0	0.0236211513564241	0.0	0.0236211513564241	0.0	0.0	0.0	0.0236211513564241	-11.1529444487067	-10.610764665957035	-4.186452257493558	-3.4189705647670285	-8.919723500338296	-5.010939232026259	-3.4189705647670285	-12.18350118556889	-9.520337231375157	1.0904274345818754	-9.077932997090379	1.4725101748297893	1	missed	0.0
65.67024910007603	6.365697699831799	go_punish	0.3763534999452531	65.72516470006667	67.57416710001417	70.11675889999606	1.8490023999474943	66.72955809999257	69.09602799988352	71.12871670001186	0.8446090000215918	1.0207309001125395	0.9621456998866051	n/a	1.0	n/a	1	0	11	2	go_punish	1	0	-1	1	1	1	1	n/a	n/a	0	0.3763534999452531	1.0	549.6710896000732	615.3962543001398	616.4006477000657	617.2452567000873	618.7671175999567	619.7878485000692	n/a	n/a	620.799806300085	621.7619519999716	2020-04-08 16:23:22.546931	2.20128606010502	0.0	-4.25171931590345	-4.25171931590345	-2.05043325579843	-4.25171931590345	-2.20128606010502	0.0	-4.25171931590345	-2.05043325579843	-4.25171931590345	0.0	-8.38585745449559	-4.186452257493558	-7.670689880670478	-13.171442816241747	-7.084993639181112	-7.670689880670478	-1.030556736862189	-11.570770487173586	-3.1849130326779984	-9.077932997090379	-2.77920914107366	1	missed	0.0
72.07170480000786	6.757523800013587	go_reward	0.2765977000817656	72.1266203999985	73.91885919985361	76.47426180006005	1.792238799855113	73.13252580002882	75.45052379998378	77.47845280007459	0.7863333998247981	1.0237380000762641	1.4056913999374956	n/a	1.0	n/a	1	0	12	4	go_reward	1	1	0	1	1	1	0	n/a	n/a	1	0.2765977000817656	1.0	549.6710896000732	621.7977100000717	622.803615400102	623.5899487999268	625.121613400057	626.1453514001332	n/a	n/a	627.1495424001478	628.5552338000853	2020-04-08 16:23:22.546931	30.5079506861722	19.9477769633415	0.0	19.9477769633415	30.5079506861722	0.0	-30.5079506861722	19.9477769633415	0.0	30.5079506861722	0.0	12.3857241296941	19.92080717157159	15.761324705847942	-3.4189705647670285	11.028053463003204	25.473390302789518	-3.4189705647670285	11.35516739283191	20.987613454797042	1.0668062832254512	10.869843966251121	1.4725101748297893	1	missed	0.0
78.86718739988282	6.0210640002042055	go_reward	0.5655479000415653	78.92210299987346	80.3668853000272	82.919796400005	1.4447823001537472	79.94264789996669	81.89598389994353	83.92127519985661	0.4242374000605196	1.0238125000614673	1.0218918002210557	n/a	1.0	n/a	1	0	13	4	go_reward	1	1	0	1	1	1	0	n/a	n/a	1	0.5655479000415653	1.0	549.6710896000732	628.5931925999466	629.6137375000399	630.0379749001004	631.5670735000167	632.5908860000782	n/a	n/a	633.5923647999298	634.6142566001508	2020-04-08 16:23:22.546931	37.3240793283923	24.3366714878015	0.0	24.3366714878015	37.3240793283923	0.0	-37.3240793283923	24.3366714878015	0.0	37.3240793283923	0.0	7.996829605234101	26.73693581379169	20.15021923030794	-3.4189705647670285	15.416947987463203	32.28951894500962	-3.4189705647670285	6.966272868371912	27.803742097017142	1.0668062832254512	15.25873849071112	1.4725101748297893	1	missed	0.0
84.92419769987464	7.32431669998914	go_punish	1.0	84.97911329986528	87.75295119988732	90.28122300002724	2.7738379000220448	85.98718179995194	89.25749420002103	91.29070080001839	1.7657693999353796	1.0237288000062108	1.0127291998360306	n/a	1.0	n/a	1	0	14	2	go_punish	1	0	-1	1	0	0	0	n/a	n/a	-1	1.0	1.0	549.6710896000732	634.6502028999384	635.6582714000251	637.4240407999605	638.9285838000942	639.9523126001004	n/a	n/a	640.9617904000916	641.9745195999276	2020-04-08 16:23:22.546931	-3.01661055057014	0.0	-4.25171931590345	-2.49644644406654	-1.23510876533331	-4.25171931590345	3.01661055057014	-4.25171931590345	0.0	-4.25171931590345	-1.23510876533331	-6.90122513280325	-13.603754065170751	-4.186452257493558	-7.670689880670478	-11.416169944404837	-6.269669148715993	-7.670689880670478	-7.931781869665439	-13.772056547278606	-0.1683024821078587	-13.32965231299383	1.4725101748297893	1	missed	0.0
92.28164639999159	5.607029299950227	go_punish	1.0	92.33656199998222	93.6411039000377	96.1721967998892	1.304541900055483	93.3559343998786	95.15748419985175	97.17156649986282	0.2851695001590997	1.0147126000374556	0.7720248000696301	n/a	1.0	n/a	1	0	15	2	go_punish	1	0	-1	1	0	0	0	n/a	n/a	-1	1.0	1.0	549.6710896000732	642.0076516000554	643.0270239999518	643.3121935001109	644.8285737999249	645.8432863999624	n/a	n/a	646.842656099936	647.6146809000056	2020-04-08 16:23:22.546931	-3.91072779357473	0.0	-6.74816575996999	-5.77021021426447	-2.83743796639527	-6.74816575996999	3.91072779357473	-6.74816575996999	0.0	-6.74816575996999	-2.83743796639527	-4.40477868873671	-14.497871308175341	-4.186452257493558	-10.167136324737019	-14.689933714602766	-7.871998349777953	-10.167136324737019	-5.435335425598899	-16.268502991345148	-1.7706316831698188	-15.826098757060368	1.4725101748297893	1	missed	0.0
97.92602610005997	7.340717399958521	go_reward	0.3459795999806374	97.98094170005061	100.7183830998838	103.28116549993865	2.7374413998331875	98.98351039993577	102.25772299990058	104.28141449997202	1.7348726999480277	1.0234425000380725	1.0402446000371128	n/a	1.0	n/a	1	0	16	4	go_reward	1	1	0	1	1	1	0	n/a	n/a	1	0.3459795999806374	1.0	549.6710896000732	647.6520313001238	648.6546000000089	650.389472699957	651.9288125999738	652.9522551000118	n/a	n/a	653.9525041000452	654.9927487000823	2020-04-08 16:23:22.546931	41.5722092570222	27.0511023988275	0.0	27.0511023988275	41.5722092570222	0.0	-41.5722092570222	27.0511023988275	0.0	41.5722092570222	0.0	5.282398694208101	30.98506574242159	22.86465014133394	-3.4189705647670285	18.131378898489203	36.53764887363952	-3.4189705647670285	4.2518419573459125	32.05187202564704	1.0668062832254512	17.97316940173712	1.4725101748297893	1	missed	0.0
105.30319790006615	6.3305200999602675	go_punish	0.3315812000073492	105.35811350005679	107.03575169993564	109.5773976999335	1.6776381998788565	106.37260250002146	108.5660707000643	110.5803248998709	0.6631491999141872	1.0113269998691976	1.1083087001461536	n/a	1.0	n/a	1	0	17	2	go_punish	1	0	-1	1	1	1	1	n/a	n/a	0	0.3315812000073492	1.0	549.6710896000732	655.02920310013	656.0436921000946	656.7068413000088	658.2371603001375	659.2484873000067	n/a	n/a	660.2514144999441	661.3597232000902	2020-04-08 16:23:22.546931	4.45271226818147	0.0	-8.26665665833101	-7.69981827976129	-3.81394439014954	-8.26665665833101	-4.45271226818147	0.0	-8.26665665833101	-3.81394439014954	-8.26665665833101	0.0	-6.13443124641914	-4.186452257493558	-11.685627223098038	-16.61954178009959	-8.848504773532223	-11.685627223098038	-1.030556736862189	-13.334281621524697	-7.199850375105559	-9.077932997090379	-6.794146483501221	1	missed	0.0
111.67007069988176	6.25014610006474	go_punish	0.4759583999402821	111.7249862998724	113.19939669989981	115.75317569985054	1.4744104000274092	112.74071929999627	114.73340879986063	116.7555207000114	0.45867739990353584	1.0197668999899179	1.2196116999257356	n/a	1.0	n/a	1	0	18	2	go_punish	1	0	-1	1	1	1	0	n/a	n/a	0	0.4759583999402821	1.0	549.6710896000732	661.3960758999456	662.4118089000694	662.870486299973	664.4044983999338	665.4242652999237	n/a	n/a	666.4266103000846	667.6462220000103	2020-04-08 16:23:22.546931	5.91351149040762	0.0	-8.26665665833101	-4.62686175821588	-2.35314516792339	-8.26665665833101	-5.91351149040762	0.0	-8.26665665833101	-2.35314516792339	-8.26665665833101	0.0	-4.67363202419299	-4.186452257493558	-11.685627223098038	-13.546585258554177	-7.387705551306073	-11.685627223098038	-1.030556736862189	-11.873482399298547	-7.199850375105559	-9.077932997090379	-6.794146483501221	1	missed	0.0
117.96070059994236	6.840978400083259	nogo_punish	1.0	118.01561619993299	119.84175279992633	122.37512489990331	1.8261365999933332	119.02819540002383	121.35535890003666	123.3883247000631	0.8135573999024928	1.0197659998666495	1.4682698999531567	n/a	1.0	n/a	1	0	19	1	nogo_punish	1	-1	0	0	0	1	0	n/a	n/a	0	1.0	1.0	549.6710896000732	667.6867058000062	668.699285000097	669.5128423999995	671.0264485001098	672.0462144999765	n/a	n/a	673.0594143001363	674.5276842000894	2020-04-08 16:23:22.546931	-0.0236211513564241	0.0	0.0	0.0	0.0236211513564241	0.0	0.0236211513564241	0.0	0.0	0.0	0.0236211513564241	0.0	-10.610764665957035	-4.186452257493558	-3.4189705647670285	-8.919723500338296	-5.010939232026259	-3.4189705647670285	-1.030556736862189	-9.520337231375157	1.0904274345818754	-9.077932997090379	1.4725101748297893	1	missed	0.0
124.8374566999264	6.971832300070673	go_punish	0.2746301000006497	124.89237229991704	126.94980120006949	129.49852769984864	2.057428900152445	125.91185909998603	128.48825010005385	130.5115664000623	1.0379421000834554	1.0102775997947901	1.3526381999254227	n/a	1.0	n/a	1	0	20	2	go_punish	1	0	-1	1	1	1	1	n/a	n/a	0	0.2746301000006497	1.0	549.6710896000732	674.5634618999902	675.5829487000592	676.6208908001427	678.159339700127	679.1696172999218	n/a	n/a	680.1826560001355	681.5352942000609	2020-04-08 16:23:22.546931	6.77711394884949	0.0	-8.26665665833101	-2.87252639204965	-1.48954270948153	-8.26665665833101	-6.77711394884949	0.0	-8.26665665833101	-1.48954270948153	-8.26665665833101	0.0	-3.8100295657511207	-4.186452257493558	-11.685627223098038	-11.792249892387947	-6.5241030928642125	-11.685627223098038	-1.030556736862189	-11.009879940856687	-7.199850375105559	-9.077932997090379	-6.794146483501221	1	missed	0.0
131.84899859991856	6.190107099944726	nogo_reward	0.5440748000983149	131.9039141999092	133.57142099994235	136.12766729993746	1.667506800033152	132.91507479990833	135.10760340001434	137.1317263999954	0.6563462000340223	1.020063899923116	0.9622948998585343	n/a	1.0	n/a	1	0	21	3	nogo_reward	1	0	1	0	1	0	0	n/a	n/a	0	0.5440748000983149	1.0	549.6710896000732	681.5750037999824	682.5861643999815	683.2425106000155	684.7786930000875	685.7987569000106	n/a	n/a	686.8028160000686	687.7651108999271	2020-04-08 16:23:22.546931	0.0236211513564241	0.0	0.0	0.0	0.0236211513564241	0.0	-0.0236211513564241	0.0	0.0	0.0236211513564241	0.0	0.0	-10.563522363244186	-4.186452257493558	-3.4189705647670285	-8.919723500338296	-5.010939232026259	-3.4189705647670285	-1.030556736862189	-9.496716080018732	1.0668062832254512	-9.077932997090379	1.4725101748297893	1	missed	0.0
138.07959069986828	6.992472900077701	go_punish	0.2557689999230206	138.1345062998589	140.65081549994648	143.1919442000799	2.516309200087562	139.13417320000008	142.18149019987322	144.19454939989373	1.5166422999463975	1.0104540002066642	0.9324298000428826	n/a	1.0	n/a	1	0	22	2	go_punish	1	0	-1	1	1	1	1	n/a	n/a	0	0.2557689999230206	1.0	549.6710896000732	687.8055958999321	688.8052628000733	690.3219051000196	691.8525797999464	692.8630338001531	n/a	n/a	693.8656389999669	694.7980688000098	2020-04-08 16:23:22.546931	7.30381344482141	0.0	-8.26665665833101	-1.83345046976396	-0.962843213509596	-8.26665665833101	-7.30381344482141	0.0	-8.26665665833101	-0.962843213509596	-8.26665665833101	0.0	-3.2833300697792005	-4.186452257493558	-11.685627223098038	-10.753173970102257	-5.997403596892279	-11.685627223098038	-1.030556736862189	-10.483180444884752	-7.199850375105559	-9.077932997090379	-6.794146483501221	1	missed	0.0
145.1082349999342	6.237137299962342	go_reward	0.409357100026682	145.16315059992485	146.49703379999846	149.04660580004565	1.3338832000736147	146.16887860000134	148.0330705998931	150.04770540003665	0.32815519999712706	1.0135352001525462	1.3525824998505414	n/a	1.0	n/a	1	0	23	4	go_reward	1	1	0	1	1	1	0	n/a	n/a	1	0.409357100026682	1.0	549.6710896000732	694.834240199998	695.8399682000745	696.1681234000716	697.7041601999663	698.7176954001188	n/a	n/a	699.7187950001098	701.0713774999604	2020-04-08 16:23:22.546931	44.285871861716	28.773845470145	0.0	28.773845470145	44.285871861716	0.0	-44.285871861716	28.773845470145	0.0	44.285871861716	0.0	3.559655622890599	33.698728347115384	24.587393212651442	-3.4189705647670285	19.854121969806705	39.251311478333314	-3.4189705647670285	2.52909888602841	34.76553463034084	1.0668062832254512	19.695912473054623	1.4725101748297893	1	missed	0.0
151.38447989989072	6.999433200107887	nogo_reward	1.0	151.43939549988136	153.41970429988578	155.94828490004875	1.9803088000044227	152.45147239998914	154.92484889994375	156.9474585999269	0.9682318998966366	1.0234360001049936	1.4913701000623405	n/a	1.0	n/a	1	0	24	3	nogo_reward	1	0	1	0	0	1	0	n/a	n/a	1	1.0	1.0	549.6710896000732	701.1104850999545	702.1225620000623	703.090793899959	704.5959385000169	705.6193745001219	n/a	n/a	706.6185482000001	708.1099183000624	2020-04-08 16:23:22.546931	-0.0236211513564241	0.0	0.0	0.0	0.0236211513564241	0.0	0.0236211513564241	0.0	0.0	0.0	0.0236211513564241	32.3335010930356	-10.610764665957035	-4.186452257493558	-3.4189705647670285	-8.919723500338296	-5.010939232026259	-3.4189705647670285	31.302944356173413	-9.520337231375157	1.0904274345818754	-9.077932997090379	1.4725101748297893	1	missed	0.0
158.42270019999705	6.338125200010836	go_reward	0.3547001001425087	158.4776157999877	160.48688900005072	163.03841089992784	2.009273200063035	159.48540719994344	162.0176727999933	164.05540889990516	1.0014818001072854	1.0207380999345332	0.7603321000933647	n/a	1.0	n/a	1	0	25	4	go_reward	0	0	1	1	1	1	1	n/a	n/a	0	0.3547001001425087	1.0	549.6710896000732	708.1487054000609	709.1564968000166	710.1579786001239	711.6887624000665	712.709500500001	n/a	n/a	713.7264984999783	714.4868306000717	2020-04-08 16:23:22.546931	46.0569566112257	29.892023768195	0.0	29.892023768195	46.0569566112257	0.0	-46.0569566112257	29.892023768195	0.0	46.0569566112257	0.0	-29.892023768195	35.46981309662509	25.70557151070144	-3.4189705647670285	20.972300267856703	41.02239622784302	-3.4189705647670285	-30.922580505057187	36.53661937985054	1.0668062832254512	20.81409077110462	1.4725101748297893	1	missed	0.0
164.7973283000756	7.011098199989647	go_punish	0.3117105001583695	164.85224390006624	166.84066640003584	169.390838699881	1.9884224999696016	165.86666089994833	168.37274280004203	170.39805800002068	0.9740055000875145	1.0180958998389542	1.4652841000352055	n/a	1.0	n/a	1	0	26	2	go_punish	1	0	-1	1	1	1	0	n/a	n/a	0	0.3117105001583695	1.0	549.6710896000732	714.5233335001394	715.5377505000215	716.511756000109	718.0438324001152	719.0619282999542	n/a	n/a	720.0691476000939	721.5344317001291	2020-04-08 16:23:22.546931	7.63372658761709	0.0	-8.26665665833101	-1.19852370115296	-0.63293007071392	-8.26665665833101	-7.63372658761709	0.0	-8.26665665833101	-0.63293007071392	-8.26665665833101	0.0	-2.95341692698352	-4.186452257493558	-11.685627223098038	-10.118247201491256	-5.667490454096603	-11.685627223098038	-1.030556736862189	-10.153267302089077	-7.199850375105559	-9.077932997090379	-6.794146483501221	1	missed	0.0
171.84299899986945	6.606594300130382	nogo_punish	1.0	171.8979145998601	174.1385949999094	176.68382939998992	2.240680400049314	172.91435709991492	175.65921920002438	177.6984717999585	1.2242378999944776	1.0246101999655366	0.8060371000319719	n/a	1.0	n/a	1	0	27	1	nogo_punish	0	0	-1	0	0	1	0	n/a	n/a	-1	1.0	1.0	549.6710896000732	721.5690041999333	722.5854466999881	723.8096845999826	725.3303088000976	726.3549190000631	n/a	n/a	727.3695614000317	728.1755985000636	2020-04-08 16:23:22.546931	-0.0236211513564241	0.0	0.0	0.0	0.0236211513564241	0.0	0.0236211513564241	0.0	0.0	0.0	0.0236211513564241	-11.1529444487067	-10.610764665957035	-4.186452257493558	-3.4189705647670285	-8.919723500338296	-5.010939232026259	-3.4189705647670285	-12.18350118556889	-9.520337231375157	1.0904274345818754	-9.077932997090379	1.4725101748297893	1	missed	0.0
178.495544699952	7.106015699915588	nogo_reward	1.0	178.55046029994264	180.87381829996593	183.4135020999238	2.3233580000232905	179.54602449992672	182.38923430000432	184.4130342998542	1.3277938000392169	1.0242677999194711	1.2434417000040412	n/a	1.0	n/a	1	0	28	3	nogo_reward	1	0	1	0	0	1	0	n/a	n/a	1	1.0	1.0	549.6710896000732	728.2215499000158	729.2171140999999	730.5449079000391	732.0603239000775	733.084591699997	n/a	n/a	734.0841238999274	735.3275655999314	2020-04-08 16:23:22.546931	6.01496838100501	0.0	12.6339063463575	12.6339063463575	6.61893796535248	12.6339063463575	-6.01496838100501	12.6339063463575	0.0	12.6339063463575	6.61893796535248	19.699594746678102	-4.5721751335956	-4.186452257493558	9.214935781590473	3.714182846019204	1.5843775819697967	9.214935781590473	18.669038009815914	3.1135691149823437	7.685744248577931	3.5559733492671217	1.4725101748297893	1	missed	0.0
185.6413338999264	7.44422210007906	nogo_reward	1.0	185.69624949991703	188.16591229988262	190.6947895998601	2.4696627999655902	186.70723029994406	189.67100679990835	191.70376079995185	1.4586819999385625	1.0237827999517322	1.4367108000442386	n/a	1.0	n/a	1	0	29	3	nogo_reward	1	0	1	0	0	1	0	n/a	n/a	1	1.0	1.0	549.6710896000732	735.3673390999902	736.3783199000172	737.8370018999558	739.3420963999815	740.3658791999333	n/a	n/a	741.374850400025	742.8115612000693	2020-04-08 16:23:22.546931	9.38760324051076	0.0	19.9477769633415	19.9477769633415	10.5601737228307	19.9477769633415	-9.38760324051076	19.9477769633415	0.0	19.9477769633415	10.5601737228307	12.3857241296941	-1.1995402740898502	-4.186452257493558	16.52880639857447	11.028053463003204	5.525613339448018	16.52880639857447	11.35516739283191	10.427439731966343	11.626980006056153	10.869843966251121	1.4725101748297893	1	missed	0.0
193.1222162998747	7.643845800077543	go_reward	0.3566103999037295	193.17713189986534	195.79203250003047	198.34050849988125	2.6149006001651287	194.18087809998542	197.32870700000785	199.341697699856	1.6111544000450522	1.0118014998733997	1.4792800000868738	n/a	1.0	n/a	1	0	30	4	go_reward	0	0	1	1	1	1	0	n/a	n/a	0	0.3566103999037295	1.0	549.6710896000732	742.8482214999385	743.8519677000586	745.4631221001036	746.999796600081	748.0115980999544	n/a	n/a	749.0127872999292	750.4920673000161	2020-04-08 16:23:22.546931	28.0057861030141	17.9983907170901	0.0	17.9983907170901	28.0057861030141	0.0	-28.0057861030141	17.9983907170901	0.0	28.0057861030141	0.0	-17.9983907170901	17.41864258841349	13.811938459596542	-3.4189705647670285	9.078667216751803	22.971225719631416	-3.4189705647670285	-19.028947453952288	18.485448871638944	1.0668062832254512	8.920457719999721	1.4725101748297893	1	missed	0.0
200.80444590002298	7.238262800034136	go_reward	0.2951516001485288	200.85936150001362	203.3565567000769	205.90132239996456	2.497195200063288	201.87201069993898	204.87773389997892	206.8999610999599	1.4845460001379251	1.0235884999856353	1.1976632000878453	n/a	1.0	n/a	1	0	31	4	go_reward	1	1	0	1	1	1	0	n/a	n/a	1	0.2951516001485288	1.0	549.6710896000732	750.5304511000868	751.5431003000122	753.0276463001501	754.5488235000521	755.5724120000377	n/a	n/a	756.5710507000331	757.7687139001209	2020-04-08 16:23:22.546931	17.547679483782	11.1833260131931	0.0	11.1833260131931	17.547679483782	0.0	-17.547679483782	11.1833260131931	0.0	17.547679483782	0.0	21.1501750798425	6.960535969181391	6.996873755699541	-3.4189705647670285	2.2636025128548027	12.513119100399319	-3.4189705647670285	20.119618342980313	8.027342252406845	1.0668062832254512	2.1053930161027203	1.4725101748297893	1	missed	0.0
208.08031079987995	6.3575149001553655	go_reward	0.3308326001279056	208.1352263998706	209.69560129987076	212.25037789996713	1.5603749000001699	209.14228120003827	211.22680100006983	213.25931250001304	0.5533200998324901	1.0235768998973072	1.2334288000129163	n/a	1.0	n/a	1	0	32	4	go_reward	1	1	0	1	1	1	1	n/a	n/a	1	0.3308326001279056	1.0	549.6710896000732	757.8063159999438	758.8133708001114	759.3666908999439	760.897890600143	761.9214675000403	n/a	n/a	762.9304021000862	764.1638309000991	2020-04-08 16:23:22.546931	30.5082949894583	19.7698172348167	0.0	19.7698172348167	30.5082949894583	0.0	-30.5082949894583	19.7698172348167	0.0	30.5082949894583	0.0	12.563683858218901	19.921151474857687	15.583364977323141	-3.4189705647670285	10.850093734478403	25.473734606075617	-3.4189705647670285	11.533127121356712	20.98795775808314	1.0668062832254512	10.69188423772632	1.4725101748297893	1	missed	0.0
214.47405970003456	6.515888399910182	go_reward	0.4040107000619173	214.5289753000252	216.00470609986223	218.55411539995112	1.475730799837038	215.53529209992848	217.5407436999958	219.5570197000634	0.46941399993374944	1.0133716999553144	1.4878439998719841	n/a	1.0	n/a	1	0	33	4	go_reward	0	0	1	1	1	1	1	n/a	n/a	0	0.4040107000619173	1.0	549.6710896000732	764.2000649000984	765.2063817000017	765.6757956999354	767.211833300069	768.2252050000243	n/a	n/a	769.2281093001366	770.7159533000086	2020-04-08 16:23:22.546931	37.8966794342955	24.6064222232559	0.0	24.6064222232559	37.8966794342955	0.0	-37.8966794342955	24.6064222232559	0.0	37.8966794342955	0.0	-24.6064222232559	27.309535919694888	20.41996996576234	-3.4189705647670285	15.686698722917605	32.86211905091282	-3.4189705647670285	-25.63697896011809	28.37634220292034	1.0668062832254512	15.528489226165522	1.4725101748297893	1	missed	0.0
221.02816369989887	6.321596800116822	nogo_punish	0.659050100017339	221.0830792998895	222.93141039996408	225.4669371000491	1.8483311000745744	222.08747989987023	224.45269230008125	226.46726699988358	0.8439305000938475	1.0142447999678552	0.9374091001227498	n/a	1.0	n/a	1	0	34	1	nogo_punish	1	-1	0	0	1	0	0	n/a	n/a	-1	0.659050100017339	1.0	549.6710896000732	770.7541688999627	771.7585694999434	772.6025000000373	774.1237819001544	775.1380267001223	n/a	n/a	776.1383565999568	777.0757657000795	2020-04-08 16:23:22.546931	2.20128606010502	0.0	-4.25171931590345	-4.25171931590345	-2.05043325579843	-4.25171931590345	-2.20128606010502	0.0	-4.25171931590345	-2.05043325579843	-4.25171931590345	-11.1529444487067	-8.38585745449559	-4.186452257493558	-7.670689880670478	-13.171442816241747	-7.084993639181112	-7.670689880670478	-12.18350118556889	-11.570770487173586	-3.1849130326779984	-9.077932997090379	-2.77920914107366	1	missed	0.0
227.38224210008048	6.299451399827376	go_reward	1.0	227.4371577000711	228.79986390005797	231.32406229991466	1.3627061999868602	228.44040560000576	230.30435990006663	232.33708099997602	0.3594583000522107	1.019702399848029	1.3995280999224633	n/a	1.0	n/a	1	0	35	4	go_reward	1	1	0	1	0	0	1	n/a	n/a	0	1.0	1.0	549.6710896000732	777.1082473001443	778.1114952000789	778.4709535001311	779.9754495001398	780.9951518999878	n/a	n/a	782.0081706000492	783.4076986999717	2020-04-08 16:23:22.546931	-23.0390213279115	14.8055640788691	0.0	14.8055640788691	23.0390213279115	0.0	23.0390213279115	0.0	14.8055640788691	0.0	23.0390213279115	0.0	-33.62616484251211	10.619111821375542	-3.4189705647670285	5.885840578530804	18.004460944528816	-3.4189705647670285	-1.030556736862189	-9.520337231375157	24.10582761113695	-9.077932997090379	16.27807425369889	1	missed	0.0
233.71797359990887	7.0092964000068605	go_punish	0.2883645000401884	233.7728891998995	236.22721639997326	238.78470860002562	2.454327200073749	234.7859966000542	237.765101299854	239.7887263998855	1.441219799919054	1.0196073001716286	0.9934592000208795	n/a	1.0	n/a	1	0	36	2	go_punish	1	0	-1	1	1	1	0	n/a	n/a	0	0.2883645000401884	1.0	549.6710896000732	783.4439787999727	784.4570862001274	785.8983060000464	787.4361908999272	788.4557982000988	n/a	n/a	789.4598159999587	790.4532751999795	2020-04-08 16:23:22.546931	7.84522751746844	0.0	-8.26665665833101	-0.800009124785331	-0.42142914086257	-8.26665665833101	-7.84522751746844	0.0	-8.26665665833101	-0.42142914086257	-8.26665665833101	0.0	-2.7419159971321703	-4.186452257493558	-11.685627223098038	-9.719732625123628	-5.455989524245253	-11.685627223098038	-1.030556736862189	-9.941766372237726	-7.199850375105559	-9.077932997090379	-6.794146483501221	1	missed	0.0
240.76355609996244	6.699940100079402	nogo_punish	1.0	240.81847169995308	242.51202080002986	245.0364812000189	1.6935491000767797	241.82388839987107	244.02640259987675	246.04974980000407	0.6881324001587927	1.0100786001421511	1.4686620000284165	n/a	1.0	n/a	1	0	37	1	nogo_punish	1	-1	0	0	0	1	0	n/a	n/a	0	1.0	1.0	549.6710896000732	790.4895613000263	791.4949779999442	792.183110400103	793.6974921999499	794.7075708000921	n/a	n/a	795.7208394000772	797.1895014001057	2020-04-08 16:23:22.546931	3.30916317248816	-4.25171931590345	-4.25171931590345	-6.74816575996999	-7.56088248839161	-4.25171931590345	-3.30916317248816	-4.25171931590345	-4.25171931590345	-4.25171931590345	-7.56088248839161	4.25171931590345	-7.27798034211245	-8.438171573397007	-7.670689880670478	-15.667889260308286	-12.595442871774292	-7.670689880670478	3.221162579041261	-13.772056547278606	-6.494076205166159	-13.32965231299383	-2.77920914107366	1	missed	0.0
247.50031400006264	5.972164899809286	go_reward	0.4539723999332636	247.55522960005328	249.06069229985587	251.61474990006536	1.5054626998025924	248.55933950003237	250.59697910002433	252.62748859985732	0.5013527998235077	1.0177708000410348	0.8999059000052512	n/a	1.0	n/a	1	0	38	4	go_reward	0	0	1	1	1	1	0	n/a	n/a	0	0.4539723999332636	1.0	549.6710896000732	797.2263192001265	798.2304291001055	798.731781899929	800.2680687000975	801.2858395001385	n/a	n/a	802.2985781999305	803.1984840999357	2020-04-08 16:23:22.546931	20.0518031006058	14.8055640788691	0.0	9.20682001565881	20.0518031006058	0.0	-20.0518031006058	14.8055640788691	0.0	20.0518031006058	0.0	-14.8055640788691	9.464659586005189	10.619111821375542	-3.4189705647670285	0.2870965153205134	15.017242717223116	-3.4189705647670285	-15.83612081573129	10.531465869230642	1.0668062832254512	5.727631081778721	1.4725101748297893	1	missed	0.0
253.5148735998664	7.256755500100553	nogo_reward	1.0	253.56978919985704	256.34339459985495	258.8667436998803	2.773605399997905	254.57818700000644	257.8538764999248	259.86819559987634	1.7652075998485088	1.0128671999555081	0.9583491000812501	n/a	1.0	n/a	1	0	39	3	nogo_reward	1	0	1	0	0	1	0	n/a	n/a	1	1.0	1.0	549.6710896000732	803.2408787999302	804.2492766000796	806.0144841999281	807.524966099998	808.5378332999535	n/a	n/a	809.5392851999495	810.4976343000308	2020-04-08 16:23:22.546931	11.3492636472107	0.0	24.3366714878015	24.3366714878015	12.9874078405908	24.3366714878015	-11.3492636472107	24.3366714878015	0.0	24.3366714878015	12.9874078405908	7.996829605234101	0.7621201326100895	-4.186452257493558	20.91770092303447	15.416947987463203	7.952847457208117	20.91770092303447	6.966272868371912	14.816334256426343	14.054214123816251	15.25873849071112	1.4725101748297893	1	missed	0.0
260.8081084000878	6.340139599982649	go_reward	0.4245022998657077	260.86302400007844	262.26929309987463	264.8010368999094	1.4062690997961909	261.8759081000462	263.79004550003447	265.8034206999	0.39338499982841313	1.0109913998749107	1.3997429001610726	n/a	1.0	n/a	1	0	40	4	go_reward	0	0	1	1	1	1	1	n/a	n/a	0	0.4245022998657077	1.0	549.6710896000732	810.5341136001516	811.5469977001194	811.9403826999478	813.4611351001076	814.4721264999826	n/a	n/a	815.4745102999732	816.8742532001343	2020-04-08 16:23:22.546931	12.6319732067927	9.20682001565881	0.0	5.88601219390652	12.6319732067927	0.0	-12.6319732067927	9.20682001565881	0.0	12.6319732067927	0.0	-9.20682001565881	2.0448296921920903	5.020367758165252	-3.4189705647670285	-3.0337113064317762	7.597412823410018	-3.4189705647670285	-10.237376752521	3.1116359754175438	1.0668062832254512	0.128887018568431	1.4725101748297893	1	missed	0.0
267.1836570999585	6.405072699999437	go_punish	0.3206064000260085	267.23857269994915	268.9629949000664	271.5007313999813	1.7244222001172602	268.253767499933	270.4900493999012	272.5137779000215	0.7092274001333863	1.0106820000801235	1.1298674999270588	n/a	1.0	n/a	1	0	41	2	go_punish	1	0	-1	1	1	1	0	n/a	n/a	0	0.3206064000260085	1.0	549.6710896000732	816.9096623000223	817.9248571000062	818.6340845001396	820.1611389999744	821.1718210000545	n/a	n/a	822.1848675000947	823.3147350000218	2020-04-08 16:23:22.546931	7.98361701180282	0.0	-8.26665665833101	-0.543963771059732	-0.283039646528196	-8.26665665833101	-7.98361701180282	0.0	-8.26665665833101	-0.283039646528196	-8.26665665833101	0.0	-2.6035265027977905	-4.186452257493558	-11.685627223098038	-9.463687271398028	-5.317600029910879	-11.685627223098038	-1.030556736862189	-9.803376877903354	-7.199850375105559	-9.077932997090379	-6.794146483501221	1	missed	0.0
273.6245790000539	6.381940599996597	nogo_punish	1.0	273.67949460004456	275.61872259993106	278.1428465000354	1.9392279998864979	274.6903512000572	277.12319840001874	279.1559102998581	0.9283713998738676	1.0196481000166386	0.9055249001830816	n/a	1.0	n/a	1	0	42	1	nogo_punish	1	-1	0	0	0	1	0	n/a	n/a	0	1.0	1.0	549.6710896000732	823.3505842001177	824.3614408001304	825.2898122000042	826.7942880000919	827.8139361001085	n/a	n/a	828.8269998999313	829.7325248001143	2020-04-08 16:23:22.546931	3.77738634776705	-4.25171931590345	-2.49644644406654	-4.01493734242756	-6.2738327918336	-2.49644644406654	-3.77738634776705	-2.49644644406654	-4.25171931590345	-2.49644644406654	-6.2738327918336	2.49644644406654	-6.80975716683356	-8.438171573397007	-5.915417008833568	-12.934660842765856	-11.308393175216283	-5.915417008833568	1.465889707204351	-12.016783675441697	-5.207026508608148	-11.57437944115692	-2.77920914107366	1	missed	0.0
280.0485519000795	6.256965899839997	nogo_reward	1.0	280.1034675000701	281.59437109995633	284.1362806998659	1.4909035998862237	281.1025988999754	283.1097013000399	285.1482110999059	0.4917721999809146	1.026579399826005	1.212222300004214	n/a	1.0	n/a	1	0	43	3	nogo_reward	1	0	1	0	0	1	0	n/a	n/a	1	1.0	1.0	549.6710896000732	829.7745571001433	830.7736885000486	831.2654607000295	832.7807909001131	833.8073702999391	n/a	n/a	834.8193006999791	836.0315229999833	2020-04-08 16:23:22.546931	12.5299955406327	0.0	27.0511023988275	27.0511023988275	14.5211068581947	27.0511023988275	-12.5299955406327	27.0511023988275	0.0	27.0511023988275	14.5211068581947	5.282398694208101	1.9428520260320905	-4.186452257493558	23.63213183406047	18.131378898489203	9.486546474812018	23.63213183406047	4.2518419573459125	17.530765167452344	15.587913141420152	17.97316940173712	1.4725101748297893	1	missed	0.0
286.3427057999652	6.751517900032923	nogo_reward	1.0	286.3976213999558	288.3078747999389	290.8281799000688	1.9102533999830484	287.40199869987555	289.813527100021	291.83717349986546	0.905876100063324	1.0146528000477701	1.3119658001232892	n/a	1.0	n/a	1	0	44	3	nogo_reward	1	0	1	0	0	1	0	n/a	n/a	1	1.0	1.0	549.6710896000732	836.068711000029	837.0730882999487	837.978964400012	839.4846167000942	840.499269500142	n/a	n/a	841.5082630999386	842.8202289000619	2020-04-08 16:23:22.546931	13.2618190785739	0.0	28.773845470145	28.773845470145	15.512026391571	28.773845470145	-13.2618190785739	28.773845470145	0.0	28.773845470145	15.512026391571	3.559655622890599	2.67467556397329	-4.186452257493558	25.354874905377972	19.854121969806705	10.477466008188317	25.354874905377972	2.52909888602841	19.253508238769847	16.578832674796452	19.695912473054623	1.4725101748297893	1	missed	0.0
293.1285546000581	6.514734499854967	nogo_punish	1.0	293.18347020004876	294.7614432000555	297.28871280001476	1.5779730000067502	294.1999973000493	296.2778103000019	298.3018050000537	0.5614459000062197	1.0109025000128895	1.396399699850008	n/a	1.0	n/a	1	0	45	1	nogo_punish	1	-1	0	0	0	1	0	n/a	n/a	0	1.0	1.0	549.6710896000732	842.8545598001219	843.8710869001225	844.4325328001287	845.948899900075	846.9598024000879	n/a	n/a	847.9728946001269	849.3692942999769	2020-04-08 16:23:22.546931	4.00139319444423	-4.25171931590345	-1.51849089836102	-2.47014341815232	-5.51988409280525	-1.51849089836102	-4.00139319444423	-1.51849089836102	-4.25171931590345	-1.51849089836102	-5.51988409280525	1.51849089836102	-6.5857503201563805	-8.438171573397007	-4.937461463128049	-11.389866918490616	-10.554444476187932	-4.937461463128049	0.48793416149883084	-11.038828129736176	-4.453077809579799	-10.596423895451398	-2.77920914107366	1	missed	0.0
299.682382900035	5.809556599939242	go_punish	0.7329922001808882	299.73729850002564	301.1017507999204	303.6437510000542	1.364452299894765	300.7428067000583	302.63275979994796	304.6474365000613	0.3589440998621285	1.0109912001062185	0.8994185999035835	n/a	1.0	n/a	1	0	46	2	go_punish	1	0	-1	1	1	1	0	n/a	n/a	0	0.7329922001808882	1.0	549.6710896000732	849.4083881000988	850.4138963001315	850.7728403999936	852.3038494000211	853.3148406001274	n/a	n/a	854.3185261001345	855.2179447000381	2020-04-08 16:23:22.546931	8.07583280000254	0.0	-8.26665665833101	-0.376025408231185	-0.190823858328476	-8.26665665833101	-8.07583280000254	0.0	-8.26665665833101	-0.190823858328476	-8.26665665833101	0.0	-2.5113107145980695	-4.186452257493558	-11.685627223098038	-9.29574890856948	-5.225384241711159	-11.685627223098038	-1.030556736862189	-9.711161089703634	-7.199850375105559	-9.077932997090379	-6.794146483501221	1	missed	0.0
305.5262378999032	5.874312300002202	go_punish	0.5380806000903249	305.58115349989384	306.950666599907	309.4861479999963	1.3695131000131369	306.5902656998951	308.477383099962	310.49349729996175	0.3604009000118822	1.0087649000342935	0.9619684999343008	n/a	1.0	n/a	1	0	47	2	go_punish	1	0	-1	1	1	1	0	n/a	n/a	0	0.5380806000903249	1.0	549.6710896000732	855.252243099967	856.2613552999683	856.6217561999802	858.1484727000352	859.1572376000695	n/a	n/a	860.1645869000349	861.1265553999692	2020-04-08 16:23:22.546931	8.13829586825145	0.0	-8.26665665833101	-0.263830285848912	-0.128360790079559	-8.26665665833101	-8.13829586825145	0.0	-8.26665665833101	-0.128360790079559	-8.26665665833101	0.0	-2.4488476463491597	-4.186452257493558	-11.685627223098038	-9.183553786187208	-5.162921173462242	-11.685627223098038	-1.030556736862189	-9.648698021454717	-7.199850375105559	-9.077932997090379	-6.794146483501221	1	missed	0.0
311.43568279989995	7.051741900155321	go_punish	0.2809279998764395	311.4905983998906	313.787712499965	316.32606639992446	2.2971141000743955	312.5063016999047	315.30865080002695	317.3301687000785	1.2814108000602573	1.0174155998975039	1.2121715999674052	n/a	1.0	n/a	1	0	48	2	go_punish	1	0	-1	1	1	1	1	n/a	n/a	0	0.2809279998764395	1.0	549.6710896000732	861.1616879999638	862.1773912999779	863.4588021000382	864.9797404001001	865.9971559999976	n/a	n/a	867.0012583001517	868.2134299001191	2020-04-08 16:23:22.546931	8.18123874487835	0.0	-8.26665665833101	-0.187624770591884	-0.08541791345266	-8.26665665833101	-8.18123874487835	0.0	-8.26665665833101	-0.08541791345266	-8.26665665833101	0.0	-2.4059047697222606	-4.186452257493558	-11.685627223098038	-9.10734827093018	-5.119978296835343	-11.685627223098038	-1.030556736862189	-9.605755144827818	-7.199850375105559	-9.077932997090379	-6.794146483501221	1	missed	0.0
318.52693559997715	6.313105100067332	go_punish	0.3786183001939207	318.5818511999678	320.3500401999336	322.9010129000526	1.768188999965787	319.5825737998821	321.8722824999131	323.9109036999289	0.7674664000514895	1.028730400139466	0.9840526001062244	n/a	1.0	n/a	1	0	49	2	go_punish	0	-1	0	1	1	1	1	n/a	n/a	-1	0.3786183001939207	1.0	549.6710896000732	868.252940800041	869.2536633999553	870.0211298000067	871.5433720999863	872.5721025001258	n/a	n/a	873.5819933000021	874.5660459001083	2020-04-08 16:23:22.546931	8.21116430957199	0.0	-8.26665665833101	-0.135082183515869	-0.0554923487590184	-8.26665665833101	-8.21116430957199	0.0	-8.26665665833101	-0.0554923487590184	-8.26665665833101	-11.1529444487067	-2.375979205028621	-4.186452257493558	-11.685627223098038	-9.054805683854166	-5.090052732141701	-11.685627223098038	-12.18350118556889	-9.575829580134176	-7.199850375105559	-9.077932997090379	-6.794146483501221	1	missed	0.0
324.87421739986166	6.497275400208309	nogo_punish	1.0	324.9291329998523	326.6078311998863	329.1320422999561	1.6786982000339776	325.9357640000526	328.1125274999067	330.1363913998939	0.6720671998336911	1.0195148000493646	1.2900170001666993	n/a	1.0	n/a	1	0	50	1	nogo_punish	1	-1	0	0	0	1	0	n/a	n/a	0	1.0	1.0	549.6710896000732	874.6002225999255	875.6068536001258	876.2789207999595	877.7836170999799	878.8031319000293	n/a	n/a	879.8074809999671	881.0974980001338	2020-04-08 16:23:22.546931	4.11225855441034	-4.25171931590345	-0.9516525197913	-1.56357693557962	-5.06391107420164	-0.9516525197913	-4.11225855441034	-0.9516525197913	-4.25171931590345	-0.9516525197913	-5.06391107420164	0.9516525197913	-6.474884960190271	-8.438171573397007	-4.3706230845583285	-10.483300435917917	-10.098471457584324	-4.3706230845583285	-0.07890421707088913	-10.471989751166458	-3.997104790976189	-10.029585516881678	-2.77920914107366	1	missed	0.0
331.40837599989027	7.751862799981609	go_reward	0.2820712001994252	331.4632915998809	334.4455903999042	336.99991629994474	2.9822988000232726	332.47747749998234	335.9739991999231	338.0097318000626	1.9681128999218345	1.0259171000216156	1.205422599799931	n/a	1.0	n/a	1	0	51	4	go_reward	1	1	0	1	1	1	0	n/a	n/a	1	0.2820712001994252	1.0	549.6710896000732	881.1343811999541	882.1485671000555	884.1166799999774	885.6450887999963	886.6710059000179	n/a	n/a	887.6808214001358	888.8862439999357	2020-04-08 16:23:22.546931	8.170922766489	5.88601219390652	0.0	3.85325653690838	8.170922766489	0.0	-8.170922766489	5.88601219390652	0.0	8.170922766489	0.0	26.44748889912908	-2.416220748111611	1.699559936412962	-3.4189705647670285	-5.066466963429916	3.1363623831063165	-3.4189705647670285	25.416932162266892	-1.3494144648861575	1.0668062832254512	-3.1919208031838586	1.4725101748297893	1	missed	0.0
339.2047734998632	7.163054300006479	nogo_reward	1.0	339.25968909985386	341.96947690006346	344.496951200068	2.7097878002095968	340.2663018000312	343.4847351999488	345.50693739997223	1.7031751000322402	1.0122160001192242	0.9158059998881072	n/a	1.0	n/a	1	0	52	3	nogo_reward	1	0	1	0	0	1	0	n/a	n/a	1	1.0	1.0	549.6710896000732	888.930778699927	889.9373914001044	891.6405665001366	893.155824800022	894.1680408001412	n/a	n/a	895.1780270000454	896.0938329999335	2020-04-08 16:23:22.546931	13.7270909251642	0.0	29.892023768195	29.892023768195	16.1649328430307	29.892023768195	-13.7270909251642	29.892023768195	0.0	29.892023768195	16.1649328430307	2.4414773248406014	3.1399474105635896	-4.186452257493558	26.47305320342797	20.972300267856703	11.130372459648019	26.47305320342797	1.4109205879784124	20.371686536819844	17.23173912625615	20.81409077110462	1.4725101748297893	1	missed	0.0
346.4031990999356	7.480073499958962	nogo_punish	1.0	346.4581146999262	349.01171729993075	351.52512559993204	2.553602600004524	347.46505680005066	350.51646569999866	352.53847629996005	1.5466604998800904	1.0086598999333773	1.399711899925137	n/a	1.0	n/a	1	0	53	1	nogo_punish	1	-1	0	0	0	1	0	n/a	n/a	0	1.0	1.0	549.6710896000732	896.1292042999994	897.1361464001238	898.6828069000039	900.1875553000718	901.1962152000052	n/a	n/a	902.2095659000332	903.6092777999584	2020-04-08 16:23:22.546931	4.16858337333166	-4.25171931590345	-0.61192441578832	-1.01430738968566	-4.78050778911998	-0.61192441578832	-4.16858337333166	-0.61192441578832	-4.25171931590345	-0.61192441578832	-4.78050778911998	0.61192441578832	-6.418560141268951	-8.438171573397007	-4.030894980555349	-9.934030890023957	-9.815068172502663	-4.030894980555349	-0.41863232107386905	-10.132261647163476	-3.713701505894529	-9.689857412878698	-2.77920914107366	1	missed	0.0
353.91893339995295	6.148756900103649	go_reward	0.3627217998728156	353.9738489999436	355.4169660999904	357.9669625000096	1.443117100046834	354.9788500999566	356.9525717999786	358.966443500016	0.43811600003380136	1.0143907000309582	1.156162400031235	n/a	1.0	n/a	1	0	54	4	go_reward	1	1	0	1	1	1	0	n/a	n/a	1	0.3627217998728156	1.0	549.6710896000732	903.6449386000168	904.6499397000298	905.0880557000636	906.6236614000518	907.6380521000827	n/a	n/a	908.6375331000892	909.7936955001204	2020-04-08 16:23:22.546931	24.6367820078906	16.4871628832659	0.0	15.2089871616768	24.6367820078906	0.0	-24.6367820078906	16.4871628832659	0.0	24.6367820078906	0.0	15.846338209769701	14.049638493289988	12.300710625772341	-3.4189705647670285	6.289263661338504	19.602221624507916	-3.4189705647670285	14.815781472907512	15.116444776515442	1.0668062832254512	7.40922988617552	1.4725101748297893	1	missed	0.0
360.11183950002294	7.557657599914819	go_punish	0.408371299970895	360.1667551000136	362.7492040998768	365.29045069986023	2.5824489998632316	361.1734986999072	364.2797002000734	366.3028965999838	1.5757053999695927	1.010750499786809	1.421516099944597	n/a	1.0	n/a	1	0	55	2	go_punish	1	0	-1	1	1	1	0	n/a	n/a	0	0.408371299970895	1.0	549.6710896000732	909.8378447000867	910.8445882999804	912.42029369995	913.9507898001466	914.9615402999334	n/a	n/a	915.973986200057	917.3955023000016	2020-04-08 16:23:22.546931	1.9065054921833	-4.25171931590345	-8.26665665833101	-4.35007562443243	-6.36015116614771	-8.26665665833101	-1.9065054921833	-4.25171931590345	-8.26665665833101	-6.36015116614771	-8.26665665833101	4.25171931590345	-8.68063802241731	-8.438171573397007	-11.685627223098038	-13.269799124770726	-11.394711549530392	-11.685627223098038	3.221162579041261	-15.880488397522868	-7.199850375105559	-13.32965231299383	-6.794146483501221	1	missed	0.0
367.7091762998606	6.985533700091992	go_punish	0.3157713001128286	367.7640918998512	369.94596549985	372.48690859996725	2.1818735999987666	368.7831079000608	371.4770035999828	373.4998806999064	1.162857599789163	1.0099049999844283	1.2497449000368306	n/a	1.0	n/a	1	0	56	2	go_punish	1	0	-1	1	1	1	0	n/a	n/a	0	0.3157713001128286	1.0	549.6710896000732	917.4351814999244	918.454197500134	919.6170550999232	921.148093200056	922.1579982000404	n/a	n/a	923.1709702999796	924.4207152000164	2020-04-08 16:23:22.546931	4.4921726347653	-2.49644644406654	-8.26665665833101	-2.56880893379462	-3.77448402356571	-8.26665665833101	-4.4921726347653	-2.49644644406654	-8.26665665833101	-3.77448402356571	-8.26665665833101	2.49644644406654	-6.09497087983531	-6.682898701560099	-11.685627223098038	-11.488532434132917	-8.809044406948393	-11.685627223098038	1.465889707204351	-13.294821254940867	-7.199850375105559	-11.57437944115692	-6.794146483501221	1	missed	0.0
374.72976149991155	7.651310099987427	go_reward	0.3084339001215994	374.7846770999022	377.6352649000472	380.1802367998753	2.8505878001450355	375.80081809987325	379.165694199968	381.18954479997046	1.8344468001739642	1.0145425999072586	1.2464423999191467	n/a	1.0	n/a	1	0	57	4	go_reward	1	1	0	1	1	1	0	n/a	n/a	1	0.3084339001215994	1.0	549.6710896000732	924.4557666999754	925.4719076999464	927.3063545001204	928.8367838000412	929.8513263999484	n/a	n/a	930.8606344000436	932.1070767999628	2020-04-08 16:23:22.546931	34.1360083198305	22.5228577786607	0.0	21.700250766285	34.1360083198305	0.0	-34.1360083198305	22.5228577786607	0.0	34.1360083198305	0.0	9.8106433143749	23.54886480522989	18.336405521167144	-3.4189705647670285	12.780527265946702	29.10144793644782	-3.4189705647670285	8.78008657751271	24.615671088455343	1.0668062832254512	13.444924781570322	1.4725101748297893	1	missed	0.0
382.424412299879	5.717553900089001	nogo_reward	1.0	382.47932789986965	383.8313211000059	386.3556578999852	1.351993200136235	383.48726459988404	385.3357529998756	387.35844610002823	0.3440565001218374	1.0199049001096228	0.8384356999304146	n/a	1.0	n/a	1	0	58	3	nogo_reward	0	1	0	0	0	1	0	n/a	n/a	0	1.0	1.0	549.6710896000732	932.1504174999428	933.1583541999572	933.502410700079	935.0068425999488	936.0267475000584	n/a	n/a	937.0295357001014	937.8679714000318	2020-04-08 16:23:22.546931	14.0295848635276	0.0	30.6322970634476	30.6322970634476	16.60271219992	30.6322970634476	-14.0295848635276	30.6322970634476	0.0	30.6322970634476	16.60271219992	-30.6322970634476	3.442441348926989	-4.186452257493558	27.21332649868057	21.712573563109302	11.568151816537316	27.21332649868057	-31.662853800309787	21.111959832072444	17.66951848314545	21.55436406635722	1.4725101748297893	1	missed	0.0
388.18034070008434	6.899773399811238	nogo_reward	1.0	388.235256300075	390.30556029989384	392.8458539999556	2.0703039998188615	389.2534938000608	391.82173269987106	393.85455609997723	1.0520664998330176	1.0241213000845164	1.2804735999089871	n/a	1.0	n/a	1	0	59	3	nogo_reward	1	0	1	0	0	1	0	n/a	n/a	1	1.0	1.0	549.6710896000732	937.9063459001482	938.924583400134	939.976649899967	941.4928222999442	942.5169436000288	n/a	n/a	943.5256457000504	944.8061192999594	2020-04-08 16:23:22.546931	8.19160740210982	0.0	18.497196630177	18.497196630177	10.3055892280672	18.497196630177	-8.19160740210982	18.497196630177	0.0	18.497196630177	10.3055892280672	13.8363044628586	-2.39553611249079	-4.186452257493558	15.078226065409972	9.577473129838705	5.271028844684517	15.078226065409972	12.80574772599641	8.976859398801844	11.372395511292652	9.419263633086622	1.4725101748297893	1	missed	0.0
395.11836889991537	7.424911099951601	nogo_reward	1.0	395.173284499906	397.6139342999086	400.13342399988323	2.440649800002575	396.18573839985766	399.12159919994883	401.14531249995343	1.4281959000509232	1.011824799934402	1.4528830999041702	n/a	1.0	n/a	1	0	60	3	nogo_reward	0	1	0	0	0	1	1	n/a	n/a	0	1.0	1.0	549.6710896000732	944.8443740999792	945.8568279999308	947.2850238999818	948.792688800022	949.8045135999564	n/a	n/a	950.8164021000266	952.2692851999308	2020-04-08 16:23:22.546931	10.992999886875	0.0	24.1587117592767	24.1587117592767	13.1657118724017	24.1587117592767	-10.992999886875	24.1587117592767	0.0	24.1587117592767	13.1657118724017	-24.1587117592767	0.4058563722743891	-4.186452257493558	20.73974119450967	15.238988258938402	8.131151489019016	20.73974119450967	-25.189268496138887	14.638374527901542	14.232518155627151	15.08077876218632	1.4725101748297893	1	missed	0.0
