onset	duration	trial_type	response_time	cueOnset	targetOnset	fbOnset	cueRT	firstfixOnset	secondfixOnset	waitOnset	firstfixdur	secondfixdur	waitdur	nback_fbOnset	nback_response_time	nback_targetOnset	block	wm	trial	cue	cond	is_common	outcome_go	outcome_nogo	key_correct	key_pressed	is_correct	key_correct_nback	key_pressed_nback	is_correct_nback	outcome	rt	rt_nback	time_scan	time_onset	time_isi1	time_circle	time_isi2	time_feedback	time_same	time_correct	time_iti	time_done	timestamp_scan	DV	Qgo	Qnogo	SV	Wgo	Wnogo	mDV	Qchosen	Qunchosen	Wchosen	Wunchosen	PE	DVC	QgoC	QnogoC	SVC	WgoC	WnogoC	PEC	WchosenC	WunchosenC	QchosenC	QunchosenC	run	outcome_nback	nback_targetResp
0.0	7.89156889985361	nogo_reward	1.0	0.030147700104407704	1.4222349000633585	3.9609801000915468	1.3920871999589508	1.0407179999165237	2.93672990007326	7.0064902999438345	0.3815169001468348	1.0242502000182867	0.9152263000141829	5.996675099944696	0.4291880000382662	4.971252100076526	2	1	61	3	nogo_reward	1	0	1	0	0	1	0	0.0	1.0	1	1.0	0.4291880000382662	2120.2484728000127	2120.278620500117	2121.289190799929	2121.670707700076	2123.185202700086	2124.209452900104	2125.219724900089	2126.2451478999574	2127.2549630999565	2128.1701893999707	2020-04-08 16:49:33.118998	31.3889262445131	6.93049080704703	29.1974383879236	29.1969270863418	-2.19148785658956	29.1974383879236	-31.3889262445131	29.1974383879236	6.93049080704703	29.1974383879236	-2.19148785658956	3.136062705112	20.80178272991249	2.744038549553472	25.77846782315657	20.277203586003502	-7.226048239972243	25.77846782315657	2.105505968249811	19.677101156548446	-1.124681573364109	20.119505390833222	8.403000981876819	4	correct	1.0
7.93496799981267	9.128654100000858	nogo_reward	1.0	7.965115699917078	10.187422699993476	12.71761510008946	2.2223070000763983	8.968808999983594	11.693956499919295	15.746981400065124	1.2186137000098825	1.0236586001701653	1.3467883998528123	14.74521530000493	0.3833993999287486	13.729028299916536	2	1	62	3	nogo_reward	1	0	1	0	0	1	1	0.0	0.0	1	1.0	0.3833993999287486	2120.2484728000127	2128.2135884999298	2129.2172817999963	2130.435895500006	2131.942429299932	2132.966087900102	2133.977501099929	2134.9936881000176	2135.995454200078	2137.3422425999306	2020-04-08 16:49:33.118998	32.6356375298223	6.93049080704703	30.145149627289	30.144984105885	-2.49048790253327	30.145149627289	-32.6356375298223	30.145149627289	6.93049080704703	30.145149627289	-2.49048790253327	2.1883514657465994	22.048494015221685	2.744038549553472	26.72617906252197	21.225260605546705	-7.525048285915952	26.72617906252197	1.1577947288844104	20.624812395913843	-1.4236816193078186	21.067216630198622	8.403000981876819	4	wrong	1.0
17.106150399893977	8.541637799935415	go_punish	0.8917350999545306	17.136298099998385	19.047559099970385	21.604996799957007	1.9112609999720007	18.135155099909753	20.568431300111115	24.657953900052235	0.9124040000606328	1.0365654998458922	1.0199819998815656	23.64250469999388	0.4355387999676168	22.613819200080343	2	1	63	2	go_punish	1	0	-1	1	1	1	0	0.0	1.0	0	0.8917350999545306	0.4355387999676168	2120.2484728000127	2137.384770900011	2138.3836278999224	2139.296031899983	2140.816904100124	2141.8534695999697	2142.862292000093	2143.8909775000066	2144.906426700065	2145.9264086999465	2020-04-08 16:49:33.118998	3.28899367497038	-3.86291335685737	-5.86348671881663	-3.98914878699581	-2.57449304384625	-5.86348671881663	-3.28899367497038	-3.86291335685737	-5.86348671881663	-2.57449304384625	-5.86348671881663	3.86291335685737	-7.298149839630231	-8.04936561435093	-9.282457283583659	-12.908872287334106	-7.6090534272289325	-9.282457283583659	2.8323566199951813	-12.094830275221407	-4.796680435591179	-12.940846353947748	-4.390976543986841	4	correct	1.0
25.676131699933194	8.872104099951684	go_reward	0.4506552000530064	25.7062794000376	27.486771499971383	30.048184300074354	1.780492099933781	26.724568099947646	29.024413000093773	33.09459049999714	0.7622034000237363	1.0237712999805808	1.483792999992147	32.08045820007146	0.5138501999899745	31.052343300078064	2	1	64	4	go_reward	1	1	0	1	1	1	0	1.0	0.0	1	0.4506552000530064	0.5138501999899745	2120.2484728000127	2145.9547522000503	2146.9730408999603	2147.735244299984	2149.2728858001065	2150.296657100087	2151.3008161000907	2152.328931000084	2153.34306330001	2154.826856300002	2020-04-08 16:49:33.118998	20.9887351740818	30.5182478467898	0.0	30.5182478467898	20.9887351740818	0.0	-20.9887351740818	30.5182478467898	0.0	20.9887351740818	0.0	1.815253246245799	10.40159165948119	26.33179558929624	-3.4189705647670285	21.598524346451505	15.954174790699117	-3.4189705647670285	0.78469650938361	11.468397942706643	1.0668062832254512	21.440314849699423	1.4725101748297893	4	wrong	1.0
34.59302089992025	9.133469399995647	go_punish	0.3515319998841733	34.623168600024655	36.796796299982816	39.34224439994432	2.1736276999581605	35.62443819991313	38.328142500016384	42.403995000058785	1.1723581000696868	1.0141018999279368	1.3526429999615175	41.39068730012514	0.6901968999300152	40.3581964999903	2	1	65	2	go_punish	0	-1	0	1	1	1	1	1.0	1.0	-1	0.3515319998841733	0.6901968999300152	2120.2484728000127	2154.8716414000373	2155.872910999926	2157.0452690999955	2158.576615300029	2159.590717199957	2160.606669300003	2161.639160100138	2162.6524678000715	2164.005110800033	2020-04-08 16:49:33.118998	4.13667433635914	-2.60952806685435	-5.86348671881663	-2.70152923570632	-1.72681238245749	-5.86348671881663	-4.13667433635914	-2.60952806685435	-5.86348671881663	-1.72681238245749	-5.86348671881663	-8.54341638185235	-6.4504691782414705	-6.795980324347909	-9.282457283583659	-11.621252736044617	-6.761372765840173	-9.282457283583659	-9.57397311871454	-11.247149613832647	-4.796680435591179	-11.68746106394473	-4.390976543986841	4	correct	1.0
43.754449999891676	9.556118899956346	nogo_punish	1.0	43.784597699996084	46.26643469999544	48.79153640009508	2.4818369999993593	44.79205289995298	47.78168720006943	51.847543200012296	1.4743818000424653	1.0098492000256556	1.493173399940133	50.8340271001216	0.5102628997992724	49.81010590004735	2	1	66	1	nogo_punish	1	-1	0	0	0	1	0	0.0	1.0	0	1.0	0.5102628997992724	2120.2484728000127	2164.0330705000088	2165.0405256999657	2166.514907500008	2168.030160000082	2169.0400092001078	2170.05857870006	2171.0824999001343	2172.096016000025	2173.589189399965	2020-04-08 16:49:33.118998	2.51119892096242	-5.86348671881663	-2.3540585957843	-3.06673635167646	-4.86525751674672	-2.3540585957843	-2.51119892096242	-2.3540585957843	-5.86348671881663	-2.3540585957843	-4.86525751674672	2.3540585957843	-8.07594459363819	-10.049938976310187	-5.773029160551328	-11.986459852014757	-9.899817900129403	-5.773029160551328	1.3235018589221108	-11.874395827159457	-3.7984512335212686	-11.43199159287468	-4.390976543986841	4	correct	1.0
53.35541739990049	8.347867700038478	nogo_reward	1.0	53.3855651000049	54.93729400006123	57.46631930000149	1.5517289000563323	54.39169139997148	56.44354010000825	60.50022260006517	0.5456026000897509	1.0227791999932379	1.2332101999782026	59.49951050011441	0.5190574999433011	58.481237600091845	2	1	67	3	nogo_reward	1	0	1	0	0	1	0	0.0	1.0	1	1.0	0.5190574999433011	2120.2484728000127	2173.6340379000176	2174.640164199984	2175.185766800074	2176.692012900021	2177.714792100014	2178.7297104001045	2179.747983300127	2180.748695400078	2181.981905600056	2020-04-08 16:49:33.118998	33.4897965704499	6.93049080704703	30.7936743128006	30.793707140367	-2.69612225764936	30.7936743128006	-33.4897965704499	30.7936743128006	6.93049080704703	30.7936743128006	-2.69612225764936	1.5398267802349999	22.902653055849285	2.744038549553472	27.37470374803357	21.873983640028705	-7.730682641032043	27.37470374803357	0.5092700433728108	21.273337081425446	-1.6293159744239087	21.715741315710222	8.403000981876819	4	correct	1.0
61.73001019982712	9.13576530013188	go_reward	0.3019151999615133	61.76015789993153	64.34622940002009	66.8972044999241	2.586071500088565	62.76893789996393	65.88306350004859	69.94245339999952	1.5772915000561625	1.014140999875508	0.9534698000638855	68.92821389995515	0.2818313001189381	67.90956600010395	2	1	68	4	go_reward	1	1	0	1	1	1	0	0.0	1.0	1	0.3019151999615133	0.2818313001189381	2120.2484728000127	2182.008630699944	2183.0174106999766	2184.5947022000328	2186.1315363000613	2187.145677299937	2188.1580388001166	2189.176686699968	2190.190926200012	2191.144396000076	2020-04-08 16:49:33.118998	21.3300167901507	31.0223263224658	0.0	31.0223263224658	21.3300167901507	0.0	-21.3300167901507	31.0223263224658	0.0	21.3300167901507	0.0	1.3111747705697994	10.74287327555009	26.835874064972245	-3.4189705647670285	22.102602822127505	16.295456406768018	-3.4189705647670285	0.2806180337076103	11.809679558775544	1.0668062832254512	21.944393325375422	1.4725101748297893	4	correct	1.0
70.91043980000586	8.871301600011066	nogo_reward	1.0	70.94058750011027	72.94677589996718	75.4849626000505	2.00618839985691	71.94672220014036	74.46178969996981	78.5312636999879	1.0000536998268217	1.0231729000806808	1.280625400133431	77.51844660006464	0.4103639000095427	76.5060215999838	2	1	69	3	nogo_reward	1	0	1	0	0	1	1	1.0	1.0	1	1.0	0.4103639000095427	2120.2484728000127	2191.189060300123	2192.195195000153	2193.19524869998	2194.7102624999825	2195.733435400063	2196.7544943999965	2197.7669194000773	2198.7797365000006	2200.060361900134	2020-04-08 16:49:33.118998	34.0803432418047	6.93049080704703	31.2415032546567	31.2416423882098	-2.83883998714804	31.2415032546567	-34.0803432418047	31.2415032546567	6.93049080704703	31.2415032546567	-2.83883998714804	1.0919978383789015	23.493199727204086	2.744038549553472	27.82253268988967	22.321918887871504	-7.873400370530723	27.82253268988967	0.06144110151671245	21.72116602328154	-1.7720337039225886	22.16357025756632	8.403000981876819	4	correct	1.0
79.82318099984013	9.61557720019482	go_punish	0.4069777999538928	79.85332869994454	82.61834200005978	85.19010340003297	2.7650133001152426	80.85337790008634	84.16902679996565	88.23470550007187	1.7649640999734402	1.0210766000673175	1.2342004000674933	87.22804330009967	0.3525925998110324	86.2036673000548	2	1	70	2	go_punish	1	0	-1	1	1	1	0	0.0	1.0	0	0.4069777999538928	0.3525925998110324	2120.2484728000127	2200.101801499957	2201.101850700099	2202.8668148000725	2204.4174995999783	2205.4385762000456	2206.4521401000675	2207.4765161001123	2208.4831783000845	2209.717378700152	2020-04-08 16:49:33.118998	2.29449281233485	-5.29106068234936	-5.86348671881663	-5.35849327707478	-3.56899390648178	-5.86348671881663	-2.29449281233485	-5.29106068234936	-5.86348671881663	-3.56899390648178	-5.86348671881663	5.29106068234936	-8.29265070226576	-9.477512939842917	-9.282457283583659	-14.278216777413077	-8.603554289864462	-9.282457283583659	4.260503945487171	-13.089331137856938	-4.796680435591179	-14.36899367943974	-4.390976543986841	4	correct	1.0
89.48009369987994	9.677931700135105	go_punish	0.4137903999071568	89.51024139998435	92.27454710006714	94.82862620009155	2.7643057000827866	90.51941940002143	93.80558210005984	97.87480029999233	1.7551277000457048	1.0230441000317114	1.3133728001271265	96.86284349998459	0.6461710999719799	95.8352546999231	2	1	71	2	go_punish	0	-1	0	1	1	1	0	0.0	1.0	-1	0.4137903999071568	0.6461710999719799	2120.2484728000127	2209.758714199997	2210.767892200034	2212.52301990008	2214.0540549000725	2215.077099000104	2216.083727499936	2217.1113162999973	2218.123273100005	2219.436645900132	2020-04-08 16:49:33.118998	3.45924897193247	-3.58249245419222	-5.86348671881663	-3.63218371724298	-2.40423774688416	-5.86348671881663	-3.45924897193247	-3.58249245419222	-5.86348671881663	-2.40423774688416	-5.86348671881663	-7.57045199451448	-7.12789454266814	-7.768944711685778	-9.282457283583659	-12.551907217581277	-7.438798130266843	-9.282457283583659	-8.60100873137667	-11.924574978259317	-4.796680435591179	-12.660425451282599	-4.390976543986841	4	correct	1.0
99.18295979988807	9.287418599938974	go_reward	0.4532574999611825	99.21310749999247	101.93808529991611	104.49270320008509	2.7249777999236358	100.22928349999711	103.4694332999643	107.53849810012616	1.7088017999190015	1.0232699001207948	0.9620279998052865	106.52576069999486	0.3093797999899834	105.50698880013078	2	1	72	4	go_reward	1	1	0	1	1	1	0	0.0	1.0	1	0.4532574999611825	0.3093797999899834	2120.2484728000127	2219.461580300005	2220.47775630001	2222.186558099929	2223.717906099977	2224.7411760000978	2225.7554616001435	2226.7742335000075	2227.786970900139	2228.748998899944	2020-04-08 16:49:33.118998	21.571935724413	31.3805071885909	0.0	31.3805071885909	21.571935724413	0.0	-21.571935724413	31.3805071885909	0.0	21.571935724413	0.0	0.9529939044446998	10.984792209812388	27.19405493109734	-3.4189705647670285	22.460783688252604	16.537375341030316	-3.4189705647670285	-0.07756283241748929	12.051598493037842	1.0668062832254512	22.302574191500522	1.4725101748297893	4	correct	1.0
108.51338319992692	8.253985600080341	go_punish	1.0	108.54353090003133	110.3230884000659	112.84768110001505	1.7795575000345707	109.54230200010352	111.82818590011448	115.89665209990926	0.7807863999623805	1.0194951999005752	0.9008644002024084	114.89438780001365	0.4655514000914991	113.86591210006736	2	1	73	2	go_punish	0	-1	0	1	0	0	1	1.0	1.0	0	1.0	0.4655514000914991	2120.2484728000127	2228.792003700044	2229.790774800116	2230.5715612000786	2232.076658700127	2233.0961539000277	2234.11438490008	2235.1428606000263	2236.145124899922	2237.0459893001243	2020-04-08 16:49:33.118998	-1.82877061352829	-5.96012092536756	-5.86348671881663	-5.99692564302597	-4.03471610528834	-5.86348671881663	1.82877061352829	-5.86348671881663	-5.96012092536756	-5.86348671881663	-4.03471610528834	5.86348671881663	-12.4159141281289	-10.146573182861118	-9.282457283583659	-14.916649143364268	-9.069276488671022	-9.282457283583659	4.832929981954441	-15.383823950191786	-2.967909822062889	-14.94141971590701	-4.487610750537771	4	correct	1.0
116.81023079995111	8.820113399997354	go_punish	0.8590863000135869	116.84037850005552	119.18924820004031	121.7354133999911	2.348869699984789	117.83981569996104	120.71336039993912	124.79159480007365	1.3494325000792742	1.022053000051983	0.8688970999792218	123.7778082999871	0.6693857000209391	122.75307430000976	2	1	74	2	go_punish	1	0	-1	1	1	1	0	1.0	0.0	0	0.8590863000135869	0.6693857000209391	2120.2484728000127	2237.088851300068	2238.0882884999737	2239.437721000053	2240.961833199952	2241.983886200004	2243.0015471000224	2244.0262811	2245.0400676000863	2245.9089647000656	2020-04-08 16:49:33.118998	-0.690771529516384	-5.96012092536756	-3.94994696065812	-4.07399052324981	-4.6407184901745	-3.94994696065812	0.690771529516384	-5.96012092536756	-3.94994696065812	-4.6407184901745	-3.94994696065812	5.96012092536756	-11.277915044116995	-10.146573182861118	-7.368917525425148	-12.993714023588106	-9.675278873557183	-7.368917525425148	4.929564188505371	-14.161055721549657	-2.8831406774326687	-15.038053922457939	-2.4774367858283304	4	wrong	1.0
125.65787360002332	8.160241599893197	nogo_punish	1.0	125.68802130012773	127.26823229994625	129.7882805999834	1.5802109998185188	126.69757509999954	128.78423919994384	132.8406132000964	0.5706571999467087	1.0040414000395685	1.0076496999245137	131.83679580013268	0.5323425999376923	130.80707470001653	2	1	75	1	nogo_punish	1	-1	0	0	0	1	0	0.0	1.0	0	1.0	0.5323425999376923	2120.2484728000127	2245.9364941001404	2246.946047900012	2247.516705099959	2249.0327119999565	2250.036753399996	2251.055547500029	2252.0852686001454	2253.089086000109	2254.0967357000336	2020-04-08 16:49:33.118998	3.57473602970151	-5.86348671881663	-1.59588836487382	-2.09940320610296	-5.17062439457533	-1.59588836487382	-3.57473602970151	-1.59588836487382	-5.86348671881663	-1.59588836487382	-5.17062439457533	1.59588836487382	-7.0124074848991	-10.049938976310187	-5.014858929640848	-11.019126706441256	-10.205184777958014	-5.014858929640848	0.565331628011631	-11.116225596248977	-4.103818111349879	-10.6738213619642	-4.390976543986841	4	correct	1.0
133.86172019993	8.630886599887162	go_punish	0.6433776998892426	133.8918679000344	135.5449828999117	138.10170689993538	1.653114999877289	134.88854860002175	137.0818292000331	141.13090280001052	0.6564342998899519	1.0198776999022812	1.391851699911058	140.12767880014144	0.4007225001696497	139.10883840010501	2	1	76	2	go_punish	1	0	-1	1	1	1	1	1.0	1.0	0	0.6433776998892426	0.4007225001696497	2120.2484728000127	2254.140340700047	2255.1370214000344	2255.7934556999244	2257.330302000046	2258.350179699948	2259.3573112001177	2260.376151600154	2261.379375600023	2262.7712272999343	2020-04-08 16:49:33.118998	0.818986500093023	-4.04659818272027	-3.94994696065812	-2.79574956570275	-3.13096046056509	-3.94994696065812	-0.818986500093023	-4.04659818272027	-3.94994696065812	-3.13096046056509	-3.94994696065812	4.04659818272027	-9.768157014507587	-8.233050440213828	-7.368917525425148	-11.715473066041046	-8.165520843947773	-7.368917525425148	3.0160414458580815	-12.651297691940247	-2.8831406774326687	-13.12453117981065	-2.4774367858283304	4	correct	1.0
142.5194878999614	8.078737800009549	nogo_punish	1.0	142.5496356000658	144.02658520010345	146.55163220013537	1.476949600037642	143.55792849999852	145.54148659994826	149.60383819998242	0.46865670010492977	1.0101456001871156	1.0245352000929415	148.59887870005332	0.6997477998957038	147.56672030012123	2	1	77	1	nogo_punish	1	-1	0	0	0	1	1	1.0	1.0	0	1.0	0.6997477998957038	2120.2484728000127	2262.7981084000785	2263.806401300011	2264.275058000116	2265.789959399961	2266.800105000148	2267.815193100134	2268.847351500066	2269.852310999995	2270.876846200088	2020-04-08 16:49:33.118998	4.28322064507899	-5.86348671881663	-1.09261466737075	-1.45096215302147	-5.37583531244974	-1.09261466737075	-4.28322064507899	-1.09261466737075	-5.86348671881663	-1.09261466737075	-5.37583531244974	1.09261466737075	-6.30392286952162	-10.049938976310187	-4.5115852321377785	-10.370685653359766	-10.410395695832424	-4.5115852321377785	0.0620579305085609	-10.612951898745907	-4.309029029224289	-10.170547664461129	-4.390976543986841	4	correct	1.0
150.62147849984513	8.755571900167979	go_reward	0.4631873997859657	150.65162619994953	152.43128210003533	154.9832065999508	1.7796559000857997	151.65829570009373	153.9619494001381	158.0168713000603	0.7729863999416011	1.0212571998126805	1.3903268000572098	157.00385039998218	0.458046100102365	155.99041049997322	2	1	78	4	go_reward	0	0	1	1	1	1	0	0.0	1.0	0	0.4631873997859657	0.458046100102365	2120.2484728000127	2270.900098999962	2271.9067685001064	2272.679754900048	2274.210422200151	2275.2316793999635	2276.238883299986	2277.252323199995	2278.265344100073	2279.65567090013	2020-04-08 16:49:33.118998	21.7445885097462	31.6367482116304	0.0	31.6367482116304	21.7445885097462	0.0	-21.7445885097462	31.6367482116304	0.0	21.7445885097462	0.0	-31.6367482116304	11.15744499514559	27.45029595413684	-3.4189705647670285	22.717024711292105	16.710028126363518	-3.4189705647670285	-32.66730494849259	12.224251278371044	1.0668062832254512	22.558815214540022	1.4725101748297893	4	correct	1.0
159.42011219984897	8.384073700057343	go_punish	0.3860601999331265	159.45025989995338	161.02632190007716	163.5807944999542	1.576062000123784	160.4586394999642	162.55782139999792	166.6381564999465	0.5676824001129717	1.022973099956289	1.196177100064233	165.628934700042	0.4923439999110997	164.5991309001115	2	1	79	2	go_punish	0	-1	0	1	1	1	0	0.0	1.0	-1	0.3860601999331265	0.4923439999110997	2120.2484728000127	2279.698732699966	2280.707112299977	2281.27479470009	2282.8062942000106	2283.829267299967	2284.847603700124	2285.8774075000547	2286.886629299959	2288.0828064000234	2020-04-08 16:49:33.118998	1.81825352941118	-2.77526842636077	-3.94994696065812	-1.93666348099319	-2.13169343124694	-3.94994696065812	-1.81825352941118	-2.77526842636077	-3.94994696065812	-2.13169343124694	-3.94994696065812	-8.37767602234593	-8.76888998518943	-6.9617206838543275	-7.368917525425148	-10.856386981331486	-7.1662538146296235	-7.368917525425148	-9.40823275920812	-11.652030662622098	-2.8831406774326687	-11.853201423451148	-2.4774367858283304	4	correct	1.0
167.83245419990317	8.465393000049517	nogo_punish	1.0	167.86260190000758	169.35271809995174	171.8626407000702	1.4901161999441683	168.8640441999305	170.8566735999193	174.9221318000923	0.4886739000212401	1.0059671001508832	1.4058630999647903	173.90915330010466	0.3552834999281913	172.87927939998917	2	1	80	1	nogo_punish	1	-1	0	0	0	1	0	0.0	1.0	0	1.0	0.3552834999281913	2120.2484728000127	2288.1110747000203	2289.112516999943	2289.6011908999644	2291.105146399932	2292.111113500083	2293.127752200002	2294.1576261001173	2295.170604600105	2296.5764677000698	2020-04-08 16:49:33.118998	4.76025719330823	-5.86348671881663	-0.754954225297357	-1.01174640093454	-5.51521141860559	-0.754954225297357	-4.76025719330823	-0.754954225297357	-5.86348671881663	-0.754954225297357	-5.51521141860559	0.754954225297357	-5.82688632129238	-10.049938976310187	-4.173924790064386	-9.931469901272836	-10.549771801988273	-4.173924790064386	-0.27560251156483206	-10.275291456672514	-4.448405135380138	-9.832887222387736	-4.390976543986841	4	correct	1.0
176.34022629982792	9.502352500102006	go_punish	0.4544939000625163	176.37037399993233	178.85498200007714	181.40936110005714	2.484608000144817	177.37902350001968	180.39176929998212	184.46846550004557	1.4759585000574589	1.0175918000750244	1.4042609999887645	183.45551849994808	0.3929005998652428	182.42757870000787	2	1	81	2	go_punish	1	0	-1	1	1	1	1	1.0	1.0	0	0.4544939000625163	0.3929005998652428	2120.2484728000127	2296.618846799945	2297.6274963000324	2299.10345480009	2300.640242099995	2301.65783390007	2302.6760515000205	2303.7039912999608	2304.7169383000582	2306.121199300047	2020-04-08 16:49:33.118998	0.0861301018178979	-5.43071066531631	-3.94994696065812	-4.86278162986993	-3.86381685884022	-3.94994696065812	-0.0861301018178979	-5.43071066531631	-3.94994696065812	-3.86381685884022	-3.94994696065812	5.43071066531631	-10.501013412782713	-9.617162922809868	-7.368917525425148	-13.782505130208225	-8.898377242222903	-7.368917525425148	4.400153928454121	-13.384154090215377	-2.8831406774326687	-14.508643662406689	-2.4774367858283304	4	correct	1.0
185.88638609997042	7.889603300020553	go_punish	0.4053402000572532	185.91653380007483	187.42431899998337	189.98540170001797	1.5077851999085397	186.92473819991574	188.96080849994905	193.03170890011825	0.4995808000676334	1.0245932000689209	0.7744281999771374	192.0188205000013	0.5460131000727415	190.98833740013652	2	1	82	2	go_punish	0	-1	0	1	1	1	0	0.0	1.0	-1	0.4053402000572532	0.5460131000727415	2120.2484728000127	2306.1650066000875	2307.1732109999284	2307.672791799996	2309.2092812999617	2310.2338745000307	2311.236810200149	2312.267293300014	2313.280181700131	2314.054609900108	2020-04-08 16:49:33.118998	1.33062496913175	-3.6958129485636	-3.94994696065812	-3.30755899777011	-2.61932199152636	-3.94994696065812	-1.33062496913175	-3.6958129485636	-3.94994696065812	-2.61932199152636	-3.94994696065812	-7.4571315001431	-9.256518545468861	-7.882265206057158	-7.368917525425148	-12.227282498108407	-7.653882374909043	-7.368917525425148	-8.487688237005289	-12.139659222901518	-2.8831406774326687	-12.773745945653978	-2.4774367858283304	4	correct	1.0
193.8014229999394	8.405018300051324	go_reward	0.4679765000473708	193.8315707000438	195.56254429998808	198.12331890012138	1.7309735999442637	194.83808230003342	197.1012866001115	201.1810668001417	0.7244619999546558	1.0220323000098688	1.0555221999534297	200.16984810004942	0.4706735999789089	199.1408289000392	2	1	83	4	go_reward	1	1	0	1	1	1	0	0.0	1.0	1	0.4679765000473708	0.4706735999789089	2120.2484728000127	2314.0800435000565	2315.086555100046	2315.8110171000008	2317.349759400124	2318.371791700134	2319.389301700052	2320.418320900062	2321.4295396001544	2322.485061800108	2020-04-08 16:49:33.118998	14.6373994118711	21.3334575865699	0.0	21.3334575865699	14.6373994118711	0.0	-14.6373994118711	21.3334575865699	0.0	14.6373994118711	0.0	11.000043506465701	4.050255897270489	17.147005329076343	-3.4189705647670285	12.413734086231603	9.602839028488416	-3.4189705647670285	9.969486769603511	5.117062180495942	1.0668062832254512	12.25552458947952	1.4725101748297893	4	correct	1.0
202.2524049999197	7.633756099967286	nogo_reward	1.0	202.2825527000241	203.56863939994946	206.09817870007828	1.286086699925363	203.2881219000551	205.0844169000634	209.15600660000928	0.2805174998943585	1.0137618000148905	0.7603021999821067	208.1537143001333	0.2644648998975754	207.1230459001381	2	1	84	3	nogo_reward	1	0	1	0	0	1	0	0.0	1.0	1	1.0	0.2644648998975754	2120.2484728000127	2322.531025500037	2323.536594700068	2323.817112199962	2325.332889700076	2326.346651500091	2327.371518700151	2328.402187100146	2329.404479400022	2330.164781600004	2020-04-08 16:49:33.118998	34.4921206624687	6.93049080704703	31.5533831550682	31.5535720906691	-2.93873750740047	31.5533831550682	-34.4921206624687	31.5533831550682	6.93049080704703	31.5533831550682	-2.93873750740047	0.7801179379674004	23.904977147868088	2.744038549553472	28.13441259030117	22.633848590330803	-7.973297890783153	28.13441259030117	-0.2504387988947887	22.033045923693045	-1.8719312241750186	22.47545015797782	8.403000981876819	4	correct	1.0
209.9286213999153	9.248852600110695	go_punish	0.4107111000921577	209.9587691000197	212.39780630008318	214.9246012000367	2.439037200063467	210.95943740010307	213.90266990009695	217.97339139995165	1.4383688999801052	1.0219312999397516	1.2342303001787513	216.96049650013447	0.5463407000061125	215.93114130012736	2	1	85	2	go_punish	1	0	-1	1	1	1	0	0.0	1.0	0	0.4107111000921577	0.5463407000061125	2120.2484728000127	2330.2072419000324	2331.2079102001157	2332.646279100096	2334.1511427001096	2335.1730740000494	2336.17961410014	2337.208969300147	2338.2218641999643	2339.456094500143	2020-04-08 16:49:33.118998	-0.242084627771473	-6.05003472862563	-3.94994696065812	-5.78226942090337	-4.19203158842959	-3.94994696065812	0.242084627771473	-6.05003472862563	-3.94994696065812	-4.19203158842959	-3.94994696065812	6.05003472862563	-10.829228142372083	-10.23648698611919	-7.368917525425148	-14.701992921241667	-9.226591971812272	-7.368917525425148	5.019477991763441	-13.712368819804746	-2.8831406774326687	-15.127967725716008	-2.4774367858283304	4	correct	1.0
219.20450629992456	8.655256300000474	nogo_punish	1.0	219.23465400002897	220.90328789991327	223.44030579994433	1.6686338998842984	220.2429448000621	222.42034110007808	226.4900318	0.6603430998511612	1.0199646998662502	1.3998785000294447	225.48691380000673	0.3391824001446366	224.45734670013235	2	1	86	1	nogo_punish	1	-1	0	0	0	1	0	0.0	1.0	0	1.0	0.3391824001446366	2120.2484728000127	2339.4831268000416	2340.491417600075	2341.151760699926	2342.6688139000908	2343.688778599957	2344.705819500145	2345.7353866000194	2346.7385046000127	2348.138383100042	2020-04-08 16:49:33.118998	5.08467035497977	-5.86348671881663	-0.526141120441502	-0.711355051325023	-5.61081147542128	-0.526141120441502	-5.08467035497977	-0.526141120441502	-5.86348671881663	-0.526141120441502	-5.61081147542128	0.526141120441502	-5.50247315962084	-10.049938976310187	-3.9451116852085306	-9.63107855166332	-10.645371858803962	-3.9451116852085306	-0.5044156164206871	-10.046478351816658	-4.544005192195829	-9.60407411753188	-4.390976543986841	4	correct	1.0
227.88348839990795	8.197993299924292	go_reward	0.4278436999302357	227.91363610001235	229.5715934000914	232.10943310009316	1.6579573000790333	228.9248095001094	231.0977934000548	235.15735780005343	0.6467838999819833	1.0116397000383586	0.9542715998832136	234.15309239993803	0.3293824999127537	233.1281852000393	2	1	87	4	go_reward	0	0	1	1	1	1	0	0.0	1.0	0	0.4278436999302357	0.3293824999127537	2120.2484728000127	2348.162108900025	2349.173282300122	2349.820066200104	2351.3462662000675	2352.357905900106	2353.376658000052	2354.4015651999507	2355.405830600066	2356.3601021999493	2020-04-08 16:49:33.118998	17.1891300237335	25.0243894031131	0.0	25.0243894031131	17.1891300237335	0.0	-17.1891300237335	25.0243894031131	0.0	17.1891300237335	0.0	-25.0243894031131	6.601986509132891	20.83793714561954	-3.4189705647670285	16.104665902774805	12.154569640350818	-3.4189705647670285	-26.05494613997529	7.668792792358344	1.0668062832254512	15.946456406022723	1.4725101748297893	4	correct	1.0
236.10875329980672	8.761557100108348	nogo_punish	1.0	236.13890099991113	238.1038039000705	240.62917029997334	1.964902900159359	237.13409300008834	239.60932580009148	243.67943669995293	0.9697108999821467	1.0198444998818559	1.2210214000665474	242.666512100026	0.4402815999928862	241.63720580004156	2	1	88	1	nogo_punish	1	-1	0	0	0	1	1	1.0	1.0	0	1.0	0.4402815999928862	2120.2484728000127	2356.387373799924	2357.382565800101	2358.352276700083	2359.857798600104	2360.877643099986	2361.8856786000542	2362.9149849000387	2363.9279094999656	2365.148930900032	2020-04-08 16:49:33.118998	5.30735238018394	-5.86348671881663	-0.36963748915821	-0.50404510478884	-5.67698986934215	-0.36963748915821	-5.30735238018394	-0.36963748915821	-5.86348671881663	-0.36963748915821	-5.67698986934215	0.36963748915821	-5.27979113441667	-10.049938976310187	-3.7886080539252385	-9.423768605127137	-10.711550252724834	-3.7886080539252385	-0.6609192477039791	-9.889974720533367	-4.610183586116699	-9.447570486248589	-4.390976543986841	4	correct	1.0
244.8941339999442	9.121482899878174	go_reward	0.6383974000345916	244.9242817000486	247.55709980009124	250.10937830014154	2.632818100042641	245.94082999997772	249.08501660008915	253.161820899928	1.616269800113514	1.0243617000523955	0.8839436999987811	252.1485731001012	0.7148190001025796	251.1137264999561	2	1	89	4	go_reward	1	1	0	1	1	1	1	1.0	1.0	1	0.6383974000345916	0.7148190001025796	2120.2484728000127	2365.1727545000613	2366.1893027999904	2367.805572600104	2369.333489400102	2370.357851100154	2371.362199299969	2372.397045900114	2373.4102936999407	2374.2942373999394	2020-04-08 16:49:33.118998	11.6114207148295	16.9323652732903	0.0	16.9323652732903	11.6114207148295	0.0	-11.6114207148295	16.9323652732903	0.0	11.6114207148295	0.0	15.4011358197453	1.0242772002288891	12.745913015796743	-3.4189705647670285	8.012641772952005	6.576860331446817	-3.4189705647670285	14.37057908288311	2.0910834834543426	1.0668062832254512	7.854432276199923	1.4725101748297893	4	correct	1.0
254.04280960001097	8.204059199896165	nogo_punish	1.0	254.07295730011538	255.76797610009135	258.2925321001094	1.6950187999759692	255.08095999993384	257.27305989991874	261.33035330008715	0.687016100157507	1.0194722001906484	0.9466631999243873	260.3267540000379	0.4971298000309616	259.29741260013543	2	1	90	1	nogo_punish	0	0	-1	0	0	1	1	1.0	1.0	-1	1.0	0.4971298000309616	2120.2484728000127	2374.321430100128	2375.3294327999465	2376.016448900104	2377.5215326999314	2378.541004900122	2379.545885400148	2380.5752268000506	2381.5788261001	2382.525489300024	2020-04-08 16:49:33.118998	5.46154138755247	-5.86348671881663	-0.261654427462863	-0.359759061057266	-5.72319581501534	-0.261654427462863	-5.46154138755247	-0.261654427462863	-5.86348671881663	-0.261654427462863	-5.72319581501534	-10.891290021243837	-5.125602127048141	-10.049938976310187	-3.6806249922298915	-9.279482561395563	-10.757756198398024	-3.6806249922298915	-11.921846758106026	-9.78199165883802	-4.656389531789889	-9.339587424553242	-4.390976543986841	4	correct	1.0
262.29005489987367	8.14640259998896	go_punish	0.8256984998006374	262.3202025999781	263.66993990004994	266.2138837000821	1.3497373000718653	263.3267242999282	265.20137299993075	269.25577279995196	0.34321560012176633	1.0125107001513243	1.2108324000150787	268.25294569996186	0.3630823001731187	267.22741360007785	2	1	91	2	go_punish	1	0	-1	1	1	1	0	0.0	1.0	0	0.8256984998006374	0.3630823001731187	2120.2484728000127	2382.5686753999908	2383.575197099941	2383.9184127000626	2385.4498457999434	2386.4623565000948	2387.4758864000905	2388.5014184999745	2389.5042455999646	2390.7150779999797	2020-04-08 16:49:33.118998	1.10734068945615	-4.11695151848212	-3.94994696065812	-3.93075707340015	-2.84260627120196	-3.94994696065812	-1.10734068945615	-4.11695151848212	-3.94994696065812	-2.84260627120196	-3.94994696065812	4.11695151848212	-9.47980282514446	-8.303403775975678	-7.368917525425148	-12.850480573738446	-7.877166654584643	-7.368917525425148	3.086394781619931	-12.362943502577117	-2.8831406774326687	-13.194884515572499	-2.4774367858283304	4	correct	1.0
270.46555790002503	9.344967199955136	nogo_punish	1.0	270.49570560012944	272.92038100003265	275.44595530000515	2.424675399903208	271.49973060004413	274.42624659999274	278.4897273001261	1.4206503999885172	1.0197087000124156	1.3509454999584705	277.48383609997154	0.3440679998602718	276.4543864999432	2	1	92	1	nogo_punish	1	-1	0	0	0	1	1	1.0	1.0	0	1.0	0.3440679998602718	2120.2484728000127	2390.744178400142	2391.748203400057	2393.1688538000453	2394.6747194000054	2395.694428100018	2396.702859299956	2397.732308899984	2398.738200100139	2400.0891456000973	2020-04-08 16:49:33.118998	0.951190274232665	-5.86348671881663	-3.69596475848299	-3.76796587723917	-4.64715503271565	-3.69596475848299	-0.951190274232665	-3.69596475848299	-5.86348671881663	-3.69596475848299	-4.64715503271565	3.69596475848299	-9.635953240367945	-10.049938976310187	-7.114935323250019	-12.687689377577467	-9.681715416098333	-7.114935323250019	2.6654080216208014	-13.216301989858147	-3.580348749490199	-12.773897755573369	-4.390976543986841	4	correct	1.0
279.8386631000326	8.41557609988331	nogo_punish	1.0	279.868810800137	281.20877539995126	283.7496372999158	1.339964599814266	280.8819142999123	282.7264101000037	286.8113319000695	0.3268611000389683	1.0232271999120712	1.4730549999508185	285.7951335001271	0.7783233998343349	284.7642675000243	2	1	93	1	nogo_punish	0	0	-1	0	0	1	0	0.0	1.0	-1	1.0	0.7783233998343349	2120.2484728000127	2400.1172836001497	2401.130387099925	2401.457248199964	2402.9748829000164	2403.9981100999285	2405.012740300037	2406.04360630014	2407.059804700082	2408.532859700033	2020-04-08 16:49:33.118998	2.54532490264656	-5.86348671881663	-2.48793594785523	-2.54105520703536	-5.03326085050179	-2.48793594785523	-2.54532490264656	-2.48793594785523	-5.86348671881663	-2.48793594785523	-5.03326085050179	-8.66500850085147	-8.04181861195405	-10.049938976310187	-5.906906512622259	-11.460778707373656	-10.067821233884473	-5.906906512622259	-9.69556523771366	-12.008273179230386	-3.966454567276339	-11.56586894494561	-4.390976543986841	4	correct	1.0
288.29952499992305	9.259084000018902	nogo_reward	1.0	288.32967270002746	290.6545238001272	293.1831112001091	2.3248511000997496	289.32517830003053	292.15953649999574	296.2362162999343	1.3293455000966787	1.023574700113386	1.3525404001120478	295.2256990999449	0.7367094999644905	294.19684040010907	2	1	94	3	nogo_reward	1	0	1	0	0	1	0	0.0	1.0	1	1.0	0.7367094999644905	2120.2484728000127	2408.57814550004	2409.573651100043	2410.90299660014	2412.4080093000084	2413.431584000122	2414.4453132001217	2415.4741718999576	2416.484689099947	2417.837229500059	2020-04-08 16:49:33.118998	34.7815458946755	6.93049080704703	31.7723246940637	31.7725296186341	-3.00922120061178	31.7723246940637	-34.7815458946755	31.7723246940637	6.93049080704703	31.7723246940637	-3.00922120061178	0.5611763989719023	24.19440238007489	2.744038549553472	28.35335412929667	22.852806118295803	-8.043781583994463	28.35335412929667	-0.46938033789028677	22.25198746268854	-1.9424149173863285	22.69439169697332	8.403000981876819	4	correct	1.0
297.5833945998461	8.44887900003232	go_reward	0.4706430002115667	297.6135422999505	298.98297949996777	301.5238654999994	1.3694372000172734	298.6242601000704	300.5196607001126	304.57937960000754	0.35871939989738166	1.004204799886793	1.4830416999752742	303.5672430000268	0.3556484000291675	302.538954900112	2	1	95	4	go_reward	1	1	0	1	1	1	0	0.0	1.0	1	0.4706430002115667	0.3556484000291675	2120.2484728000127	2417.862015099963	2418.872732900083	2419.2314522999804	2420.7681335001253	2421.772338300012	2422.7874277001247	2423.8157158000395	2424.82785240002	2426.3108940999955	2020-04-08 16:49:33.118998	15.158167436707	22.0642241475642	0.0	22.0642241475642	15.158167436707	0.0	-15.158167436707	22.0642241475642	0.0	15.158167436707	0.0	10.2692769454714	4.57102392210639	17.87777189007064	-3.4189705647670285	13.144500647225904	10.123607053324317	-3.4189705647670285	9.23872020860921	5.637830205331843	1.0668062832254512	12.986291150473821	1.4725101748297893	4	correct	1.0
306.0588403998413	9.01409730012574	nogo_punish	1.0	306.0889880999457	308.38101259991527	310.91205570008606	2.292024499969557	307.1006388999522	309.8920905000996	313.97293259995104	1.2803736999630928	1.0199651999864727	1.1301528001204133	312.96886350004934	0.3396753000561148	311.93486419995315	2	1	96	1	nogo_punish	1	-1	0	0	0	1	0	0.0	1.0	0	1.0	0.3396753000561148	2120.2484728000127	2426.3374608999584	2427.349111699965	2428.629485399928	2430.1405633001123	2431.1605285000987	2432.183336999966	2433.217336300062	2434.2214053999637	2435.351558200084	2020-04-08 16:49:33.118998	-1.02214913042188	-5.86348671881663	-5.20200954609401	-5.24139319138804	-4.17986041567213	-5.20200954609401	1.02214913042188	-5.20200954609401	-5.86348671881663	-5.20200954609401	-4.17986041567213	5.20200954609401	-11.60929264502249	-10.049938976310187	-8.620980110861039	-14.161116691726336	-9.214420799054814	-8.620980110861039	4.1714528092318215	-14.722346777469166	-3.113054132446679	-14.27994254318439	-4.390976543986841	4	correct	1.0
315.11741849989676	8.502421600045636	go_punish	0.7848382999654859	315.14756620000117	317.1126584999729	319.65527290012733	1.9650922999717295	316.14239319995977	318.6432429000274	322.71911630011164	0.9702653000131249	1.0120300000999123	0.930871499935165	321.7069210000336	0.6432221999857575	320.67337949993134	2	1	97	2	go_punish	1	0	-1	1	1	1	0	0.0	1.0	0	0.7848382999654859	0.6432221999857575	2120.2484728000127	2435.396039000014	2436.3908659999724	2437.3611312999856	2438.89171570004	2439.90374570014	2440.921852299944	2441.9553938000463	2442.9675891001243	2443.8984606000595	2020-04-08 16:49:33.118998	2.00536795038171	-2.82983496789197	-3.94994696065812	-2.69935820272567	-1.9445790102764	-3.94994696065812	-2.00536795038171	-2.82983496789197	-3.94994696065812	-1.9445790102764	-3.94994696065812	2.82983496789197	-8.581775564218901	-7.016287225385528	-7.368917525425148	-11.619081703063966	-6.979139393659083	-7.368917525425148	1.799278231029781	-11.464916241651556	-2.8831406774326687	-11.907767964982348	-2.4774367858283304	4	correct	1.0
323.6471388000068	8.905560599872842	nogo_punish	1.0	323.6772865001112	325.7314909999259	328.2543806999456	2.0542044998146594	324.6854582999367	327.2333023000974	331.30824410007335	1.046032699989155	1.021078399848193	1.2746029999107122	330.29718429991044	0.2996380999684334	329.26703800004907	2	1	98	1	nogo_punish	1	-1	0	0	0	1	1	1.0	1.0	0	1.0	0.2996380999684334	2120.2484728000127	2443.925759300124	2444.9339310999494	2445.9799637999386	2447.48177510011	2448.5028534999583	2449.5155108000617	2450.545657099923	2451.556716900086	2452.8313198999967	2020-04-08 16:49:33.118998	1.19660904273376	-5.86348671881663	-3.51692880334158	-3.54626657846428	-4.71353784607534	-3.51692880334158	-1.19660904273376	-3.51692880334158	-5.86348671881663	-3.51692880334158	-4.71353784607534	3.51692880334158	-9.39053447186685	-10.049938976310187	-6.9358993681086085	-12.465990078802577	-9.748098229458023	-6.9358993681086085	2.486372066479391	-13.037266034716737	-3.646731562849889	-12.594861800431959	-4.390976543986841	4	correct	1.0
332.5776718999264	7.93035740009509	go_reward	0.649658199865371	332.6078196000308	334.1798370000911	336.7332806000486	1.5720174000603038	333.61825149995275	335.71866340003953	339.76348030008376	0.5615855001383352	1.01461720000907	0.7746967000421137	338.7602895000018	0.773172200191766	337.7474565000739	2	1	99	4	go_reward	1	1	0	1	1	1	0	0.0	1.0	1	0.649658199865371	0.773172200191766	2120.2484728000127	2452.8562924000435	2453.8667242999654	2454.4283098001038	2455.967136200052	2456.9817534000613	2457.9959293000866	2459.0087623000145	2460.0119531000964	2460.7866498001385	2020-04-08 16:49:33.118998	17.4662004831328	25.4095742437154	0.0	25.4095742437154	17.4662004831328	0.0	-17.4662004831328	25.4095742437154	0.0	17.4662004831328	0.0	6.9239268493202	6.879056968532188	21.22312198622184	-3.4189705647670285	16.489850743377104	12.431640099750116	-3.4189705647670285	5.893370112458011	7.9458632517576415	1.0668062832254512	16.331641246625022	1.4725101748297893	4	correct	1.0
340.5513371999846	8.500620499951765	go_punish	0.3470288999378681	340.581484900089	342.4856078000739	345.0175864000339	1.9041228999849409	341.5797039999161	344.0010007999372	348.0732030000072	0.9059038001578301	1.0165856000967324	1.0089024000335485	347.05996030010283	0.4319936998654157	346.0407428999897	2	1	100	2	go_punish	1	0	-1	1	1	1	0	0.0	1.0	0	0.3470288999378681	0.4319936998654157	2120.2484728000127	2460.8299577001017	2461.8281767999288	2462.7340806000866	2464.24947359995	2465.2660592000466	2466.2892157000024	2467.3084331001155	2468.32167580002	2469.3305782000534	2020-04-08 16:49:33.118998	2.60949503168519	-1.96337411777966	-3.94994696065812	-1.87127534649531	-1.34045192897293	-3.94994696065812	-2.60949503168519	-1.96337411777966	-3.94994696065812	-1.34045192897293	-3.94994696065812	1.96337411777966	-7.97764848291542	-6.149826375273218	-7.368917525425148	-10.790998846833606	-6.375012312355613	-7.368917525425148	0.9328173809174709	-10.860789160348087	-2.8831406774326687	-11.041307114870039	-2.4774367858283304	4	correct	1.0
349.0759705000096	9.845856299857132	go_reward	0.3641589002218097	349.106118200114	351.9473721999675	354.4903543000114	2.8412539998535067	350.12290049996227	353.4673435001164	357.5369581000414	1.8244717000052333	1.0230107998950189	1.4150163999297547	356.5242578999605	0.4905685000121593	355.50620590010703	2	1	101	4	go_reward	1	1	0	1	1	1	1	1.0	1.0	1	0.3641589002218097	0.4905685000121593	2120.2484728000127	2469.3545910001267	2470.371373299975	2472.19584499998	2473.715816300129	2474.738827100024	2475.7546787001197	2476.772730699973	2477.785430900054	2479.200447299984	2020-04-08 16:49:33.118998	18.9859084605116	27.6165638752051	0.0	27.6165638752051	18.9859084605116	0.0	-18.9859084605116	27.6165638752051	0.0	18.9859084605116	0.0	4.716937217830502	8.398764945910989	23.43011161771154	-3.4189705647670285	18.696840374866802	13.951348077128916	-3.4189705647670285	3.686380480968313	9.465571229136442	1.0668062832254512	18.53863087811472	1.4725101748297893	4	correct	1.0
358.9460871999627	8.889243100070416	go_reward	0.3181336000561714	358.9762349000671	361.5155974000231	364.0551494001411	2.5393624999560416	359.97839800012343	363.04641410009935	367.106192599982	1.5371993998996913	1.0087353000417352	0.759285400155477	366.0969471000135	0.6191899999976158	365.0736376000564	2	1	102	4	go_reward	0	0	1	1	1	1	0	0.0	1.0	0	0.3181336000561714	0.6191899999976158	2120.2484728000127	2479.2247077000798	2480.226870800136	2481.764070200036	2483.294886900112	2484.3036222001538	2485.322110400069	2486.345419900026	2487.3546653999947	2488.11395080015	2020-04-08 16:49:33.118998	19.9976196752116	29.0888837360201	0.0	29.0888837360201	19.9976196752116	0.0	-19.9976196752116	29.0888837360201	0.0	19.9976196752116	0.0	-29.0888837360201	9.410476160610989	24.902431478526545	-3.4189705647670285	20.169160235681804	14.963059291828916	-3.4189705647670285	-30.11944047288229	10.477282443836442	1.0668062832254512	20.010950738929722	1.4725101748297893	4	correct	1.0
367.8813228998338	8.027238400187343	nogo_reward	1.0	367.9114705999382	369.389274999965	371.92075180006213	1.4778044000267982	368.9165002000518	370.90625760005787	374.9607760000508	0.47277479991316795	1.0144942000042647	0.9779330000746995	373.94806140009314	0.4149174999911338	372.9357382999733	2	1	103	3	nogo_reward	1	0	1	0	0	1	0	0.0	1.0	1	1.0	0.4149174999911338	2120.2484728000127	2488.159943399951	2489.1649730000645	2489.6377477999777	2491.1547304000705	2492.169224600075	2493.184211099986	2494.196534200106	2495.2092488000635	2496.187181800138	2020-04-08 16:49:33.118998	34.9865058184035	6.93049080704703	31.9271814135691	31.9273828899217	-3.05932440483445	31.9271814135691	-34.9865058184035	31.9271814135691	6.93049080704703	31.9271814135691	-3.05932440483445	0.40631967946649894	24.39936230380289	2.744038549553472	28.508210848802072	23.007659389583402	-8.093884788217133	28.508210848802072	-0.6242370573956901	22.406844182193943	-1.9925181216089989	22.849248416478723	8.403000981876819	4	correct	1.0
375.9336603998677	8.881076799938455	go_reward	0.5197002999484539	375.9638080999721	377.80787330004387	380.32758329994977	1.8440652000717819	376.9651764999144	379.31336740008555	383.3672185000032	0.8426968001294881	1.0142158998642117	1.4776663999073207	382.35468539991416	0.4929181998595595	381.33174629998393	2	1	104	4	go_reward	1	1	0	1	1	1	1	1.0	1.0	1	0.5197002999484539	0.4929181998595595	2120.2484728000127	2496.2122808999848	2497.213649299927	2498.0563461000565	2499.5618402000982	2500.5760560999624	2501.5802190999966	2502.603158199927	2503.615691300016	2505.093357699923	2020-04-08 16:49:33.118998	13.4469238795031	19.5936029470769	0.0	19.5936029470769	13.4469238795031	0.0	-13.4469238795031	19.5936029470769	0.0	13.4469238795031	0.0	12.739898145958701	2.8597803649024893	15.407150689583341	-3.4189705647670285	10.673879446738603	8.412363496120417	-3.4189705647670285	11.709341409096512	3.926586648127943	1.0668062832254512	10.51566994998652	1.4725101748297893	4	correct	1.0
384.8431899999273	8.063278400106356	nogo_punish	1.0	384.8733377000317	386.3219506000164	388.8584128001239	1.4486128999847097	385.8804395000916	387.8378765999805	391.8949206999969	0.44151109992480997	1.0205362001433969	1.0416954001411796	390.8894303000998	0.3552411999553442	389.86738070007414	2	1	105	1	nogo_punish	1	-1	0	0	0	1	0	0.0	1.0	0	1.0	0.3552411999553442	2120.2484728000127	2505.1218105000444	2506.1289123001043	2506.570423400029	2508.086349399993	2509.1068856001366	2510.115853500087	2511.1379031001125	2512.1433935000096	2513.1850889001507	2020-04-08 16:49:33.118998	2.66541603947054	-5.86348671881663	-2.40217916898376	-2.42413193667773	-5.0675952084543	-2.40217916898376	-2.66541603947054	-2.40217916898376	-5.86348671881663	-2.40217916898376	-5.0675952084543	2.40217916898376	-7.92172747513007	-10.049938976310187	-5.821149733750788	-11.343855437016026	-10.102155591836983	-5.821149733750788	1.371622432121571	-11.922516400358917	-4.000788925228848	-11.48011216607414	-4.390976543986841	4	correct	1.0
392.9506014999938	9.963491200003773	go_punish	0.318138400092721	392.9807492000982	395.9457090001083	398.48800399992615	2.9649598000100923	393.9767350999173	397.4673711999785	401.50458840001374	1.9689739001910311	1.0206327999476343	1.4396520000882447	400.50864879996516	0.489104799926281	399.4944730999414	2	1	106	2	go_punish	1	0	-1	1	1	1	0	0.0	1.0	0	0.318138400092721	0.489104799926281	2120.2484728000127	2513.229222000111	2514.22520789993	2516.194181800121	2517.715843999991	2518.736476799939	2519.742945899954	2520.757121599978	2521.7530612000264	2523.1927132001147	2020-04-08 16:49:33.118998	3.02001455047794	-1.37411810267842	-3.94994696065812	-1.30866251954653	-0.929932410180177	-3.94994696065812	-3.02001455047794	-1.37411810267842	-3.94994696065812	-0.929932410180177	-3.94994696065812	1.37411810267842	-7.56712896412267	-5.560570360171978	-7.368917525425148	-10.228386019884827	-5.96449279356286	-7.368917525425148	0.34356136581623087	-10.450269641555334	-2.8831406774326687	-10.452051099768799	-2.4774367858283304	4	correct	1.0
402.939351500012	8.551325100008853	go_reward	0.3511083999183029	402.9694992001164	404.54165240004704	407.09398559993133	1.5721531999306535	403.97958820010535	406.0754021001044	410.1416535000317	0.5620641999416875	1.0185834998269456	1.3791708000935614	409.1383925001137	0.3453364002052694	408.1103159999475	2	1	107	4	go_reward	1	1	0	1	1	1	0	0.0	1.0	1	0.3511083999183029	0.3453364002052694	2120.2484728000127	2523.217972000129	2524.228061000118	2524.7901252000597	2526.323874900117	2527.342458399944	2528.35878879996	2529.3868653001264	2530.3901263000444	2531.769297100138	2020-04-08 16:49:33.118998	16.3712152333362	23.8265081744576	0.0	23.8265081744576	16.3712152333362	0.0	-16.3712152333362	23.8265081744576	0.0	16.3712152333362	0.0	8.506992918578	5.784071718735591	19.640055916964045	-3.4189705647670285	14.906784674119304	11.336654849953518	-3.4189705647670285	7.476436181715811	6.8508780019610445	1.0668062832254512	14.748575177367222	1.4725101748297893	4	correct	1.0
411.51877500000455	8.37610309990123	nogo_punish	1.0	411.54892270010896	413.3942468999885	415.9299179001241	1.845324199879542	412.5513707001228	414.9097792999819	418.96437750011637	0.8428761998657137	1.020138600142218	0.9606482998938191	417.9511168000754	0.6645833000075072	416.93785350001417	2	1	108	1	nogo_punish	1	-1	0	0	0	1	0	0.0	1.0	0	1.0	0.6645833000075072	2120.2484728000127	2531.7973955001216	2532.7998435001355	2533.642719700001	2535.1582520999946	2536.178390700137	2537.186326300027	2538.199589600088	2539.212850300129	2540.173498600023	2020-04-08 16:49:33.118998	3.64871657084237	-5.86348671881663	-1.65647034525502	-1.67296762004258	-5.30518691609739	-1.65647034525502	-3.64871657084237	-1.65647034525502	-5.86348671881663	-1.65647034525502	-5.30518691609739	1.65647034525502	-6.93842694375824	-10.049938976310187	-5.075440910022048	-10.592691120380877	-10.339747299480074	-5.075440910022048	0.625913608392831	-11.176807576630177	-4.238380632871939	-10.734403342345399	-4.390976543986841	4	correct	1.0
419.91944269998976	7.79908989998512	go_reward	0.8291335999965668	419.94959040009417	421.30846809991635	423.868749700021	1.3588776998221874	420.9499415999744	422.84533050004393	426.91171519993804	0.3585264999419451	1.02341919997707	0.8369651001412421	425.9019601000473	0.535941099980846	424.88372880010866	2	1	109	4	go_reward	1	1	0	1	1	1	1	1.0	1.0	1	0.8291335999965668	0.535941099980846	2120.2484728000127	2540.198063200107	2541.198414399987	2541.556940899929	2543.0938033000566	2544.1172225000337	2545.1322016001213	2546.15043290006	2547.1601879999507	2547.997153100092	2020-04-08 16:49:33.118998	18.2763356251702	26.5890332330417	0.0	26.5890332330417	18.2763356251702	0.0	-18.2763356251702	26.5890332330417	0.0	18.2763356251702	0.0	5.7444678599939	7.689192110569591	22.40258097554814	-3.4189705647670285	17.669309732703404	13.241775241787519	-3.4189705647670285	4.7139111231317115	8.755998393795045	1.0668062832254512	17.51110023595132	1.4725101748297893	4	correct	1.0
427.7648767998912	9.563498399918899	nogo_reward	1.0	427.79502449999563	430.57162800012156	433.0967248000675	2.7766035001259297	428.80008119996637	432.07725440012337	436.1561203999445	1.7715468001551926	1.0194703999441117	1.2024024999700487	435.1430790000595	0.4053585000801831	434.1144322000914	2	1	110	3	nogo_reward	0	1	0	0	0	1	0	0.0	1.0	0	1.0	0.4053585000801831	2120.2484728000127	2548.0434973000083	2549.048553999979	2550.8201008001342	2552.325727200136	2553.34519760008	2554.362905000104	2555.391551800072	2556.404593199957	2557.606995699927	2020-04-08 16:49:33.118998	35.1326803645568	6.93049080704703	32.0374892503615	32.0376768442744	-3.09519111419522	32.0374892503615	-35.1326803645568	32.0374892503615	6.93049080704703	32.0374892503615	-3.09519111419522	-32.0374892503615	24.545536849956186	2.744038549553472	28.618518685594474	23.117953343936104	-8.129751497577903	28.618518685594474	-33.06804598722369	22.517152018986344	-2.028384830969769	22.959556253271124	8.403000981876819	4	correct	1.0
437.3548714998187	8.42440080014012	nogo_punish	1.0	437.38501919992314	438.75258570001506	441.2779139999766	1.3675665000919253	438.39362200000323	440.25790930003905	444.33070800011046	0.3589637000118273	1.0200046999375445	1.4787119999527931	443.3130356001202	0.4105888002086431	442.29312520008534	2	1	111	1	nogo_punish	1	-1	0	0	0	1	0	0.0	1.0	0	1.0	0.4105888002086431	2120.2484728000127	2557.633491999936	2558.642094800016	2559.0010585000277	2560.5063821000517	2561.5263867999893	2562.541598000098	2563.561508400133	2564.579180800123	2566.057892800076	2020-04-08 16:49:33.118998	4.31388223170877	-5.86348671881663	-1.15244080786344	-1.16488915749239	-5.46632303957221	-1.15244080786344	-4.31388223170877	-1.15244080786344	-5.86348671881663	-1.15244080786344	-5.46632303957221	1.15244080786344	-6.27326128289184	-10.049938976310187	-4.571411372630468	-10.084612657830686	-10.500883422954892	-4.571411372630468	0.12188407100125098	-10.672778039238597	-4.39951675634676	-10.23037380495382	-4.390976543986841	4	correct	1.0
445.8230160998651	7.8169758000876755	go_punish	0.5441733000334352	445.8531637999695	447.1864656000398	449.7310269000004	1.3333018000703305	446.851312099956	448.7189478999935	452.77029459993355	0.33515350008383393	1.0120790000069064	0.8998450001236051	451.75783500005537	0.5429658000357449	450.73672419996	2	1	112	2	go_punish	1	0	-1	1	1	1	0	0.0	1.0	0	0.5441733000334352	0.5429658000357449	2120.2484728000127	2566.101636599982	2567.0997848999687	2567.4349384000525	2568.967420700006	2569.979499700013	2570.9851969999727	2572.006307800068	2573.0187673999462	2573.91861240007	2020-04-08 16:49:33.118998	3.30160066504533	-0.969560201637898	-3.94994696065812	-0.922738662647388	-0.648346295612791	-3.94994696065812	-3.30160066504533	-0.969560201637898	-3.94994696065812	-0.648346295612791	-3.94994696065812	0.969560201637898	-7.285542849555281	-5.156012459131456	-7.368917525425148	-9.842462162985685	-5.682906678995474	-7.368917525425148	-0.06099653522429105	-10.168683526987948	-2.8831406774326687	-10.047493198728278	-2.4774367858283304	4	correct	1.0
453.6678329999563	8.191608000081033	nogo_punish	0.5797149001155049	453.6979807000607	455.12587510002777	457.67206809995696	1.4278943999670446	454.70528180012434	456.64862539991736	460.7021904999856	0.4205932999034303	1.0234427000395954	1.1873982001561671	459.6972568000201	1.0	458.6867881999351	2	1	113	1	nogo_punish	1	-1	0	0	1	0	1	n/a	0.0	0	0.5797149001155049	1.0	2120.2484728000127	2573.9464535000734	2574.953754600137	2575.3743479000404	2576.89709819993	2577.9205408999696	2578.935260999948	2579.945729600033	2580.9506632999983	2582.1380615001544	2020-04-08 16:49:33.118998	-4.76822966398078	-5.86348671881663	-0.808460087847961	-0.817890031398577	-5.57668975182874	-0.808460087847961	4.76822966398078	-5.86348671881663	-0.808460087847961	-5.57668975182874	-0.808460087847961	-5.28945772989007	-15.355373178581392	-10.049938976310187	-4.22743065261499	-9.737613531736873	-10.611250135211423	-4.22743065261499	-6.320014466752259	-15.097026983203897	0.25834619537749026	-14.94141971590701	0.6640500869818283	4	missed	0.0
461.8857131998525	8.734103300143033	go_reward	0.5047549998853356	461.9158608999569	463.971031999914	466.4992317000874	2.0551710999570787	462.9245362000074	465.48727230005943	469.54583170008846	1.0464957999065518	1.0119594000279903	1.104132500011474	468.54332900000736	0.4808341001626104	467.51591080008075	2	1	114	4	go_reward	1	1	0	1	1	1	0	0.0	1.0	1	0.5047549998853356	0.4808341001626104	2120.2484728000127	2582.1643336999696	2583.17300900002	2584.2195047999267	2585.735745100072	2586.7477045001	2587.7643836000934	2588.79180180002	2589.794304500101	2590.8984370001126	2020-04-08 16:49:33.118998	19.5323350810312	28.4138770304363	0.0	28.4138770304363	19.5323350810312	0.0	-19.5323350810312	28.4138770304363	0.0	19.5323350810312	0.0	3.9196240625993006	8.945191566430589	24.22742477294274	-3.4189705647670285	19.494153530098004	14.497774697648516	-3.4189705647670285	2.889067325737112	10.011997849656042	1.0668062832254512	19.33594403334592	1.4725101748297893	4	correct	1.0
470.6479320998774	8.330598199973338	nogo_punish	1.0	470.6780797999818	472.5189259001054	475.0544076000806	1.8408461001235992	471.67623730003834	474.0339697001036	478.09346550004557	0.8426886000670493	1.0204378999769688	0.9152124999095577	477.08029690012336	0.4036700001452118	476.06108000013046	2	1	115	1	nogo_punish	1	-1	0	0	0	1	1	1.0	1.0	0	1.0	0.4036700001452118	2120.2484728000127	2590.9265525999945	2591.924710100051	2592.767398700118	2594.2824425001163	2595.3028804000933	2596.309552800143	2597.328769700136	2598.3419383000582	2599.257150799968	2020-04-08 16:49:33.118998	2.93098181541332	-3.94994696065812	-0.808460087847961	-0.578749006268542	-3.73944190326129	-0.808460087847961	-2.93098181541332	-0.808460087847961	-3.94994696065812	-0.808460087847961	-3.73944190326129	0.808460087847961	-7.65616169918729	-8.136399218151677	-4.22743065261499	-9.498472506606838	-8.774002286643974	-4.22743065261499	-0.2220966490142281	-10.328797319223117	-2.6726356200358388	-9.886393084938339	-2.4774367858283304	4	correct	1.0
479.02287400001705	9.335591299925	nogo_reward	1.0	479.05302170012146	481.56827290006913	484.098628600128	2.51525119994767	480.0504123000428	483.0755320000462	487.1413131000004	1.5178606000263244	1.0230966000817716	1.2472999000460732	486.13781589991413	0.2214047000743448	485.1132481000391	2	1	116	3	nogo_reward	1	0	1	0	0	1	0	0.0	1.0	1	1.0	0.2214047000743448	2120.2484728000127	2599.301494500134	2600.2988851000555	2601.816745700082	2603.324004800059	2604.3471014001407	2605.3617209000518	2606.386288699927	2607.389785900013	2608.637085800059	2020-04-08 16:49:33.118998	21.4932654342113	6.93049080704703	21.6288089611176	21.6289777805688	0.135543526906316	21.6288089611176	-21.4932654342113	21.6288089611176	6.93049080704703	21.6288089611176	0.135543526906316	10.704692131918002	10.906121919610689	2.744038549553472	18.20983839635057	12.709254280230503	-4.899016856476367	18.20983839635057	9.674135395055812	12.108471729742442	1.2023498101317673	12.55087596402722	8.403000981876819	4	correct	1.0
488.3864912998397	9.762611800106697	go_reward	0.3961553000845015	488.4166389999441	491.1476054000668	493.6856502001174	2.7309664001227247	489.423572700005	492.6750996001065	496.7269300001203	1.724032700061798	1.0105506000109017	1.452320799930476	495.7167271999642	0.303873699856922	494.70279629994184	2	1	117	4	go_reward	0	0	1	1	1	1	0	0.0	1.0	0	0.3961553000845015	0.303873699856922	2120.2484728000127	2608.665111799957	2609.6720455000177	2611.3960782000795	2612.923572400119	2613.93412300013	2614.9512690999545	2615.965199999977	2616.975402800133	2618.4277236000635	2020-04-08 16:49:33.118998	20.3696330426498	29.6329610769186	0.0	29.6329610769186	20.3696330426498	0.0	-20.3696330426498	29.6329610769186	0.0	20.3696330426498	0.0	-29.6329610769186	9.782489528049188	25.44650881942504	-3.4189705647670285	20.713237576580305	15.335072659267116	-3.4189705647670285	-30.66351781378079	10.849295811274642	1.0668062832254512	20.555028079828222	1.4725101748297893	4	correct	1.0
498.1754819999919	8.815131499897689	nogo_punish	1.0	498.2056297000963	500.6246283999644	503.149039800046	2.418998699868098	499.20551840006374	502.12935890001245	506.2090426001232	1.4191099999006838	1.0196809000335634	0.811718599870801	505.19639310007915	0.3140092000830918	504.1668464001268	2	1	118	1	nogo_punish	1	-1	0	0	0	1	0	0.0	1.0	0	1.0	0.3140092000830918	2120.2484728000127	2618.454102500109	2619.4539912000764	2620.873101199977	2622.377831700025	2623.3975126000587	2624.4153192001395	2625.444865900092	2626.457515400136	2627.2692340000067	2020-04-08 16:49:33.118998	3.22105595114002	-3.94994696065812	-0.571578826346215	-0.412537812921642	-3.79263477748624	-0.571578826346215	-3.22105595114002	-0.571578826346215	-3.94994696065812	-0.571578826346215	-3.79263477748624	0.571578826346215	-7.3660875634605905	-8.136399218151677	-3.9905493911132437	-9.332261313259938	-8.827195160868923	-3.9905493911132437	-0.45897791051597403	-10.091916057721372	-2.7258284942607887	-9.649511823436594	-2.4774367858283304	4	correct	1.0
507.0143661999614	8.716295999940485	go_reward	0.365231700008735	507.0445139000658	508.9135601001326	511.4727567001246	1.8690462000668049	508.0483160999138	510.4557682001032	514.517563499976	0.8652440002188087	1.016988500021398	1.2432464000303298	513.5047733001411	0.3198027000762522	512.4910848001018	2	1	119	4	go_reward	1	1	0	1	1	1	1	1.0	1.0	1	0.365231700008735	0.3198027000762522	2120.2484728000127	2627.2929867000785	2628.2967888999265	2629.1620329001453	2630.704241000116	2631.7212295001373	2632.7395576001145	2633.753246100154	2634.7660362999886	2636.009282700019	2020-04-08 16:49:33.118998	13.7024368908963	19.9681828959931	0.0	19.9681828959931	13.7024368908963	0.0	-13.7024368908963	19.9681828959931	0.0	13.7024368908963	0.0	12.365318197042502	3.115293376295689	15.78173063849954	-3.4189705647670285	11.048459395654803	8.667876507513617	-3.4189705647670285	11.334761460180312	4.182099659521143	1.0668062832254512	10.89024989890272	1.4725101748297893	4	correct	1.0
515.7603736999449	8.549537200015038	nogo_punish	1.0	515.7905214000493	517.5986381999683	520.1269722001161	1.8081167999189347	516.7871807001065	519.1145005999133	523.1745708999224	0.8114574998617172	1.0124716002028435	1.1654877001419663	522.1619098000228	0.4308279000688344	521.1441188999452	2	1	120	1	nogo_punish	1	-1	0	0	0	1	1	1.0	1.0	0	1.0	0.4308279000688344	2120.2484728000127	2636.038994200062	2637.035653500119	2637.847110999981	2639.362973399926	2640.375445000129	2641.392591699958	2642.4103826000355	2643.423043699935	2644.588531400077	2020-04-08 16:49:33.118998	3.42295599671975	-3.94994696065812	-0.407066331419961	-0.296092485091007	-3.83002232813971	-0.407066331419961	-3.42295599671975	-0.407066331419961	-3.94994696065812	-0.407066331419961	-3.83002232813971	0.407066331419961	-7.16418751788086	-8.136399218151677	-3.8260368961869897	-9.215815985429304	-8.864582711522393	-3.8260368961869897	-0.6234904054422281	-9.927403562795117	-2.763216044914259	-9.484999328510339	-2.4774367858283304	4	correct	1.0
