onset	duration	trial_type	response_time	cueOnset	targetOnset	fbOnset	cueRT	firstfixOnset	secondfixOnset	waitOnset	firstfixdur	secondfixdur	waitdur	nback_fbOnset	nback_response_time	nback_targetOnset	block	wm	trial	cue	cond	is_common	outcome_go	outcome_nogo	key_correct	key_pressed	is_correct	key_correct_nback	key_pressed_nback	is_correct_nback	outcome	rt	rt_nback	time_scan	time_onset	time_isi1	time_circle	time_isi2	time_feedback	time_same	time_correct	time_iti	time_done	timestamp_scan	DV	Qgo	Qnogo	SV	Wgo	Wnogo	mDV	Qchosen	Qunchosen	Wchosen	Wunchosen	PE	DVC	QgoC	QnogoC	SVC	WgoC	WnogoC	PEC	WchosenC	WunchosenC	QchosenC	QunchosenC	run	outcome_nback	nback_targetResp
0.0	6.582066599978134	go_punish	0.3243142000865191	0.025051600066944957	1.719038899987936	4.272781200008467	1.693987299920991	1.0299740999471396	3.247995200101286	5.2730364999733865	0.6890648000407964	1.0247859999071807	1.3340817000716925	n/a	1.0	n/a	1	0	61	2	go_punish	0	-1	0	1	1	1	0	n/a	n/a	-1	0.3243142000865191	1.0	860.6326033999212	860.6576549999882	861.6625774998683	862.3516422999091	863.8805986000225	864.9053845999297	n/a	n/a	865.9056398998946	867.2397215999663	2020-02-11 16:22:59.562283	8.15681144011276	0.0	-7.95285825313971	-1.71927674658648	0.203953186973047	-7.95285825313971	-8.15681144011276	0.0	-7.95285825313971	0.203953186973047	-7.95285825313971	-12.1226607520425	3.3666276323446587	-1.87161277521137	-8.848786273374209	-5.219604984011372	-2.1395125457787025	-8.848786273374209	-12.862051640764523	-3.8108355934041276	-7.177463225748784	-3.5742532608614264	-7.146145787724151	2	missed	0.0
6.61553609999828	7.189279200043529	go_punish	1.0	6.640587700065225	8.937592700123787	11.467792600160465	2.2970050000585616	7.6495415000244975	10.44404079997912	12.477460500085726	1.2880512000992894	1.0237518001813442	1.3524064000230283	n/a	1.0	n/a	1	0	62	2	go_punish	1	0	-1	1	0	0	0	n/a	n/a	-1	1.0	1.0	860.6326033999212	867.2731910999864	868.2821448999457	869.570196100045	871.0766441999003	872.1003960000817	n/a	n/a	873.1100639000069	874.46247030003	2020-02-11 16:22:59.562283	-3.83694710023087	-4.40242030815219	-7.95285825313971	-5.52954178597896	-4.11591115290884	-7.95285825313971	3.83694710023087	-7.95285825313971	-4.40242030815219	-7.95285825313971	-4.11591115290884	-4.169802498902789	-8.627130907998971	-6.274033083363561	-8.848786273374209	-9.029870023403852	-6.459376885660589	-8.848786273374209	-4.909193387624812	-11.967647033516885	-3.3405161255179134	-11.527111514001136	-3.595707842736631	2	missed	0.0
13.845315099926665	5.86617900012061	nogo_reward	0.4978680999483913	13.87036669999361	15.426696700043976	17.96845669997856	1.556330000050366	14.87283210013993	16.956775499973446	18.971620900090784	0.5538645999040455	1.011681200005114	0.7649248000234365	n/a	1.0	n/a	1	0	63	3	nogo_reward	1	0	1	0	1	0	0	n/a	n/a	0	0.4978680999483913	1.0	860.6326033999212	874.5029700999148	875.5054355000611	876.0593000999652	877.5893788998947	878.6010600998998	n/a	n/a	879.604224300012	880.3691491000354	2020-02-11 16:22:59.562283	-17.0590301108479	1.93312869940993	18.7034482288276	17.908387187601	1.64441811797972	18.7034482288276	17.0590301108479	1.93312869940993	18.7034482288276	1.64441811797972	18.7034482288276	-1.93312869940993	-21.849213918616	0.06151592419855989	17.807520208593104	14.408058950176109	-0.6990476147720297	17.807520208593104	-2.6725195881319532	-2.3703706623974545	19.478843256218525	-1.6411245614514964	19.510160694243158	2	missed	0.0
19.749149499926716	6.269462000112981	go_reward	0.4049738999456167	19.77420109999366	21.3412435001228	23.898511900100857	1.5670424001291394	20.78908220003359	22.873243800131604	24.903173400089145	0.5521613000892103	1.025268099969253	1.140489700017497	n/a	1.0	n/a	1	0	64	4	go_reward	1	1	0	1	1	1	0	n/a	n/a	1	0.4049738999456167	1.0	860.6326033999212	880.4068044999149	881.4216855999548	881.973846900044	883.5058472000528	884.5311153000221	n/a	n/a	885.5357768000104	886.6762665000279	2020-02-11 16:22:59.562283	13.3272132493858	13.7239888565573	0.0	13.7239888565573	13.3272132493858	0.0	-13.3272132493858	13.7239888565573	0.0	13.3272132493858	0.0	9.62189923166	8.537029441617698	11.85237608134593	-0.8959280202344981	10.223660619132406	10.98374751663405	-0.8959280202344981	8.882508342937976	9.312424469008626	0.7753950273909263	10.149735595695873	0.8067124654155591	2	missed	0.0
26.05643570004031	6.752490299986675	nogo_punish	1.0	26.081487300107256	27.874661900103092	30.40589900012128	1.7931745999958366	27.084965500049293	29.382189500145614	31.419021300040185	0.7896964000537992	1.0237094999756664	1.4149563000537455	n/a	1.0	n/a	1	0	65	1	nogo_punish	1	-1	0	0	0	1	0	n/a	n/a	0	1.0	1.0	860.6326033999212	886.7140907000285	887.7175688999705	888.5072653000243	890.0147929000668	891.0385024000425	n/a	n/a	892.0516246999614	893.4665810000151	2020-02-11 16:22:59.562283	7.20557587177319	-8.41214029603369	-0.992979905592755	-1.64319315406619	-8.19855577736595	-0.992979905592755	-7.20557587177319	-0.992979905592755	-8.41214029603369	-0.992979905592755	-8.19855577736595	0.992979905592755	2.415392064005089	-10.28375307124506	-1.8889079258272532	-5.143521391491083	-10.5420215101177	-1.8889079258272532	0.25358901687073154	-5.007768685969929	-7.423160749975024	-4.567233166454181	-7.605427830618131	2	missed	0.0
32.8447294998914	7.1473189000971615	nogo_punish	1.0	32.869781099958345	35.59384650015272	38.12251770007424	2.7240654001943767	33.88481860002503	37.100214699981734	39.125270900083706	1.709027900127694	1.0223030000925064	0.891829099971801	n/a	1.0	n/a	1	0	66	1	nogo_punish	1	-1	0	0	0	1	0	n/a	n/a	0	1.0	1.0	860.6326033999212	893.5023844998796	894.5174219999462	896.2264499000739	897.7328180999029	898.7551210999954	n/a	n/a	899.7578743000049	900.6497033999767	2020-02-11 16:22:59.562283	7.5267087342809	-8.41214029603369	-0.695691637771352	-1.18106268832787	-8.22240037205225	-0.695691637771352	-7.5267087342809	-0.695691637771352	-8.41214029603369	-0.695691637771352	-8.22240037205225	0.695691637771352	2.736524926512799	-10.28375307124506	-1.5916196580058501	-4.681390925752763	-10.565866104804	-1.5916196580058501	-0.0436992509506714	-4.710480418148527	-7.447005344661324	-4.269944898632779	-7.605427830618131	2	missed	0.0
40.02794749988243	6.961828600149602	nogo_punish	1.0	40.052999099949375	42.12053059996117	44.645329999970386	2.067531500011796	41.067311899969354	43.63604540005315	45.65926080010843	1.0532186999918167	1.0092845999172368	1.3555668999905492	n/a	1.0	n/a	1	0	67	1	nogo_punish	1	-1	0	0	0	1	1	n/a	n/a	0	1.0	1.0	860.6326033999212	900.6856024998706	901.6999152998906	902.7531339998824	904.2686487999744	905.2779333998916	n/a	n/a	906.2918642000296	907.6474311000202	2020-02-11 16:22:59.562283	7.73810965522368	-8.41214029603369	-0.501133641100922	-0.871806005671458	-8.2392432963246	-0.501133641100922	-7.73810965522368	-0.501133641100922	-8.41214029603369	-0.501133641100922	-8.2392432963246	0.501133641100922	2.947925847455579	-10.28375307124506	-1.39706166133542	-4.372134243096351	-10.58270902907635	-1.39706166133542	-0.23825724762110145	-4.515922421478097	-7.463848268933674	-4.075386901962348	-7.605427830618131	2	missed	0.0
47.032790000084674	6.1300170999021475	nogo_reward	1.0	47.05784160015162	48.48755350010481	51.00982609996561	1.4297118999531904	48.06582370004617	49.99844749993645	52.022721000015736	0.42172980005864247	1.0113786000291611	1.1651377000380307	n/a	1.0	n/a	1	0	68	3	nogo_reward	0	1	0	0	0	1	0	n/a	n/a	0	1.0	1.0	860.6326033999212	907.6904450000728	908.6984270999674	909.120156900026	910.6310508998577	911.6424294998868	n/a	n/a	912.655324399937	913.820462099975	2020-02-11 16:22:59.562283	17.6861459779588	1.28567783687136	18.7034482288276	11.0573112185181	1.01730225086884	18.7034482288276	-17.6861459779588	18.7034482288276	1.28567783687136	18.7034482288276	1.01730225086884	-18.7034482288276	12.8959621701907	-0.5859349383400101	17.807520208593104	7.556982981093207	-1.3261634818829096	17.807520208593104	-19.442839117549624	14.688659448450426	1.7926972782597663	15.129194967966175	2.092390302286919	2	missed	0.0
53.19908729987219	7.449211300117895	nogo_punish	1.0	53.224138899939135	56.195539199979976	58.709154500160366	2.971400300040841	54.23125830013316	57.69783600000676	59.71773770009156	1.9642808998468126	1.0113185001536067	0.9556124999654685	n/a	1.0	n/a	1	0	69	1	nogo_punish	1	-1	0	0	0	1	1	n/a	n/a	0	1.0	1.0	860.6326033999212	913.8567422998603	914.8638617000544	916.8281425999012	918.330439399928	919.3417579000816	n/a	n/a	920.3503411000128	921.3059535999782	2020-02-11 16:22:59.562283	7.88120999431202	-8.41214029603369	-0.370018117924932	-0.658742742676043	-8.25122811223696	-0.370018117924932	-7.88120999431202	-0.370018117924932	-8.41214029603369	-0.370018117924932	-8.25122811223696	0.370018117924932	3.0910261865439193	-10.28375307124506	-1.2659461381594301	-4.159070980100935	-10.59469384498871	-1.2659461381594301	-0.3693727707970914	-4.384806898302107	-7.475833084846034	-3.9442713787863584	-7.605427830618131	2	missed	0.0
60.68538159993466	7.005394800100589	nogo_punish	1.0	60.7104332000016	62.69577049999498	65.22117480007	1.9853372999933754	61.72700259997521	64.21083300001919	66.23436070000764	0.9687679000197704	1.01034180005081	1.4814673000945504	n/a	1.0	n/a	1	0	70	1	nogo_punish	1	-1	0	0	0	1	0	n/a	n/a	0	1.0	1.0	860.6326033999212	921.3430365999228	922.3596059998964	923.3283738999162	924.8434363999404	925.8537781999912	n/a	n/a	926.8669640999289	928.3484314000234	2020-02-11 16:22:59.562283	7.98057246852165	-8.41214029603369	-0.279266057882462	-0.508044067180722	-8.25983852640411	-0.279266057882462	-7.98057246852165	-0.279266057882462	-8.41214029603369	-0.279266057882462	-8.25983852640411	0.279266057882462	3.190388660753549	-10.28375307124506	-1.17519407811696	-4.008372304605615	-10.603304259155859	-1.17519407811696	-0.4601248308395614	-4.294054838259637	-7.484443499013183	-3.8535193187438885	-7.605427830618131	2	missed	0.0
67.73420229996543	6.3683060999028385	nogo_reward	1.0	67.75925390003238	69.20829050010082	71.74199640005838	1.449036600068439	68.766763899941	70.7149152001366	72.75060490006581	0.44152660015981837	1.0270811999217813	1.3769550998694058	n/a	1.0	n/a	1	0	71	3	nogo_reward	1	0	1	0	0	1	0	n/a	n/a	1	1.0	1.0	860.6326033999212	928.3918572999536	929.3993672998622	929.840893900022	931.3475186000578	932.3745997999796	n/a	n/a	933.383208299987	934.7601633998564	2020-02-11 16:22:59.562283	10.5195960478644	1.28567783687136	11.6164288210601	7.20513904684934	1.09683277319563	11.6164288210601	-10.5195960478644	11.6164288210601	1.28567783687136	11.6164288210601	1.09683277319563	11.7294592671572	5.729412240096299	-0.5859349383400101	10.720500800825603	3.7048108094244476	-1.2466329595561196	10.720500800825603	10.990068378435176	7.601640040682926	1.8722278005865562	8.042175560198675	2.092390302286919	2	missed	0.0
74.14216700010002	6.776528699789196	go_punish	1.0	74.16721860016696	76.00306500005536	78.52989400015201	1.8358463998883963	75.16989400004957	77.51015190011822	79.5382936000824	0.833171000005791	1.0197421000337954	1.4054536998737603	n/a	1.0	n/a	1	0	72	2	go_punish	0	-1	0	1	0	0	0	n/a	n/a	0	1.0	1.0	860.6326033999212	934.7998220000882	935.8024973999708	936.6356683999766	938.1427553000394	939.1624974000732	n/a	n/a	940.1708970000036	941.5763506998774	2020-02-11 16:22:59.562283	-5.14100665021702	-4.40242030815219	-9.18109795685437	-7.7178369612723	-4.04009130663735	-9.18109795685437	5.14100665021702	-9.18109795685437	-4.40242030815219	-9.18109795685437	-4.04009130663735	9.18109795685437	-9.931190457985121	-6.274033083363561	-10.077025977088867	-11.218165198697193	-6.3835570393891	-10.077025977088867	8.441707068132345	-13.195886737231543	-3.264696279246423	-12.755351217715795	-3.595707842736631	2	missed	0.0
80.96173379989341	6.232546100159993	nogo_reward	1.0	80.98678539996035	82.34465470002044	84.8655147999524	1.3578693000600879	81.98548380006116	83.85059119993821	85.87581999995757	0.3591708999592811	1.0149236000141855	1.3435115001627764	n/a	1.0	n/a	1	0	73	3	nogo_reward	1	0	1	0	0	1	1	n/a	n/a	1	1.0	1.0	860.6326033999212	941.6193887998816	942.6180871999824	942.9772580999417	944.4831945998594	945.4981181998736	n/a	n/a	946.5084233998788	947.8519349000416	2020-02-11 16:22:59.562283	15.0592449481636	1.28567783687136	16.1564802984169	13.4443417454671	1.09723535025325	16.1564802984169	-15.0592449481636	16.1564802984169	1.28567783687136	16.1564802984169	1.09723535025325	7.189407789800402	10.2690611403955	-0.5859349383400101	15.2605522781824	9.944013508042207	-1.2462303824984997	15.2605522781824	6.450016901078379	12.141691518039725	1.8726303776441762	12.582227037555473	2.092390302286919	2	missed	0.0
87.23406749987043	5.9773877002297695	nogo_punish	1.0	87.25911909993738	88.73785939998925	91.26858610007923	1.478740300051868	88.26945669995621	90.24898279993795	92.27275809994899	0.46840270003303885	1.0196033001412843	0.9637487002181615	n/a	1.0	n/a	1	0	74	1	nogo_punish	1	-1	0	0	0	1	0	n/a	n/a	0	1.0	1.0	860.6326033999212	947.8917224998586	948.9020600998774	949.3704627999105	950.8815861998592	951.9011895000004	n/a	n/a	952.9053614998702	953.8691102000884	2020-02-11 16:22:59.562283	8.05118378757826	-8.41214029603369	-0.214903274406145	-0.398897614824487	-8.2660870619844	-0.214903274406145	-8.05118378757826	-0.214903274406145	-8.41214029603369	-0.214903274406145	-8.2660870619844	0.214903274406145	3.260999979810159	-10.28375307124506	-1.1108312946406431	-3.89922585224938	-10.60955279473615	-1.1108312946406431	-0.5244876143158784	-4.22969205478332	-7.490692034593474	-3.7891565352675713	-7.605427830618131	2	missed	0.0
93.25859409989789	7.197011000011116	nogo_reward	1.0	93.28364569996484	95.7158387999516	98.25527630001318	2.432193099986762	94.29326379997656	97.23119099996984	99.26083980011754	1.4225749999750406	1.024085300043339	1.2198168998584151	n/a	1.0	n/a	1	0	75	3	nogo_reward	1	0	1	0	0	1	1	n/a	n/a	1	1.0	1.0	860.6326033999212	953.916249099886	954.9258671998978	956.3484421998728	957.863794399891	958.8878796999344	n/a	n/a	959.8934432000387	961.1132600998972	2020-02-11 16:22:59.562283	17.6295592590686	1.28567783687136	18.6634439368945	16.9172371888833	1.03388467782581	18.6634439368945	-17.6295592590686	18.6634439368945	1.28567783687136	18.6634439368945	1.03388467782581	4.682444151322802	12.839375451300498	-0.5859349383400101	17.767515916660003	13.416908951458407	-1.3095810549259397	17.767515916660003	3.9430532626007784	14.648655156517325	1.8092797052167362	15.089190676033073	2.092390302286919	2	missed	0.0
100.4932270999999	7.4956274998839945	nogo_punish	1.0	100.51827870006684	103.25771600008	105.77585390000604	2.739437300013151	101.52349489997141	104.76133630005643	106.78656330006197	1.7342211001085843	1.0145175999496132	1.2273428998888676	n/a	1.0	n/a	1	0	76	1	nogo_punish	0	0	-1	0	0	1	1	n/a	n/a	-1	1.0	1.0	860.6326033999212	961.150882099988	962.1560982998926	963.8903194000012	965.3939396999776	966.4084572999272	n/a	n/a	967.4191666999832	968.646509599872	2020-02-11 16:22:59.562283	8.1024312556593	-8.41214029603369	-0.168233874893853	-0.318141394065892	-8.27066513055315	-0.168233874893853	-8.1024312556593	-0.168233874893853	-8.41214029603369	-0.168233874893853	-8.27066513055315	-11.954426877148647	3.312247447891198	-10.28375307124506	-1.0641618951283511	-3.818469631490785	-10.614130863304899	-1.0641618951283511	-12.693817765870671	-4.183022655271028	-7.495270103162223	-3.7424871357552796	-7.605427830618131	2	missed	0.0
108.02962690009747	5.88471849984478	go_reward	1.0	108.05467850016441	109.43630250007834	111.96745490003377	1.381623999913927	109.05500039993797	110.94689270015795	112.9773965999484	0.381302100140374	1.020562199875826	0.9620004000607878	n/a	1.0	n/a	1	0	77	4	go_reward	1	1	0	1	0	0	0	n/a	n/a	0	1.0	1.0	860.6326033999212	968.6872819000856	969.6876037998592	970.0689058999995	971.5794961000792	972.600058299955	n/a	n/a	973.6099999998696	974.5720003999304	2020-02-11 16:22:59.562283	-17.2235650064563	17.584196064541	0.0	17.584196064541	17.2235650064563	0.0	17.2235650064563	0.0	17.584196064541	0.0	17.2235650064563	0.0	-22.013748814224403	15.71258328932963	-0.8959280202344981	14.083867827116109	14.880099273704552	-0.8959280202344981	-0.7393908887220234	-4.014788780377175	17.998960033847226	-3.5742532608614264	18.39090852995656	2	missed	0.0
113.95111109991547	6.878372899955139	nogo_punish	1.0	113.97616269998241	115.9208929000888	118.4483898000326	1.9447302001063917	114.99202280002635	117.43583149998437	119.45246800011955	0.9288701000624542	1.0125583000482266	1.4020675998179968	n/a	1.0	n/a	1	0	78	1	nogo_punish	1	-1	0	0	0	1	1	n/a	n/a	0	1.0	1.0	860.6326033999212	974.6087660999036	975.6246261999476	976.55349630001	978.0684348999056	979.0809931999538	n/a	n/a	980.0850714000408	981.4871389998588	2020-02-11 16:22:59.562283	3.6340902301539	-8.41214029603369	-4.53612818894988	-4.65965694949994	-8.17021841910378	-4.53612818894988	-3.6340902301539	-4.53612818894988	-8.41214029603369	-4.53612818894988	-8.17021841910378	4.53612818894988	-1.1560935776142012	-10.28375307124506	-5.4320562091843785	-8.159985186924832	-10.513684151855529	-5.4320562091843785	3.796737300227857	-8.550916969327055	-7.394823391712853	-8.110381449811307	-7.605427830618131	2	missed	0.0
120.8651010999456	7.005785699933881	nogo_punish	1.0	120.89015270001255	123.25617559999239	125.78133000014361	2.366022899979839	121.90627100016002	124.77092360006634	126.79289599997003	1.3499045998323709	1.0104064000772723	1.1030423999764025	n/a	1.0	n/a	1	0	79	1	nogo_punish	1	-1	0	0	0	1	0	n/a	n/a	0	1.0	1.0	860.6326033999212	981.5227560999338	982.5388744000812	983.8887789999136	985.4035269999875	986.4139334000648	n/a	n/a	987.4254993998912	988.5285417998676	2020-02-11 16:22:59.562283	5.53003948482287	-8.41214029603369	-2.65514800780475	-2.75796032584551	-8.18518749262762	-2.65514800780475	-5.53003948482287	-2.65514800780475	-8.41214029603369	-2.65514800780475	-8.18518749262762	2.65514800780475	0.7398556770547691	-10.28375307124506	-3.551076028039248	-6.258288563270403	-10.528653225379369	-3.551076028039248	1.9157571190827265	-6.669936788181925	-7.409792465236693	-6.229401268666177	-7.605427830618131	2	missed	0.0
127.90778489992942	6.087336800061166	nogo_punish	1.0	127.93283649999637	129.50433659995917	132.02956370008178	1.5715000999628046	128.95180199993774	131.00964720011677	133.04253730014898	0.5525346000214313	1.0199164999650066	0.9776359999085571	n/a	1.0	n/a	1	0	80	1	nogo_punish	1	-1	0	0	0	1	1	n/a	n/a	0	1.0	1.0	860.6326033999212	988.5654398999176	989.584405399859	990.1369399998804	991.642250600038	992.662167100003	n/a	n/a	993.6751407000702	994.6527766999787	2020-02-11 16:22:59.562283	6.55903753996225	-8.41214029603369	-1.65127151556819	-1.73759997097667	-8.21030905553044	-1.65127151556819	-6.55903753996225	-1.65127151556819	-8.41214029603369	-1.65127151556819	-8.21030905553044	1.65127151556819	1.7688537321941489	-10.28375307124506	-2.5471995358026884	-5.237928208401563	-10.553774788282189	-2.5471995358026884	0.9118806268461667	-5.666060295945365	-7.434914028139513	-5.225524776429617	-7.605427830618131	2	missed	0.0
134.0316518000326	6.846463100053484	nogo_punish	1.0	134.05670340009954	135.96797910006717	138.4920308999716	1.9112756999676321	135.06200410006556	137.48350020009082	139.4971406001132	0.9059750000016038	1.0085306998807937	1.4060259000398219	n/a	1.0	n/a	1	0	81	1	nogo_punish	1	-1	0	0	0	1	1	n/a	n/a	0	1.0	1.0	860.6326033999212	994.6893068000207	995.6946074999868	996.6005824999884	998.116103600012	999.1246342998928	n/a	n/a	1000.1297440000344	1001.5357699000742	2020-02-11 16:22:59.562283	7.15588573812357	-8.41214029603369	-1.07529356293948	-1.1483521544523	-8.23117930106305	-1.07529356293948	-7.15588573812357	-1.07529356293948	-8.41214029603369	-1.07529356293948	-8.23117930106305	1.07529356293948	2.3657019303554687	-10.28375307124506	-1.971221583173978	-4.648680391877193	-10.574645033814798	-1.971221583173978	0.33590267421745656	-5.090082343316655	-7.455784273672123	-4.649546823800907	-7.605427830618131	2	missed	0.0
140.9137281998992	6.460599600104615	go_reward	0.3392685998696834	140.93877979996614	142.6088821000884	145.14309390005656	1.6701023001222666	141.94501250004396	144.13221110007714	146.155864499975	0.6638696000444497	1.010882799979413	1.2435149000957608	n/a	1.0	n/a	1	0	82	4	go_reward	0	0	1	1	1	1	0	n/a	n/a	0	0.3392685998696834	1.0	860.6326033999212	1001.5713831998874	1002.5776158999652	1003.2414855000096	1004.7648144999984	1005.7756972999778	n/a	n/a	1006.7884678998962	1008.031982799992	2020-02-11 16:22:59.562283	17.2756752311701	17.584196064541	0.0	11.1131324556972	17.2756752311701	0.0	-17.2756752311701	17.584196064541	0.0	17.2756752311701	0.0	-17.584196064541	12.485491423402	15.71258328932963	-0.8959280202344981	7.612804218272307	14.932209498418352	-0.8959280202344981	-18.323586953263025	13.260886450792928	0.7753950273909263	14.009942803679575	0.8067124654155591	2	missed	0.0
147.4130911999382	6.081049700034782	go_reward	0.966735400026664	147.43814280000515	149.21130460011761	151.76533870003198	1.7731618001124616	148.44224190013483	150.74002310005017	152.7645938999484	0.7690626999827828	1.025315599981809	0.7545986000915264	n/a	1.0	n/a	1	0	83	4	go_reward	1	1	0	1	1	1	0	n/a	n/a	1	0.966735400026664	1.0	860.6326033999212	1008.0707461999264	1009.074845300056	1009.8439080000388	1011.3726264999714	1012.3979420999532	n/a	n/a	1013.3971972998696	1014.1517958999611	2020-02-11 16:22:59.562283	10.8974891595314	11.1131324556972	0.0	7.39688632949771	10.8974891595314	0.0	-10.8974891595314	11.1131324556972	0.0	10.8974891595314	0.0	12.232755632520101	6.107305351763299	9.24151968048583	-0.8959280202344981	3.8965580920728176	8.55402342677965	-0.8959280202344981	11.493364743798077	6.882700379154225	0.7753950273909263	7.538879194835773	0.8067124654155591	2	missed	0.0
153.53111450001586	6.750959499971941	go_punish	0.6877452000044286	153.5561661000828	155.54531870014034	158.10182010009873	1.9891526000575368	154.57011810014956	157.08135310001683	159.11375280003995	0.9752005999907851	1.0204670000819078	1.1933728000147994	n/a	1.0	n/a	1	0	84	2	go_punish	1	0	-1	1	1	1	0	n/a	n/a	0	0.6877452000044286	1.0	860.6326033999212	1014.188769500004	1015.2027215000708	1016.1779221000616	1017.713956499938	1018.73442350002	n/a	n/a	1019.7463561999612	1020.939728999976	2020-02-11 16:22:59.562283	1.48643472606717	-4.40242030815219	-5.57320962733914	-4.652101312822	-4.08677490127197	-5.57320962733914	-1.48643472606717	-4.40242030815219	-5.57320962733914	-4.08677490127197	-5.57320962733914	4.40242030815219	-3.303749081700931	-6.274033083363561	-6.469137647573638	-8.152429550246893	-6.43024063402372	-6.469137647573638	3.663029419430167	-8.101563681649145	-4.797814599948214	-7.976673569013617	-4.766497161923581	2	missed	0.0
160.31893240008503	7.005943099967908	go_punish	0.3888335998635739	160.34398400015198	162.82935800007556	165.3746323001103	2.4853739999235813	161.3547280000056	164.36430320004	166.38788260007277	1.4746300000699648	1.0103291000702939	0.9620445000471136	n/a	1.0	n/a	1	0	85	2	go_punish	1	0	-1	1	1	1	0	n/a	n/a	0	0.3888335998635739	1.0	860.6326033999212	1020.9765874000732	1021.9873313999268	1023.4619613999968	1024.9969065999612	1026.0072357000315	n/a	n/a	1027.020485999994	1027.982530500041	2020-02-11 16:22:59.562283	3.29099427571564	-2.54744966455998	-5.57320962733914	-2.95930786120515	-2.28221535162351	-5.57320962733914	-3.29099427571564	-2.54744966455998	-5.57320962733914	-2.28221535162351	-5.57320962733914	2.54744966455998	-1.499189532052461	-4.41906243977135	-6.469137647573638	-6.4596360986300425	-4.62568108437526	-6.469137647573638	1.8080587758379565	-6.297004132000685	-4.797814599948214	-6.121702925421406	-4.766497161923581	2	missed	0.0
167.36484689987265	7.254617700120434	go_reward	0.2444339001085609	167.3898984999396	169.8237875001505	172.34411619999446	2.433889000210911	168.3953734000679	171.3383651000911	173.36341099999845	1.4284141000825912	1.0057510999033639	1.2811052000615746	n/a	1.0	n/a	1	0	86	4	go_reward	0	0	1	1	1	1	0	n/a	n/a	0	0.2444339001085609	1.0	860.6326033999212	1028.0225018998608	1029.0279767999891	1030.4563909000717	1031.9709685000123	1032.9767195999157	n/a	n/a	1033.9960143999197	1035.2771195999812	2020-02-11 16:22:59.562283	15.7386526234546	15.946905325653	0.0	13.6729537586604	15.7386526234546	0.0	-15.7386526234546	15.946905325653	0.0	15.7386526234546	0.0	-15.946905325653	10.9484688156865	14.075292550441631	-0.8959280202344981	10.172625521235506	13.39518689070285	-0.8959280202344981	-16.686296214375023	11.723863843077424	0.7753950273909263	12.372652064791573	0.8067124654155591	2	missed	0.0
174.6555596999824	5.905171100050211	nogo_punish	1.0	174.68061130004935	176.01631690002978	178.55182270007208	1.3357055999804288	175.68755990010686	177.53119629994035	179.5549121000804	0.3287569999229163	1.0206264001317322	1.03087030001916	n/a	1.0	n/a	1	0	87	1	nogo_punish	1	-1	0	0	0	1	0	n/a	n/a	0	1.0	1.0	860.6326033999212	1035.3132146999706	1036.320163300028	1036.648920299951	1038.1637996998616	1039.1844260999933	n/a	n/a	1040.1875155000016	1041.2183858000208	2020-02-11 16:22:59.562283	7.51860366746633	-8.41214029603369	-0.727857025727141	-0.790121180202329	-8.24646069319347	-0.727857025727141	-7.51860366746633	-0.727857025727141	-8.41214029603369	-0.727857025727141	-8.24646069319347	0.727857025727141	2.7284198596982288	-10.28375307124506	-1.6237850459616392	-4.290449417627221	-10.589926425945219	-1.6237850459616392	-0.01153386299488246	-4.742645806104315	-7.471065665802543	-4.302110286588567	-7.605427830618131	2	missed	0.0
180.59693929995433	6.9731239001264385	go_reward	0.341008499963209	180.62199090002127	182.79204870015383	185.3372953000944	2.170057800132554	181.62996360007674	184.322857900057	186.34703369997442	1.1620851000770926	1.0144374000374228	1.2480811001732945	n/a	1.0	n/a	1	0	88	4	go_reward	1	1	0	1	1	1	1	n/a	n/a	1	0.341008499963209	1.0	860.6326033999212	1041.2545942999425	1042.262566999998	1043.424652100075	1044.9554612999782	1045.9698987000156	n/a	n/a	1046.9796370998956	1048.227718200069	2020-02-11 16:22:59.562283	9.85697949179563	10.048633495077	0.0	8.59199019233548	9.85697949179563	0.0	-9.85697949179563	10.048633495077	0.0	9.85697949179563	0.0	13.2972545931403	5.06679568402753	8.17702071986563	-0.8959280202344981	5.091661954910587	7.513513759043882	-0.8959280202344981	12.557863704418276	5.842190711418456	0.7753950273909263	6.474380234215574	0.8067124654155591	2	missed	0.0
187.60929100005887	6.739189299987856	go_reward	0.3294281000271439	187.63434260012582	189.97661560005508	192.52704880014062	2.342272999929264	188.64681409997888	191.50175329996273	193.53579100011848	1.3298015000762007	1.02529550017789	0.8377408999951967	n/a	1.0	n/a	1	0	89	4	go_reward	1	1	0	1	1	1	0	n/a	n/a	1	0.3294281000271439	1.0	860.6326033999212	1048.266946000047	1049.2794174999	1050.6092189999763	1052.134356699884	1053.1596522000618	n/a	n/a	1054.1683944000397	1055.0061353000349	2020-02-11 16:22:59.562283	15.0289772538438	15.2330595328733	0.0	14.2646783947321	15.0289772538438	0.0	-15.0289772538438	15.2330595328733	0.0	15.0289772538438	0.0	8.112828555344	10.2387934460757	13.36144675766193	-0.8959280202344981	10.764350157307206	12.685511521092051	-0.8959280202344981	7.373437666621977	11.014188473466625	0.7753950273909263	11.658806272011873	0.8067124654155591	2	missed	0.0
194.38478720001876	6.808524599997327	go_punish	0.4357437998987734	194.4098388000857	196.19642070005648	198.7475914999377	1.7865818999707699	195.4147016000934	197.72686820011586	199.74984119995497	0.7817190999630839	1.0207232998218387	1.4685222001280636	n/a	1.0	n/a	1	0	90	2	go_punish	1	0	-1	1	1	1	0	n/a	n/a	0	0.4357437998987734	1.0	860.6326033999212	1055.042442200007	1056.0473050000146	1056.8290240999777	1058.359471600037	1059.380194899859	n/a	n/a	1060.3824445998762	1061.8509668000042	2020-02-11 16:22:59.562283	4.23584347403991	-1.56348963945764	-5.57320962733914	-1.96344582119682	-1.33736615329924	-5.57320962733914	-4.23584347403991	-1.56348963945764	-5.57320962733914	-1.33736615329924	-5.57320962733914	1.56348963945764	-0.5543403337281916	-3.43510241466901	-6.469137647573638	-5.463774058621713	-3.6808318860509894	-6.469137647573638	0.8240987507356167	-5.352154933676415	-4.797814599948214	-5.137742900319067	-4.766497161923581	2	missed	0.0
201.23357869987376	6.507691100006923	go_punish	0.3001399000640958	201.2586302999407	202.7698930001352	205.3098200999666	1.511262700194493	202.26948949997313	204.29099480016157	206.31982570001855	0.500403500162065	1.0188252998050302	1.4464956999290735	n/a	1.0	n/a	1	0	91	2	go_punish	0	-1	0	1	1	1	0	n/a	n/a	-1	0.3001399000640958	1.0	860.6326033999212	1061.891233699862	1062.9020928998943	1063.4024964000564	1064.9235982000828	1065.9424234998878	n/a	n/a	1066.9524290999398	1068.3989247998688	2020-02-11 16:22:59.562283	4.76826493311766	-1.00298828042754	-5.57320962733914	-1.35021515997979	-0.804944694221483	-5.57320962733914	-4.76826493311766	-1.00298828042754	-5.57320962733914	-0.804944694221483	-5.57320962733914	-11.119672471614958	-0.02191887465044129	-2.87460105563891	-6.469137647573638	-4.8505433974046825	-3.1484104269732325	-6.469137647573638	-11.859063360336982	-4.8197334745986575	-4.797814599948214	-4.577241541288966	-4.766497161923581	2	missed	0.0
207.78914309991524	5.7721494000870734	nogo_reward	1.0	207.81419469998218	209.10134400008246	211.6306758001449	1.2871493001002818	208.81724729994312	210.60854819999076	212.6398579000961	0.28409670013934374	1.0221276001541355	0.9464861999731511	n/a	1.0	n/a	1	0	92	3	nogo_reward	1	0	1	0	0	1	0	n/a	n/a	1	1.0	1.0	860.6326033999212	1068.4467980999034	1069.4498506998643	1069.7339474000037	1071.241151599912	1072.263279200066	n/a	n/a	1073.2724613000173	1074.2189474999905	2020-02-11 16:22:59.562283	19.1820219652547	1.28567783687136	20.1520628965135	18.9850778134103	0.970040931258767	20.1520628965135	-19.1820219652547	20.1520628965135	1.28567783687136	20.1520628965135	0.970040931258767	3.1938251917038016	14.3918381574866	-0.5859349383400101	19.256134876279	15.484749575985408	-1.3734248014929826	19.256134876279	2.4544343029817783	16.137274116136325	1.7454359586496933	16.577809635652073	2.092390302286919	2	missed	0.0
213.59886469994672	6.845609599957243	go_punish	0.2475286000408232	213.62391630001366	215.44750360003673	217.9914605000522	1.823587300023064	214.62894930015318	216.97846350003965	219.00376730016433	0.8185542998835444	1.0129970000125468	1.465758599806577	n/a	1.0	n/a	1	0	93	2	go_punish	1	0	-1	1	1	1	1	n/a	n/a	0	0.2475286000408232	1.0	860.6326033999212	1074.2565196999349	1075.2615527000744	1076.080106999958	1077.6110668999609	1078.6240638999734	n/a	n/a	1079.6363707000855	1081.102129299892	2020-02-11 16:22:59.562283	0.785174791026095	-5.07015865283676	-5.57320962733914	-5.36058546723557	-4.78803483631305	-5.57320962733914	-0.785174791026095	-5.07015865283676	-5.57320962733914	-4.78803483631305	-5.57320962733914	5.07015865283676	-4.005009016742006	-6.9417714280481295	-6.469137647573638	-8.860913704660462	-7.1315005690648	-6.469137647573638	4.330767764114737	-8.802823616690224	-4.797814599948214	-8.644411913698185	-4.766497161923581	2	missed	0.0
220.4811563999392	6.7631854000501335	go_punish	0.8009973000735044	220.50620800000615	222.34800860006362	224.8983488001395	1.8418006000574678	221.51333079999313	223.87831890000962	225.9171337999867	0.8346778000704944	1.0200299001298845	1.3522596000696012	n/a	1.0	n/a	1	0	94	2	go_punish	1	0	-1	1	1	1	0	n/a	n/a	0	0.8009973000735044	1.0	860.6326033999212	1081.1388113999274	1082.1459341999143	1082.9806119999848	1084.5109222999308	1085.5309522000607	n/a	n/a	1086.549737199908	1087.9019967999775	2020-02-11 16:22:59.562283	2.82227579187371	-3.00673170745396	-5.57320962733914	-3.24658361974074	-2.75093383546543	-5.57320962733914	-2.82227579187371	-3.00673170745396	-5.57320962733914	-2.75093383546543	-5.57320962733914	3.00673170745396	-1.9679080158943911	-4.87834448266533	-6.469137647573638	-6.746911857165633	-5.094399568217179	-6.469137647573638	2.267340818731937	-6.765722615842605	-4.797814599948214	-6.580984968315386	-4.766497161923581	2	missed	0.0
227.28324460005388	7.024299300042912	go_reward	0.3217850001528859	227.30829620012082	229.8582747001201	232.40174210001715	2.54997849999927	228.32035219995328	231.3821155000478	233.41757749998942	1.5379225001668146	1.0196265999693424	0.9150180001743138	n/a	1.0	n/a	1	0	95	4	go_reward	0	0	1	1	1	1	0	n/a	n/a	0	0.3217850001528859	1.0	860.6326033999212	1087.940899600042	1088.9529555998745	1090.4908781000413	1092.014718899969	1093.0343454999384	n/a	n/a	1094.0501808999106	1094.965198900085	2020-02-11 16:22:59.562283	17.8392092171891	18.1067567497595	0.0	17.44222304459	17.8392092171891	0.0	-17.8392092171891	18.1067567497595	0.0	17.8392092171891	0.0	-18.1067567497595	13.049025409420999	16.23514397454813	-0.8959280202344981	13.94189480716511	15.495743484437352	-0.8959280202344981	-18.846147638481526	13.824420436811927	0.7753950273909263	14.532503488898076	0.8067124654155591	2	missed	0.0
234.34885199996643	7.62093980005011	nogo_reward	1.0	234.37390360003337	237.2191280000843	239.73948810016736	2.845224400050938	235.38479269994423	238.7238054999616	240.75069970008917	1.8343353001400828	1.0156826002057642	1.2441436999943107	n/a	1.0	n/a	1	0	96	3	nogo_reward	1	0	1	0	0	1	0	n/a	n/a	1	1.0	1.0	860.6326033999212	1095.0065069999546	1096.0173960998654	1097.8517314000055	1099.3564088998828	1100.3720915000886	n/a	n/a	1101.3833031000104	1102.6274468000047	2020-02-11 16:22:59.562283	20.1641733590106	1.28567783687136	21.0827195713696	20.2777540258949	0.918546212359	21.0827195713696	-20.1641733590106	21.0827195713696	1.28567783687136	21.0827195713696	0.918546212359	2.263168516847699	15.373989551242499	-0.5859349383400101	20.1867915511351	16.77742578847001	-1.4249195203927496	20.1867915511351	1.5237776281256759	17.067930790992428	1.6939412397499263	17.508466310508176	2.092390302286919	2	missed	0.0
242.0085016998928	7.293175100116059	go_punish	0.2468577998224645	242.03355329995975	244.48313380009495	247.04091620002873	2.4495805001351982	243.04635850014165	246.0202322001569	248.05197730008513	1.4367752999532968	1.0206839998718351	1.2747510999906808	n/a	1.0	n/a	1	0	97	2	go_punish	1	0	-1	1	1	1	0	n/a	n/a	0	0.2468577998224645	1.0	860.6326033999212	1102.666156699881	1103.6789619000629	1105.1157372000162	1106.652835600078	1107.67351959995	n/a	n/a	1108.6845807000063	1109.959331799997	2020-02-11 16:22:59.562283	3.90722869372809	-1.88873120036582	-5.57320962733914	-2.08632484565829	-1.66598093361106	-5.57320962733914	-3.90722869372809	-1.88873120036582	-5.57320962733914	-1.66598093361106	-5.57320962733914	1.88873120036582	-0.8829551140400111	-3.7603439755771904	-6.469137647573638	-5.586653083083183	-4.00944666636281	-6.469137647573638	1.1493403116437966	-5.6807697139882345	-4.797814599948214	-5.462984461227246	-4.766497161923581	2	missed	0.0
249.34556500008352	7.15071720001265	nogo_reward	1.0	249.37061660015047	251.59306330000982	254.11788769997656	2.222446699859347	250.37485500006005	253.09687560005113	255.12020200002007	1.2182082999497652	1.0210120999254286	1.4011318001430482	n/a	1.0	n/a	1	0	98	3	nogo_reward	0	1	0	0	0	1	1	n/a	n/a	0	1.0	1.0	860.6326033999212	1110.0032200000717	1111.0074583999813	1112.225666699931	1113.7294789999723	1114.7504910998978	n/a	n/a	1115.7528053999413	1117.1539372000843	2020-02-11 16:22:59.562283	20.8095787608106	1.28567783687136	21.6892063945473	21.1184974200367	0.879627633736679	21.6892063945473	-20.8095787608106	21.6892063945473	1.28567783687136	21.6892063945473	0.879627633736679	-21.6892063945473	16.019394953042497	-0.5859349383400101	20.7932783743128	17.61816918261181	-1.4638380990150708	20.7932783743128	-22.428597283269323	17.674417614170125	1.6550226611276053	18.114953133685873	2.092390302286919	2	missed	0.0
256.53063949989155	6.101225400110707	go_reward	0.5618322999216616	256.5556910999585	257.9159332001582	260.4501368000638	1.3602421001996845	257.5723858999554	259.4363911000546	261.4601763000246	0.343547300202772	1.0137457000091672	1.1967402000445873	n/a	1.0	n/a	1	0	99	4	go_reward	1	1	0	1	1	1	0	n/a	n/a	1	0.5618322999216616	1.0	860.6326033999212	1117.1882944998797	1118.2049892998766	1118.5485366000794	1120.0689944999758	1121.082740199985	n/a	n/a	1122.0927796999458	1123.2895198999904	2020-02-11 16:22:59.562283	11.008343130174	11.2615022628506	0.0	10.7926454382294	11.008343130174	0.0	-11.008343130174	11.2615022628506	0.0	11.008343130174	0.0	12.0843858253667	6.218159322405898	9.38988948763923	-0.8959280202344981	7.292317200804507	8.66487739742225	-0.8959280202344981	11.344994936644676	6.993554349796825	0.7753950273909263	7.687249001989174	0.8067124654155591	2	missed	0.0
262.66803739988245	6.741298400098458	go_reward	1.0	262.6930889999494	264.4346630999353	266.9543854999356	1.7415740999858826	263.7078493000008	265.9396212999709	267.96763009997085	0.7268137999344617	1.0147641999647021	1.4667573000770062	n/a	1.0	n/a	1	0	100	4	go_reward	1	1	0	1	0	0	0	n/a	n/a	0	1.0	1.0	860.6326033999212	1123.3256923998706	1124.340452699922	1125.0672664998565	1126.572224699892	1127.5869888998568	n/a	n/a	1128.600233499892	1130.066990799969	2020-02-11 16:22:59.562283	-15.6938078430464	15.9473572800518	0.0	15.6083524752154	15.6938078430464	0.0	15.6938078430464	0.0	15.9473572800518	0.0	15.6938078430464	0.0	-20.483991650814502	14.075744504840431	-0.8959280202344981	12.108024237790506	13.350342110294651	-0.8959280202344981	-0.7393908887220234	-4.014788780377175	16.469202870437325	-3.5742532608614264	16.75406974546736	2	missed	0.0
269.4476755000651	7.213651199825108	go_punish	0.3374514000024646	269.47272710013203	272.23249189998023	274.7839113001246	2.759764799848199	270.47741180006415	273.7632073001005	275.78675139998086	1.7550800999160856	1.020704000024125	0.8996268999762833	n/a	1.0	n/a	1	0	101	2	go_punish	1	0	-1	1	1	1	0	n/a	n/a	0	0.3374514000024646	1.0	860.6326033999212	1130.1053305000532	1131.1100151999854	1132.8650952999014	1134.3958107000217	1135.4165147000458	n/a	n/a	1136.419354799902	1137.3189816998783	2020-02-11 16:22:59.562283	4.53010634573532	-1.23939787530491	-5.57320962733914	-1.40255225467634	-1.04310328160383	-5.57320962733914	-4.53010634573532	-1.23939787530491	-5.57320962733914	-1.04310328160383	-5.57320962733914	1.23939787530491	-0.2600774620327808	-3.1110106505162802	-6.469137647573638	-4.902880492101232	-3.3865690143555796	-6.469137647573638	0.5000069865828866	-5.057892061981004	-4.797814599948214	-4.813651136166336	-4.766497161923581	2	missed	0.0
276.70214219996706	6.3799807000903	nogo_reward	1.0	276.727193800034	278.08621650002897	280.60680239996873	1.3590226999949664	277.7275370999705	279.5906569000799	281.6126503001433	0.3586794000584632	1.0161454998888075	1.494524199981015	n/a	1.0	n/a	1	0	102	3	nogo_reward	1	0	1	0	0	1	0	n/a	n/a	1	1.0	1.0	860.6326033999212	1137.3597971999552	1138.3601404998917	1138.7188198999502	1140.2232603000011	1141.23940579989	n/a	n/a	1142.2452537000645	1143.7397779000455	2020-02-11 16:22:59.562283	12.6224067421504	1.28567783687136	13.5487412859764	13.134270912026	0.926334543825955	13.5487412859764	-12.6224067421504	13.5487412859764	1.28567783687136	13.5487412859764	0.926334543825955	9.797146802240901	7.832222934382298	-0.5859349383400101	12.652813265741901	9.633942674601109	-1.4171311889257945	12.652813265741901	9.057755913518877	9.533952505599224	1.7017295712168812	9.974488025114972	2.092390302286919	2	missed	0.0
283.118605799973	7.842649400001392	go_reward	0.2926554998848587	283.14365740003996	285.9182977001185	288.4771561999803	2.774640300078545	284.1581650001465	287.4513002000747	289.4927829001099	1.7601326999720186	1.025855999905616	1.4935238999314606	n/a	1.0	n/a	1	0	103	4	go_reward	1	1	0	1	1	1	0	n/a	n/a	1	0.2926554998848587	1.0	860.6326033999212	1143.7762607999612	1144.7907684000677	1146.5509011000397	1148.083903599996	1149.1097595999015	n/a	n/a	1150.125386300031	1151.6189101999626	2020-02-11 16:22:59.562283	15.7183914626563	15.9473572800518	0.0	9.74324706224483	15.7183914626563	0.0	-15.7183914626563	15.9473572800518	0.0	15.7183914626563	0.0	7.3985308081655	10.928207654888197	14.075744504840431	-0.8959280202344981	6.242918824819937	13.37492572990455	-0.8959280202344981	6.659139919443477	11.703602682279126	0.7753950273909263	12.373104019190375	0.8067124654155591	2	missed	0.0
291.00260340003297	7.093884599860985	go_punish	0.9199630999937654	291.0276550000999	293.55290760006756	296.1034804999365	2.5252525999676436	292.0370963001624	295.08920689998195	297.11282339994796	1.515811299905181	1.0142735999545494	1.008716200012941	n/a	1.0	n/a	1	0	104	2	go_punish	0	-1	0	1	1	1	0	n/a	n/a	-1	0.9199630999937654	1.0	860.6326033999212	1151.6602584000211	1152.6696997000836	1154.1855109999888	1155.7218102999032	1156.7360838998577	n/a	n/a	1157.7454267998692	1158.754142999882	2020-02-11 16:22:59.562283	4.90661217184878	-0.843630424877303	-5.57320962733914	-0.978969546900847	-0.666597455490368	-5.57320962733914	-4.90661217184878	-0.843630424877303	-5.57320962733914	-0.666597455490368	-5.57320962733914	-11.279030327165197	0.11642836408067847	-2.715243200088673	-6.469137647573638	-4.479297784325739	-3.0100631882421176	-6.469137647573638	-12.018421215887221	-4.681386235867542	-4.797814599948214	-4.41788368573873	-4.766497161923581	2	missed	0.0
298.13227079994977	7.2736079001333565	go_punish	1.0	298.1573224000167	300.6546994999517	303.18200380005874	2.4973770999349654	299.17268550000153	302.1565445000306	304.18115750001743	1.4820139999501407	1.0254593000281602	1.2497728001326323	n/a	1.0	n/a	1	0	105	2	go_punish	1	0	-1	1	0	0	0	n/a	n/a	-1	1.0	1.0	860.6326033999212	1158.789925799938	1159.8052888999227	1161.2873028998729	1162.7891478999518	1163.81460719998	n/a	n/a	1164.8137608999386	1166.0635337000713	2020-02-11 16:22:59.562283	-0.845090586871106	-4.99531087409374	-5.57320962733914	-5.108215560054	-4.72811904046804	-5.57320962733914	0.845090586871106	-5.57320962733914	-4.99531087409374	-5.57320962733914	-4.72811904046804	-6.549451124703359	-5.635274394639207	-6.866923649305111	-6.469137647573638	-8.608543797478893	-7.07158477321979	-6.469137647573638	-7.288842013425382	-9.587998407716315	-3.9527240130771135	-9.147462888200566	-4.188598408678182	2	missed	0.0
305.4420553999955	6.09120650007344	nogo_punish	1.0	305.46710700006247	307.12836130009964	309.6553200001365	1.6612543000371716	306.4720626999624	308.6331003999803	310.6591098001227	0.6562986001372337	1.022219600156177	0.8992037000132314	n/a	1.0	n/a	1	0	106	1	nogo_punish	1	-1	0	0	0	1	0	n/a	n/a	0	1.0	1.0	860.6326033999212	1166.0997103999837	1167.1046660998836	1167.7609647000208	1169.2657037999015	1170.2879234000577	n/a	n/a	1171.291713200044	1172.1909169000571	2020-02-11 16:22:59.562283	7.74757293064143	-8.41214029603369	-0.509689733901175	-0.563090617455354	-8.2572626645426	-0.509689733901175	-7.74757293064143	-0.509689733901175	-8.41214029603369	-0.509689733901175	-8.2572626645426	0.509689733901175	2.9573891228733284	-10.28375307124506	-1.4056177541356731	-4.063418854880247	-10.600728397294349	-1.4056177541356731	-0.2297011548208484	-4.52447851427835	-7.481867637151673	-4.083942994762602	-7.605427830618131	2	missed	0.0
311.57232320006005	5.683902099961415	go_reward	0.5313818000722677	311.597374800127	312.969785500085	315.5102538000792	1.3724106999579817	312.6092924999539	314.49934999994	316.5215457000304	0.3604930001311004	1.0109038001392037	0.7597312000580132	n/a	1.0	n/a	1	0	107	4	go_reward	0	0	1	1	1	1	0	n/a	n/a	0	0.5313818000722677	1.0	860.6326033999212	1172.2299782000482	1173.241895899875	1173.6023889000062	1175.1319533998612	1176.1428572000004	n/a	n/a	1177.1541490999516	1177.9138803000096	2020-02-11 16:22:59.562283	18.3119398047681	18.543761335587	0.0	14.9734911657598	18.3119398047681	0.0	-18.3119398047681	18.543761335587	0.0	18.3119398047681	0.0	-18.543761335587	13.521755997	16.67214856037563	-0.8959280202344981	11.473162928334908	15.968474072016352	-0.8959280202344981	-19.283152224309024	14.297151024390928	0.7753950273909263	14.969508074725574	0.8067124654155591	2	missed	0.0
317.29165400005877	6.593148299958784	go_reward	0.2578679998405278	317.3167056001257	319.1830454999581	321.72306720004417	1.8663398998323828	318.3318131000267	320.70983730000444	322.72249750001356	0.8512323999314049	1.0132299000397325	1.1873564000709393	n/a	1.0	n/a	1	0	108	4	go_reward	1	1	0	1	1	1	0	n/a	n/a	1	0.2578679998405278	1.0	860.6326033999212	1177.949309000047	1178.964416499948	1179.8156488998793	1181.3424406999256	1182.3556705999654	n/a	n/a	1183.3551008999348	1184.5424573000057	2020-02-11 16:22:59.562283	11.3259611230605	11.5378634070683	0.0	9.34182621392026	11.3259611230605	0.0	-11.3259611230605	11.5378634070683	0.0	11.3259611230605	0.0	11.808024681149	6.535777315292399	9.666250631856931	-0.8959280202344981	5.841497976495368	8.98249539030875	-0.8959280202344981	11.068633792426976	7.311172342683325	0.7753950273909263	7.963610146206874	0.8067124654155591	2	missed	0.0
323.92644499987364	7.043483600020409	nogo_reward	1.0	323.9514965999406	326.52867120015435	329.06088620005175	2.577174600213766	324.9532844000496	328.04142090003006	330.0577434999868	1.5753868001047522	1.019465300021693	0.9372366999741644	n/a	1.0	n/a	1	0	109	3	nogo_reward	0	1	0	0	0	1	0	n/a	n/a	0	1.0	1.0	860.6326033999212	1184.5840999998618	1185.5858877999708	1187.1612746000756	1188.6740242999513	1189.693489599973	n/a	n/a	1190.690346899908	1191.6275835998822	2020-02-11 16:22:59.562283	16.5051238623291	1.28567783687136	17.4584419112666	17.1510120489205	0.953318048937427	17.4584419112666	-16.5051238623291	17.4584419112666	1.28567783687136	17.4584419112666	0.953318048937427	-17.4584419112666	11.714940054560998	-0.5859349383400101	16.562513891032104	13.650683811495608	-1.3901476838143227	16.562513891032104	-18.197832799988625	13.443653130889427	1.7287130763283534	13.884188650405175	2.092390302286919	2	missed	0.0
331.01281820004806	5.983056299854297	nogo_punish	1.0	331.037869800115	332.6079367999919	335.1341198000591	1.5700669998768717	332.04597350000404	334.1235595999751	336.1521427000407	0.5619632999878377	1.0105602000840008	0.8687833999285886	n/a	1.0	n/a	1	0	110	1	nogo_punish	1	-1	0	0	0	1	0	n/a	n/a	0	1.0	1.0	860.6326033999212	1191.6704732000362	1192.6785768999252	1193.240540199913	1194.7561629998963	1195.7667231999803	n/a	n/a	1196.784746099962	1197.6535294998905	2020-02-11 16:22:59.562283	7.89701867307484	-8.41214029603369	-0.367827351016529	-0.413889086466909	-8.26484602409137	-0.367827351016529	-7.89701867307484	-0.367827351016529	-8.41214029603369	-0.367827351016529	-8.26484602409137	0.367827351016529	3.1068348653067392	-10.28375307124506	-1.2637553712510272	-3.9142173238918017	-10.608311756843118	-1.2637553712510272	-0.3715635377054944	-4.3826161313937035	-7.489450996700443	-3.942080611877955	-7.605427830618131	2	missed	0.0
337.0398109999951	5.784996500005946	nogo_reward	1.0	337.06486260006204	338.53018260002136	341.0621189000085	1.4653199999593198	338.0620113001205	340.0428885000292	342.07497650012374	0.4681712999008596	1.0192303999792784	0.7748825999442488	n/a	1.0	n/a	1	0	111	3	nogo_reward	0	1	0	0	0	1	1	n/a	n/a	0	1.0	1.0	860.6326033999212	1197.6974659999833	1198.6946147000417	1199.1627859999426	1200.6754918999504	1201.6947222999297	n/a	n/a	1202.707579900045	1203.4824624999892	2020-02-11 16:22:59.562283	10.0231604470718	1.28567783687136	11.0218584193554	10.789546247398	0.99869797228362	11.0218584193554	-10.0231604470718	11.0218584193554	1.28567783687136	11.0218584193554	0.99869797228362	-11.0218584193554	5.2329766393037	-0.5859349383400101	10.125930399120902	7.289218009973108	-1.3447677604681296	10.125930399120902	-11.761249308077424	7.007069638978225	1.7740929996745463	7.447605158493974	2.092390302286919	2	missed	0.0
342.86065909988247	6.197730500018224	nogo_punish	1.0	342.8857106999494	344.7444695001468	347.26475480012596	1.8587588001973927	343.9007518000435	346.24946560012177	348.2774133000057	0.8437177001032978	1.0152892000041902	0.8060278999619186	n/a	1.0	n/a	1	0	112	1	nogo_punish	1	-1	0	0	0	1	1	n/a	n/a	0	1.0	1.0	860.6326033999212	1203.5183140998706	1204.5333551999647	1205.377072900068	1206.882069000043	1207.8973582000472	n/a	n/a	1208.910016699927	1209.7160445998888	2020-02-11 16:22:59.562283	7.99755693160426	-8.41214029603369	-0.272633547275781	-0.312571696034673	-8.27019047888004	-0.272633547275781	-7.99755693160426	-0.272633547275781	-8.41214029603369	-0.272633547275781	-8.27019047888004	0.272633547275781	3.2073731238361587	-10.28375307124506	-1.1685615675102792	-3.812899933459566	-10.61365621163179	-1.1685615675102792	-0.4667573414462424	-4.287422327652956	-7.494795451489114	-3.8468868081372074	-7.605427830618131	2	missed	0.0
349.09913909994066	6.260467299958691	go_reward	0.264103400055319	349.1241907000076	350.7715563999957	353.3351005001459	1.647365699988086	350.1251990001183	352.3109446000308	354.3348677000031	0.6463573998773882	1.0241559001151472	1.049790299963206	n/a	1.0	n/a	1	0	113	4	go_reward	1	1	0	1	1	1	0	n/a	n/a	1	0.264103400055319	1.0	860.6326033999212	1209.7567940999288	1210.7578024000395	1211.404159799917	1212.943547999952	1213.9677039000671	n/a	n/a	1214.9674710999243	1216.0172613998875	2020-02-11 16:22:59.562283	15.9085043925009	16.1274829834663	0.0	14.7099572001057	15.9085043925009	0.0	-15.9085043925009	16.1274829834663	0.0	15.9085043925009	0.0	7.218405104751	11.1183205847328	14.255870208254931	-0.8959280202344981	11.209628962680807	13.56503865974915	-0.8959280202344981	6.479014216028976	11.893715612123724	0.7753950273909263	12.553229722604875	0.8067124654155591	2	missed	0.0
355.39519349997863	6.241959099890664	go_punish	1.0	355.4202451000456	356.9123146000784	359.4503258999905	1.4920695000328124	356.4257970000617	358.427197100129	360.45827870001085	0.48651760001666844	1.0231287998615244	1.2039254999253899	n/a	1.0	n/a	1	0	114	2	go_punish	1	0	-1	1	0	0	0	n/a	n/a	-1	1.0	1.0	860.6326033999212	1216.0528484999668	1217.058400399983	1217.5449179999996	1219.0598005000502	1220.0829292999117	n/a	n/a	1221.090882099932	1222.2948075998574	2020-02-11 16:22:59.562283	-3.31546411235008	-4.99531087409374	-7.96187813363012	-7.47324924268501	-4.64641402128005	-7.96187813363012	3.31546411235008	-7.96187813363012	-4.99531087409374	-7.96187813363012	-4.64641402128005	-4.160782618412379	-8.10564792011818	-6.866923649305111	-8.857806153864619	-10.973577480109903	-6.989879754031799	-8.857806153864619	-4.900173507134403	-11.976666914007295	-3.8710189938891233	-11.536131394491546	-4.188598408678182	2	missed	0.0
361.67722210008674	6.24655429995596	nogo_reward	1.0	361.7022737001537	363.0318839000538	365.5482183001004	1.3296101999001166	362.712943200022	364.53586270008236	366.5586232000496	0.31894070003181696	1.0123556000180542	1.390204800060019	n/a	1.0	n/a	1	0	115	3	nogo_reward	1	0	1	0	0	1	0	n/a	n/a	1	1.0	1.0	860.6326033999212	1222.334877100075	1223.3455465999432	1223.664487299975	1225.1684661000036	1226.1808217000216	n/a	n/a	1227.1912265999708	1228.5814314000309	2020-02-11 16:22:59.562283	6.24340528480668	1.28567783687136	7.32999595648125	7.151547208005	1.08659067167457	7.32999595648125	-6.24340528480668	7.32999595648125	1.28567783687136	7.32999595648125	1.08659067167457	16.015892131736052	1.4532214770385785	-0.5859349383400101	6.434067936246752	3.651218970580107	-1.2568750610771797	6.434067936246752	15.276501243014028	3.3152071761040753	1.8619856990654962	3.7557426956198237	2.092390302286919	2	missed	0.0
367.96716129989363	7.157379599986598	nogo_reward	0.4526508999988436	367.9922128999606	370.5932044000365	373.14438519999385	2.6009915000759065	368.987170800101	372.12340219994076	374.1559711000882	1.606033599935472	1.0209830000530928	0.9936213998589665	n/a	1.0	n/a	1	0	116	3	nogo_reward	1	0	1	0	1	0	0	n/a	n/a	0	0.4526508999988436	1.0	860.6326033999212	1228.6248162998818	1229.6197742000222	1231.2258077999577	1232.756005599862	1233.776988599915	n/a	n/a	1234.7885745000094	1235.7821958998684	2020-02-11 16:22:59.562283	-12.5332836680024	1.28567783687136	13.6235400284579	13.4844681556048	1.09025636045549	13.6235400284579	12.5332836680024	1.28567783687136	13.6235400284579	1.09025636045549	13.6235400284579	-1.28567783687136	-17.3234674757705	-0.5859349383400101	12.727612008223401	9.984139918179906	-1.2532093722962596	12.727612008223401	-2.0250687255933832	-2.9245324199216847	14.398935055848826	-2.2885754239900664	14.430252493873459	2	missed	0.0
375.16550270002335	7.349522599950433	go_punish	0.3152945998590439	375.1905543000903	377.971494999947	380.5012095000127	2.7809406998567283	376.2066647000611	379.5018589000683	381.515258600004	1.7648302998859435	0.9993505999443641	1.0248183000367135	n/a	1.0	n/a	1	0	117	2	go_punish	1	0	-1	1	1	1	0	n/a	n/a	0	0.3152945998590439	1.0	860.6326033999212	1235.8231577000115	1236.8392680999823	1238.6040983998682	1240.1344622999895	1241.133812899934	n/a	n/a	1242.1478619999252	1243.172680299962	2020-02-11 16:22:59.562283	4.73113426036529	-4.99531087409374	-9.31628823559563	-8.91109038829905	-4.58515397523034	-9.31628823559563	-4.73113426036529	-4.99531087409374	-9.31628823559563	-4.58515397523034	-9.31628823559563	4.99531087409374	-0.05904954740281099	-6.866923649305111	-10.212216255830128	-12.411418625723943	-6.92861970798209	-10.212216255830128	4.255919985371717	-8.599942755607515	-8.540893208204704	-8.569564134955167	-8.50957577018007	2	missed	0.0
382.55294610001147	7.034467699937522	nogo_punish	1.0	382.5779977000784	384.597878200002	387.12185090011917	2.0198804999236017	383.5910362000577	386.10198260005563	388.13463720004074	1.0068419999442995	1.0198683000635356	1.4778281999751925	n/a	1.0	n/a	1	0	118	1	nogo_punish	1	-1	0	0	0	1	0	n/a	n/a	0	1.0	1.0	860.6326033999212	1243.2106010999996	1244.223639599979	1245.2304815999232	1246.7345859999768	1247.7544543000404	n/a	n/a	1248.767240599962	1250.2450687999371	2020-02-11 16:22:59.562283	8.06709129747982	-8.41214029603369	-0.206895903099516	-0.241689213853208	-8.27398720057934	-0.206895903099516	-8.06709129747982	-0.206895903099516	-8.41214029603369	-0.206895903099516	-8.27398720057934	0.206895903099516	3.2769074897117187	-10.28375307124506	-1.102823923334014	-3.742017451278101	-10.617452933331089	-1.102823923334014	-0.5324949856225074	-4.221684683476691	-7.498592173188413	-3.7811491639609422	-7.605427830618131	2	missed	0.0
389.62763500004075	6.156097600003704	go_reward	0.2421362998429685	389.6526866001077	391.21222800016403	393.7534191000741	1.5595414000563323	390.6643010000698	392.73592719994485	394.7623847001232	0.5479270000942051	1.0174919001292437	1.0463994999881834	n/a	1.0	n/a	1	0	119	4	go_reward	1	1	0	1	1	1	0	n/a	n/a	1	0.2421362998429685	1.0	860.6326033999212	1250.285290000029	1251.296904399991	1251.8448314000852	1253.368530599866	1254.3860224999953	n/a	n/a	1255.3949881000444	1256.4413876000326	2020-02-11 16:22:59.562283	18.3866544917831	18.6645219124298	0.0	17.7130331382777	18.3866544917831	0.0	-18.3866544917831	18.6645219124298	0.0	18.3866544917831	0.0	4.681366175787499	13.596470684015	16.79290913721843	-0.8959280202344981	14.21270490085281	16.043188759031352	-0.8959280202344981	3.9419752870654756	14.371865711405928	0.7753950273909263	15.090268651568376	0.8067124654155591	2	missed	0.0
395.8265023001004	6.5029124999418855	nogo_reward	1.0	395.85155390016735	397.8923301000614	400.42776220012456	2.040776199894026	396.8533926999662	399.4071784999687	401.4384356001392	1.0389374000951648	1.0205837001558393	0.9160307999700308	n/a	1.0	n/a	1	0	120	3	nogo_reward	1	0	1	0	0	1	0	n/a	n/a	1	1.0	1.0	860.6326033999212	1256.4841573000886	1257.4859960998874	1258.5249334999826	1260.03978189989	1261.0603656000458	n/a	n/a	1262.0710390000604	1262.9870698000304	2020-02-11 16:22:59.562283	12.9222306043102	0.882940715700471	13.6235400284579	8.44547172381905	0.701309424147701	13.6235400284579	-12.9222306043102	13.6235400284579	0.882940715700471	13.6235400284579	0.701309424147701	9.722348059759401	8.132046796542099	-0.9886720595108991	12.727612008223401	4.945143486394158	-1.6421563086040485	12.727612008223401	8.982957171037377	9.608751248080726	1.4767044515386272	10.049286767596474	1.68965318111603	2	missed	0.0
