onset	duration	trial_type	response_time	cueOnset	targetOnset	fbOnset	cueRT	firstfixOnset	secondfixOnset	waitOnset	firstfixdur	secondfixdur	waitdur	nback_fbOnset	nback_response_time	nback_targetOnset	block	wm	trial	cue	cond	is_common	outcome_go	outcome_nogo	key_correct	key_pressed	is_correct	key_correct_nback	key_pressed_nback	is_correct_nback	outcome	rt	rt_nback	time_scan	time_onset	time_isi1	time_circle	time_isi2	time_feedback	time_same	time_correct	time_iti	time_done	timestamp_scan	DV	Qgo	Qnogo	SV	Wgo	Wnogo	mDV	Qchosen	Qunchosen	Wchosen	Wunchosen	PE	DVC	QgoC	QnogoC	SVC	WgoC	WnogoC	PEC	WchosenC	WunchosenC	QchosenC	QunchosenC	run	outcome_nback	nback_targetResp
0.0	9.564693100052182	nogo_punish	0.5198213998228312	0.021646900102496147	2.7535314001140705	5.313872300088406	2.7318845000115743	1.0263831000772825	4.289361200062558	8.358797300141305	1.727148300036788	1.0245111000258476	1.2275427000133732	7.345390300033614	1.0	6.33654690021649	2	1	1	1	nogo_punish	1	-1	0	0	1	0	0	n/a	0.0	0	0.5198213998228312	1.0	1338.6948823998682	1338.7165292999707	1339.7212654999455	1341.4484137999823	1342.9842435999308	1344.0087546999566	1345.0314293000847	1346.0402726999018	1347.0536797000095	1348.281222400023	2020-02-11 16:30:57.629321	0.128843548756941	0.0	0.0	0.0	0.128843548756941	0.0	-0.128843548756941	0.0	0.0	0.128843548756941	0.0	-12.1226607520425	-4.66134025901116	-1.87161277521137	-0.8959280202344981	-3.5003282374248927	-2.2146221839948086	-0.8959280202344981	-12.862051640764523	-3.8859452316202336	0.7753950273909263	-3.5742532608614264	0.8067124654155591	3	missed	0.0
9.613239499973133	8.963455900084227	nogo_reward	0.6516950000077486	9.63488640007563	11.624676100211218	14.18176310020499	1.9897897001355886	10.6404426000081	13.160968800075352	17.216218800051138	0.9842335002031177	1.0207943001296371	1.3821235001087189	16.206636000191793	1.0	15.198456900194287	2	1	2	3	nogo_reward	1	0	1	0	1	0	0	n/a	0.0	1	0.6516950000077486	1.0	1338.6948823998682	1348.3297687999438	1349.3353249998763	1350.3195585000794	1351.8558511999436	1352.8766455000732	1353.8933393000625	1354.90151840006	1355.9111011999194	1357.293224700028	2020-02-11 16:30:57.629321	0.128843548756941	0.0	0.0	0.0	0.128843548756941	0.0	-0.128843548756941	0.0	0.0	0.128843548756941	0.0	0.0	-4.66134025901116	-1.87161277521137	-0.8959280202344981	-3.5003282374248927	-2.2146221839948086	-0.8959280202344981	-0.7393908887220234	-3.8859452316202336	0.7753950273909263	-3.5742532608614264	0.8067124654155591	3	missed	0.0
18.626888300059363	8.207926000002772	go_punish	0.3404927998781204	18.64853520016186	20.043744900031015	22.593898700084537	1.3952096998691559	19.653109700186178	21.58042490016669	25.64288180018775	0.3906351998448372	1.013473799917847	1.2135793999768794	24.646646400214877	0.4938458998221904	23.611405400093872	2	1	3	2	go_punish	1	0	-1	1	1	1	0	1.0	0.0	0	0.3404927998781204	0.4938458998221904	1338.6948823998682	1357.34341760003	1358.3479921000544	1358.7386272998992	1360.275307300035	1361.2887810999528	1362.306287799962	1363.341528800083	1364.337764200056	1365.5513436000329	2020-02-11 16:30:57.629321	0.128843548756941	0.0	0.0	0.0	0.128843548756941	0.0	-0.128843548756941	0.0	0.0	0.128843548756941	0.0	0.0	-4.66134025901116	-1.87161277521137	-0.8959280202344981	-3.5003282374248927	-2.2146221839948086	-0.8959280202344981	-0.7393908887220234	-3.8859452316202336	0.7753950273909263	-3.5742532608614264	0.8067124654155591	3	wrong	1.0
26.880047099897638	7.974498500115942	nogo_reward	0.0109433999750763	26.901694000000134	28.4074849002061	30.95310829998948	1.505790900205966	27.90709980018437	29.941014300100505	33.99187030014582	0.500385100021731	1.0120939998889753	0.8843221999702564	32.981936800060794	0.3997979999985546	31.96235270006582	2	1	4	3	nogo_reward	1	0	1	0	1	0	1	1.0	1.0	0	0.0109433999750763	0.3997979999985546	1338.6948823998682	1365.5965763998684	1366.6019822000526	1367.1023673000743	1368.6358966999687	1369.6479906998577	1370.657235099934	1371.676819199929	1372.686752700014	1373.5710748999843	2020-02-11 16:30:57.629321	3.50790573641563	2.09503578798845	0.0	2.09503578798845	3.50790573641563	0.0	-3.50790573641563	2.09503578798845	0.0	3.50790573641563	0.0	-2.09503578798845	-1.2822780713524713	0.22342301277707977	-0.8959280202344981	-1.405292449436443	1.1644400036638802	-0.8959280202344981	-2.834426676710473	-0.5068830439615448	0.7753950273909263	-1.4792174728729766	0.8067124654155591	3	correct	1.0
34.89550910005346	8.381302600027993	nogo_reward	0.9943153001368046	34.917156000155956	36.766073500039056	39.31801869999617	1.8489174998831004	35.91761050000787	38.29805330000818	42.374083600007	0.8484630000311881	1.0199653999879956	0.9243750001769513	41.370453000068665	0.3697967000771314	40.33652740018442	2	1	5	3	nogo_reward	1	0	1	0	1	0	0	0.0	1.0	0	0.9943153001368046	0.3697967000771314	1338.6948823998682	1373.6120384000242	1374.612492899876	1375.4609558999073	1376.9929356998764	1378.0129010998644	1379.0314098000526	1380.0653353999369	1381.0689659998752	1381.9933410000522	2020-02-11 16:30:57.629321	3.17604763691765	1.89198688192332	0.0	1.89198688192332	3.17604763691765	0.0	-3.17604763691765	1.89198688192332	0.0	3.17604763691765	0.0	-1.89198688192332	-1.6141361708504514	0.020374106711950057	-0.8959280202344981	-1.6083413555015726	0.8325819041659002	-0.8959280202344981	-2.6313777706453436	-0.8387411434595249	0.7753950273909263	-1.6822663789381063	0.8067124654155591	3	correct	1.0
43.319579700008035	8.463781799888238	go_punish	1.0	43.34122660011053	45.274186599999894	47.80616130004637	1.9329599998893627	44.3492521001026	46.78269490017556	50.83637970010727	0.9249344998972902	1.023466399870813	0.9686286998914966	49.83185160020389	0.4727369998581707	48.819608099991456	2	1	6	2	go_punish	1	0	-1	1	0	0	0	1.0	0.0	-1	1.0	0.4727369998581707	1338.6948823998682	1382.0361089999788	1383.0441344999708	1383.969068999868	1385.4775773000438	1386.5010436999146	1387.5144904998597	1388.526734000072	1389.5312620999755	1390.499890799867	2020-02-11 16:30:57.629321	-0.128843548756941	0.0	0.0	0.0	0.128843548756941	0.0	0.128843548756941	0.0	0.0	0.0	0.128843548756941	-12.1226607520425	-4.919027356525042	-1.87161277521137	-0.8959280202344981	-3.5003282374248927	-2.2146221839948086	-0.8959280202344981	-12.862051640764523	-4.014788780377175	0.9042385761478673	-3.5742532608614264	0.8067124654155591	3	wrong	1.0
51.82257779990323	9.578836400061846	go_punish	0.2809222999494523	51.844224700005725	54.385537600144744	56.94293150003068	2.541312900139019	52.85275400010869	55.92179530020826	59.98601790005341	1.5327836000360548	1.021136199822422	1.437043200014159	58.97283830004744	0.3008993999101221	57.96049750014208	2	1	7	2	go_punish	1	0	-1	1	1	1	0	0.0	1.0	0	0.2809222999494523	0.3008993999101221	1338.6948823998682	1390.539107099874	1391.547636399977	1393.080420000013	1394.6166777000765	1395.637813899899	1396.6553799000103	1397.6677206999157	1398.6809002999216	1400.1179434999358	2020-02-11 16:30:57.629321	0.530661717905017	0.0	-1.06935503485069	-1.06935503485069	-0.538693316945669	-1.06935503485069	-0.530661717905017	0.0	-1.06935503485069	-0.538693316945669	-1.06935503485069	0.0	-4.259522089863085	-1.87161277521137	-1.965283055085188	-4.569683272275583	-2.8821590496974188	-1.965283055085188	-0.7393908887220234	-4.553482097322844	-0.2939600074597637	-3.5742532608614264	-0.26264256943513087	3	correct	1.0
61.44593590009026	9.09324109996669	go_punish	1.0	61.46758280019276	63.504592100158334	66.0349056001287	2.0370092999655753	62.464968900196254	65.01969079999253	69.08769250009209	1.0396231999620795	1.0152148001361638	1.4731314000673592	68.07496040011756	0.6843284999486059	67.05499420012347	2	1	8	2	go_punish	1	0	-1	1	0	0	1	1.0	1.0	-1	1.0	0.6843284999486059	1338.6948823998682	1400.162465200061	1401.1598513000645	1402.1994745000266	1403.7145731998608	1404.729787999997	1405.7498765999917	1406.7698427999858	1407.7825748999603	1409.2557063000277	2020-02-11 16:30:57.629321	-0.598470623779363	0.0	-1.06935503485069	-0.96511584148247	-0.470884411071323	-1.06935503485069	0.598470623779363	-1.06935503485069	0.0	-1.06935503485069	-0.470884411071323	-11.05330571719181	-5.388654431547464	-1.87161277521137	-1.965283055085188	-4.465444078907363	-2.8143501438230727	-1.965283055085188	-11.792696605913834	-5.084143815227865	0.30451061631960324	-4.6436082957121165	0.8067124654155591	3	correct	1.0
70.56386539991945	8.293232100084424	nogo_punish	0.7644845000468194	70.58551230002195	71.88093159999698	74.43429620005168	1.2954192999750376	71.60006530000828	73.41783340019174	77.47927220002748	0.28086629998870194	1.0164627998599371	1.3994722000788897	76.46637130016461	0.5753395999781787	75.44823600002587	2	1	9	1	nogo_punish	1	-1	0	0	1	0	0	0.0	1.0	-1	0.7644845000468194	0.5753395999781787	1338.6948823998682	1409.2803946998902	1410.2949476998765	1410.5758139998652	1412.11271580006	1413.12917859992	1414.143118399894	1415.1612537000328	1416.1741545998957	1417.5736267999746	2020-02-11 16:30:57.629321	0.128843548756941	0.0	0.0	0.0	0.128843548756941	0.0	-0.128843548756941	0.0	0.0	0.128843548756941	0.0	-12.1226607520425	-4.66134025901116	-1.87161277521137	-0.8959280202344981	-3.5003282374248927	-2.2146221839948086	-0.8959280202344981	-12.862051640764523	-3.8859452316202336	0.7753950273909263	-3.5742532608614264	0.8067124654155591	3	correct	1.0
78.88316709990613	7.987367300083861	nogo_punish	1.0	78.90481400000863	80.57444100012071	83.0746110000182	1.6696270001120865	79.91391950007528	82.06836880021729	86.11739540006988	0.6605215000454336	1.0062421998009086	0.7747859000226072	85.10577090014704	0.550521400058642	84.09273600019515	2	1	10	1	nogo_punish	1	-1	0	0	0	1	0	0.0	1.0	0	1.0	0.550521400058642	1338.6948823998682	1417.5996963998768	1418.6088018999435	1419.269323399989	1420.7632512000855	1421.7694933998864	1422.7876184000634	1423.8006533000153	1424.812277799938	1425.5870636999607	2020-02-11 16:30:57.629321	1.60804835179635	-1.06935503485069	0.0	-1.06935503485069	-1.60804835179635	0.0	-1.60804835179635	0.0	-1.06935503485069	0.0	-1.60804835179635	0.0	-3.182135455971751	-2.9409678100620598	-0.8959280202344981	-4.569683272275583	-3.9515140845480996	-0.8959280202344981	-0.7393908887220234	-4.014788780377175	-0.8326533244054237	-3.5742532608614264	-0.26264256943513087	3	correct	1.0
86.89527829992585	9.324631500057876	nogo_punish	1.0	86.91692520002834	89.41183220013068	91.93660080013797	2.49490700010233	87.92730540013872	90.91682070004754	95.00776470010169	1.4845267999919542	1.0197801000904292	1.2337919999845326	93.99530920013785	0.4636266001034528	92.9607414000202	2	1	11	1	nogo_punish	1	-1	0	0	0	1	1	1.0	1.0	0	1.0	0.4636266001034528	1338.6948823998682	1425.6118075998966	1426.622187800007	1428.106714599999	1429.6117030999158	1430.6314832000062	1431.6556237998884	1432.690191600006	1433.70264709997	1434.9364390999544	2020-02-11 16:30:57.629321	1.54023944592201	-1.06935503485069	0.0	-0.96511584148247	-1.54023944592201	0.0	-1.54023944592201	0.0	-1.06935503485069	0.0	-1.54023944592201	0.0	-3.249944361846091	-2.9409678100620598	-0.8959280202344981	-4.465444078907363	-3.8837051786737593	-0.8959280202344981	-0.7393908887220234	-4.014788780377175	-0.7648444185310836	-3.5742532608614264	-0.26264256943513087	3	correct	1.0
96.25049669994041	8.481495100073516	go_reward	0.3324100999161601	96.27214360004291	97.93791100010276	100.48052330012433	1.665767400059849	97.28173730010167	99.46017500013113	103.54132660012692	0.6561737000010908	1.020348299993202	1.2123120999895036	102.52245220006466	0.4256119998171925	101.50280060013756	2	1	12	4	go_reward	0	0	1	1	1	1	0	0.0	1.0	0	0.3324100999161601	0.4256119998171925	1338.6948823998682	1434.9670259999111	1435.97661969997	1436.632793399971	1438.1550573999994	1439.1754056999926	1440.1976830000058	1441.2173345999329	1442.2362089999951	1443.4485210999846	2020-02-11 16:30:57.629321	0.128843548756941	0.0	0.0	0.0	0.128843548756941	0.0	-0.128843548756941	0.0	0.0	0.128843548756941	0.0	0.0	-4.66134025901116	-1.87161277521137	-0.8959280202344981	-3.5003282374248927	-2.2146221839948086	-0.8959280202344981	-0.7393908887220234	-3.8859452316202336	0.7753950273909263	-3.5742532608614264	0.8067124654155591	3	correct	1.0
104.75775060011097	8.49250789987832	nogo_punish	1.0	104.77939750021346	106.3419431000948	108.86450930009596	1.5625455998813322	105.77774300007127	107.84433960006572	111.92907960014418	0.5642001000235268	1.0201697000302374	1.3428257999476045	110.91621490009129	0.5328752000350505	109.88139220001176	2	1	13	1	nogo_punish	1	-1	0	0	0	1	1	1.0	1.0	0	1.0	0.5328752000350505	1338.6948823998682	1443.4742799000817	1444.4726253999395	1445.036825499963	1446.539221999934	1447.5593916999642	1448.57627459988	1449.6110972999595	1450.6239620000124	1451.96678779996	2020-02-11 16:30:57.629321	1.4799497385996	-1.06935503485069	0.0	-0.872009037707745	-1.4799497385996	0.0	-1.4799497385996	0.0	-1.06935503485069	0.0	-1.4799497385996	0.0	-3.310234069168501	-2.9409678100620598	-0.8959280202344981	-4.3723372751326375	-3.8234154713513497	-0.8959280202344981	-0.7393908887220234	-4.014788780377175	-0.7045547112086739	-3.5742532608614264	-0.26264256943513087	3	correct	1.0
113.27931999997236	10.0099708000198	nogo_punish	1.0	113.30096690007485	116.27658480009995	118.80346500012092	2.9756179000250995	114.31794330012053	117.7937581001313	121.86197130009532	1.9586414999794215	1.0097068999896237	1.4489663999993354	120.84930930007249	0.4024015001486987	119.82275540009141	2	1	14	1	nogo_punish	1	-1	0	0	0	1	0	0.0	1.0	0	1.0	0.4024015001486987	1338.6948823998682	1451.995849299943	1453.0128256999888	1454.9714671999682	1456.4886404999995	1457.4983473999891	1458.5176377999596	1459.5441916999407	1460.5568536999635	1462.0058200999629	2020-02-11 16:30:57.629321	1.42626925351826	-1.06935503485069	0.0	-0.788734223331703	-1.42626925351826	0.0	-1.42626925351826	0.0	-1.06935503485069	0.0	-1.42626925351826	0.0	-3.363914554249841	-2.9409678100620598	-0.8959280202344981	-4.289062460756596	-3.7697349862700094	-0.8959280202344981	-0.7393908887220234	-4.014788780377175	-0.6508742261273337	-3.5742532608614264	-0.26264256943513087	3	correct	1.0
123.3329002999235	8.37977630016394	nogo_reward	1.0	123.35454720002599	125.14492810005322	127.65871740016155	1.7903809000272304	124.36218000017107	126.64814610010944	130.70828600018285	0.7827480998821557	1.0105713000521064	1.026037500007078	129.70611210004427	0.6849112999625504	128.6773949000053	2	1	15	3	nogo_reward	0	1	0	0	0	1	0	0.0	1.0	0	1.0	0.6849112999625504	1338.6948823998682	1462.0494295998942	1463.0570624000393	1463.8398104999214	1465.3430284999777	1466.3535998000298	1467.3722772998735	1468.4009944999125	1469.403168400051	1470.4292059000582	2020-02-11 16:30:57.629321	-2.8789934560843	1.7099688687632	0.0	1.7099688687632	2.8789934560843	0.0	2.8789934560843	0.0	1.7099688687632	0.0	2.8789934560843	0.0	-7.669177263852401	-0.16164390644817006	-0.8959280202344981	-1.7903593686616928	0.5355277233325504	-0.8959280202344981	-0.7393908887220234	-4.014788780377175	3.654388483475226	-3.5742532608614264	2.516681334178759	3	correct	1.0
131.75574050005525	8.419961999868974	go_punish	1.0	131.77738740015775	133.2453611001838	135.75627890019678	1.4679737000260502	132.7763034000527	134.75306970020756	138.7980485002047	0.4690577001310885	1.0032091999892145	1.3993008998220375	137.78453549998812	0.6174357999116182	136.77211080002598	2	1	16	2	go_punish	1	0	-1	1	0	0	0	0.0	1.0	-1	1.0	0.6174357999116182	1338.6948823998682	1470.472269800026	1471.471185799921	1471.940243500052	1473.4479521000758	1474.451161300065	1475.4669931998942	1476.4794178998563	1477.492930900073	1478.892231799895	2020-02-11 16:30:57.629321	-0.956339306881628	0.0	-2.03447087633316	-1.94136407255843	-1.07813156945153	-2.03447087633316	0.956339306881628	-2.03447087633316	0.0	-2.03447087633316	-1.07813156945153	-10.08818987570934	-5.7465231146497295	-1.87161277521137	-2.930398896567658	-5.441692309983322	-3.4215973022032795	-2.930398896567658	-10.827580764431364	-6.049259656710335	-0.30273654206060385	-5.608724137194587	0.8067124654155591	3	correct	1.0
140.21935550007038	8.973042099969462	nogo_reward	1.0	140.24100240017287	142.58937120018527	145.12831629998982	2.348368800012395	141.23893520003185	144.10399830015376	148.17384609999135	1.3504360001534224	1.0243179998360574	1.0401984001509845	147.1599323002156	0.5039340001530945	146.13132799998857	2	1	17	3	nogo_reward	1	0	1	0	0	1	1	1.0	1.0	1	1.0	0.5039340001530945	1338.6948823998682	1478.935884800041	1479.9338175999	1481.2842536000535	1482.798880700022	1483.823198699858	1484.8262103998568	1485.8548147000838	1486.8687284998596	1487.9089269000106	2020-02-11 16:30:57.629321	-2.77616411055462	1.7099688687632	0.0	1.54666265262867	2.77616411055462	0.0	2.77616411055462	0.0	1.7099688687632	0.0	2.77616411055462	23.3458880882173	-7.566347918322721	-0.16164390644817006	-0.8959280202344981	-1.9536655847962228	0.43269837780287057	-0.8959280202344981	22.606497199495276	-4.014788780377175	3.5515591379455467	-3.5742532608614264	2.516681334178759	3	correct	1.0
149.21833540010266	8.531695999903604	nogo_punish	1.0	149.23998230020516	150.94571880018339	153.47340000001714	1.7057364999782294	150.2492014002055	152.45248690014705	156.528307300061	0.6965173999778926	1.0209130998700857	1.2433710000477731	155.50989770004549	0.3818417000584304	154.49132230016403	2	1	18	1	nogo_punish	1	-1	0	0	0	1	0	0.0	1.0	0	1.0	0.3818417000584304	1338.6948823998682	1487.9348647000734	1488.9440838000737	1489.6406012000516	1491.1473693000153	1492.1682823998854	1493.1862047000322	1494.2047800999137	1495.2231896999292	1496.466560699977	2020-02-11 16:30:57.629321	1.37840863365278	-1.06935503485069	0.0	-0.714157614767197	-1.37840863365278	0.0	-1.37840863365278	0.0	-1.06935503485069	0.0	-1.37840863365278	0.0	-3.411775174115321	-2.9409678100620598	-0.8959280202344981	-4.21448585219209	-3.7218743664045295	-0.8959280202344981	-0.7393908887220234	-4.014788780377175	-0.6030136062618539	-3.5742532608614264	-0.26264256943513087	3	correct	1.0
157.79346169997007	8.502679999917518	nogo_reward	0.2662873999215662	157.81510860007256	159.7299195001833	162.27130060014315	1.9148109001107514	158.82292730011977	161.2501995000057	165.31794930016622	0.9069922000635415	1.0211011001374573	0.9998392998238614	164.3048808001913	0.4881614001933485	163.27690070006065	2	1	19	3	nogo_reward	0	1	0	0	1	0	1	1.0	1.0	1	0.2662873999215662	0.4881614001933485	1338.6948823998682	1496.5099909999408	1497.517809699988	1498.4248019000515	1499.945081899874	1500.9661830000114	1501.9717830999289	1502.9997632000595	1504.0128317000344	1505.0126709998583	2020-02-11 16:30:57.629321	1.87315595121052	1.7099688687632	2.09503578798845	3.49505762415284	3.96819173919897	2.09503578798845	-1.87315595121052	1.7099688687632	2.09503578798845	3.96819173919897	2.09503578798845	21.635919219454102	-2.9170278565575813	-0.16164390644817006	1.1991077677539517	-0.005270613272052582	1.6247260064472204	1.1991077677539517	20.896528330732078	-0.04659704117820462	2.8704308153793763	-1.8642843920982264	2.901748253404009	3	correct	1.0
166.33818030008138	9.447521199937682	nogo_reward	0.4957155000884086	166.35982720018387	168.82734910002887	171.36952120019123	2.4675218998449964	167.36842990014702	170.35777230001986	174.40315110003576	1.4589191998818478	1.0117489001713693	1.404197300085798	173.3903666001279	0.3992916001006961	172.37798120011576	2	1	20	3	nogo_reward	1	0	1	0	1	0	0	0.0	1.0	0	0.4957155000884086	0.3992916001006961	1338.6948823998682	1505.054709600052	1506.0633123000152	1507.522231499897	1509.052654699888	1510.0644036000594	1511.072863599984	1512.085248999996	1513.098033499904	1514.5022307999898	2020-02-11 16:30:57.629321	4.87772348426649	3.64169844061712	2.09503578798845	5.25526097649432	6.97275927225493	2.09503578798845	-4.87772348426649	3.64169844061712	2.09503578798845	6.97275927225493	2.09503578798845	-3.64169844061712	0.08753967649838845	1.77008566540575	1.1991077677539517	1.7549327390694272	4.6292935395031805	1.1991077677539517	-4.381089329339144	2.957970491877755	2.8704308153793763	0.06744517975569364	2.901748253404009	3	correct	1.0
175.81061900011264	8.791726399911568	go_reward	1.0	175.83226590021513	178.06351850018837	180.5883716000244	2.2312525999732316	176.8375693000853	179.56888290005736	183.65918960003182	1.2259492001030594	1.0194886999670416	0.9648027000948787	182.64223700016737	0.4894429000560194	181.61172430007719	2	1	21	4	go_reward	1	1	0	1	0	0	0	0.0	1.0	0	1.0	0.4894429000560194	1338.6948823998682	1514.5271483000834	1515.5324516999535	1516.7584009000566	1518.2637652999256	1519.2832539998926	1520.3066066999454	1521.3371194000356	1522.3540719999	1523.318874699995	2020-02-11 16:30:57.629321	-0.128843548756941	0.0	0.0	0.0	0.128843548756941	0.0	0.128843548756941	0.0	0.0	0.0	0.128843548756941	0.0	-4.919027356525042	-1.87161277521137	-0.8959280202344981	-3.5003282374248927	-2.2146221839948086	-0.8959280202344981	-0.7393908887220234	-4.014788780377175	0.9042385761478673	-3.5742532608614264	0.8067124654155591	3	correct	1.0
184.62651730002835	9.670102600008022	go_reward	1.0	184.64816420013085	187.40544450003654	189.9300720000174	2.7572802999056876	185.64980690018274	188.91070950007997	192.96559820021503	1.7556375998537987	1.0193624999374151	1.3526685999238452	191.96136140008457	0.6198811000213027	190.9470300001558	2	1	22	4	go_reward	1	1	0	1	0	0	0	0.0	1.0	0	1.0	0.6198811000213027	1338.6948823998682	1523.343046599999	1524.344689300051	1526.1003268999048	1527.6055918999482	1528.6249543998856	1529.641912400024	1530.6562437999528	1531.6604806000832	1533.013149200007	2020-02-11 16:30:57.629321	-0.128843548756941	0.0	0.0	0.0	0.128843548756941	0.0	0.128843548756941	0.0	0.0	0.0	0.128843548756941	0.0	-4.919027356525042	-1.87161277521137	-0.8959280202344981	-3.5003282374248927	-2.2146221839948086	-0.8959280202344981	-0.7393908887220234	-4.014788780377175	0.9042385761478673	-3.5742532608614264	0.8067124654155591	3	correct	1.0
194.32026989990845	8.864885500166338	go_reward	1.0	194.34191680001095	196.22034630016424	198.75425930018537	1.8784295001532882	195.35358300013468	197.73451640014537	201.80063570011407	0.8667633000295609	1.0197429000400007	1.4061666000632158	200.79504620004468	0.5335969000589103	199.7726233000867	2	1	23	4	go_reward	1	1	0	1	0	0	1	1.0	1.0	0	1.0	0.5335969000589103	1338.6948823998682	1533.0367991998792	1534.048465400003	1534.9152287000325	1536.4293988000136	1537.4491417000536	1538.467505699955	1539.489928599913	1540.4955180999823	1541.9016847000455	2020-02-11 16:30:57.629321	-0.128843548756941	0.0	0.0	0.0	0.128843548756941	0.0	0.128843548756941	0.0	0.0	0.0	0.128843548756941	0.0	-4.919027356525042	-1.87161277521137	-0.8959280202344981	-3.5003282374248927	-2.2146221839948086	-0.8959280202344981	-0.7393908887220234	-4.014788780377175	0.9042385761478673	-3.5742532608614264	0.8067124654155591	3	correct	1.0
203.22982989996672	8.612683200044557	go_punish	0.3254947999957949	203.2514768000692	205.25941560021602	207.82308190013282	2.0079388001468033	204.25911800004542	206.79531730012968	210.86555490014143	1.0002976001705974	1.0277646000031382	0.9986050999723375	209.85626530018635	1.0	208.84756820020266	2	1	24	2	go_punish	0	-1	0	1	1	1	0	n/a	0.0	0	0.3254947999957949	1.0	1338.6948823998682	1541.9463591999374	1542.9540003999136	1543.9542980000842	1545.490199699998	1546.517964300001	1547.5424506000709	1548.5511477000546	1549.5604373000097	1550.559042399982	2020-02-11 16:30:57.629321	1.28230086984246	0.0	-2.9064799140409	-2.82320509966486	-1.62417904419844	-2.9064799140409	-1.28230086984246	0.0	-2.9064799140409	-1.62417904419844	-2.9064799140409	-12.1226607520425	-3.507882937925641	-1.87161277521137	-3.802407934275398	-6.323533337089753	-3.9676447769501895	-3.802407934275398	-12.862051640764523	-5.638967824575615	-2.1310848866499734	-3.5742532608614264	-2.099767448625341	3	missed	0.0
211.89163600001484	9.330096099991351	nogo_reward	0.3894715001806617	211.91328290011734	214.74516190006398	217.29457480018027	2.831878999946639	212.91520550008863	216.28184890002012	220.35295090009458	1.8299563999753445	1.0127259001601487	0.8904281000141054	219.34047799999826	0.2997995000332594	218.31123760016635	2	1	25	3	nogo_reward	1	0	1	0	1	0	0	0.0	1.0	0	0.3894715001806617	0.2997995000332594	1338.6948823998682	1550.6081652999856	1551.6100878999569	1553.4400442999322	1554.9767312998883	1555.9894572000485	1557.0061200000346	1558.0353603998665	1559.0478332999628	1559.938261399977	2020-02-11 16:30:57.629321	4.21036158137573	3.29200871808771	2.09503578798845	4.7516682820596	6.30539736936418	2.09503578798845	-4.21036158137573	3.29200871808771	2.09503578798845	6.30539736936418	2.09503578798845	-3.29200871808771	-0.5798222263923716	1.4203959428763397	1.1991077677539517	1.2513400446347074	3.9619316366124306	1.1991077677539517	-4.0313996068097335	2.2906085889870056	2.8704308153793763	-0.2822445427737166	2.901748253404009	3	correct	1.0
221.2633289999792	9.040009499993403	go_punish	1.0	221.2849759000817	223.99790660012513	226.51794839999638	2.7129307000434437	222.28418620000593	225.50271780020557	229.56612280011177	1.7137204001192003	1.0152305997908115	0.7588625999633223	228.56113420007728	0.5936636000405997	227.53345220000483	2	1	26	2	go_punish	1	0	-1	1	0	0	1	1.0	1.0	-1	1.0	0.5936636000405997	1338.6948823998682	1559.97985829995	1560.9790685998742	1562.6927889999934	1564.1976002000738	1565.2128307998646	1566.228334599873	1567.2560165999455	1568.26100519998	1569.0198677999433	2020-02-11 16:30:57.629321	-1.45826010290469	0.0	-2.9064799140409	-2.55128249395741	-1.44821981113621	-2.9064799140409	1.45826010290469	-2.9064799140409	0.0	-2.9064799140409	-1.44821981113621	-9.216180838001598	-6.248443910672791	-1.87161277521137	-3.802407934275398	-6.051610731382302	-3.7916855438879598	-3.802407934275398	-9.955571726723623	-6.921268694418075	-0.6728247837452836	-6.480733174902326	0.8067124654155591	3	correct	1.0
230.33360049990006	8.24060590006411	nogo_punish	1.0	230.35524740000255	231.69457670021802	234.21072880015709	1.3393293002154678	231.3513607000932	233.19085400016047	237.24334200005978	0.3432160001248121	1.0198747999966145	1.3525113000068814	236.2471675002016	0.5289812001865357	235.2281772000713	2	1	27	1	nogo_punish	1	-1	0	0	0	1	0	0.0	1.0	0	1.0	0.5289812001865357	1338.6948823998682	1569.0501297998708	1570.0462430999614	1570.3894591000862	1571.8857364000287	1572.9056112000253	1573.9230595999395	1574.9420499000698	1575.938224399928	1577.2907356999349	2020-02-11 16:30:57.629321	1.33568154650121	-1.06935503485069	0.0	-0.647288522784917	-1.33568154650121	0.0	-1.33568154650121	0.0	-1.06935503485069	0.0	-1.33568154650121	0.0	-3.4545022612668914	-2.9409678100620598	-0.8959280202344981	-4.14761676020981	-3.67914727925296	-0.8959280202344981	-0.7393908887220234	-4.014788780377175	-0.5602865191102837	-3.5742532608614264	-0.26264256943513087	3	correct	1.0
238.59945599990897	7.980643399991095	nogo_punish	1.0	238.62110290001146	240.1089942001272	242.6358390999958	1.4878913001157343	239.64036030019633	241.6137843001634	245.68418430001475	0.4686338999308646	1.0220547998324037	0.9175619999878109	244.66779560013674	0.5518942999187857	243.6552801001817	2	1	28	1	nogo_punish	1	-1	0	0	0	1	0	0.0	1.0	0	1.0	0.5518942999187857	1338.6948823998682	1577.3159852998797	1578.3352427000646	1578.8038765999954	1580.3086667000316	1581.330721499864	1582.35016250005	1583.362678000005	1584.379066699883	1585.2966286998708	2020-02-11 16:30:57.629321	1.29748992186289	-1.06935503485069	0.0	-0.587259500678433	-1.29748992186289	0.0	-1.29748992186289	0.0	-1.06935503485069	0.0	-1.29748992186289	0.0	-3.4926938859052115	-2.9409678100620598	-0.8959280202344981	-4.087587738103326	-3.6409556546146398	-0.8959280202344981	-0.7393908887220234	-4.014788780377175	-0.5220948944719637	-3.5742532608614264	-0.26264256943513087	3	correct	1.0
246.62403300008737	8.272944399854396	nogo_reward	0.4064879999496043	246.64567990018986	248.49653170001693	251.03078550007194	1.850851799827069	247.6529006001074	250.02064400003292	254.08148660021834	0.843631099909544	1.0101415000390261	0.8371376998259166	253.06875560013577	0.4905803999863565	252.04854760016315	2	1	29	3	nogo_reward	1	0	1	0	1	0	0	0.0	1.0	0	0.4064879999496043	0.4905803999863565	1338.6948823998682	1585.340562300058	1586.3477829999756	1587.1914140998852	1588.7155263999011	1589.7256678999402	1590.7434300000314	1591.763638000004	1592.7763690000866	1593.6135066999125	2020-02-11 16:30:57.629321	3.61247868904966	2.97820717534575	2.09503578798845	4.2996593775009	5.70751447703811	2.09503578798845	-3.61247868904966	2.97820717534575	2.09503578798845	5.70751447703811	2.09503578798845	-2.97820717534575	-1.1777051187184413	1.1065944001343802	1.1991077677539517	0.7993311400760073	3.3640487442863605	1.1991077677539517	-3.7175980640677735	1.6927256966609354	2.8704308153793763	-0.5960460855156762	2.901748253404009	3	correct	1.0
254.92052239994518	8.110448300140206	go_reward	1.0	254.94216930004768	256.2721856001299	258.7994160000235	1.3300163000822067	255.94313720008358	257.77938010008074	261.8646905000787	0.32904840004630387	1.0200358999427408	1.1879271001091638	260.8456405000761	0.4705117999110371	259.8176627000794	2	1	30	4	go_reward	1	1	0	1	0	0	0	0.0	1.0	0	1.0	0.4705117999110371	1338.6948823998682	1593.637051699916	1594.6380195999518	1594.967067999998	1596.474262499949	1597.4942983998917	1598.5125450999476	1599.5405228999443	1600.559572899947	1601.747500000056	2020-02-11 16:30:57.629321	-0.128843548756941	0.0	0.0	0.0	0.128843548756941	0.0	0.128843548756941	0.0	0.0	0.0	0.128843548756941	0.0	-4.919027356525042	-1.87161277521137	-0.8959280202344981	-3.5003282374248927	-2.2146221839948086	-0.8959280202344981	-0.7393908887220234	-4.014788780377175	0.9042385761478673	-3.5742532608614264	0.8067124654155591	3	correct	1.0
263.05799879995175	8.187385899946094	nogo_punish	1.0	263.07964570005424	264.4647490000352	266.9892182000913	1.3851032999809831	264.099440400023	265.9683104001449	270.04898300021887	0.365308600012213	1.0209077999463716	1.2180485997814685	269.03460970008746	0.6384023001883179	268.006625500042	2	1	31	1	nogo_punish	1	-1	0	0	0	1	0	1.0	0.0	0	1.0	0.6384023001883179	1338.6948823998682	1601.7745280999225	1602.7943227998912	1603.1596313999034	1604.6631928000131	1605.6841005999595	1606.7015078999102	1607.7294920999557	1608.743865400087	1609.9619139998686	2020-02-11 16:30:57.629321	1.26331151962426	-1.06935503485069	0.0	-0.533309530429962	-1.26331151962426	0.0	-1.26331151962426	0.0	-1.06935503485069	0.0	-1.26331151962426	0.0	-3.5268722881438412	-2.9409678100620598	-0.8959280202344981	-4.033637767854855	-3.6067772523760095	-0.8959280202344981	-0.7393908887220234	-4.014788780377175	-0.48791649223333367	-3.5742532608614264	-0.26264256943513087	3	wrong	1.0
271.2926628999412	8.594207500107586	go_punish	0.3535901000723243	271.3143098000437	273.03053840016946	275.5795977001544	1.7162286001257598	272.3176794000901	274.55973180010915	278.6344135000836	0.7128590000793338	1.0198659000452608	1.274103800067678	277.6190457001794	0.8006621999666095	276.5953869000077	2	1	32	2	go_punish	1	0	-1	1	1	1	0	0.0	1.0	0	0.3535901000723243	0.8006621999666095	1338.6948823998682	1610.009192199912	1611.0125617999583	1611.7254208000377	1613.2546141999774	1614.2744801000226	1615.290269299876	1616.3139281000476	1617.3292958999518	1618.6033997000195	2020-02-11 16:30:57.629321	1.7361547400891	0.0	-3.6952141373726	-3.37738681867505	-1.95905939728351	-3.6952141373726	-1.7361547400891	0.0	-3.6952141373726	-1.95905939728351	-3.6952141373726	0.0	-3.054029067679001	-1.87161277521137	-4.5911421576070985	-6.877715056099943	-4.30252513003526	-4.5911421576070985	-0.7393908887220234	-5.973848177660685	-2.919819109981674	-3.5742532608614264	-2.888501671957041	3	correct	1.0
279.9127261999529	9.2187247001566	nogo_punish	1.0	279.9343731000554	282.0951617001556	284.626374799991	2.1607886001002043	280.9433816000817	283.6051617001649	287.675716600148	1.1517801000738928	1.0212130998261273	1.4773812000639737	286.66238120011985	0.5116421999409795	285.6433779001236	2	1	33	1	nogo_punish	1	-1	0	0	0	1	1	1.0	1.0	0	1.0	0.5116421999409795	1338.6948823998682	1618.6292554999236	1619.63826399995	1620.7900441000238	1622.3000441000331	1623.3212571998592	1624.3382602999918	1625.357263599988	1626.3705990000162	1627.8479802000802	2020-02-11 16:30:57.629321	1.23268942263474	-1.06935503485069	0.0	-0.484769734049482	-1.23268942263474	0.0	-1.23268942263474	0.0	-1.06935503485069	0.0	-1.23268942263474	0.0	-3.557494385133361	-2.9409678100620598	-0.8959280202344981	-3.985097971474375	-3.5761551553864894	-0.8959280202344981	-0.7393908887220234	-4.014788780377175	-0.45729439524381377	-3.5742532608614264	-0.26264256943513087	3	correct	1.0
289.1756961999927	9.496004299959168	nogo_reward	0.2612192998640239	289.19734310009517	291.77381050004624	294.33322960021906	2.5764673999510705	290.20433810004033	293.3086447000969	297.3814315001946	1.5694724000059068	1.0245849001221359	1.3119158998597413	296.3656758000143	0.4429581998847425	295.3471777001396	2	1	34	3	nogo_reward	0	1	0	0	1	0	0	0.0	1.0	1	0.2612192998640239	0.4429581998847425	1338.6948823998682	1627.8922254999634	1628.8992204999086	1630.4686928999145	1632.0035270999651	1633.0281120000873	1634.0420601000078	1635.0605581998825	1636.0763139000628	1637.3882297999226	2020-02-11 16:30:57.629321	3.07638215912614	2.69637518400175	2.09503578798845	3.89361270345163	5.17141794711459	2.09503578798845	-3.07638215912614	2.69637518400175	2.09503578798845	5.17141794711459	2.09503578798845	20.649512904215552	-1.7138016486419612	0.82476240879038	1.1991077677539517	0.39328446602673717	2.8279522143628406	1.1991077677539517	19.910122015493528	1.1566291667374156	2.8704308153793763	-0.8778780768596763	2.901748253404009	3	correct	1.0
298.69506609998643	8.336339300032932	go_reward	1.0	298.71671300008893	300.2252192001324	302.76615969999693	1.5085062000434846	299.72803720016987	301.73963350011036	305.81937040016055	0.4971819999625495	1.0265261998865753	1.2336818999613115	304.80794020020403	0.3865998999681324	303.79046650021337	2	1	35	4	go_reward	0	0	1	1	0	0	0	0.0	1.0	1	1.0	0.3865998999681324	1338.6948823998682	1637.4115953999572	1638.422919600038	1638.9201016000006	1640.4345158999786	1641.4610420998652	1642.4853489000816	1643.5028226000722	1644.5142528000288	1645.74793469999	2020-02-11 16:30:57.629321	-0.128843548756941	0.0	0.0	0.0	0.128843548756941	0.0	0.128843548756941	0.0	0.0	0.0	0.128843548756941	23.3458880882173	-4.919027356525042	-1.87161277521137	-0.8959280202344981	-3.5003282374248927	-2.2146221839948086	-0.8959280202344981	22.606497199495276	-4.014788780377175	0.9042385761478673	-3.5742532608614264	0.8067124654155591	3	correct	1.0
307.0573994999286	8.426199000095949	nogo_punish	1.0	307.0790464000311	308.52586790011264	311.0503784001337	1.446821500081569	308.08827240020037	310.0410456000827	314.10038750013337	0.43759549991227686	1.00933280005097	1.404857899993658	313.0868752000388	0.3703171000815928	312.0687438000457	2	1	36	1	nogo_punish	1	-1	0	0	0	1	0	0.0	1.0	0	1.0	0.3703171000815928	1338.6948823998682	1645.7739287998993	1646.7831548000686	1647.2207502999809	1648.735927999951	1649.745260800002	1650.763626199914	1651.781757599907	1652.7952699000016	1654.2001277999952	2020-02-11 16:30:57.629321	1.20522312682367	-1.06935503485069	0.0	-0.441051192280746	-1.20522312682367	0.0	-1.20522312682367	0.0	-1.06935503485069	0.0	-1.20522312682367	0.0	-3.584960680944431	-2.9409678100620598	-0.8959280202344981	-3.9413794297056386	-3.5486888595754196	-0.8959280202344981	-0.7393908887220234	-4.014788780377175	-0.4298280994327437	-3.5742532608614264	-0.26264256943513087	3	correct	1.0
315.51088909991086	7.680727000115439	nogo_punish	1.0	315.53253600001335	316.86670000012987	319.3953794001136	1.334164000116516	316.53159770020284	318.37513930001296	322.4529072002042	0.3351022999270299	1.0202401001006365	0.7603557999245822	321.44877670006827	0.5451093001756817	320.41187070007436	2	1	37	1	nogo_punish	1	-1	0	0	0	1	0	0.0	1.0	0	1.0	0.5451093001756817	1338.6948823998682	1654.2274183998816	1655.226480100071	1655.561582399998	1657.0700216998812	1658.0902617999818	1659.1067530999426	1660.1436590999365	1661.1477896000724	1661.908145399997	2020-02-11 16:30:57.629321	1.18056096186192	-1.06935503485069	0.0	-0.401634528738993	-1.18056096186192	0.0	-1.18056096186192	0.0	-1.06935503485069	0.0	-1.18056096186192	0.0	-3.6096228459061814	-2.9409678100620598	-0.8959280202344981	-3.901962766163886	-3.52402669461367	-0.8959280202344981	-0.7393908887220234	-4.014788780377175	-0.4051659344709937	-3.5742532608614264	-0.26264256943513087	3	correct	1.0
323.2358566999901	9.121228700038046	go_punish	1.0	323.2575036000926	325.78012390015647	328.3078267001547	2.5226203000638634	324.2642473001033	327.28444750001654	331.3475536000915	1.5158766000531614	1.0233792001381516	1.0311787000391632	330.34490070003085	0.9113785000517964	329.32257240009494	2	1	38	2	go_punish	1	0	-1	1	0	0	0	0.0	1.0	-1	1.0	0.9113785000517964	1338.6948823998682	1661.9523859999608	1662.9591296999715	1664.4750063000247	1665.9793298998848	1667.002709100023	1668.0174547999632	1669.039783099899	1670.0424359999597	1671.0736146999989	2020-02-11 16:30:57.629321	-1.94369637554859	0.0	-3.6952141373726	-3.0552671802598	-1.75151776182401	-3.6952141373726	1.94369637554859	-3.6952141373726	0.0	-3.6952141373726	-1.75151776182401	-8.427446614669899	-6.733880183316691	-1.87161277521137	-4.5911421576070985	-6.5555954176846924	-4.09498349457576	-4.5911421576070985	-9.166837503391923	-7.710002917749774	-0.9761227344330838	-7.269467398234026	0.8067124654155591	3	correct	1.0
332.39852329995483	8.629704199963953	go_punish	0.4581265000160783	332.4201702000573	333.9878008000087	336.52098160004266	1.5676305999513716	333.4357919001486	335.50922460015863	339.58770170016214	0.5520088998600841	1.0117569998840281	1.4621726998591384	338.57355070021026	0.5573404000606388	337.53769970010035	2	1	39	2	go_punish	1	0	-1	1	1	1	0	0.0	1.0	0	0.4581265000160783	0.5573404000606388	1338.6948823998682	1671.1150525999255	1672.1306743000168	1672.682683199877	1674.2041070000269	1675.2158639999109	1676.2325820999686	1677.2684331000785	1678.2825841000304	1679.7447567998895	2020-02-11 16:30:57.629321	2.17537294119126	0.0	-4.4093717521398	-3.83611974054051	-2.23399881094854	-4.4093717521398	-2.17537294119126	0.0	-4.4093717521398	-2.23399881094854	-4.4093717521398	0.0	-2.6148108665768413	-1.87161277521137	-5.3052997723742985	-7.336447977965403	-4.577464543700289	-5.3052997723742985	-0.7393908887220234	-6.248787591325715	-3.633976724748874	-3.5742532608614264	-3.6026592867242413	3	correct	1.0
341.07221479993336	9.07292630011193	nogo_reward	0.3317104999441653	341.09386170003586	343.0783383999949	345.6284398001153	1.984476699959032	342.10616230010055	344.6084167000372	348.67392770014703	0.972176099894341	1.020023100078106	1.492860300000757	347.6643420001492	0.4733527000062167	346.64465800020866	2	1	40	3	nogo_reward	1	0	1	0	1	0	0	0.0	1.0	0	0.3317104999441653	0.4733527000062167	1338.6948823998682	1679.788744099904	1680.8010446999688	1681.773220799863	1683.3032990999054	1684.3233221999835	1685.3395404000769	1686.3592244000174	1687.3688101000153	1688.861670400016	2020-02-11 16:30:57.629321	5.9743484869283	4.53808548026187	2.09503578798845	5.62359468888477	8.06938427491674	2.09503578798845	-5.9743484869283	4.53808548026187	2.09503578798845	8.06938427491674	2.09503578798845	-4.53808548026187	1.1841646791601992	2.6664727050505	1.1991077677539517	2.1232664514598776	5.72591854216499	1.1991077677539517	-5.277476368983893	4.054595494539565	2.8704308153793763	0.9638322194004436	2.901748253404009	3	correct	1.0
350.17063189996406	8.230042200070102	nogo_punish	1.0	350.19227880006656	351.5517794000916	354.0885705000253	1.3595006000250578	351.1917281001806	353.0695575000718	357.1316397001501	0.3600512999109924	1.0190129999534747	1.2906812999865451	356.1288199000992	0.5160702001303434	355.09577710018493	2	1	41	1	nogo_punish	1	-1	0	0	0	1	0	0.0	1.0	0	1.0	0.5160702001303434	1338.6948823998682	1688.8871611999348	1689.8866105000488	1690.2466617999598	1691.76443989994	1692.7834528998935	1693.7906595000532	1694.8237022999674	1695.8265221000183	1697.1172034000049	2020-02-11 16:30:57.629321	1.15839362443462	-1.06935503485069	0.0	-0.366060978416783	-1.15839362443462	0.0	-1.15839362443462	0.0	-1.06935503485069	0.0	-1.15839362443462	0.0	-3.6317901833334814	-2.9409678100620598	-0.8959280202344981	-3.866389215841676	-3.50185935718637	-0.8959280202344981	-0.7393908887220234	-4.014788780377175	-0.38299859704369377	-3.5742532608614264	-0.26264256943513087	3	correct	1.0
358.423362300033	8.490457399980869	go_reward	1.0	358.4450092001355	360.24424900021427	362.7629400000442	1.7992398000787944	359.4586785000281	361.75215529999696	365.804498200072	0.7855705001861679	1.0107847000472248	1.1309684000443667	364.80105540016666	0.6366502000018954	363.782304600114	2	1	42	4	go_reward	1	1	0	1	0	0	0	0.0	1.0	0	1.0	0.6366502000018954	1338.6948823998682	1697.1398916000037	1698.1535608998963	1698.9391314000825	1700.4470376998652	1701.4578223999124	1702.4771869999822	1703.4959378000349	1704.4993805999402	1705.6303489999846	2020-02-11 16:30:57.629321	0.682165839561273	0.0	2.09503578798845	2.09503578798845	1.41286994842718	2.09503578798845	-0.682165839561273	2.09503578798845	0.0	2.09503578798845	1.41286994842718	-2.09503578798845	-4.108017968206828	-1.87161277521137	1.1991077677539517	-1.405292449436443	-0.9305957843245696	1.1991077677539517	-2.834426676710473	-1.9197529923887249	2.1882649758181065	-1.4792174728729766	0.8067124654155591	3	correct	1.0
366.9419166999869	8.20345319993794	nogo_punish	1.0	366.9635636000894	368.818949600216	371.34230940020666	1.8553860001266003	367.97293630009517	370.33315480011515	374.39262800011784	0.8460133001208305	1.009154600091506	0.7743887999095023	373.3787583000958	0.6284153000451624	372.3605981001165	2	1	43	1	nogo_punish	1	-1	0	0	0	1	1	0.0	0.0	0	1.0	0.6284153000451624	1338.6948823998682	1705.6584459999576	1706.6678186999634	1707.5138320000842	1709.0280371999834	1710.0371918000749	1711.0554804999847	1712.073640699964	1713.087510399986	1713.8618991998956	2020-02-11 16:30:57.629321	1.13844864526168	-1.06935503485069	0.0	-0.333924708560196	-1.13844864526168	0.0	-1.13844864526168	0.0	-1.06935503485069	0.0	-1.13844864526168	0.0	-3.651735162506421	-2.9409678100620598	-0.8959280202344981	-3.8342529459850887	-3.4819143780134296	-0.8959280202344981	-0.7393908887220234	-4.014788780377175	-0.36305361787075374	-3.5742532608614264	-0.26264256943513087	3	wrong	1.0
375.18959349999204	9.044601999921724	nogo_reward	0.3780052000656724	375.21124040009454	377.4899591000285	380.0409401000941	2.278718699933961	376.2076059000101	379.01988380006514	383.0862865000961	1.282353200018406	1.0210563000289312	1.1695558999201694	382.0823947000317	0.4355236000847071	381.06446020002477	2	1	44	3	nogo_reward	1	0	1	0	1	0	0	0.0	1.0	0	0.3780052000656724	0.4355236000847071	1338.6948823998682	1713.9061227999628	1714.9024882998783	1716.1848414998967	1717.7147661999334	1718.7358224999623	1719.759342599893	1720.7772770999	1721.7811688999643	1722.9507247998845	2020-02-11 16:30:57.629321	5.21040191863707	4.10715340316445	2.09503578798845	5.09208670757415	7.30543770662552	2.09503578798845	-5.21040191863707	4.10715340316445	2.09503578798845	7.30543770662552	2.09503578798845	-4.10715340316445	0.42021811086896843	2.2355406279530796	1.1991077677539517	1.5917584701492569	4.961971973873771	1.1991077677539517	-4.846544291886473	3.2906489262483456	2.8704308153793763	0.5329001423030233	2.901748253404009	3	correct	1.0
384.27540710009634	8.216993500012904	go_punish	0.3086349000222981	384.29705400019884	385.7202758002095	388.2665890001226	1.4232218000106514	385.29906290001236	387.25731060002	391.31644880003296	0.4212129001971334	1.0092784001026303	1.1975987001787871	390.3139957000967	0.3392806998454034	389.2857072001789	2	1	45	2	go_punish	1	0	-1	1	1	1	0	0.0	1.0	0	0.3086349000222981	0.3392806998454034	1338.6948823998682	1722.991936400067	1723.9939452998806	1724.4151582000777	1725.9521929998882	1726.9614713999908	1727.980589600047	1729.008878099965	1730.0113311999012	1731.20892990008	2020-02-11 16:30:57.629321	2.40840314092635	0.0	-4.4093717521398	-3.47316782232701	-2.00096861121345	-4.4093717521398	-2.40840314092635	0.0	-4.4093717521398	-2.00096861121345	-4.4093717521398	0.0	-2.381780666841751	-1.87161277521137	-5.3052997723742985	-6.973496059751903	-4.344434343965199	-5.3052997723742985	-0.7393908887220234	-6.015757391590625	-3.633976724748874	-3.5742532608614264	-3.6026592867242413	3	correct	1.0
392.519088299945	9.477777000050992	nogo_punish	1.0	392.5407352000475	394.992923400132	397.4997408001218	2.4521882000844926	393.5555625001434	396.48879309999757	400.54962180019356	1.4373608999885619	1.010947700124234	1.4688903999049217	399.53573590004817	0.445966999977827	398.50898370007053	2	1	46	1	nogo_punish	1	-1	0	0	0	1	0	1.0	0.0	0	1.0	0.445966999977827	1338.6948823998682	1731.2356175999157	1732.2504449000116	1733.6878058000002	1735.1836754998658	1736.19462319999	1737.2038660999388	1738.2306182999164	1739.2445042000618	1740.7133945999667	2020-02-11 16:30:57.629321	1.1204856424541	-1.06935503485069	0.0	-0.304866199647574	-1.1204856424541	0.0	-1.1204856424541	0.0	-1.06935503485069	0.0	-1.1204856424541	0.0	-3.669698165314001	-2.9409678100620598	-0.8959280202344981	-3.805194437072467	-3.4639513752058497	-0.8959280202344981	-0.7393908887220234	-4.014788780377175	-0.34509061506317384	-3.5742532608614264	-0.26264256943513087	3	wrong	1.0
402.0211296000052	9.455465900013223	go_reward	1.0	402.0427765001077	404.8096294000277	407.3348366001153	2.766852899919968	403.04441110021435	406.3137257001363	410.38507600012235	1.7652182998133412	1.0211108999790213	1.1131663999985904	409.3810313001741	0.3157898001372814	408.3521701002028	2	1	47	4	go_reward	1	1	0	1	0	0	0	0.0	1.0	0	1.0	0.3157898001372814	1338.6948823998682	1740.737658899976	1741.7392935000826	1743.504511799896	1745.0086081000045	1746.0297189999835	1747.047052500071	1748.0759137000423	1749.0799583999906	1750.1931247999892	2020-02-11 16:30:57.629321	0.607926126928986	0.0	1.89198688192332	1.89198688192332	1.28406075499433	1.89198688192332	-0.607926126928986	1.89198688192332	0.0	1.89198688192332	1.28406075499433	-1.89198688192332	-4.182257680839115	-1.87161277521137	0.996058861688822	-1.6083413555015726	-1.0594049777574197	0.996058861688822	-2.6313777706453436	-2.1228018984538544	2.059455782385256	-1.6822663789381063	0.8067124654155591	3	correct	1.0
411.5208276000342	8.253101099980768	nogo_reward	0.3000850998796522	411.5424745001367	413.2928454000503	415.83918780018575	1.7503708999136052	412.5454494000878	414.81841230019927	418.88040750008076	0.747395999962464	1.0207754999864846	0.9151681000366807	417.8601769001689	0.7384635000489652	416.8484193000477	2	1	48	3	nogo_reward	1	0	1	0	1	0	0	0.0	1.0	0	0.3000850998796522	0.7384635000489652	1338.6948823998682	1750.237356900005	1751.240331799956	1751.9877277999185	1753.5132947000675	1754.534070200054	1755.543301699916	1756.555059300037	1757.575289899949	1758.4904579999857	2020-02-11 16:30:57.629321	4.52496690257364	3.71998015828567	2.09503578798845	4.61430729690884	6.62000269056209	2.09503578798845	-4.52496690257364	3.71998015828567	2.09503578798845	6.62000269056209	2.09503578798845	-3.71998015828567	-0.2652169051944613	1.8483673830743	1.1991077677539517	1.1139790594839472	4.27653695781034	1.1991077677539517	-4.459371047007694	2.605213910184915	2.8704308153793763	0.1457268974242436	2.901748253404009	3	correct	1.0
419.81744830007665	8.886302300030138	nogo_reward	0.3693226999603212	419.83909520017914	422.2745912000537	424.81704230001196	2.435495999874547	420.84658640017733	423.79744540015236	427.8570038999899	1.428004799876362	1.0195968998596072	0.8683936002194059	426.84403480007313	0.7534012000542134	425.83445080020465	2	1	49	3	nogo_reward	1	0	1	0	1	0	0	0.0	1.0	0	0.3693226999603212	0.7534012000542134	1338.6948823998682	1758.5339776000474	1759.5414688000455	1760.969473599922	1762.4923278000206	1763.5119246998802	1764.5293332000729	1765.5389171999414	1766.551886299858	1767.4202799000775	2020-02-11 16:30:57.629321	3.90946632037319	3.3718394964329	2.09503578798845	4.18448055725061	6.00450210836164	2.09503578798845	-3.90946632037319	3.3718394964329	2.09503578798845	6.00450210836164	2.09503578798845	-3.3718394964329	-0.8807174873949113	1.5002267212215301	1.1991077677539517	0.6841523198257171	3.6610363756098905	1.1991077677539517	-4.111230385154924	1.9897133279844654	2.8704308153793763	-0.2024137644285262	2.901748253404009	3	correct	1.0
428.74526780005544	9.011091199936345	go_punish	0.2895200999919325	428.76691470015794	431.3803580000531	433.9390620000195	2.6134432998951524	429.7672729000915	432.91877980018035	436.9735673000105	1.6130850999616086	1.02028219983913	0.8044386000838131	435.9699528000781	0.5074577999766916	434.9584145001136	2	1	50	2	go_punish	1	0	-1	1	1	1	0	0.0	1.0	0	0.2895200999919325	0.5074577999766916	1338.6948823998682	1767.4617971000262	1768.4621552999597	1770.0752403999213	1771.6136622000486	1772.6339443998877	1773.6532968999818	1774.6648351999463	1775.6684496998787	1776.4728882999625	2020-02-11 16:30:57.629321	2.61638979080226	0.0	-4.4093717521398	-3.14778687586408	-1.79298196133754	-4.4093717521398	-2.61638979080226	0.0	-4.4093717521398	-1.79298196133754	-4.4093717521398	0.0	-2.173794016965841	-1.87161277521137	-5.3052997723742985	-6.648115113288973	-4.13644769408929	-5.3052997723742985	-0.7393908887220234	-5.807770741714714	-3.633976724748874	-3.5742532608614264	-3.6026592867242413	3	correct	1.0
437.78244210011326	8.158911399776116	nogo_punish	1.0	437.80408900021575	439.4811114000622	442.00933430017903	1.6770223998464644	438.8090572000947	440.99616640014574	445.0571055000182	0.6720541999675333	1.0131679000332952	0.9058948999736458	444.0436591000762	0.7207593999337405	443.01616590004414	2	1	51	1	nogo_punish	1	-1	0	0	0	1	0	0.0	1.0	0	1.0	0.7207593999337405	1338.6948823998682	1776.498971400084	1777.503939599963	1778.1759937999304	1779.691048800014	1780.7042167000473	1781.7110482999124	1782.7385414999444	1783.7519878998864	1784.65788279986	2020-02-11 16:30:57.629321	1.1042922392283	-1.06935503485069	0.0	-0.278566526515421	-1.1042922392283	0.0	-1.1042922392283	0.0	-1.06935503485069	0.0	-1.1042922392283	0.0	-3.685891568539801	-2.9409678100620598	-0.8959280202344981	-3.778894763940314	-3.4477579719800495	-0.8959280202344981	-0.7393908887220234	-4.014788780377175	-0.32889721183737386	-3.5742532608614264	-0.26264256943513087	3	correct	1.0
445.96676360000856	8.08291730005294	go_reward	1.0	445.98841050011106	447.5261860000901	450.0647001001055	1.537775499979034	446.9857535001356	449.04129409999587	453.1091683001721	0.540432499954477	1.0234060001096168	0.9621594999919125	452.10502860019915	0.4477307999040931	451.08696480002254	2	1	52	4	go_reward	0	0	1	1	0	0	0	0.0	1.0	1	1.0	0.4477307999040931	1338.6948823998682	1784.6832928999793	1785.6806359000038	1786.2210683999583	1787.736176499864	1788.7595824999737	1789.7818471998908	1790.7999110000674	1791.8040507000403	1792.7662102000322	2020-02-11 16:30:57.629321	0.540944281442101	0.0	1.7099688687632	1.7099688687632	1.1690245873211	1.7099688687632	-0.540944281442101	1.7099688687632	0.0	1.7099688687632	1.1690245873211	21.635919219454102	-4.249239526326	-1.87161277521137	0.8140408485287018	-1.7903593686616928	-1.1744411454306496	0.8140408485287018	20.896528330732078	-2.3048199116139747	1.9444196147120263	-1.8642843920982264	0.8067124654155591	3	correct	1.0
454.0933590999339	8.388175900094211	go_punish	0.2859716000966728	454.1150060000364	455.92780360020697	458.4699819001835	1.8127976001705974	455.114678400103	457.4492749001365	461.5175214000046	0.8131252001039684	1.0207070000469685	0.9856605001259595	460.51429740013555	0.5940205999650061	459.48588020005263	2	1	53	2	go_punish	1	0	-1	1	1	1	0	1.0	0.0	0	0.2859716000966728	0.5940205999650061	1338.6948823998682	1792.8098883999046	1793.8095607999712	1794.6226860000752	1796.1441573000047	1797.1648643000517	1798.1807625999209	1799.2091798000038	1800.2124037998728	1801.1980642999988	2020-02-11 16:30:57.629321	2.80226002722508	0.0	-4.4093717521398	-2.85573653933506	-1.60711172491472	-4.4093717521398	-2.80226002722508	0.0	-4.4093717521398	-1.60711172491472	-4.4093717521398	0.0	-1.9879237805430212	-1.87161277521137	-5.3052997723742985	-6.356064776759952	-3.9505774576664696	-5.3052997723742985	-0.7393908887220234	-5.621900505291895	-3.633976724748874	-3.5742532608614264	-3.6026592867242413	3	wrong	1.0
462.5275131999515	8.881249299971387	nogo_reward	0.2648004000075161	462.549160100054	464.8785166000014	467.4199711000547	2.32935649994738	463.55073690018617	466.3981579001993	470.4793082000688	1.3277796998152098	1.0218131998553872	0.9511011999566108	469.46660200017527	0.3708949000574648	468.4381249002181	2	1	54	3	nogo_reward	1	0	1	0	1	0	0	0.0	1.0	0	0.2648004000075161	0.3708949000574648	1338.6948823998682	1801.2440424999222	1802.2456193000544	1803.5733989998696	1805.0930403000675	1806.114853499923	1807.1330073000863	1808.1614844000435	1809.174190599937	1810.1252917998936	2020-02-11 16:30:57.629321	3.35631941891394	3.0585480914865	2.09503578798845	3.79749062047782	5.45135520690239	2.09503578798845	-3.35631941891394	3.0585480914865	2.09503578798845	5.45135520690239	2.09503578798845	-3.0585480914865	-1.4338643888541611	1.1869353162751302	1.1991077677539517	0.2971623830529273	3.10788947415064	1.1991077677539517	-3.7979389802085235	1.4365664265252152	2.8704308153793763	-0.5157051693749262	2.901748253404009	3	correct	1.0
471.4332292999609	7.867379300063249	go_reward	1.0	471.4548762000634	472.80558839999185	475.33651769999415	1.3507121999284664	472.45779580017575	474.3165034002159	478.3751176001965	0.34779259981610267	1.0200142997782677	0.9471378999301123	477.3724896002093	0.3111889997962862	476.35356100019976	2	1	55	4	go_reward	1	1	0	1	0	0	0	0.0	1.0	0	1.0	0.3111889997962862	1338.6948823998682	1810.1497585999316	1811.152678200044	1811.50047079986	1813.011385800084	1814.0314000998624	1815.048443400068	1816.0673720000775	1817.0700000000647	1818.0171378999949	2020-02-11 16:30:57.629321	1.29147679915547	0.0	3.64169844061712	3.64169844061712	2.35022164146165	3.64169844061712	-1.29147679915547	3.64169844061712	0.0	3.64169844061712	2.35022164146165	-3.64169844061712	-3.498707008612631	-1.87161277521137	2.745770420382622	0.14137020319222726	0.006755908709900282	2.745770420382622	-4.381089329339144	-0.3730903397600547	3.125616668852576	0.06744517975569364	0.8067124654155591	3	correct	1.0
479.34491569991224	9.525759299984202	go_punish	0.2499488999601453	479.36656260001473	481.79977979999967	484.3394912001677	2.433217199984938	480.37222340004496	483.3243093001654	487.39917060011066	1.4275563999547103	1.0151819000022897	1.4931512998882681	486.3787622000091	0.4192660001572221	485.3545981000641	2	1	56	2	go_punish	0	-1	0	1	1	1	0	1.0	0.0	-1	0.2499488999601453	0.4192660001572221	1338.6948823998682	1818.061444999883	1819.0671057999132	1820.494662199868	1822.0191917000336	1823.034373600036	1824.0494804999323	1825.0736445998773	1826.0940529999789	1827.5872042998672	2020-02-11 16:30:57.629321	2.96856800195676	0.0	-4.4093717521398	-2.59329902019264	-1.44080375018304	-4.4093717521398	-2.96856800195676	0.0	-4.4093717521398	-1.44080375018304	-4.4093717521398	-12.1226607520425	-1.8216158058113412	-1.87161277521137	-5.3052997723742985	-6.093627257617532	-3.7842694829347896	-5.3052997723742985	-12.862051640764523	-5.455592530560215	-3.633976724748874	-3.5742532608614264	-3.6026592867242413	3	wrong	1.0
488.9150115000084	8.410537400049634	nogo_reward	0.3591229000594467	488.9366584001109	490.5056215000807	493.0477962000293	1.5689630999697783	489.94315170007735	492.0247084000148	496.0969161000103	0.5624698000033277	1.0230878000145367	1.2502797001502586	495.0839111001694	0.4014900999609381	494.0653406002091	2	1	57	3	nogo_reward	1	0	1	0	1	0	0	0.0	1.0	0	0.3591229000594467	0.4014900999609381	1338.6948823998682	1827.6315407999791	1828.6380340999456	1829.200503899949	1830.719590799883	1831.7426785998975	1832.7602230000773	1833.7787935000376	1834.7917984998785	1836.0420782000288	2020-02-11 16:30:57.629321	2.85881812902236	2.77639889858627	2.09503578798845	3.44880113565626	4.95385391701081	2.09503578798845	-2.85881812902236	2.77639889858627	2.09503578798845	4.95385391701081	2.09503578798845	-2.77639889858627	-1.931365678745741	0.9047861233749002	1.1991077677539517	-0.05152710176863273	2.6103881842590604	1.1991077677539517	-3.5157897873082935	0.9390651366336353	2.8704308153793763	-0.7978543622751562	2.901748253404009	3	correct	1.0
497.37573569989763	9.736660400172696	nogo_reward	0.3091467001941055	497.3973826000001	500.1706157000733	502.7128392001614	2.7732331000731847	498.40382700017653	501.6922267000193	505.7774911001327	1.7667886998967788	1.0206125001420787	1.356551900040131	504.7645990999881	0.6271021000575274	503.73679400002584	2	1	58	3	nogo_reward	1	0	1	0	1	0	0	0.0	1.0	0	0.3091467001941055	0.6271021000575274	1338.6948823998682	1836.0922649998683	1837.0987094000448	1838.8654980999415	1840.3871090998875	1841.4077216000296	1842.431676399894	1843.4594814998563	1844.472373500001	1845.828925400041	2020-02-11 16:30:57.629321	2.41101993924017	2.52210333057374	2.09503578798845	3.13438532788702	4.50605572722862	2.09503578798845	-2.41101993924017	2.52210333057374	2.09503578798845	4.50605572722862	2.09503578798845	-2.52210333057374	-2.379163868527931	0.6504905553623699	1.1991077677539517	-0.36594290953787256	2.1625899944768707	1.1991077677539517	-3.261494219295763	0.4912669468514457	2.8704308153793763	-1.0521499302876864	2.901748253404009	3	correct	1.0
507.15539549989626	8.19430860015541	go_punish	1.0	507.17704239999875	508.747872300213	511.2764328999913	1.5708299002142212	508.1847643000078	510.2626647001598	514.3158487000037	0.5631080002051476	1.0137681998314747	1.055502300150465	513.3026981002185	0.5857274001464248	512.2821145001799	2	1	59	2	go_punish	1	0	-1	1	0	0	0	0.0	1.0	-1	1.0	0.5857274001464248	1338.6948823998682	1845.871924799867	1846.879646699876	1847.4427547000812	1848.957547100028	1849.9713152998595	1850.976996900048	1851.9975805000868	1853.010731099872	1854.0662334000224	2020-02-11 16:30:57.629321	-1.38065503073943	-1.06935503485069	-4.4093717521398	-3.4265635176455	-3.02871672140037	-4.4093717521398	1.38065503073943	-4.4093717521398	-1.06935503485069	-4.4093717521398	-3.02871672140037	-7.713288999902699	-6.170838838507532	-2.9409678100620598	-5.3052997723742985	-6.926891755070393	-5.372182454152119	-5.3052997723742985	-8.452679888624722	-8.424160532516975	-2.2533216940094434	-7.983625013001227	-0.26264256943513087	3	correct	1.0
515.3760321000589	9.01488030003452	go_reward	1.0	515.3976790001614	517.4526703001466	519.9908805000598	2.054991299985204	516.4045274001546	518.9678250001741	523.0285665001718	1.0481428999919444	1.023055499885686	1.3839928000240889	522.0242760002147	0.3972062000539154	521.0056069002021	2	1	60	4	go_reward	0	0	1	1	0	0	0	0.0	1.0	1	1.0	0.3972062000539154	1338.6948823998682	1854.0925614000296	1855.0994098000228	1856.1475527000148	1857.6627074000423	1858.685762899928	1859.7004893000703	1860.719158400083	1861.72344890004	1863.107441700064	2020-02-11 16:30:57.629321	1.16259504108479	0.0	3.29200871808771	3.29200871808771	2.12941367700292	3.29200871808771	-1.16259504108479	3.29200871808771	0.0	3.29200871808771	2.12941367700292	20.05387937012959	-3.627588766683311	-1.87161277521137	2.3960806978532116	-0.20831951933718296	-0.21405205574882968	2.3960806978532116	19.314488481407565	-0.7227800622894649	2.9048087043938464	-0.2822445427737166	0.8067124654155591	3	correct	1.0
