onset	duration	trial_type	response_time	cueOnset	targetOnset	fbOnset	cueRT	firstfixOnset	secondfixOnset	waitOnset	firstfixdur	secondfixdur	waitdur	nback_fbOnset	nback_response_time	nback_targetOnset	block	wm	trial	cue	cond	is_common	outcome_go	outcome_nogo	key_correct	key_pressed	is_correct	key_correct_nback	key_pressed_nback	is_correct_nback	outcome	rt	rt_nback	time_scan	time_onset	time_isi1	time_circle	time_isi2	time_feedback	time_same	time_correct	time_iti	time_done	timestamp_scan	DV	Qgo	Qnogo	SV	Wgo	Wnogo	mDV	Qchosen	Qunchosen	Wchosen	Wunchosen	PE	DVC	QgoC	QnogoC	SVC	WgoC	WnogoC	PEC	WchosenC	WunchosenC	QchosenC	QunchosenC	run	outcome_nback	nback_targetResp
0.0	9.38793769991048	go_punish	0.3396819999907166	0.028806700137920416	2.446750500006374	4.995059099979244	2.4179437998684534	1.0240468000988585	3.9776032001243493	8.033192100002907	1.4227036999075153	1.0174558998548946	1.3835523000454941	7.0189364000686965	1.0	6.008661899948493	2	1	61	2	go_punish	1	0	-1	1	1	1	1	n/a	0.0	-1	0.3396819999907166	1.0	1927.5100670999384	1927.5388738000763	1928.5341139000373	1929.9568175999448	1931.4876703000627	1932.5051261999176	1933.518728999887	1934.529003500007	1935.5432591999413	1936.9268114999868	2020-02-11 16:40:46.438285	1.56182182052055	-1.06935503485069	-5.05666027492472	-4.17906181786442	-3.49483845440417	-5.05666027492472	-1.56182182052055	-1.06935503485069	-5.05666027492472	-3.49483845440417	-5.05666027492472	1.06935503485069	-3.228361987247551	-2.9409678100620598	-5.952588295159218	-7.679390055289312	-5.83830418715592	-5.952588295159218	0.32996414612866654	-7.509627234781345	-4.281265247533794	-4.6436082957121165	-4.249947809509161	4	missed	0.0
9.413656699936837	8.771468499908451	go_reward	0.7952330000698566	9.442463400074757	11.144285500049591	13.70548469992309	1.7018220999748337	10.458176699932437	12.682888299925253	16.75369779998391	0.6861088001171538	1.0225963999978376	1.4602340999992975	15.734821300022077	1.0	14.725449400022399	2	1	62	4	go_reward	1	1	0	1	1	1	1	n/a	0.0	0	0.7952330000698566	1.0	1927.5100670999384	1936.9525305000132	1937.9682437998708	1938.654352599988	1940.1929553998636	1941.2155517998615	1942.2355164999608	1943.2448883999605	1944.2637648999223	1945.7239989999216	2020-02-11 16:40:46.438285	-1.85721829936962	0.0	5.0732429633342	5.0732429633342	3.21602466396458	5.0732429633342	1.85721829936962	0.0	5.0732429633342	3.21602466396458	5.0732429633342	23.3458880882173	-6.647402107137721	-1.87161277521137	4.177314943099702	1.5729147259093077	0.8725589312128306	4.177314943099702	22.606497199495276	-0.7987641164125945	5.848637990725127	-3.5742532608614264	5.87995542874976	4	missed	0.0
18.209810399916478	7.968132599955197	go_reward	0.4105337001383304	18.238617100054398	19.803960999939136	22.348497200058546	1.5653438998847378	19.249429099960025	21.325112499994702	25.400836700107675	0.5545318999791107	1.0233847000638434	0.8059129999019206	24.385866099968325	0.5440412999596447	23.36241269996367	2	1	63	4	go_reward	1	1	0	1	1	1	0	0.0	1.0	1	0.4105337001383304	0.5440412999596447	1927.5100670999384	1945.7486841999928	1946.7594961998984	1947.3140280998775	1948.835179599933	1949.858564299997	1950.872479799902	1951.8959331999067	1952.910903800046	1953.716816799948	2020-02-11 16:40:46.438285	-2.16268365758741	0.0	5.0732429633342	4.58836206592507	2.91055930574679	5.0732429633342	2.16268365758741	0.0	5.0732429633342	2.91055930574679	5.0732429633342	23.3458880882173	-6.952867465355512	-1.87161277521137	4.177314943099702	1.0880338285001772	0.5670935729950402	4.177314943099702	22.606497199495276	-1.104229474630385	5.848637990725127	-3.5742532608614264	5.87995542874976	4	correct	1.0
26.221734799910564	8.512521099997912	nogo_reward	0.5093382000923157	26.250541500048485	28.304115500068065	30.854486600029986	2.05357400001958	27.257766500115167	29.84104249998927	33.913055400130816	1.0463489999528974	1.013444100040715	0.8500071999155807	32.90018050000049	0.5084545998834074	31.871966999955248	2	1	64	3	nogo_reward	1	0	1	0	1	0	0	0.0	1.0	0	0.5093382000923157	0.5084545998834074	1927.5100670999384	1953.7606085999869	1954.7678336000536	1955.8141826000065	1957.3511095999277	1958.3645536999684	1959.3820340998936	1960.4102475999389	1961.4231225000692	1962.2731296999848	2020-02-11 16:40:46.438285	2.00765490687164	2.29274098000168	2.09503578798845	2.85066511841261	4.10269069486009	2.09503578798845	-2.00765490687164	2.29274098000168	2.09503578798845	4.10269069486009	2.09503578798845	-2.29274098000168	-2.782528900896461	0.42112820479031	1.1991077677539517	-0.6496631190122826	1.7592249621083407	1.1991077677539517	-3.0321318687237033	0.08790191448291562	2.8704308153793763	-1.2815122808597463	2.901748253404009	4	correct	1.0
34.762576099951275	8.434320800005935	nogo_punish	0.3669394000899046	34.791382800089195	36.29746229993157	38.84231570013753	1.5060794998423717	35.7982405000364	37.81895769992798	41.87334079993866	0.49922179989516735	1.023358000209555	1.3523628001564703	40.86925590014994	0.8788606999441981	39.84650620003208	2	1	65	1	nogo_punish	1	-1	0	0	1	0	0	0.0	1.0	-1	0.3669394000899046	0.8788606999441981	1927.5100670999384	1962.3014499000276	1963.3083075999748	1963.80752939987	1965.3290247998664	1966.352382800076	1967.3565732999705	1968.3793230000883	1969.383407899877	1970.7357707000335	2020-02-11 16:40:46.438285	-1.08968054465893	-1.06935503485069	0.0	-0.254742406068319	-1.08968054465893	0.0	1.08968054465893	-1.06935503485069	0.0	-1.08968054465893	0.0	-11.05330571719181	-5.879864352427031	-2.9409678100620598	-0.8959280202344981	-3.7550706434932115	-3.4331462774106796	-0.8959280202344981	-11.792696605913834	-5.104469325036105	0.7753950273909263	-4.6436082957121165	0.8067124654155591	4	correct	1.0
43.220616000005975	9.628785599954654	go_reward	0.2806957999709993	43.249422700143896	45.86713870009362	48.424651599954586	2.6177159999497235	44.25070580001875	47.40181339997753	51.487307300092425	1.6164329000748694	1.022838199977059	1.3909010000061244	50.47674180008448	0.4054340000730008	49.43997290008633	2	1	66	4	go_reward	1	1	0	1	1	1	0	1.0	0.0	1	0.2806957999709993	0.4054340000730008	1927.5100670999384	1970.7594898000823	1971.7607728999571	1973.377205800032	1974.911880499916	1975.934718699893	1976.9500400000247	1977.9868089000229	1978.9973744000308	1980.388275400037	2020-02-11 16:40:46.438285	0.943127754990956	2.09503578798845	5.0732429633342	6.24805434902507	6.01637071832516	5.0732429633342	-0.943127754990956	2.09503578798845	5.0732429633342	6.01637071832516	5.0732429633342	21.25085230022885	-3.847056052777145	0.22342301277707977	4.177314943099702	2.747726111600177	3.67290498557341	4.177314943099702	20.511461411506826	2.001581937947985	5.848637990725127	-1.4792174728729766	5.87995542874976	4	wrong	1.0
52.89357329998211	8.47755269985646	go_punish	0.2961394998710602	52.92238000012003	54.6013495000077	57.15512190014124	1.6789694998876712	53.93965340009868	56.134048199979134	60.1882243000432	0.6616960999090225	1.0210737001621055	1.2117083999332863	59.184472399996366	0.2850645000580698	58.17144119995601	2	1	67	2	go_punish	1	0	-1	1	1	1	0	0.0	1.0	0	0.2961394998710602	0.2850645000580698	1927.5100670999384	1980.4324471000584	1981.449720500037	1982.111416599946	1983.6441152999175	1984.6651890000796	1985.6815082998944	1986.6945394999348	1987.6982913999816	1988.9099997999149	2020-02-11 16:40:46.438285	0.177218144407961	-2.03447087633316	-5.05666027492472	-4.85939285024401	-4.87944213051676	-5.05666027492472	-0.177218144407961	-2.03447087633316	-5.05666027492472	-4.87944213051676	-5.05666027492472	2.03447087633316	-4.61296566336014	-3.90608365154453	-5.952588295159218	-8.359721087668902	-7.22290786326851	-5.952588295159218	1.2950799876111367	-8.894230910893935	-4.281265247533794	-5.608724137194587	-4.249947809509161	4	correct	1.0
61.39630779996537	8.565085399895906	go_reward	0.3967178000602871	61.42511450010329	63.199751799925934	65.75026959995762	1.7746372998226434	62.43558880011528	64.72562750009797	68.78488870011597	0.764162999810651	1.0246420998596477	1.2053111998832264	67.77760000014655	0.5062929000705481	66.76515999995149	2	1	68	4	go_reward	1	1	0	1	1	1	1	0.0	0.0	1	0.3967178000602871	0.5062929000705481	1927.5100670999384	1988.9351816000417	1989.9456559000537	1990.7098188998643	1992.2356946000364	1993.260336699896	1994.27522709989	1995.287667100085	1996.2949558000544	1997.5002669999376	2020-02-11 16:40:46.438285	3.7456868305627	3.98702266991177	5.0732429633342	7.74885184378156	8.8189297938969	5.0732429633342	-3.7456868305627	3.98702266991177	5.0732429633342	8.8189297938969	5.0732429633342	19.35886541830553	-1.0444969772054011	2.1154098947004	4.177314943099702	4.248523606356668	6.47546406114515	4.177314943099702	18.619474529583506	4.8041410135197244	5.848637990725127	0.41276940905034376	5.87995542874976	4	wrong	1.0
70.0074261999689	8.654974499950868	nogo_reward	0.2939400000032037	70.03623290010682	71.89045280008554	74.4449404000768	1.854219899978716	71.03175329999044	73.42159330006666	77.49495070008561	0.8586995000950992	1.0233471000101417	1.196256699972082	76.48122099996567	0.4147739000618458	75.45272650010861	2	1	69	3	nogo_reward	1	0	1	0	1	0	0	0.0	1.0	0	0.2939400000032037	0.4147739000618458	1927.5100670999384	1997.5463000000452	1998.5418203999288	1999.400519900024	2000.931660400005	2001.9550075000152	2002.962793600047	2003.991288099904	2005.005017800024	2006.201274499996	2020-02-11 16:40:46.438285	1.64404477819394	2.08571581666812	2.09503578798845	2.59445803222812	3.73908056618239	2.09503578798845	-1.64404477819394	2.08571581666812	2.09503578798845	3.73908056618239	2.09503578798845	-2.08571581666812	-3.146139029574161	0.21410304145674974	1.1991077677539517	-0.9058702051967726	1.3956148334306402	1.1991077677539517	-2.825106705390143	-0.27570821419478486	2.8704308153793763	-1.4885374441933066	2.901748253404009	4	correct	1.0
78.6879579999952	8.750328699825332	go_reward	0.3121176999993622	78.71676470013313	80.52835600008234	83.08010390005052	1.8115912999492139	79.7157185999672	82.06045609991952	86.14544540015049	0.8126374001151362	1.019647800130997	1.3216479998079649	85.13418069994054	0.4424252999015152	84.0981538000051	2	1	70	4	go_reward	0	0	1	1	1	1	1	1.0	1.0	0	0.3121176999993622	0.4424252999015152	1927.5100670999384	2006.2268318000715	2007.2257856999056	2008.0384231000207	2009.570523199858	2010.590170999989	2011.6082208999435	2012.644247799879	2013.655512500089	2014.9771604998969	2020-02-11 16:40:46.438285	6.27661879554193	5.69699153867497	5.0732429633342	9.10702466436182	11.3498617588761	5.0732429633342	-6.27661879554193	5.69699153867497	5.0732429633342	11.3498617588761	5.0732429633342	-5.69699153867497	1.486434987773829	3.8253787634636	4.177314943099702	5.606696426936927	9.006396026124351	4.177314943099702	-6.436382427396993	7.335072978498926	5.848637990725127	2.1227382778135437	5.87995542874976	4	correct	1.0
87.46633979980857	8.15991160017461	go_reward	0.6880165999755263	87.49514649994649	88.83041059994162	91.39007890014909	1.335264099995129	88.50299710011996	90.3667947000356	94.43554750015005	0.32741349982165957	1.023284200113494	1.219510599971045	93.4328018000815	0.3384244998451322	92.40396969998233	2	1	71	4	go_reward	1	1	0	1	1	1	0	0.0	1.0	1	0.6880165999755263	0.3384244998451322	1927.5100670999384	2015.0052135998849	2016.0130642000584	2016.34047769988	2017.876861799974	2018.9001460000875	2019.9140367999207	2020.94286890002	2021.9456146000884	2023.1651252000595	2020-02-11 16:40:46.438285	5.18497663865951	5.14861840331519	5.0732429633342	8.24203355370197	10.2582196019937	5.0732429633342	-5.18497663865951	5.14861840331519	5.0732429633342	10.2582196019937	5.0732429633342	18.19726968490211	0.3947928308914088	3.27700562810382	4.177314943099702	4.741705316277078	7.914753869241951	4.177314943099702	17.457878796180086	6.243430821616525	5.848637990725127	1.5743651424537637	5.87995542874976	4	correct	1.0
95.65043209982127	8.533178900135681	go_reward	0.3676388000603765	95.6792387999592	97.18976749991953	99.74918120005123	1.5105286999603322	96.6908132000824	98.72168570011831	102.79712760006055	0.49895429983712347	1.0274954999329111	1.4152901000343263	101.79397460003361	0.4213465999346226	100.76509939995572	2	1	72	4	go_reward	1	1	0	1	1	1	1	1.0	1.0	1	0.3676388000603765	0.4213465999346226	1927.5100670999384	2023.1893058998976	2024.2008803000208	2024.699834599858	2026.2317528000567	2027.2592482999896	2028.275166499894	2029.304041699972	2030.307194699999	2031.7224848000333	2020-02-11 16:40:46.438285	7.58576330717629	6.75168914554471	5.0732429633342	9.55992793223989	12.6590062705105	5.0732429633342	-7.58576330717629	6.75168914554471	5.0732429633342	12.6590062705105	5.0732429633342	16.59419894267259	2.7955794994081886	4.88007637033334	4.177314943099702	6.059599694814998	10.315540537758752	4.177314943099702	15.854808053950567	8.644217490133325	5.848637990725127	3.177435884683284	5.87995542874976	4	correct	1.0
104.20905549987242	8.34532710001804	go_reward	1.0	104.23786220001034	105.60998930013761	108.13757320004515	1.3721271001272726	105.25105979992054	107.1253943999759	111.19273369992152	0.3589295002170729	1.0121788000692504	1.3904556001068613	110.17941270000233	0.4433820999693125	109.15503050014354	2	1	73	4	go_reward	1	1	0	1	0	0	1	1.0	1.0	0	1.0	0.4433820999693125	1927.5100670999384	2031.7479292999487	2032.761126899859	2033.120056400076	2034.6354614999143	2035.6476402999835	2036.665097600082	2037.6894797999407	2038.70280079986	2040.0932563999668	2020-02-11 16:40:46.438285	-9.7555429667044	8.20194546528738	5.0732429633342	10.7531339134001	14.8287859300386	5.0732429633342	9.7555429667044	5.0732429633342	8.20194546528738	5.0732429633342	14.8287859300386	-5.0732429633342	-14.545726774472502	6.330332690076011	4.177314943099702	7.252805675975208	12.485320197286851	4.177314943099702	-5.812633852056224	1.0584541829570258	15.604180957429527	1.498989702472774	9.00865793070294	4	correct	1.0
112.57823589979694	8.660854000132531	go_reward	0.3682831998448819	112.60704259993486	114.18695200001798	116.73424270004011	1.5799094000831246	113.61875439993992	115.71416259999364	119.7889805000741	0.5681976000780651	1.0200801000464708	1.4789160999932847	118.7714287000706	0.5006788999307901	117.75270149996481	2	1	74	4	go_reward	0	0	1	1	1	1	1	1.0	1.0	0	0.3682831998448819	0.5006788999307901	1927.5100670999384	2040.1171096998733	2041.1288214998783	2041.6970190999564	2043.224229699932	2044.2443097999785	2045.2627685999032	2046.281495800009	2047.2990476000125	2048.777963700006	2020-02-11 16:40:46.438285	9.60591006080063	8.20194546528738	4.58836206592507	9.73924743866578	14.1942721267257	4.58836206592507	-9.60591006080063	8.20194546528738	4.58836206592507	14.1942721267257	4.58836206592507	-8.20194546528738	4.815726253032529	6.330332690076011	3.6924340456905718	6.238919201240887	11.85080639397395	3.6924340456905718	-8.941336354009405	10.179483346348526	5.363757093315996	4.627692204425954	5.395074531340629	4	correct	1.0
121.26399389980384	9.14247790002264	go_reward	0.4425192999187857	121.29280059994176	123.87993729999266	126.42766549997009	2.5871367000509053	122.30332930013469	125.41474850010104	129.48207170004002	1.5766079998579698	1.0129169998690486	0.9532067999243736	128.46915040002182	0.4840522999875247	127.43824990000553	2	1	75	4	go_reward	1	1	0	1	1	1	1	1.0	1.0	1	0.4425192999187857	0.4840522999875247	1927.5100670999384	2048.80286769988	2049.813396400073	2051.390004399931	2052.9248156000394	2053.9377325999085	2054.948316999944	2055.97921749996	2056.9921387999784	2057.945345599903	2020-02-11 16:40:46.438285	8.25544904008446	7.41992842480653	4.58836206592507	8.82762209749857	12.8438111060095	4.58836206592507	-8.25544904008446	7.41992842480653	4.58836206592507	12.8438111060095	4.58836206592507	15.92595966341077	3.4652652323163595	5.54831564959516	3.6924340456905718	5.327293860073678	10.500345373257751	3.6924340456905718	15.186568774688746	8.829022325632327	5.363757093315996	3.8456751639451037	5.395074531340629	4	correct	1.0
130.45005239988745	8.343342100036807	go_punish	0.4036151999607682	130.47885910002537	131.813728299923	134.369435300119	1.3348691998976392	131.48602900002174	133.35179230011977	137.4162008001001	0.3276992999012691	1.0176429999992251	1.4060003999620676	136.4025815001221	0.3809320998843759	135.3853891000615	2	1	76	2	go_punish	1	0	-1	1	1	1	0	0.0	1.0	0	0.4036151999607682	0.3809320998843759	1927.5100670999384	2057.9889261999638	2058.99609609996	2059.3237953998614	2060.861859400058	2061.8795024000574	2062.8954562	2063.9126486000605	2064.9262679000385	2066.3322683000006	2020-02-11 16:40:46.438285	0.66414717833016	-1.83712487919021	-5.05666027492472	-4.40579667958648	-4.39251309659456	-5.05666027492472	-0.66414717833016	-1.83712487919021	-5.05666027492472	-4.39251309659456	-5.05666027492472	1.83712487919021	-4.126036629437941	-3.70873765440158	-5.952588295159218	-7.906124917011373	-6.73597882934631	-5.952588295159218	1.0977339904681864	-8.407301876971735	-4.281265247533794	-5.411378140051636	-4.249947809509161	4	correct	1.0
138.82062109978847	8.207913700025983	nogo_punish	1.0	138.8494277999264	140.50400070007868	143.0397725999353	1.6545729001522886	139.84714690013766	142.0195748999247	146.09526129998244	0.6568537999410182	1.0201977000106126	0.9620801999699324	145.0820549000057	0.3898547999560833	144.05649990006327	2	1	77	1	nogo_punish	1	-1	0	0	0	1	0	0.0	1.0	0	1.0	0.3898547999560833	1927.5100670999384	2066.359494899865	2067.357214000076	2068.014067800017	2069.529641999863	2070.5498396998737	2071.5665670000017	2072.592121999944	2073.605328399921	2074.5674085998908	2020-02-11 16:40:46.438285	2.70913682018757	-2.03447087633316	0.0	-1.30249693450601	-2.70913682018757	0.0	-2.70913682018757	0.0	-2.03447087633316	0.0	-2.70913682018757	0.0	-2.0810469875805313	-3.90608365154453	-0.8959280202344981	-4.802825171930903	-5.0526025529393195	-0.8959280202344981	-0.7393908887220234	-4.014788780377175	-1.9337417927966436	-3.5742532608614264	-1.227758410917601	4	correct	1.0
147.07376619987213	9.845250900136307	nogo_reward	0.2662350998725742	147.10257290001005	149.87704159994587	152.40434790006816	2.7744686999358237	148.1081461999563	151.39838390005775	155.44927570014238	1.7688953999895602	1.0059640000104082	1.4985481000039726	154.44384970003762	0.5424919999204576	153.42185100004986	2	1	78	3	nogo_reward	1	0	1	0	1	0	0	0.0	1.0	0	0.2662350998725742	0.5424919999204576	1927.5100670999384	2074.6126399999484	2075.6182132998947	2077.3871086998843	2078.908450999996	2079.9144150000066	2080.9319180999883	2081.953916799976	2082.959342800081	2084.4578909000847	2020-02-11 16:40:46.438285	1.31603250963375	1.89871795744057	2.09503578798845	2.36293081597493	3.4110682976222	2.09503578798845	-1.31603250963375	1.89871795744057	2.09503578798845	3.4110682976222	2.09503578798845	-1.89871795744057	-3.474151298134351	0.027105182229199887	1.1991077677539517	-1.137397421449963	1.0676025648704504	1.1991077677539517	-2.6381088461625932	-0.6037204827549747	2.8704308153793763	-1.6755353034208564	2.901748253404009	4	correct	1.0
156.945870399941	8.126491999952123	go_reward	0.3463255001697689	156.9746771000789	158.75690790009662	161.3046802000606	1.7822308000177145	157.9848154999779	160.2894508000461	164.3449190999379	0.7720924001187086	1.0152294000145048	0.7562500000931323	163.33200619998365	0.3814129000529647	162.31992470007367	2	1	79	4	go_reward	1	1	0	1	1	1	0	0.0	1.0	1	0.3463255001697689	0.3814129000529647	1927.5100670999384	2084.4847442000173	2085.4948825999163	2086.266975000035	2087.7995178999845	2088.814747299999	2089.829991800012	2090.842073299922	2091.8549861998763	2092.6112361999694	2020-02-11 16:40:46.438285	10.4225146531248	8.81264600344498	4.58836206592507	10.1023254686269	15.0108767190499	4.58836206592507	-10.4225146531248	8.81264600344498	4.58836206592507	15.0108767190499	4.58836206592507	14.53324208477232	5.632330845356699	6.941033228233611	3.6924340456905718	6.601997231202007	12.667410986298151	3.6924340456905718	13.793851196050296	10.996087938672726	5.363757093315996	5.238392742583554	5.395074531340629	4	correct	1.0
165.09793119994015	8.919193400070071	nogo_punish	1.0	165.12673790007807	167.62001720000967	170.12641960009864	2.4932792999316007	166.1362773999574	169.11466520000226	173.1855779001487	1.4837398000522626	1.011754400096379	0.8603533999994397	172.17268420010782	0.3116063999477774	171.14366720011435	2	1	80	1	nogo_punish	1	-1	0	0	0	1	0	1.0	0.0	0	1.0	0.3116063999477774	1927.5100670999384	2092.6368050000165	2093.646344499896	2095.130084299948	2096.6247322999407	2097.636486700037	2098.6537343000527	2099.682751300046	2100.695645000087	2101.5559984000865	2020-02-11 16:40:46.438285	2.62939911223733	-2.03447087633316	0.0	-1.17865651750114	-2.62939911223733	0.0	-2.62939911223733	0.0	-2.03447087633316	0.0	-2.62939911223733	0.0	-2.1607846955307712	-3.90608365154453	-0.8959280202344981	-4.678984754926033	-4.972864844989079	-0.8959280202344981	-0.7393908887220234	-4.014788780377175	-1.8540040848464037	-3.5742532608614264	-1.227758410917601	4	wrong	1.0
174.06216779979945	8.38325290009334	nogo_reward	0.407540500164032	174.09097449993737	175.3757760999722	177.931766600115	1.2848016000348252	175.09428860014282	176.90772620006442	180.98120900010667	0.2814874998293817	1.0240404000505805	1.4930183999240398	179.96615330013424	0.6137194999027997	178.9466083999721	2	1	81	3	nogo_reward	0	1	0	0	1	0	0	0.0	1.0	1	0.407540500164032	0.6137194999027997	1927.5100670999384	2101.6010415998758	2102.604355700081	2102.8858431999106	2104.417793300003	2105.4418337000534	2106.4566754999105	2107.4762204000726	2108.491276100045	2109.984294499969	2020-02-11 16:40:46.438285	1.019920745722	1.72969024313406	2.09503578798845	2.15355885186093	3.11495653371045	2.09503578798845	-1.019920745722	1.72969024313406	2.09503578798845	3.11495653371045	2.09503578798845	21.616197845083242	-3.770263062046101	-0.1419225320773101	1.1991077677539517	-1.3467693855639626	0.7714908009587003	1.1991077677539517	20.876806956361218	-0.8998322466667248	2.8704308153793763	-1.8445630177273664	2.901748253404009	4	correct	1.0
182.47152989986375	7.829220999964036	nogo_punish	0.5303779998794198	182.50033660000167	183.8639452999921	186.40435590012908	1.3636086999904364	183.50432129995875	185.39487510011463	189.44828630005918	0.3596240000333637	1.009480800014444	0.8812712999065297	188.43579200003273	0.525960800005123	187.41834560013353	2	1	82	1	nogo_punish	1	-1	0	0	1	0	1	1.0	1.0	-1	0.5303779998794198	0.525960800005123	1927.5100670999384	2110.01040369994	2111.014388399897	2111.3740123999305	2112.904942200053	2113.9144230000675	2114.928412700072	2115.945859099971	2116.9583533999976	2117.839624699904	2020-02-11 16:40:46.438285	-2.55831712731876	-2.03447087633316	0.0	-1.06774779316061	-2.55831712731876	0.0	2.55831712731876	-2.03447087633316	0.0	-2.55831712731876	0.0	-10.08818987570934	-7.348500935086861	-3.90608365154453	-0.8959280202344981	-4.568076030585503	-4.90178286007051	-0.8959280202344981	-10.827580764431364	-6.573105907695934	0.7753950273909263	-5.608724137194587	0.8067124654155591	4	correct	1.0
190.32472149981209	8.561417600139976	go_reward	0.7554939000401646	190.35352819995	192.41072029992915	194.95039120013803	2.0571920999791473	191.36483009997778	193.93829700001493	197.9998230999338	1.0458901999513728	1.0120942001231015	0.9151227001561892	196.98675979999803	0.6475246998015791	195.974993499927	2	1	83	4	go_reward	0	0	1	1	1	1	0	0.0	1.0	0	0.7554939000401646	0.6475246998015791	1927.5100670999384	2117.8635952998884	2118.874897199916	2119.9207873998675	2121.4483640999533	2122.4604583000764	2123.4850605998654	2124.4968268999364	2125.509890199872	2126.4250129000284	2020-02-11 16:40:46.438285	12.381102509831	10.0733757608455	4.58836206592507	11.2555548815304	16.9694645757561	4.58836206592507	-12.381102509831	10.0733757608455	4.58836206592507	16.9694645757561	4.58836206592507	-10.0733757608455	7.5909187020629	8.201762985634131	3.6924340456905718	7.755226644105508	14.62599884300435	3.6924340456905718	-10.812766649567525	12.954675795378925	5.363757093315996	6.499122499984074	5.395074531340629	4	correct	1.0
198.912012399873	9.683350600069389	go_reward	0.3495495999231934	198.9408191000109	201.66676470008656	204.2185192999898	2.7259456000756472	199.9498376001136	203.19522970006778	207.27143039996668	1.7169270999729633	1.023289599922009	1.352739300113626	206.25868470012188	0.7593310000374913	205.22895810008026	2	1	84	4	go_reward	1	1	0	1	1	1	0	1.0	0.0	1	0.3495495999231934	0.7593310000374913	1927.5100670999384	2126.4508861999493	2127.459904700052	2129.176831800025	2130.705296800006	2131.728586399928	2132.7390252000187	2133.7687518000603	2134.781497499905	2136.1342368000187	2020-02-11 16:40:46.438285	10.7736161800351	9.12047072235045	4.58836206592507	10.2046856384385	15.3619782459602	4.58836206592507	-10.7736161800351	9.12047072235045	4.58836206592507	15.3619782459602	4.58836206592507	14.22541736586685	5.983432372266999	7.248857947139081	3.6924340456905718	6.704357401013607	13.018512513208451	3.6924340456905718	13.486026477144826	11.347189465583025	5.363757093315996	5.546217461489024	5.395074531340629	4	wrong	1.0
208.64010019996226	9.168595399940386	go_punish	0.2651825998909771	208.66890690010018	211.21202580002114	213.7664046999996	2.5431188999209553	209.67505610012427	212.74328549997858	216.79596880008444	1.536969699896872	1.0231192000210285	1.041533499956131	215.79338099993743	0.3348427999299019	214.7764219001399	2	1	85	2	go_punish	1	0	-1	1	1	1	0	0.0	1.0	0	0.2651825998909771	0.3348427999299019	1927.5100670999384	2136.1789740000386	2137.1851232000627	2138.7220928999595	2140.253352599917	2141.276471799938	2142.2864890000783	2143.303448099876	2144.306035900023	2145.347569399979	2020-02-11 16:40:46.438285	1.09934607967835	-1.66074326103945	-5.05666027492472	-3.99858767232249	-3.95731419524637	-5.05666027492472	-1.09934607967835	-1.66074326103945	-5.05666027492472	-3.95731419524637	-5.05666027492472	1.66074326103945	-3.6908377280897513	-3.53235603625082	-5.952588295159218	-7.4989159097473825	-6.30077992799812	-5.952588295159218	0.9213523723174265	-7.972102975623544	-4.281265247533794	-5.234996521900876	-4.249947809509161	4	correct	1.0
217.83928660000743	8.998343299841054	nogo_punish	1.0	217.86809330014535	220.3529759000519	222.87930259993277	2.484882599906541	218.87860459997341	221.85978440009035	225.93552049994446	1.4743713000784737	1.0195181998424232	0.9309161000419408	224.91666270000837	0.4093798999674618	223.89689380000323	2	1	86	1	nogo_punish	1	-1	0	0	0	1	0	0.0	1.0	0	1.0	0.4093798999674618	1927.5100670999384	2145.3781604000837	2146.388671699912	2147.8630429999903	2149.3698515000287	2150.389369699871	2151.4069608999416	2152.4267297999468	2153.445587599883	2154.376503699925	2020-02-11 16:40:46.438285	4.03441023012853	-2.9064799140409	0.0	-2.03764692621652	-4.03441023012853	0.0	-4.03441023012853	0.0	-2.9064799140409	0.0	-4.03441023012853	0.0	-0.7557735776395713	-4.77809268925227	-0.8959280202344981	-5.537975163641413	-6.37787596288028	-0.8959280202344981	-0.7393908887220234	-4.014788780377175	-3.2590152027376034	-3.5742532608614264	-2.099767448625341	4	correct	1.0
226.88296249997825	8.336763700004667	go_punish	0.3917475000489503	226.91176920011617	228.76055090012983	231.30669900006592	1.8487817000136602	227.91741200000956	230.2830447999297	234.35266089998163	0.843138900120266	1.0236542001362068	0.8958720001392066	233.3389912999694	0.5827953999396414	232.32132630003593	2	1	87	2	go_punish	0	-1	0	1	1	1	1	0.0	0.0	-1	0.3917475000489503	0.5827953999396414	1927.5100670999384	2154.4218363000546	2155.427479099948	2156.270618000068	2157.793111899868	2158.8167661000043	2159.8313933999743	2160.849058399908	2161.86272799992	2162.7586000000592	2020-02-11 16:40:46.438285	1.48880673872304	-1.5028918380989	-5.05666027492472	-3.63258920678541	-3.56785353620167	-5.05666027492472	-1.48880673872304	-1.5028918380989	-5.05666027492472	-3.56785353620167	-5.05666027492472	-10.619768913943599	-3.3013770690450612	-3.37450461331027	-5.952588295159218	-7.132917444210303	-5.91131926895342	-5.952588295159218	-11.359159802665623	-7.582642316578845	-4.281265247533794	-5.077145098960326	-4.249947809509161	4	wrong	1.0
235.2649975998795	8.551510700024664	nogo_reward	0.3185763999354094	235.29380430001743	237.21264100004942	239.74858559994004	1.9188367000319886	236.29132409999124	238.72822250006698	242.79806190007344	0.9213169000581729	1.020363099873066	1.047253099968657	241.7854263000188	0.6428722999989986	240.75643300008983	2	1	88	3	nogo_reward	1	0	1	0	1	0	0	0.0	1.0	0	0.3185763999354094	0.6428722999989986	1927.5100670999384	2162.803871399956	2163.8013911999296	2164.722708099988	2166.2382896000054	2167.2586526998784	2168.266500100028	2169.295493399957	2170.308129000012	2171.3553820999805	2020-02-11 16:40:46.438285	4.13148021621863	3.67183475989815	2.09503578798845	4.05912637709602	6.22651600420708	2.09503578798845	-4.13148021621863	3.67183475989815	2.09503578798845	6.22651600420708	2.09503578798845	-3.67183475989815	-0.6587035915494708	1.8002219846867797	1.1991077677539517	0.5587981396711275	3.8830502714553305	1.1991077677539517	-4.4112256486201735	2.2117272238299055	2.8704308153793763	0.09758149903672342	2.901748253404009	4	correct	1.0
243.86257409979612	8.816861700033769	nogo_reward	0.3674025000073015	243.89138079993404	245.61484379996568	248.17506340006344	1.7234630000316429	244.89232089999064	247.15573160001054	251.2304378999395	0.722522899975047	1.0193318000528961	1.4778046000283211	250.21600409992948	0.6958430001977831	249.1943946999961	2	1	89	3	nogo_reward	1	0	1	0	1	0	0	1.0	0.0	0	0.3674025000073015	0.6958430001977831	1927.5100670999384	2171.4014478998724	2172.402387999929	2173.124910899904	2174.665798699949	2175.685130500002	2176.7044617999345	2177.726071199868	2178.740504999878	2180.218309599906	2020-02-11 16:40:46.438285	3.55779578404899	3.33039511634477	2.09503578798845	3.6845032099216	5.65283157203743	2.09503578798845	-3.55779578404899	3.33039511634477	2.09503578798845	5.65283157203743	2.09503578798845	-3.33039511634477	-1.232388023719111	1.4587823411334	1.1991077677539517	0.18417497249670722	3.30936583928568	1.1991077677539517	-4.069786005066794	1.6380427916602551	2.8704308153793763	-0.24385814451665633	2.901748253404009	4	wrong	1.0
252.72180389985465	9.399111700011417	go_punish	1.0	252.75061059999257	255.26765829999863	257.8076049000954	2.51704770000606	253.7587383999487	256.78449629992224	260.85959270014405	1.508919900049932	1.0231086001731455	1.290129599859938	259.8557994000146	0.730241300072521	258.8218461000358	2	1	90	2	go_punish	1	0	-1	1	0	0	0	0.0	1.0	-1	1.0	0.730241300072521	1927.5100670999384	2180.260677699931	2181.268805499887	2182.777725399937	2184.2945633998606	2185.317672000034	2186.331913199974	2187.365866499953	2188.3696598000824	2189.6597893999424	2020-02-11 16:40:46.438285	-0.100870614428743	-2.4308011724028	-5.05666027492472	-4.37261091232209	-4.95578966049597	-5.05666027492472	0.100870614428743	-5.05666027492472	-2.4308011724028	-5.05666027492472	-4.95578966049597	-7.066000477117779	-4.891054422196844	-4.30241394761417	-5.952588295159218	-7.8729391497469825	-7.299255393247719	-5.952588295159218	-7.805391365839802	-9.071449055301894	-4.180394633105044	-8.630913535786146	-1.6240887069872407	4	correct	1.0
262.1455902999735	8.826355200028047	go_reward	0.2863857001066208	262.1743970001114	264.0288660000076	266.58332199999063	1.8544689998961985	263.1848363000897	265.5718146001457	269.64140510000266	0.8440296999178827	1.0115073998449589	1.3593471001368016	268.62842740002066	0.4652042000088841	267.60098530002847	2	1	91	4	go_reward	0	0	1	1	1	1	0	0.0	1.0	0	0.2863857001066208	0.4652042000088841	1927.5100670999384	2189.68446410005	2190.694903400028	2191.538933099946	2193.081881700084	2194.093389099929	2195.111052399967	2196.138494499959	2197.151472199941	2198.510819300078	2020-02-11 16:40:46.438285	12.7091488509263	10.3589941078391	4.58836206592507	11.3538962261222	17.2975109168514	4.58836206592507	-12.7091488509263	10.3589941078391	4.58836206592507	17.2975109168514	4.58836206592507	-10.3589941078391	7.9189650431582	8.48738133262773	3.6924340456905718	7.853567988697308	14.954045184099652	3.6924340456905718	-11.098384996561125	13.282722136474227	5.363757093315996	6.784740846977674	5.395074531340629	4	correct	1.0
270.9989047998099	7.843062800122425	nogo_punish	1.0	271.0277114999478	272.5048527999313	275.03093310003146	1.4771412999834865	272.03604530007556	274.01984470011644	278.0959779000839	0.46880749985575676	1.0110883999150246	0.7747963999863714	277.0833135000428	0.4815793999005109	276.05353390006326	2	1	92	1	nogo_punish	1	-1	0	0	0	1	0	0.0	1.0	0	1.0	0.4815793999005109	1927.5100670999384	2198.537778599886	2199.546112400014	2200.0149198998697	2201.529911800055	2202.54100019997	2203.5636010000017	2204.593380599981	2205.6060450000223	2206.3808414000086	2020-02-11 16:40:46.438285	3.90988460217143	-2.9064799140409	0.0	-1.84411142520508	-3.90988460217143	0.0	-3.90988460217143	0.0	-2.9064799140409	0.0	-3.90988460217143	0.0	-0.8802992055966712	-4.77809268925227	-0.8959280202344981	-5.344439662629973	-6.25335033492318	-0.8959280202344981	-0.7393908887220234	-4.014788780377175	-3.1344895747805035	-3.5742532608614264	-2.099767448625341	4	correct	1.0
278.8675362998622	9.473248900147155	go_reward	0.2885458001401275	278.8963430000001	281.8646156999746	284.40849060006417	2.9682726999744773	279.9060617999637	283.38559620012506	287.46416370011843	1.9585539000108838	1.022894399939105	0.9054282000288367	286.45215070014797	0.3721223000902682	285.4219752999486	2	1	93	4	go_reward	1	1	0	1	1	1	1	1.0	1.0	1	0.2885458001401275	0.3721223000902682	1927.5100670999384	2206.4064100999385	2207.416128899902	2209.374682799913	2210.8956633000635	2211.9185577000026	2212.932042399887	2213.9622178000864	2214.974230800057	2215.8796590000857	2020-02-11 16:40:46.438285	11.0799454455488	9.38545754470661	4.58836206592507	10.2988977874933	15.6683075114739	4.58836206592507	-11.0799454455488	9.38545754470661	4.58836206592507	15.6683075114739	4.58836206592507	13.960430543510691	6.289761637780699	7.51384476949524	3.6924340456905718	6.7985695500684065	13.324841778722151	3.6924340456905718	13.221039654788667	11.653518731096725	5.363757093315996	5.811204283845183	5.395074531340629	4	correct	1.0
288.38417809992075	8.026320900070004	go_punish	0.5347702000290155	288.41298480005867	290.0583923999218	292.602021000115	1.6454075998631197	289.4117914999367	291.5803505000656	295.66423100000225	0.6466008999850601	1.0216705000493675	0.7750747001264244	294.65470140008233	0.4855315000750124	293.61863670009166	2	1	94	2	go_punish	1	0	-1	1	1	1	0	0.0	1.0	0	0.5347702000290155	0.4855315000750124	1927.5100670999384	2215.923051899997	2216.921858599875	2217.56845949986	2219.090417600004	2220.1120881000534	2221.12870380003	2222.1647685000207	2223.1742980999406	2223.949372800067	2020-02-11 16:40:46.438285	0.274535200957739	-2.4308011724028	-5.64391977560315	-5.0410599090102	-5.36938457464541	-5.64391977560315	-0.274535200957739	-2.4308011724028	-5.64391977560315	-5.36938457464541	-5.64391977560315	2.4308011724028	-4.5156486068103625	-4.30241394761417	-6.539847795837648	-8.541388146435093	-7.71285030739716	-6.539847795837648	1.6914102836807765	-9.384173355022584	-4.868524748212224	-6.005054433264226	-4.8372073101875905	4	correct	1.0
296.4446952999567	9.321232300019346	nogo_punish	1.0	296.47350200009464	299.2524989999363	301.7801900000775	2.778996999841638	297.4809926000887	300.7632363999726	304.8249369000548	1.771506399847567	1.0169536001048982	0.9697974000591785	303.81791920005367	0.3354448000900447	302.798864000011	2	1	95	1	nogo_punish	1	-1	0	0	0	1	0	1.0	0.0	0	1.0	0.3354448000900447	1927.5100670999384	2223.983569100033	2224.991059700027	2226.7625660998747	2228.273303499911	2229.290257100016	2230.3089310999494	2231.327986299992	2232.335003999993	2233.3048014000524	2020-02-11 16:40:46.438285	3.79883547529899	-2.9064799140409	0.0	-1.67073462299467	-3.79883547529899	0.0	-3.79883547529899	0.0	-2.9064799140409	0.0	-3.79883547529899	0.0	-0.9913483324691112	-4.77809268925227	-0.8959280202344981	-5.171062860419562	-6.142301208050739	-0.8959280202344981	-0.7393908887220234	-4.014788780377175	-3.0234404479080634	-3.5742532608614264	-2.099767448625341	4	wrong	1.0
305.81008979980857	8.92861480009742	go_punish	0.2673059999942779	305.8388964999465	308.06586170010246	310.6078185001386	2.2269652001559734	306.84754820005014	309.5966829999818	313.6668128999879	1.218313500052318	1.0111355001567972	1.1006984000559896	312.6535623001398	0.5463403000030667	311.6247493999542	2	1	96	2	go_punish	1	0	-1	1	1	1	1	1.0	1.0	0	0.2673059999942779	0.5463403000030667	1927.5100670999384	2233.348963599885	2234.3576152999885	2235.575928800041	2237.10675009992	2238.117885600077	2239.1348164998926	2240.163629400078	2241.1768799999263	2242.2775783999823	2020-02-11 16:40:46.438285	0.800915124744232	-2.19966386494582	-5.64391977560315	-4.57618965049093	-4.84300465085892	-5.64391977560315	-0.800915124744232	-2.19966386494582	-5.64391977560315	-4.84300465085892	-5.64391977560315	2.19966386494582	-3.989268683023869	-4.0712766401571905	-6.539847795837648	-8.076517887915823	-7.18647038361067	-6.539847795837648	1.4602729762237967	-8.857793431236095	-4.868524748212224	-5.773917125807246	-4.8372073101875905	4	correct	1.0
314.7824797998185	8.255059000104666	go_punish	0.6214651998598129	314.8112864999564	316.23168379999674	318.7773861000312	1.4203973000403494	315.8113349000921	317.75387010001555	321.8229517999573	0.42034889990463853	1.0235160000156611	1.243393700103752	320.8103930000218	0.4486793999094516	319.79247130011186	2	1	97	2	go_punish	0	-1	0	1	1	1	0	0.0	1.0	-1	0.6214651998598129	0.4486793999094516	1927.5100670999384	2242.321353599895	2243.3214020000305	2243.741750899935	2245.263937199954	2246.2874531999696	2247.3025384000503	2248.32046009996	2249.3330188998957	2250.5764125999995	2020-02-11 16:40:46.438285	1.27222466871301	-1.99257806881614	-5.64391977560315	-4.15831562995938	-4.37169510689014	-5.64391977560315	-1.27222466871301	-1.99257806881614	-5.64391977560315	-4.37169510689014	-5.64391977560315	-10.130082683226359	-3.5179591390550913	-3.86419084402751	-6.539847795837648	-7.6586438673842725	-6.715160839641889	-6.539847795837648	-10.869473571948383	-8.386483887267314	-4.868524748212224	-5.566831329677567	-4.8372073101875905	4	correct	1.0
323.0647518998014	8.556508200010285	nogo_punish	1.0	323.09355859993934	324.66350209992356	327.1945708999408	1.5699434999842197	324.10165800014533	326.1748059999661	330.254176400136	0.5618440997782272	1.0197648999746889	1.395890399813652	329.2411971001418	0.4879672999959439	328.2121061000505	2	1	98	1	nogo_punish	1	-1	0	0	0	1	0	0.0	1.0	0	1.0	0.4879672999959439	1927.5100670999384	2250.6036256998777	2251.6117251000837	2252.173569199862	2253.6848730999045	2254.704637999879	2255.722173199989	2256.75126420008	2257.7642435000744	2259.160133899888	2020-02-11 16:40:46.438285	3.69967234686111	-2.9064799140409	0.0	-1.51522101733618	-3.69967234686111	0.0	-3.69967234686111	0.0	-2.9064799140409	0.0	-3.69967234686111	0.0	-1.090511460906991	-4.77809268925227	-0.8959280202344981	-5.015549254761073	-6.043138079612859	-0.8959280202344981	-0.7393908887220234	-4.014788780377175	-2.9242773194701837	-3.5742532608614264	-2.099767448625341	4	correct	1.0
331.6664003999906	8.395336999790743	nogo_reward	0.6304353000596166	331.6952071001285	333.0346890999938	335.5831007000522	1.3394819998652565	332.6899499001445	334.5656385000327	338.6442074999211	0.34473919984930035	1.0174622000195086	1.446336599998176	337.6303620000833	0.4338138001039624	336.6023128000086	2	1	99	3	nogo_reward	1	0	1	0	1	0	0	0.0	1.0	0	0.6304353000596166	0.4338138001039624	1927.5100670999384	2259.205274200067	2260.200017000083	2260.544756199932	2262.075705599971	2263.0931677999906	2264.112379899947	2265.1404291000217	2266.1542745998595	2267.6006111998577	2020-02-11 16:40:46.438285	3.04197648472416	3.02302624498153	2.09503578798845	3.34700965576557	5.1370122727126	2.09503578798845	-3.04197648472416	3.02302624498153	2.09503578798845	5.1370122727126	2.09503578798845	-3.02302624498153	-1.7482073230439412	1.15141346977016	1.1991077677539517	-0.15331858165932255	2.793546539960851	1.1991077677539517	-3.7624171337035532	1.1222234923354257	2.8704308153793763	-0.5512270158798964	2.901748253404009	4	correct	1.0
340.08952279994287	8.338957800064236	go_reward	0.4881845999043435	340.1183295000808	341.9138734000737	344.4479613001456	1.7955438999929356	341.1319331000557	343.42803169996455	347.4892559000293	0.78194030001805	1.019929600181058	0.9680314001157058	346.4849179999435	0.8645257998723537	345.4615561999374	2	1	100	4	go_reward	0	0	1	1	1	1	0	0.0	1.0	0	0.4881845999043435	0.8645257998723537	1927.5100670999384	2267.628396600019	2268.642000199994	2269.423940500012	2270.938098799903	2271.958028400084	2272.971623299876	2273.994985099882	2274.9993229999677	2275.9673544000834	2020-02-11 16:40:46.438285	12.9950666670359	10.6048297324793	4.58836206592507	11.443934791198	17.5834287329609	4.58836206592507	-12.9950666670359	10.6048297324793	4.58836206592507	17.5834287329609	4.58836206592507	-10.6048297324793	8.204882859267798	8.733216957267931	3.6924340456905718	7.943606553773107	15.239963000209151	3.6924340456905718	-11.344220621201325	13.568639952583727	5.363757093315996	7.0305764716178745	5.395074531340629	4	correct	1.0
348.47388869989686	8.203669399954833	nogo_reward	0.5557422998826951	348.5026954000348	349.88933530007466	352.4301829999306	1.3866399000398815	349.499654300045	351.4104446000417	355.4699182999318	0.3896810000296682	1.0197383998888654	1.2364465000578093	354.4610049000473	0.5510265999473631	353.44971720012813	2	1	101	3	nogo_reward	1	0	1	0	1	0	1	0.0	0.0	0	0.5557422998826951	0.5510265999473631	1927.5100670999384	2276.012762499973	2277.0097213999834	2277.399402400013	2278.92051169998	2279.940250099869	2280.9597843000665	2281.9710719999857	2282.97998539987	2284.216431899928	2020-02-11 16:40:46.438285	2.57780307268858	2.74610383309723	2.09503578798845	3.04272161650949	4.67283886067703	2.09503578798845	-2.57780307268858	2.74610383309723	2.09503578798845	4.67283886067703	2.09503578798845	-2.74610383309723	-2.2123807350795213	0.87449105788586	1.1991077677539517	-0.45760662091540283	2.32937312792528	1.1991077677539517	-3.4854947218192533	0.658050080299855	2.8704308153793763	-0.8281494277641963	2.901748253404009	4	wrong	1.0
356.72283799992897	8.977376400027424	nogo_reward	0.5789137000683695	356.7516447000669	358.6638774999881	361.20950859994605	1.9122327999211848	357.758359899977	360.1949652000328	364.2604219999628	0.9055176000110805	1.0145433999132365	1.4685991001315415	363.2556344999464	0.5100012000184506	362.22708480013466	2	1	102	3	nogo_reward	1	0	1	0	1	0	0	0.0	1.0	0	0.5789137000683695	0.5100012000184506	1927.5100670999384	2284.2617118000053	2285.2684269999154	2286.1739445999265	2287.705032299971	2288.7195756998844	2289.737151900073	2290.765701599885	2291.770489099901	2293.2390882000327	2020-02-11 16:40:46.438285	2.15976829517092	2.49641425729721	2.09503578798845	2.7681567058949	4.25480408315937	2.09503578798845	-2.15976829517092	2.49641425729721	2.09503578798845	4.25480408315937	2.09503578798845	-2.49641425729721	-2.6304155125971813	0.6248014820858399	1.1991077677539517	-0.7321715315299926	1.9113383504076205	1.1991077677539517	-3.235805146019233	0.2400153027821954	2.8704308153793763	-1.0778390035642165	2.901748253404009	4	correct	1.0
365.7252619999929	9.325369399971805	go_reward	0.3320547000039369	365.7540687001308	368.5291184999512	371.0580164999699	2.7750497998204082	366.7647474000694	370.0449598999696	374.111435000086	1.7643710998818278	1.0130566000002545	0.9680031000166309	373.10188079997874	0.5004348999354988	372.0735756000506	2	1	103	4	go_reward	1	1	0	1	1	1	0	0.0	1.0	1	0.3320547000039369	0.5004348999354988	1927.5100670999384	2293.264135800069	2294.274814500008	2296.0391855998896	2297.555026999908	2298.5680835999083	2299.583642699989	2300.611947899917	2301.6215021000244	2302.589505200041	2020-02-11 16:40:46.438285	11.3467144001673	9.61352903133891	4.58836206592507	10.3847703319663	15.9350764660924	4.58836206592507	-11.3467144001673	9.61352903133891	4.58836206592507	15.9350764660924	4.58836206592507	13.73235905687839	6.556530592399199	7.74191625612754	3.6924340456905718	6.884442094541407	13.591610733340652	3.6924340456905718	12.992968168156366	11.920287685715227	5.363757093315996	6.0392757704774835	5.395074531340629	4	correct	1.0
375.09569549979665	9.2468530000192	go_punish	0.3418072999920696	375.12450219993457	377.55815759999655	380.11039909999795	2.43365540006198	376.1217773000242	379.08944769995264	383.1592832999306	1.4363802999723703	1.0209514000453055	1.2120719000231475	382.1462580000514	0.3909652999136597	381.1171039000617	2	1	104	2	go_punish	1	0	-1	1	1	1	0	0.0	1.0	0	0.3418072999920696	0.3909652999136597	1927.5100670999384	2302.634569299873	2303.6318443999626	2305.068224699935	2306.599514799891	2307.6204661999363	2308.627171	2309.6563250999898	2310.669350399869	2311.881422299892	2020-02-11 16:40:46.438285	-0.0421510550261431	-2.87616852266183	-5.64391977560315	-4.85160834042138	-5.68607083062929	-5.64391977560315	0.0421510550261431	-2.87616852266183	-5.64391977560315	-5.68607083062929	-5.64391977560315	2.87616852266183	-4.832334862794244	-4.7477812978732	-6.539847795837648	-8.351936577846272	-8.02953656338104	-6.539847795837648	2.136777633939807	-9.700859611006464	-4.868524748212224	-6.4504217835232565	-4.8372073101875905	4	correct	1.0
384.38565429998584	9.219650299986824	go_punish	0.3206716999411583	384.41446100012377	386.77827879996016	389.329078099923	2.363817799836397	385.4180670001076	388.30924320011377	392.39126639999427	1.36021179985255	1.0198348998092115	1.2428449001163244	391.37771179992683	0.4613352001179009	390.3477568000087	2	1	105	2	go_punish	1	0	-1	1	1	1	0	0.0	1.0	0	0.3206716999411583	0.4613352001179009	1927.5100670999384	2311.924528100062	2312.928134100046	2314.2883458998986	2315.819310300052	2316.8391451998614	2317.857823899947	2318.887778899865	2319.9013334999327	2321.144178400049	2020-02-11 16:40:46.438285	0.509115967246206	-2.6050943825799	-5.64391977560315	-4.40855863470323	-5.13480380835694	-5.64391977560315	-0.509115967246206	-2.6050943825799	-5.64391977560315	-5.13480380835694	-5.64391977560315	2.6050943825799	-4.281067840521895	-4.47670715779127	-6.539847795837648	-7.9088868721281225	-7.4782695411086895	-6.539847795837648	1.8657034938578767	-9.149592588734116	-4.868524748212224	-6.179347643441327	-4.8372073101875905	4	correct	1.0
393.65308650000975	8.963898499961942	nogo_reward	0.3193256000522524	393.68189320014767	396.01058529992565	398.5711873001417	2.3286920997779816	394.6848262001297	397.5513007000552	401.62143640010595	1.3257590997959596	1.0198866000864655	1.0243553000036627	400.60659079998663	0.4371675001457333	399.5888322999233	2	1	106	3	nogo_reward	1	0	1	0	1	0	0	0.0	1.0	0	0.3193256000522524	0.4371675001457333	1927.5100670999384	2321.191960300086	2322.194893300068	2323.520652399864	2325.0613677999936	2326.08125440008	2327.0988993998617	2328.116657899925	2329.1315035000443	2330.155858800048	2020-02-11 16:40:46.438285	1.78298965422774	2.27110479165073	2.09503578798845	2.52022107926789	3.87802544221619	2.09503578798845	-1.78298965422774	2.27110479165073	2.09503578798845	3.87802544221619	2.09503578798845	-2.27110479165073	-3.007194153540361	0.39949201643936005	1.1991077677539517	-0.9801071581570029	1.5345597094644403	1.1991077677539517	-3.0104956803727534	-0.13676333816098474	2.8704308153793763	-1.3031484692106963	2.901748253404009	4	correct	1.0
402.64193279994674	8.529387899907306	go_reward	1.0	402.67073950008466	404.1444588000884	406.67579469992756	1.4737193000037223	403.67610369995214	405.6524787000378	409.7320972001178	0.46835510013625026	1.0233159998897463	1.4680301998741925	408.7187566999344	0.7144535998813808	407.6905374000778	2	1	107	4	go_reward	0	0	1	1	0	0	0	0.0	1.0	1	1.0	0.7144535998813808	1927.5100670999384	2330.180806600023	2331.1861707998905	2331.654525900027	2333.162545799976	2334.185861799866	2335.200604500016	2336.2288237998728	2337.242164300056	2338.7101944999304	2020-02-11 16:40:46.438285	-13.2438991106771	10.8164333548317	4.58836206592507	11.525689396834	17.8322611766021	4.58836206592507	13.2438991106771	4.58836206592507	10.8164333548317	4.58836206592507	17.8322611766021	18.757526022292232	-18.0340829184452	8.94482057962033	3.6924340456905718	8.025361159409108	15.48879544385035	3.6924340456905718	18.01813513357021	0.5735732855478952	18.607656203993024	1.0141088050636435	11.62314582024726	4	correct	1.0
411.1981436999047	9.410943599883922	go_reward	1.0	411.2269504000426	414.07597300014436	416.5878675000274	2.849022600101762	412.2351921999359	415.5712661000432	419.6395008000543	1.8407808002084494	1.0166013999842107	0.9983931998722255	418.62614000006556	0.5496602999046445	417.59632780007064	2	1	108	4	go_reward	1	1	0	1	0	0	0	0.0	1.0	0	1.0	0.5496602999046445	1927.5100670999384	2338.737017499981	2339.7452592998743	2341.5860401000828	2343.0813331999816	2344.097934599966	2345.106394900009	2346.136207100004	2347.1495678999927	2348.147961099865	2020-02-11 16:40:46.438285	-12.2096616964192	10.8164333548317	6.24805434902507	12.5575220739519	18.4577160454443	6.24805434902507	12.2096616964192	6.24805434902507	10.8164333548317	6.24805434902507	18.4577160454443	-6.24805434902507	-16.999845504187302	8.94482057962033	5.352126328790572	9.057193836527006	16.11425031269255	5.352126328790572	-6.987445237747093	2.2332655686478953	19.233111072835225	2.6738010881636436	11.62314582024726	4	correct	1.0
420.6533436998727	8.753266599960625	go_punish	0.2683472000062465	420.68215040001064	422.68253360013455	425.23042950010836	2.000383200123906	421.68320560012967	424.21329620014853	428.28052900009766	0.9993280000048799	1.0171332999598235	1.1548879998736084	427.2677674000149	0.668179800035432	426.24067480000645	2	1	109	2	go_punish	1	0	-1	1	1	1	0	0.0	1.0	0	0.2683472000062465	0.668179800035432	1927.5100670999384	2348.192217499949	2349.193272700068	2350.192600700073	2351.723363300087	2352.7404966000468	2353.750741899945	2354.7778344999533	2355.790596100036	2356.9454840999097	2020-02-11 16:40:46.438285	1.00325587259769	-2.3619832815124	-5.64391977560315	-4.00987536497816	-4.64066390300546	-5.64391977560315	-1.00325587259769	-2.3619832815124	-5.64391977560315	-4.64066390300546	-5.64391977560315	2.3619832815124	-3.7869279351704113	-4.23359605672377	-6.539847795837648	-7.5102036024030525	-6.98412963575721	-6.539847795837648	1.6225923927903767	-8.655452683382634	-4.868524748212224	-5.936236542373827	-4.8372073101875905	4	correct	1.0
429.44866120000347	9.051137099974312	go_punish	0.3684574000071734	429.4774679001414	432.19150640000566	434.73904850007943	2.714038499864273	430.4770657001061	433.73284150008135	437.77676089992724	1.7144406998995692	1.006206999998085	0.7518441001884639	436.7636142999397	0.4293510999996215	435.75056620012015	2	1	110	2	go_punish	0	-1	0	1	1	1	0	1.0	0.0	-1	0.3684574000071734	0.4293510999996215	1927.5100670999384	2356.98753500008	2357.9871328000445	2359.701573499944	2361.2429086000197	2362.249115600018	2363.2606333000585	2364.273681399878	2365.2868279998656	2366.038672100054	2020-02-11 16:40:46.438285	1.44671688604746	-2.14368923116591	-5.64391977560315	-3.65071196302373	-4.19720288955569	-5.64391977560315	-1.44671688604746	-2.14368923116591	-5.64391977560315	-4.19720288955569	-5.64391977560315	-9.97897152087659	-3.3434669217206414	-4.01530200637728	-6.539847795837648	-7.151040200448623	-6.5406686223074395	-6.539847795837648	-10.718362409598614	-8.211991669932864	-4.868524748212224	-5.717942492027337	-4.8372073101875905	4	wrong	1.0
438.54505039984383	8.575778200058267	go_punish	1.0	438.57385709998175	440.55166559992335	443.0773914000017	1.9778084999416023	439.577229300048	442.06457759998716	446.12414760002844	0.9744362998753786	1.0128138000145555	1.0254877000115812	445.1130171001421	0.3628080000635236	444.09620030014753	2	1	111	2	go_punish	0	-1	0	1	0	0	1	0.0	0.0	0	1.0	0.3628080000635236	1927.5100670999384	2366.08392419992	2367.0872963999864	2368.0617326998618	2369.5746446999256	2370.58745849994	2371.606267400086	2372.6230842000805	2373.634214699967	2374.6597023999784	2020-02-11 16:40:46.438285	-0.108261383410694	-3.01680786702482	-5.64391977560315	-4.39615467411468	-5.53565839219246	-5.64391977560315	0.108261383410694	-5.64391977560315	-3.01680786702482	-5.64391977560315	-5.53565839219246	5.64391977560315	-4.898445191178795	-4.8884206422361896	-6.539847795837648	-7.8964829115395725	-7.879124124944209	-6.539847795837648	4.904528886881127	-9.658708555980326	-4.760263364801533	-9.218173036464577	-2.210095401609261	4	wrong	1.0
447.1650805999527	8.27071959991008	nogo_reward	0.3482516999356448	447.19388730009064	448.63670950010396	451.16808259999357	1.4428222000133246	448.2005000999195	450.1532052000982	454.2149539000818	0.43620940018445253	1.0148773998953402	1.2496529999189079	453.209404800087	0.7446136001963168	452.1833691000936	2	1	112	3	nogo_reward	0	1	0	0	1	0	0	0.0	1.0	1	0.3482516999356448	0.7446136001963168	1927.5100670999384	2374.703954400029	2375.710567199858	2376.1467766000424	2377.6632723000366	2378.678149699932	2379.693436200032	2380.7194719000254	2381.72502100002	2382.974673999939	2020-02-11 16:40:46.438285	1.44313371788724	2.06764033402208	2.09503578798845	2.29616316854182	3.53816950587569	2.09503578798845	-1.44313371788724	2.06764033402208	2.09503578798845	3.53816950587569	2.09503578798845	21.27824775419522	-3.3470500898808613	0.1960275588107101	1.1991077677539517	-1.2041650688830727	1.1947037731239405	1.1991077677539517	20.538856865473196	-0.47661927450148456	2.8704308153793763	-1.5066129268393462	2.901748253404009	4	correct	1.0
455.4622394999026	8.47119740000926	nogo_punish	1.0	455.4910462000405	457.46544259996176	460.0005145000757	1.974396399921261	456.50601830007486	458.98091459996044	463.05647150007985	0.9594242998869049	1.0195999001152813	0.9057720999699086	462.03790270001605	0.502351000206545	461.009672099957	2	1	113	1	nogo_punish	1	-1	0	0	0	1	0	0.0	1.0	0	1.0	0.502351000206545	1927.5100670999384	2383.001113299979	2384.0160854000133	2384.9755096999	2386.490981699899	2387.510581600014	2388.5197391998954	2389.5479697999544	2390.5665386000182	2391.472310699988	2020-02-11 16:40:46.438285	3.61100999752644	-2.9064799140409	0.0	-1.37556141486367	-3.61100999752644	0.0	-3.61100999752644	0.0	-2.9064799140409	0.0	-3.61100999752644	0.0	-1.1791738102416613	-4.77809268925227	-0.8959280202344981	-4.875889652288563	-5.954475730278189	-0.8959280202344981	-0.7393908887220234	-4.014788780377175	-2.835614970135514	-3.5742532608614264	-2.099767448625341	4	correct	1.0
463.96085169981257	8.400954200187698	nogo_punish	1.0	463.9896583999505	465.54052700009174	468.06612249999284	1.550868600141257	464.9866897999307	467.0463189000727	471.1158297001382	0.5538372001610696	1.0198035999201238	1.274782899999991	470.11246090009786	0.3997682998888194	469.0831204000858	2	1	114	1	nogo_punish	1	-1	0	0	0	1	0	0.0	1.0	0	1.0	0.3997682998888194	1927.5100670999384	2391.499725499889	2392.496756899869	2393.05059410003	2394.556386000011	2395.5761895999312	2396.593187500024	2397.6225280000363	2398.6258968000766	2399.9006797000766	2020-02-11 16:40:46.438285	3.53163937848746	-2.9064799140409	0.0	-1.24999364504464	-3.53163937848746	0.0	-3.53163937848746	0.0	-2.9064799140409	0.0	-3.53163937848746	0.0	-1.2585444292806414	-4.77809268925227	-0.8959280202344981	-4.750321882469533	-5.875105111239209	-0.8959280202344981	-0.7393908887220234	-4.014788780377175	-2.7562443510965338	-3.5742532608614264	-2.099767448625341	4	correct	1.0
472.3913641998081	8.829536800039932	nogo_punish	0.5839857999235392	472.420170899946	474.25879370002053	476.79566890001274	1.8386228000745177	473.4169604000633	475.7875379000318	479.85911180009066	0.8418332999572158	1.0081309999809491	1.3905958998952883	478.846665699966	0.4186962000094354	477.81220549996965	2	1	115	1	nogo_punish	0	0	-1	0	1	0	1	1.0	1.0	0	0.5839857999235392	0.4186962000094354	1927.5100670999384	2399.9302379998844	2400.9270275000017	2401.768860799959	2403.29760499997	2404.305735999951	2405.322272599908	2406.3567327999044	2407.369178900029	2408.7597747999243	2020-02-11 16:40:46.438285	-3.46050305206311	-2.9064799140409	0.0	-1.13696922751743	-3.46050305206311	0.0	3.46050305206311	-2.9064799140409	0.0	-3.46050305206311	0.0	2.9064799140409	-8.25068685983121	-4.77809268925227	-0.8959280202344981	-4.637297464942323	-5.80396878481486	-0.8959280202344981	2.1670890253188766	-7.475291832440284	0.7753950273909263	-6.480733174902326	0.8067124654155591	4	correct	1.0
481.26451859995746	9.106336100026965	go_punish	1.0	481.2933253000954	483.46602570009395	485.9835308000909	2.1727003999985754	482.28964990004874	484.9795409000942	489.0401781001126	1.1763758000452071	1.003989899996668	1.3594833000097424	488.02708510006755	0.4066768998745829	486.9981811000032	2	1	116	2	go_punish	1	0	-1	1	0	0	0	0.0	1.0	-1	1.0	0.4066768998745829	1927.5100670999384	2408.8033924000338	2409.799716999987	2410.9760928000323	2412.4896080000326	2413.4935979000293	2414.5082481999416	2415.537152200006	2416.550245200051	2417.9097285000607	2020-02-11 16:40:46.438285	0.178199671603963	-3.01680786702482	-5.10787427118243	-3.99948776130367	-5.28607394278639	-5.10787427118243	-0.178199671603963	-5.10787427118243	-3.01680786702482	-5.10787427118243	-5.28607394278639	-7.014786480860069	-4.611984136164138	-4.8884206422361896	-6.003802291416928	-7.499815998728563	-7.62953967553814	-6.003802291416928	-7.754177369582092	-9.122663051559606	-4.510678915395464	-8.682127532043857	-2.210095401609261	4	correct	1.0
490.4013233999724	8.803664800012484	nogo_punish	1.0	490.4301301001103	492.7114192000588	495.2402250000739	2.2812890999484807	491.43991139996774	494.22038020007335	498.28792700008466	1.271507800091058	1.0198448000005556	0.945867900038138	497.2742735000786	0.4376938000787049	496.2481814001219	2	1	117	1	nogo_punish	0	0	-1	0	0	1	1	1.0	1.0	-1	1.0	0.4376938000787049	1927.5100670999384	2417.9401972000487	2418.949978499906	2420.221486299997	2421.7304473000117	2422.7502921000123	2423.7582485000603	2424.784340600017	2425.797994100023	2426.743862000061	2020-02-11 16:40:46.438285	3.1160535887651	-2.62585910252192	0.0	-1.03512499605022	-3.1160535887651	0.0	-3.1160535887651	0.0	-2.62585910252192	0.0	-3.1160535887651	-12.1226607520425	-1.674130219003001	-4.49747187773329	-0.8959280202344981	-4.5354532334751125	-5.45951932151685	-0.8959280202344981	-12.862051640764523	-4.014788780377175	-2.340658561374174	-3.5742532608614264	-1.819146637106361	4	correct	1.0
499.2530596998988	9.02022790000774	nogo_reward	0.2658080998808145	499.28186640003673	501.71413199999347	504.2734900000503	2.432265599956736	500.2851436000781	503.2448599000925	507.3086558000648	1.4289883999153972	1.0286300999578089	0.9934384999796748	506.2957737999966	0.4194090999662876	505.2754677000919	2	1	118	3	nogo_reward	0	1	0	0	1	0	0	0.0	1.0	1	0.2658080998808145	0.4194090999662876	1927.5100670999384	2426.791933499975	2427.7952107000165	2429.224199099932	2430.754927000031	2431.7835570999887	2432.7855348000303	2433.805840899935	2434.818722900003	2435.812161399983	2020-02-11 16:40:46.438285	4.51541249483473	3.97880150563266	2.09503578798845	4.18856913067502	6.61044828282318	2.09503578798845	-4.51541249483473	3.97880150563266	2.09503578798845	6.61044828282318	2.09503578798845	19.36708658258464	-0.2747713129333711	2.10718873042129	1.1991077677539517	0.6882408932501276	4.266982550071431	1.1991077677539517	18.627695693862616	2.595659502446005	2.8704308153793763	0.40454824477123363	2.901748253404009	4	correct	1.0
508.3027748998727	8.355411800089769	nogo_punish	1.0	508.3315816000106	509.88260919996515	512.3979478001127	1.5510275999545229	509.33622650010534	511.3766845001371	515.452060600044	0.5463826998598051	1.0212632999755442	1.2349328000564128	514.4483853999989	0.6490350000094622	513.4219082000197	2	1	119	1	nogo_punish	1	-1	0	0	0	1	1	0.0	0.0	0	1.0	0.6490350000094622	1927.5100670999384	2435.841648699949	2436.8462936000437	2437.3926762999035	2438.8867516000755	2439.908014900051	2440.931975299958	2441.9584524999373	2442.9621276999824	2444.197060500039	2020-02-11 16:40:46.438285	2.65690098403175	-2.62585910252192	-1.06935503485069	-2.01261390074174	-3.72625601888243	-1.06935503485069	-2.65690098403175	-1.06935503485069	-2.62585910252192	-1.06935503485069	-3.72625601888243	1.06935503485069	-2.133282823736351	-4.49747187773329	-1.965283055085188	-5.512942138166633	-6.06972175163418	-1.965283055085188	0.32996414612866654	-5.084143815227865	-2.9508609914915036	-4.6436082957121165	-1.819146637106361	4	wrong	1.0
516.7069647999017	8.100061099976301	nogo_reward	0.5136449998244643	516.7357715000396	518.0872568001503	520.6387426999861	1.351485300110653	517.7267464001195	519.6182423999996	523.70331589994	0.36051040003076196	1.0205002999864519	1.1325167000759393	522.6902954000977	0.5157047000247985	521.6610831001306	2	1	120	3	nogo_reward	1	0	1	0	1	0	1	1.0	1.0	0	0.5136449998244643	0.5157047000247985	1927.5100670999384	2444.245838599978	2445.236813500058	2445.5973239000887	2447.128309499938	2448.1488097999245	2449.171150200069	2450.200362500036	2451.2133829998784	2452.3458996999543	2020-02-11 16:40:46.438285	7.28548143026786	5.7044954927454	2.09503578798845	5.89717133778698	9.38051721825631	2.09503578798845	-7.28548143026786	5.7044954927454	2.09503578798845	9.38051721825631	2.09503578798845	-5.7044954927454	2.495297622499759	3.8328827175340296	1.1991077677539517	2.396843100362087	7.037051485504561	1.1991077677539517	-6.443886381467423	5.3657284378791354	2.8704308153793763	2.1302422318839733	2.901748253404009	4	correct	1.0
