onset	duration	trial_type	response_time	cueOnset	targetOnset	fbOnset	cueRT	firstfixOnset	secondfixOnset	waitOnset	firstfixdur	secondfixdur	waitdur	nback_fbOnset	nback_response_time	nback_targetOnset	block	wm	trial	cue	cond	is_common	outcome_go	outcome_nogo	key_correct	key_pressed	is_correct	key_correct_nback	key_pressed_nback	is_correct_nback	outcome	rt	rt_nback	time_scan	time_onset	time_isi1	time_circle	time_isi2	time_feedback	time_same	time_correct	time_iti	time_done	timestamp_scan	DV	Qgo	Qnogo	SV	Wgo	Wnogo	mDV	Qchosen	Qunchosen	Wchosen	Wunchosen	PE	DVC	QgoC	QnogoC	SVC	WgoC	WnogoC	PEC	WchosenC	WunchosenC	QchosenC	QunchosenC	run	outcome_nback	nback_targetResp
0.0	7.690331100020529	go_punish	0.6382502999622375	0.12140989978800576	2.9510068998206407	5.581204699818102	2.829597000032635	1.1263107999693602	4.550504999933764	6.588826799998088	1.8246960998512805	1.0306996998843374	1.2229141998104467	n/a	1.0	n/a	1	0	1	2	go_punish	0	-1	0	1	1	1	0	n/a	n/a	-1	0.6382502999622375	1.0	195.7414217002224	195.8628316000104	196.86773250019175	198.69242860004303	200.29192670015615	201.3226264000405	n/a	n/a	202.33024850022048	203.55316270003092	2020-11-11 13:27:52.334034	-0.430172057408687	0.0	0.0	0.0	-0.430172057408687	0.0	0.430172057408687	0.0	0.0	-0.430172057408687	0.0	-5.00719964765854	-11.474745823965819	-4.842217892157563	-3.2130573320676232	-9.230539451675842	-7.407347702887698	-3.2130573320676232	-5.679898078167316	-11.047575429460574	0.4271703945052501	-9.325667944792627	1.2703927205674395	1	missed	0.0
7.8087605000473275	7.333536399994074	nogo_reward	0.1948469998314976	7.930170399835333	10.765464999945863	13.330960299819736	2.8352946001105295	8.935665099881618	12.298623599810526	14.336491699796198	1.8297999000642449	1.0323367000092105	0.9272151000332087	n/a	1.0	n/a	1	0	2	3	nogo_reward	1	0	1	0	1	0	0	n/a	n/a	0	0.1948469998314976	1.0	195.7414217002224	203.67159210005772	204.677086800104	206.50688670016825	208.04004530003292	209.07238200004213	n/a	n/a	210.0779134000186	211.0051285000518	2020-11-11 13:27:52.334034	-0.430172057408687	0.0	0.0	0.0	-0.430172057408687	0.0	0.430172057408687	0.0	0.0	-0.430172057408687	0.0	0.0	-11.474745823965819	-4.842217892157563	-3.2130573320676232	-9.230539451675842	-7.407347702887698	-3.2130573320676232	-0.6726984305087756	-11.047575429460574	0.4271703945052501	-9.325667944792627	1.2703927205674395	1	missed	0.0
15.184215400135173	7.568535299971671	nogo_reward	0.3009655999485403	15.305625299923179	17.91735899983908	20.460891099879575	2.611733699915902	16.309358699945733	19.450744899921176	21.470130899921088	1.608000299893348	1.010146199958399	1.404029699973762	n/a	1.0	n/a	1	0	3	3	nogo_reward	1	0	1	0	1	0	0	n/a	n/a	0	0.3009655999485403	1.0	195.7414217002224	211.04704700014557	212.05078040016812	213.65878070006147	215.19216660014357	216.20231280010196	n/a	n/a	217.21155260014348	218.61558230011724	2020-11-11 13:27:52.334034	-0.430172057408687	0.0	0.0	0.0	-0.430172057408687	0.0	0.430172057408687	0.0	0.0	-0.430172057408687	0.0	0.0	-11.474745823965819	-4.842217892157563	-3.2130573320676232	-9.230539451675842	-7.407347702887698	-3.2130573320676232	-0.6726984305087756	-11.047575429460574	0.4271703945052501	-9.325667944792627	1.2703927205674395	1	missed	0.0
22.79592870012857	6.570199700072408	go_reward	0.2795171998441219	22.917338599916576	24.83772479998882	27.37869139993566	1.9203862000722438	23.921905999770416	26.36910619982521	28.385262199910414	0.9158188002184033	1.0095852001104504	1.1022761000785692	n/a	1.0	n/a	1	0	4	4	go_reward	0	0	1	1	1	1	0	n/a	n/a	0	0.2795171998441219	1.0	195.7414217002224	218.65876030013897	219.6633276999928	220.5791465002112	222.1105279000476	223.12011310015805	n/a	n/a	224.1266839001328	225.22896000021137	2020-11-11 13:27:52.334034	-0.430172057408687	0.0	0.0	0.0	-0.430172057408687	0.0	0.430172057408687	0.0	0.0	-0.430172057408687	0.0	0.0	-11.474745823965819	-4.842217892157563	-3.2130573320676232	-9.230539451675842	-7.407347702887698	-3.2130573320676232	-0.6726984305087756	-11.047575429460574	0.4271703945052501	-9.325667944792627	1.2703927205674395	1	missed	0.0
29.407534300116794	6.086870299885078	nogo_reward	0.3322227001190185	29.5289441999048	31.314068399835406	33.8548241998069	1.785124199930607	30.53339079977013	32.845676499884604	34.86251439992341	0.7806776000652746	1.0091476999222948	0.7533000998664647	n/a	1.0	n/a	1	0	5	3	nogo_reward	1	0	1	0	1	0	1	n/a	n/a	0	0.3322227001190185	1.0	195.7414217002224	225.2703659001272	226.27481249999252	227.0554901000578	228.587098200107	229.5962459000293	n/a	n/a	230.6039361001458	231.35723620001227	2020-11-11 13:27:52.334034	-0.430172057408687	0.0	0.0	0.0	-0.430172057408687	0.0	0.430172057408687	0.0	0.0	-0.430172057408687	0.0	0.0	-11.474745823965819	-4.842217892157563	-3.2130573320676232	-9.230539451675842	-7.407347702887698	-3.2130573320676232	-0.6726984305087756	-11.047575429460574	0.4271703945052501	-9.325667944792627	1.2703927205674395	1	missed	0.0
35.53136430005546	7.044207599945338	go_reward	0.2351092000026255	35.65277419984346	37.93318149982957	40.47897289996041	2.280407299986109	36.65747359977104	39.46464999997991	41.48988419980745	1.275707900058535	1.014322899980499	1.2070975999813527	n/a	1.0	n/a	1	0	6	4	go_reward	1	1	0	1	1	1	1	n/a	n/a	1	0.2351092000026255	1.0	195.7414217002224	231.39419590006585	232.39889529999343	233.67460320005196	235.2060717002023	236.2203946001828	n/a	n/a	237.23130590002984	238.4384035000112	2020-11-11 13:27:52.334034	-0.430172057408687	0.0	0.0	0.0	-0.430172057408687	0.0	0.430172057408687	0.0	0.0	-0.430172057408687	0.0	29.0321718085199	-11.474745823965819	-4.842217892157563	-3.2130573320676232	-9.230539451675842	-7.407347702887698	-3.2130573320676232	28.359473378011128	-11.047575429460574	0.4271703945052501	-9.325667944792627	1.2703927205674395	1	missed	0.0
42.61181510007009	6.35760059999302	go_reward	0.3881127999629825	42.733224999858095	44.29728359985168	46.8408643999137	1.5640585999935865	43.73806549981242	45.82750459993261	47.84808429982516	0.55921810003926	1.0133597999810888	1.2427413000259548	n/a	1.0	n/a	1	0	7	4	go_reward	1	1	0	1	1	1	0	n/a	n/a	1	0.3881127999629825	1.0	195.7414217002224	238.47464670008048	239.4794872000348	240.03870530007407	241.568926300155	242.5822861001361	n/a	n/a	243.58950600004755	244.8322473000735	2020-11-11 13:27:52.334034	15.6547374516105	11.4258687676119	0.0	11.4258687676119	15.6547374516105	0.0	-15.6547374516105	11.4258687676119	0.0	15.6547374516105	0.0	17.606303040908003	4.610163685053367	6.583650875454338	-3.2130573320676232	2.1953293159360587	8.67756180613149	-3.2130573320676232	16.93360461039923	5.037334079558612	0.4271703945052501	2.1002008228192732	1.2703927205674395	1	missed	0.0
49.00987000018361	6.15797549998382	nogo_reward	0.5559853999875486	49.13127989997162	50.85720799979762	53.397990599973184	1.7259280998260067	50.13581889984201	52.38886229996572	54.40584059990945	0.7213890999556156	1.0091283000074611	0.8834148000459834	n/a	1.0	n/a	1	0	8	3	nogo_reward	1	0	1	0	1	0	0	n/a	n/a	0	0.5559853999875486	1.0	195.7414217002224	244.872701600194	245.8772406000644	246.59862970002	248.1302840001881	249.13941230019557	n/a	n/a	250.14726230013184	251.03067710017783	2020-11-11 13:27:52.334034	-0.430172057408687	0.0	0.0	0.0	-0.430172057408687	0.0	0.430172057408687	0.0	0.0	-0.430172057408687	0.0	0.0	-11.474745823965819	-4.842217892157563	-3.2130573320676232	-9.230539451675842	-7.407347702887698	-3.2130573320676232	-0.6726984305087756	-11.047575429460574	0.4271703945052501	-9.325667944792627	1.2703927205674395	1	missed	0.0
55.20764890010469	6.983967900043353	nogo_reward	0.2938802998978644	55.32905879989269	57.80732649983841	60.34645629976879	2.478267699945718	56.33385069994256	59.33699759980664	61.3580606998876	1.4734757998958514	1.0094586999621527	0.9549660000484437	n/a	1.0	n/a	1	0	9	3	nogo_reward	1	0	1	0	1	0	0	n/a	n/a	0	0.2938802998978644	1.0	195.7414217002224	251.07048050011508	252.07527240016495	253.5487482000608	255.07841930002903	256.0878779999912	n/a	n/a	257.09948240011	258.05444840015844	2020-11-11 13:27:52.334034	-0.430172057408687	0.0	0.0	0.0	-0.430172057408687	0.0	0.430172057408687	0.0	0.0	-0.430172057408687	0.0	0.0	-11.474745823965819	-4.842217892157563	-3.2130573320676232	-9.230539451675842	-7.407347702887698	-3.2130573320676232	-0.6726984305087756	-11.047575429460574	0.4271703945052501	-9.325667944792627	1.2703927205674395	1	missed	0.0
62.228738700039685	6.351426500128582	go_punish	1.0	62.35014859982769	64.13398469984534	66.6487621997949	1.783836100017652	63.354427699930994	65.63912609987895	67.6554554998875	0.7795569999143481	1.0096360999159515	1.0461196000687778	n/a	1.0	n/a	1	0	10	2	go_punish	0	-1	0	1	0	0	0	n/a	n/a	0	1.0	1.0	195.7414217002224	258.0915703000501	259.0958494001534	259.87540640006773	261.38054780010134	262.3901839000173	n/a	n/a	263.3968772001099	264.44299680017866	2020-11-11 13:27:52.334034	3.14562740288791	-1.93156572940952	0.0	-1.93156572940952	-3.14562740288791	0.0	-3.14562740288791	0.0	-1.93156572940952	0.0	-3.14562740288791	0.0	-7.898946363669222	-6.773783621567083	-3.2130573320676232	-11.162105181085362	-10.12280304836692	-3.2130573320676232	-0.6726984305087756	-10.617403372051887	-2.71845700838266	-9.325667944792627	-0.6611730088420806	1	missed	0.0
68.61783080012538	6.292594899889082	go_punish	1.0	68.73924069991338	70.15918789990249	72.67456659977327	1.4199471999891102	69.74397789989601	71.66480529983531	73.68265329999852	0.415210000006482	1.0097612999379635	1.3491822998039424	n/a	1.0	n/a	1	0	11	2	go_punish	0	-1	0	1	0	0	0	n/a	n/a	0	1.0	1.0	195.7414217002224	264.48066240013577	265.4853996001184	265.9006096001249	267.4062270000577	268.41598829999566	n/a	n/a	269.4240750002209	270.77325730002485	2020-11-11 13:27:52.334034	2.82604357426691	-1.93156572940952	0.0	-1.13324960509028	-2.82604357426691	0.0	-2.82604357426691	0.0	-1.93156572940952	0.0	-2.82604357426691	0.0	-8.218530192290222	-6.773783621567083	-3.2130573320676232	-10.363789056766121	-9.80321921974592	-3.2130573320676232	-0.6726984305087756	-10.617403372051887	-2.39887317976166	-9.325667944792627	-0.6611730088420806	1	missed	0.0
74.95251860003918	6.275148099986836	nogo_reward	0.2418750999495387	75.07392849982719	76.83953169989402	79.38401799998249	1.7656032000668347	76.07976129977035	78.37522359983998	80.39068599999885	0.7597704001236707	1.0087944001425058	0.9583905998151749	n/a	1.0	n/a	1	0	12	3	nogo_reward	1	0	1	0	1	0	0	n/a	n/a	0	0.2418750999495387	1.0	195.7414217002224	270.8153502000496	271.82118299999274	272.5809534001164	274.1166453000624	275.1254397002049	n/a	n/a	276.13210770022124	277.0904983000364	2020-11-11 13:27:52.334034	-0.430172057408687	0.0	0.0	0.0	-0.430172057408687	0.0	0.430172057408687	0.0	0.0	-0.430172057408687	0.0	0.0	-11.474745823965819	-4.842217892157563	-3.2130573320676232	-9.230539451675842	-7.407347702887698	-3.2130573320676232	-0.6726984305087756	-11.047575429460574	0.4271703945052501	-9.325667944792627	1.2703927205674395	1	missed	0.0
81.28065000008792	7.212330600013956	go_reward	0.1591143999248743	81.40205989987592	84.11218339996415	86.65243469993587	2.7101235000882298	82.40670839999805	85.64368929993364	87.66100579989146	1.7054749999660999	1.0087454000022262	0.9533846999984235	n/a	1.0	n/a	1	0	13	4	go_reward	0	0	1	1	1	1	0	n/a	n/a	0	0.1591143999248743	1.0	195.7414217002224	277.1434816000983	278.14813010022044	279.85360510018654	281.38511100015603	282.39385640015826	n/a	n/a	283.40242750011384	284.35581220011227	2020-11-11 13:27:52.334034	24.9757003011264	18.023387524204	0.0	18.023387524204	24.9757003011264	0.0	-24.9757003011264	18.023387524204	0.0	24.9757003011264	0.0	-18.023387524204	13.931126534569266	13.181169632046437	-3.2130573320676232	8.792848072528159	17.998524655647387	-3.2130573320676232	-18.696085954712775	14.35829692907451	0.4271703945052501	8.697719579411373	1.2703927205674395	1	missed	0.0
88.55651780008338	5.90246000001207	nogo_reward	0.4991242999676615	88.67792769987139	90.03813319979238	92.57709069992418	1.360205499920994	89.6823609999847	91.56774629978466	93.5837690997869	0.3557721998076886	1.0093444001395255	0.9966186000965536	n/a	1.0	n/a	1	0	14	3	nogo_reward	1	0	1	0	1	0	1	n/a	n/a	0	0.4991242999676615	1.0	195.7414217002224	284.4193494000938	285.4237827002071	285.7795549000148	287.30916800000705	288.3185124001466	n/a	n/a	289.3251908000093	290.32180940010585	2020-11-11 13:27:52.334034	-0.430172057408687	0.0	0.0	0.0	-0.430172057408687	0.0	0.430172057408687	0.0	0.0	-0.430172057408687	0.0	0.0	-11.474745823965819	-4.842217892157563	-3.2130573320676232	-9.230539451675842	-7.407347702887698	-3.2130573320676232	-0.6726984305087756	-11.047575429460574	0.4271703945052501	-9.325667944792627	1.2703927205674395	1	missed	0.0
94.51214760006405	6.653792500030249	go_punish	1.0	94.63355749985206	96.98942009988244	99.50836199987683	2.3558626000303775	95.63955519977029	98.49455069983381	100.51486060000028	1.349864900112152	1.0138113000430167	0.7724893998820335	n/a	1.0	n/a	1	0	15	2	go_punish	1	0	-1	1	0	0	0	n/a	n/a	-1	1.0	1.0	195.7414217002224	290.37497920007445	291.3809768999927	292.7308418001048	294.2359724000562	295.2497837000992	n/a	n/a	296.25628230022267	297.0287717001047	2020-11-11 13:27:52.334034	2.64504981514766	-1.93156572940952	0.0	-0.68674981124702	-2.64504981514766	0.0	-2.64504981514766	0.0	-1.93156572940952	0.0	-2.64504981514766	-5.00719964765854	-8.399523951409472	-6.773783621567083	-3.2130573320676232	-9.917289262922862	-9.62222546062667	-3.2130573320676232	-5.679898078167316	-10.617403372051887	-2.2178794206424097	-9.325667944792627	-0.6611730088420806	1	missed	0.0
101.2041088000405	6.911884600063843	go_reward	0.2580736998934299	101.3255186998285	103.49519039993177	106.04030839982445	2.1696717001032653	102.33061689999889	105.0267134997994	107.04780989978465	1.1645734999328852	1.0135949000250548	1.1895934001076967	n/a	1.0	n/a	1	0	16	4	go_reward	1	1	0	1	1	1	0	n/a	n/a	1	0.2580736998934299	1.0	195.7414217002224	297.0669404000509	298.0720386002213	299.23661210015416	300.7681352000218	301.78173010004684	n/a	n/a	302.78923160000704	303.97882500011474	2020-11-11 13:27:52.334034	14.4830816270058	10.5455812066691	0.0	10.5455812066691	14.4830816270058	0.0	-14.4830816270058	10.5455812066691	0.0	14.4830816270058	0.0	18.4865906018508	3.4385078604486683	5.703363314511537	-3.2130573320676232	1.315041754993258	7.50590598152679	-3.2130573320676232	17.813892171342026	3.865678254953913	0.4271703945052501	1.2199132618764725	1.2703927205674395	1	missed	0.0
108.15234960010275	7.346469100099057	go_punish	1.0	108.27375949989076	110.81540029984902	113.3295161998831	2.541640799958259	109.2784769998398	112.3203089998569	114.33657309995036	1.5369233000092208	1.0092072000261965	1.2836555000394583	n/a	1.0	n/a	1	0	17	2	go_punish	0	-1	0	1	0	0	1	n/a	n/a	0	1.0	1.0	195.7414217002224	304.01518120011315	305.0198987000622	306.5568220000714	308.0617307000793	309.0709379001055	n/a	n/a	310.07799480017275	311.3616503002122	2020-11-11 13:27:52.334034	1.39127027914006	-1.93156572940952	-1.93156572940952	-2.35908131081489	-3.32283600854958	-1.93156572940952	-1.39127027914006	-1.93156572940952	-1.93156572940952	-1.93156572940952	-3.32283600854958	1.93156572940952	-9.653303487417073	-6.773783621567083	-5.1446230614771435	-11.589620762490732	-10.30001165402859	-5.1446230614771435	1.2588672989007446	-12.548969101461408	-2.8956656140443298	-11.257233674202148	-0.6611730088420806	1	missed	0.0
115.5383707000874	6.855140900006518	nogo_punish	0.3072029999457299	115.6597805998754	117.47905029985125	120.02467159996743	1.8192696999758482	116.66629769979048	119.01515809982087	121.03348839981484	0.8127526000607759	1.0095135001465678	1.481433100067079	n/a	1.0	n/a	1	0	18	1	nogo_punish	0	0	-1	0	1	0	0	n/a	n/a	0	0.3072029999457299	1.0	195.7414217002224	311.4012023000978	312.40771940001287	313.22047200007364	314.75657980004326	315.7660933001898	n/a	n/a	316.77491010003723	318.2563432001043	2020-11-11 13:27:52.334034	-0.430172057408687	0.0	0.0	0.0	-0.430172057408687	0.0	0.430172057408687	0.0	0.0	-0.430172057408687	0.0	0.0	-11.474745823965819	-4.842217892157563	-3.2130573320676232	-9.230539451675842	-7.407347702887698	-3.2130573320676232	-0.6726984305087756	-11.047575429460574	0.4271703945052501	-9.325667944792627	1.2703927205674395	1	missed	0.0
122.43119979999028	6.638037000084296	nogo_punish	0.2709066998213529	122.55260969977829	124.20329349976967	126.74411979992882	1.6506837999913841	123.55698529980148	125.73469659988771	127.75090719992298	0.646308199968189	1.0094232000411125	1.4397394999396056	n/a	1.0	n/a	1	0	19	1	nogo_punish	0	0	-1	0	1	0	0	n/a	n/a	0	0.2709066998213529	1.0	195.7414217002224	318.2940314000007	319.2984070000239	319.94471519999206	321.4761183001101	322.4855415001512	n/a	n/a	323.49232890014537	324.932068400085	2020-11-11 13:27:52.334034	-0.430172057408687	0.0	0.0	0.0	-0.430172057408687	0.0	0.430172057408687	0.0	0.0	-0.430172057408687	0.0	0.0	-11.474745823965819	-4.842217892157563	-3.2130573320676232	-9.230539451675842	-7.407347702887698	-3.2130573320676232	-0.6726984305087756	-11.047575429460574	0.4271703945052501	-9.325667944792627	1.2703927205674395	1	missed	0.0
129.12407260015607	7.0368949000258	nogo_reward	0.2907797999214381	129.24548249994407	131.71354529983367	134.25525279995057	2.4680627998895943	130.2499122999143	133.24589109979573	135.26178869977596	1.463632999919355	1.009361700154841	1.0205887001939118	n/a	1.0	n/a	1	0	20	3	nogo_reward	1	0	1	0	1	0	0	n/a	n/a	0	0.2907797999214381	1.0	195.7414217002224	324.98690420016646	325.9913340001367	327.45496700005606	328.9873128000181	329.99667450017296	n/a	n/a	331.00321039999835	332.02379910019226	2020-11-11 13:27:52.334034	-0.430172057408687	0.0	0.0	0.0	-0.430172057408687	0.0	0.430172057408687	0.0	0.0	-0.430172057408687	0.0	0.0	-11.474745823965819	-4.842217892157563	-3.2130573320676232	-9.230539451675842	-7.407347702887698	-3.2130573320676232	-0.6726984305087756	-11.047575429460574	0.4271703945052501	-9.325667944792627	1.2703927205674395	1	missed	0.0
136.19931550021283	6.7152662998996675	nogo_punish	1.0	136.32072540000084	138.16930899978618	140.6836684998125	1.8485835997853428	137.32481779996309	139.67453419999222	141.69016769994053	0.8444911998230964	1.009134299820289	1.3458239999599755	n/a	1.0	n/a	1	0	21	1	nogo_punish	1	-1	0	0	0	1	1	n/a	n/a	0	1.0	1.0	195.7414217002224	332.0621471002232	333.0662395001855	333.91073070000857	335.4159559002146	336.4250902000349	n/a	n/a	337.4315894001629	338.7774134001229	2020-11-11 13:27:52.334034	0.430172057408687	0.0	0.0	0.0	-0.430172057408687	0.0	-0.430172057408687	0.0	0.0	0.0	-0.430172057408687	0.0	-10.614401709148446	-4.842217892157563	-3.2130573320676232	-9.230539451675842	-7.407347702887698	-3.2130573320676232	-0.6726984305087756	-10.617403372051887	-0.0030016629034369524	-9.325667944792627	1.2703927205674395	1	missed	0.0
142.95856240019202	7.3509492999874055	nogo_reward	0.2849598000757396	143.07997229998003	146.04333179979588	148.58552199997942	2.9633594998158514	144.08551209978762	147.57600859995003	149.5923596997745	1.9578197000082582	1.009513400029391	0.8385619001929285	n/a	1.0	n/a	1	0	22	3	nogo_reward	1	0	1	0	1	0	1	n/a	n/a	0	0.2849598000757396	1.0	195.7414217002224	338.8213940002024	339.82693380001	341.78475350001827	343.3174303001724	344.3269437002018	n/a	n/a	345.3337813999969	346.1723433001898	2020-11-11 13:27:52.334034	-0.430172057408687	0.0	0.0	0.0	-0.430172057408687	0.0	0.430172057408687	0.0	0.0	-0.430172057408687	0.0	0.0	-11.474745823965819	-4.842217892157563	-3.2130573320676232	-9.230539451675842	-7.407347702887698	-3.2130573320676232	-0.6726984305087756	-11.047575429460574	0.4271703945052501	-9.325667944792627	1.2703927205674395	1	missed	0.0
150.34971219999716	7.671600500121713	go_reward	0.3945428000297397	150.47112209978516	153.2038396999706	155.74874259997162	2.732717600185424	151.47582119982692	154.7355074998923	156.75916869984943	1.728018500143662	1.0132351000793278	1.38355390005745	n/a	1.0	n/a	1	0	23	4	go_reward	1	1	0	1	1	1	0	n/a	n/a	1	0.3945428000297397	1.0	195.7414217002224	346.21254380000755	347.2172429000493	348.945261400193	350.4769292001147	351.490164300194	n/a	n/a	352.5005904000718	353.88414430012926	2020-11-11 13:27:52.334034	24.6995389719058	17.8069956434114	0.0	17.8069956434114	24.6995389719058	0.0	-24.6995389719058	17.8069956434114	0.0	24.6995389719058	0.0	11.2251761651085	13.654965205348667	12.964777751253838	-3.2130573320676232	8.57645619173556	17.722363326426787	-3.2130573320676232	10.552477734599725	14.082135599853912	0.4271703945052501	8.481327698618774	1.2703927205674395	1	missed	0.0
158.0565981999971	6.707506900187582	go_reward	0.3848138998728245	158.1780080997851	159.84455349994826	162.38893019990067	1.6665454001631588	159.1827100999653	161.37525939987975	163.3961653998122	0.6618433999829563	1.0136708000209183	1.4893496001604944	n/a	1.0	n/a	1	0	24	4	go_reward	1	1	0	1	1	1	0	n/a	n/a	1	0.3848138998728245	1.0	195.7414217002224	353.9194298000075	354.9241318001877	355.58597520017065	357.11668110010214	358.13035190012306	n/a	n/a	359.1375871000346	360.6269367001951	2020-11-11 13:27:52.334034	30.6116448761189	21.9934658433366	0.0	21.9934658433366	30.6116448761189	0.0	-30.6116448761189	21.9934658433366	0.0	30.6116448761189	0.0	7.038705965183301	19.567071109561766	17.151247951179037	-3.2130573320676232	12.76292639166076	23.634469230639887	-3.2130573320676232	6.366007534674525	19.994241504067013	0.4271703945052501	12.667797898543974	1.2703927205674395	1	missed	0.0
164.8053033000324	7.3492721000221195	nogo_punish	1.0	164.9267131998204	167.3670330999885	169.8807804998942	2.440319900168106	165.9315650998615	168.8712898998056	170.88693499984223	1.4354680001270026	1.0094906000886112	1.3890503000002923	n/a	1.0	n/a	1	0	25	1	nogo_punish	1	-1	0	0	0	1	0	n/a	n/a	0	1.0	1.0	195.7414217002224	360.6681349000428	361.6729868000839	363.1084548002109	364.612711600028	365.6222022001166	n/a	n/a	366.6283567000646	368.0174070000649	2020-11-11 13:27:52.334034	0.430172057408687	0.0	0.0	0.0	-0.430172057408687	0.0	-0.430172057408687	0.0	0.0	0.0	-0.430172057408687	0.0	-10.614401709148446	-4.842217892157563	-3.2130573320676232	-9.230539451675842	-7.407347702887698	-3.2130573320676232	-0.6726984305087756	-10.617403372051887	-0.0030016629034369524	-9.325667944792627	1.2703927205674395	1	missed	0.0
172.1921517001465	6.765575099969283	go_punish	1.0	172.3135615999345	174.3548171999865	176.873226699885	2.0412556000520112	173.31805089977573	175.85998209984976	177.88078339979992	1.036766300210786	1.0132446000352502	1.1983533001038609	n/a	1.0	n/a	1	0	26	2	go_punish	1	0	-1	1	0	0	0	n/a	n/a	-1	1.0	1.0	195.7414217002224	368.0549833001569	369.0594725999981	370.0962389002089	371.60140380007215	372.6146484001074	n/a	n/a	373.6222051000223	374.8205584001262	2020-11-11 13:27:52.334034	1.80599850871983	-1.93156572940952	-1.13324960509028	-1.40554150510186	-2.93924811381012	-1.13324960509028	-1.80599850871983	-1.13324960509028	-1.93156572940952	-1.13324960509028	-2.93924811381012	-3.87395004256826	-9.238575257837303	-6.773783621567083	-4.3463069371579035	-10.636080956777702	-9.916423759289131	-4.3463069371579035	-4.546648473077036	-11.750652977142167	-2.51207771930487	-10.458917549882907	-0.6611730088420806	1	missed	0.0
178.999476400204	7.386051999870688	nogo_reward	0.8318092001136392	179.120886299992	181.54743219981904	184.0892627998256	2.4265458998270333	180.12609849986623	183.0794830999803	185.0968104999047	1.421333699952811	1.0097796998452964	1.4101277999579906	n/a	1.0	n/a	1	0	27	3	nogo_reward	1	0	1	0	1	0	0	n/a	n/a	0	0.8318092001136392	1.0	195.7414217002224	374.8623080002144	375.8675202000886	377.28885390004143	378.8209048002027	379.830684500048	n/a	n/a	380.8382322001271	382.2483600000851	2020-11-11 13:27:52.334034	-0.430172057408687	0.0	0.0	0.0	-0.430172057408687	0.0	0.430172057408687	0.0	0.0	-0.430172057408687	0.0	0.0	-11.474745823965819	-4.842217892157563	-3.2130573320676232	-9.230539451675842	-7.407347702887698	-3.2130573320676232	-0.6726984305087756	-11.047575429460574	0.4271703945052501	-9.325667944792627	1.2703927205674395	1	missed	0.0
186.42611150001176	6.285908500198275	nogo_reward	0.4837969001382589	186.54752139979976	187.8243361997884	190.3639754999895	1.2768147999886423	187.55175839993169	189.355066199787	191.3714779999573	0.2725777998567196	1.0089093002025038	1.4619519000407308	n/a	1.0	n/a	1	0	28	3	nogo_reward	1	0	1	0	1	0	0	n/a	n/a	0	0.4837969001382589	1.0	195.7414217002224	382.28894310002215	383.2931801001541	383.5657579000108	385.0964879000094	386.1053972002119	n/a	n/a	387.1128997001797	388.5748516002204	2020-11-11 13:27:52.334034	-0.430172057408687	0.0	0.0	0.0	-0.430172057408687	0.0	0.430172057408687	0.0	0.0	-0.430172057408687	0.0	0.0	-11.474745823965819	-4.842217892157563	-3.2130573320676232	-9.230539451675842	-7.407347702887698	-3.2130573320676232	-0.6726984305087756	-11.047575429460574	0.4271703945052501	-9.325667944792627	1.2703927205674395	1	missed	0.0
192.7608227999881	5.847051999997348	go_punish	0.5252355998381972	192.8822326997761	194.3179568999913	196.85985219990843	1.4357242002151906	193.88756479998122	195.84902529977265	197.86662969994362	0.4303921000100672	1.0108269001357826	0.8626549998298287	n/a	1.0	n/a	1	0	29	2	go_punish	1	0	-1	1	1	1	0	n/a	n/a	0	0.5252355998381972	1.0	195.7414217002224	388.6236543999985	389.6289865002036	390.0593786002137	391.59044699999504	392.6012739001308	n/a	n/a	393.608051400166	394.47070639999583	2020-11-11 13:27:52.334034	-0.884274620379508	-1.93156572940952	-2.61831554065654	-2.7952094115223	-3.50259016103605	-2.61831554065654	0.884274620379508	-1.93156572940952	-2.61831554065654	-3.50259016103605	-2.61831554065654	1.93156572940952	-11.92884838693664	-6.773783621567083	-5.831372872724163	-12.025748863198142	-10.479765806515061	-5.831372872724163	1.2588672989007446	-14.119993533087937	-2.19114514615129	-11.257233674202148	-1.3479228200891005	1	missed	0.0
198.64325740002096	7.353979800129366	go_punish	0.3023733000736683	198.76466729980896	201.52783139981332	204.06879039993512	2.76316410000436	199.76901079993698	203.0595670999028	205.075295599876	1.7588205998763442	1.0092233000323176	1.0433515000623288	n/a	1.0	n/a	1	0	30	2	go_punish	1	0	-1	1	1	1	0	n/a	n/a	0	0.3023733000736683	1.0	195.7414217002224	394.50608900003135	395.51043250015937	397.2692531000357	398.8009888001252	399.8102121001575	n/a	n/a	400.8167173000984	401.8600688001607	2020-11-11 13:27:52.334034	0.364686538101605	-1.13324960509028	-2.61831554065654	-1.67770091355252	-2.25362900255493	-2.61831554065654	-0.364686538101605	-1.13324960509028	-2.61831554065654	-2.25362900255493	-2.61831554065654	1.13324960509028	-10.679887228455527	-5.975467497247843	-5.831372872724163	-10.908240365228362	-9.23080464803394	-5.831372872724163	0.4605511745815044	-12.871032374606818	-2.19114514615129	-10.458917549882907	-1.3479228200891005	1	missed	0.0
206.04073200002313	6.703580100089255	go_punish	0.2931959999259561	206.16214189981113	208.3819381999784	210.92169079999442	2.2197963001672747	207.16848759981806	209.9121675998904	211.92852009995843	1.2134506001603427	1.009523200104013	0.9372018999419538	n/a	1.0	n/a	1	0	31	2	go_punish	1	0	-1	1	1	1	1	n/a	n/a	0	0.2931959999259561	1.0	195.7414217002224	401.9035636000335	402.90990930004045	404.1233599002008	405.6535893001128	406.6631125002168	n/a	n/a	407.6699418001808	408.6071437001228	2020-11-11 13:27:52.334034	1.07222066621411	-0.68674981124702	-2.61831554065654	-1.03755008492757	-1.54609487444243	-2.61831554065654	-1.07222066621411	-0.68674981124702	-2.61831554065654	-1.54609487444243	-2.61831554065654	0.68674981124702	-9.972353100343023	-5.528967703404582	-5.831372872724163	-10.268089536603412	-8.523270519921441	-5.831372872724163	0.014051380738244301	-12.163498246494317	-2.19114514615129	-10.012417756039648	-1.3479228200891005	1	missed	0.0
212.78016770002432	6.739800699986461	go_reward	0.551121300086379	212.90157759981233	214.87902929983105	217.42440189979973	1.9774517000187188	213.90596449980515	216.40979649988012	218.4315720999148	0.9730648000258952	1.014605399919617	1.2098061998839853	n/a	1.0	n/a	1	0	32	4	go_reward	1	1	0	1	1	1	0	n/a	n/a	1	0.551121300086379	1.0	195.7414217002224	408.6429993000347	409.64738620002754	410.62045100005344	412.1512182001025	413.1658236000221	n/a	n/a	414.1729938001372	415.3828000000212	2020-11-11 13:27:52.334034	34.1611280934966	24.5002956993238	0.0	24.5002956993238	34.1611280934966	0.0	-34.1611280934966	24.5002956993238	0.0	34.1611280934966	0.0	4.5318761091961015	23.116554326939468	19.658077807166237	-3.2130573320676232	15.269756247647958	27.18395244801759	-3.2130573320676232	3.8591776786873258	23.54372472144471	0.4271703945052501	15.174627754531173	1.2703927205674395	1	missed	0.0
219.55918540013954	6.136372099863365	go_reward	0.2881872002035379	219.68059529992755	221.37388979992832	223.91860209987502	1.6932945000007749	220.68441529991114	222.90599759994083	224.9248878997751	0.6894745000171838	1.0126044999341843	0.892079500015825	n/a	1.0	n/a	1	0	33	4	go_reward	1	1	0	1	1	1	0	n/a	n/a	1	0.2881872002035379	1.0	195.7414217002224	415.42201700014994	416.4258370001335	417.1153115001507	418.6474193001632	419.6600238000974	n/a	n/a	420.6663095999975	421.5583891000133	2020-11-11 13:27:52.334034	36.3569476442183	26.048371107465	0.0	26.048371107465	36.3569476442183	0.0	-36.3569476442183	26.048371107465	0.0	36.3569476442183	0.0	2.9838007010549	25.31237387766117	21.206153215307438	-3.2130573320676232	16.81783165578916	29.37977199873929	-3.2130573320676232	2.311102270546124	25.739544272166412	0.4271703945052501	16.722703162672374	1.2703927205674395	1	missed	0.0
225.73691219999455	5.7549103000201285	go_punish	1.0	225.85832209978255	227.32589049986566	229.83951359987262	1.4675684000831097	226.86149279982791	228.83025939995431	230.84685249999168	0.4643977000377504	1.0092541999183027	0.7663798998109996	n/a	1.0	n/a	1	0	34	2	go_punish	0	-1	0	1	0	0	0	n/a	n/a	0	1.0	1.0	195.7414217002224	421.59974380000494	422.6029145000503	423.06731220008805	424.5716811001767	425.580935300095	n/a	n/a	426.5882742002141	427.3546541000251	2020-11-11 13:27:52.334034	-1.48758296807105	-0.427515581405375	-2.61831554065654	-0.657860973914514	-1.13073257258549	-2.61831554065654	1.48758296807105	-2.61831554065654	-0.427515581405375	-2.61831554065654	-1.13073257258549	2.61831554065654	-12.532156734628183	-5.269733473562938	-5.831372872724163	-9.888400425590357	-8.1079082180645	-5.831372872724163	1.9456171101477642	-13.235718912708428	-0.7035621780802399	-11.943983485449166	0.8428771391620644	1	missed	0.0
231.5266103001777	6.260177399963084	go_reward	0.3091283999383449	231.6480201999657	233.01011889986697	235.5563723999076	1.362098699901253	232.6521557997912	234.5423012999818	236.5629271999933	0.3579631000757786	1.0140710999257863	1.3452703999354867	n/a	1.0	n/a	1	0	35	4	go_reward	1	1	0	1	1	1	1	n/a	n/a	1	0.3091283999383449	1.0	195.7414217002224	427.3894419001881	428.3935775000136	428.75154060008936	430.2837230002042	431.29779410013	n/a	n/a	432.3043489002157	433.6496193001512	2020-11-11 13:27:52.334034	37.7497541476645	27.0293066485086	0.0	27.0293066485086	37.7497541476645	0.0	-37.7497541476645	27.0293066485086	0.0	37.7497541476645	0.0	2.0028651600113	26.705180381107365	22.187088756351038	-3.2130573320676232	17.79876719683276	30.772578502185485	-3.2130573320676232	1.3301667295025243	27.132350775612608	0.4271703945052501	17.703638703715974	1.2703927205674395	1	missed	0.0
237.8227976001799	6.7803863999433815	go_punish	1.0	237.94420749996792	239.8079445997719	242.32675359980212	1.8637370998039842	238.9489566998091	241.3127724998631	243.33375809993603	0.8589878999628127	1.0139810999390306	1.3908357999752639	n/a	1.0	n/a	1	0	36	2	go_punish	1	0	-1	1	0	0	1	n/a	n/a	-1	1.0	1.0	195.7414217002224	433.6856292001903	434.6903784000315	435.5493662999943	437.0541942000855	438.0681753000245	n/a	n/a	439.0751798001584	440.4660156001337	2020-11-11 13:27:52.334034	-0.525929980411961	-0.427515581405375	-1.56076518649566	-0.426086749408088	-1.0348352060837	-1.56076518649566	0.525929980411961	-1.56076518649566	-0.427515581405375	-1.56076518649566	-1.0348352060837	-3.4464344611628803	-11.570503746969093	-5.269733473562938	-4.773822518563283	-9.65662620108393	-8.01201085156271	-4.773822518563283	-4.119132891671656	-12.178168558547547	-0.60766481157845	-10.886433131288287	0.8428771391620644	1	missed	0.0
244.64267860003753	7.016073800157699	go_reward	0.2956494998652488	244.76408849982553	247.0977372999769	249.64391739992428	2.3336488001513658	245.7689361998346	248.63055739994164	250.6506550998893	1.3288011001423001	1.0133599999826401	1.12950720009394	n/a	1.0	n/a	1	0	37	4	go_reward	1	1	0	1	1	1	1	n/a	n/a	1	0.2956494998652488	1.0	195.7414217002224	440.5055102000479	441.510357900057	442.8391590001993	444.371979100164	445.38533910014667	n/a	n/a	446.3920768001117	447.5215840002056	2020-11-11 13:27:52.334034	38.6522566986382	27.6646721825239	0.0	27.6646721825239	38.6522566986382	0.0	-38.6522566986382	27.6646721825239	0.0	38.6522566986382	0.0	1.3674996259960004	27.607682932081065	22.822454290366338	-3.2130573320676232	18.43413273084806	31.675081053159186	-3.2130573320676232	0.6948011954872247	28.03485332658631	0.4271703945052501	18.339004237731274	1.2703927205674395	1	missed	0.0
251.70214000018314	6.231775599997491	nogo_reward	1.0	251.82354989997114	253.1447176998481	255.66313119977715	1.321167799876946	252.82857249979858	254.64984099986034	256.6704676998779	0.31614520004950464	1.0132901999168098	1.3848578000906855	n/a	1.0	n/a	1	0	38	3	nogo_reward	1	0	1	0	0	1	0	n/a	n/a	1	1.0	1.0	195.7414217002224	447.56497160019353	448.569994200021	448.8861394000705	450.39126270008273	451.40455289999954	n/a	n/a	452.41188940010034	453.796747200191	2020-11-11 13:27:52.334034	0.430172057408687	0.0	0.0	0.0	-0.430172057408687	0.0	-0.430172057408687	0.0	0.0	0.0	-0.430172057408687	29.0321718085199	-10.614401709148446	-4.842217892157563	-3.2130573320676232	-9.230539451675842	-7.407347702887698	-3.2130573320676232	28.359473378011128	-10.617403372051887	-0.0030016629034369524	-9.325667944792627	1.2703927205674395	1	missed	0.0
257.97040260001086	6.0591427001636475	go_reward	0.334815900074318	258.09181249979883	259.44029439985763	261.98583829985	1.3484819000587436	259.0969319997821	260.9722996999044	262.99243699992076	0.3433624000754776	1.0135385999456048	1.1585182000417262	n/a	1.0	n/a	1	0	39	4	go_reward	1	1	0	1	1	1	1	n/a	n/a	1	0.334815900074318	1.0	195.7414217002224	453.83323420002125	454.8383537000045	455.18171610008	456.7137214001268	457.7272600000724	n/a	n/a	458.7338587001432	459.8923769001849	2020-11-11 13:27:52.334034	39.247988633405	28.0841289628357	0.0	28.0841289628357	39.247988633405	0.0	-39.247988633405	28.0841289628357	0.0	39.247988633405	0.0	0.9480428456842027	28.20341486684787	23.241911070678135	-3.2130573320676232	18.853589511159857	32.27081298792599	-3.2130573320676232	0.27534441517542707	28.63058526135311	0.4271703945052501	18.75846101804307	1.2703927205674395	1	missed	0.0
264.0692990000825	5.856173800071758	go_reward	0.3127018001396209	264.1907088998705	265.58348329993896	268.12850299989805	1.3927744000685038	265.1952394999098	267.11487099993974	269.1351116998121	0.3882438000291586	1.0136319999583066	0.9117710001301589	n/a	1.0	n/a	1	0	40	4	go_reward	1	1	0	1	1	1	0	n/a	n/a	1	0.3127018001396209	1.0	195.7414217002224	459.9321306000929	460.9366612001322	461.3249050001614	462.85629270016216	463.86992470012046	n/a	n/a	464.8765334000345	465.78830440016463	2020-11-11 13:27:52.334034	39.647706792196	28.3657464118763	0.0	28.3657464118763	39.647706792196	0.0	-39.647706792196	28.3657464118763	0.0	39.647706792196	0.0	0.6664253966436	28.603133025638865	23.523528519718738	-3.2130573320676232	19.13520696020046	32.67053114671699	-3.2130573320676232	-0.006273033865175637	29.030303420144108	0.4271703945052501	19.040078467083674	1.2703927205674395	1	missed	0.0
269.9661485000979	6.038785299984738	nogo_reward	1.0	270.0875583998859	271.5850072999019	274.10225129988976	1.4974489000160247	271.09139819978736	273.08889749995444	275.1089213998057	0.49360910011455417	1.0133537999353734	1.0174223000649363	n/a	1.0	n/a	1	0	41	3	nogo_reward	1	0	1	0	0	1	0	n/a	n/a	1	1.0	1.0	195.7414217002224	465.8289801001083	466.8328199000098	467.32642900012434	468.8303192001768	469.8436730001122	n/a	n/a	470.8503431000281	471.86776540009305	2020-11-11 13:27:52.334034	7.19700008361328	0.0	11.4258687676119	11.4258687676119	4.22886868399859	11.4258687676119	-7.19700008361328	11.4258687676119	0.0	11.4258687676119	4.22886868399859	17.606303040908003	-3.8475736829438523	-4.842217892157563	8.212811435544278	2.1953293159360587	-2.748306961480421	8.212811435544278	16.93360461039923	0.8084653955600132	4.65603907850384	2.1002008228192732	1.2703927205674395	1	missed	0.0
276.0400253001135	6.019751099869609	go_reward	0.2935969999525696	276.16143519990146	277.6655937999021	280.2122354998719	1.5041586000006077	277.1656126999296	279.19824419985525	281.219688099809	0.4999810999725014	1.0139913000166416	0.9614981999620795	n/a	1.0	n/a	1	0	42	4	go_reward	1	1	0	1	1	1	1	n/a	n/a	1	0.2935969999525696	1.0	195.7414217002224	471.9028569001239	472.907034400152	473.4070155001245	474.93966590007767	475.9536572000943	n/a	n/a	476.9611098000314	477.9226079999935	2020-11-11 13:27:52.334034	39.9198616807098	28.5576919879132	0.0	28.5576919879132	39.9198616807098	0.0	-39.9198616807098	28.5576919879132	0.0	39.9198616807098	0.0	0.47447982060670313	28.87528791415267	23.715474095755635	-3.2130573320676232	19.327152536237357	32.94268603523079	-3.2130573320676232	-0.19821860990207252	29.30245830865791	0.4271703945052501	19.23202404312057	1.2703927205674395	1	missed	0.0
282.0997174000368	6.80468000005925	nogo_punish	1.0	282.22112729982484	284.18795929988846	286.70275799999945	1.9668320000636754	283.22619679989293	285.69273989996884	287.7101317998022	0.9617624999955297	1.0100181000306634	1.315675500081852	n/a	1.0	n/a	1	0	43	1	nogo_punish	1	-1	0	0	0	1	0	n/a	n/a	0	1.0	1.0	195.7414217002224	477.9625490000472	478.96761850011535	479.9293810001109	481.4341616001912	482.44417970022187	n/a	n/a	483.4515535000246	484.76722900010645	2020-11-11 13:27:52.334034	0.430172057408687	0.0	0.0	0.0	-0.430172057408687	0.0	-0.430172057408687	0.0	0.0	0.0	-0.430172057408687	0.0	-10.614401709148446	-4.842217892157563	-3.2130573320676232	-9.230539451675842	-7.407347702887698	-3.2130573320676232	-0.6726984305087756	-10.617403372051887	-0.0030016629034369524	-9.325667944792627	1.2703927205674395	1	missed	0.0
288.9393597000744	7.024711800040677	nogo_punish	1.0	289.0607695998624	291.5798594998196	294.10206019994814	2.51908989995718	290.0649832999334	293.08444729982887	295.1091159998905	1.5148761998862028	1.0176129001192749	0.9763654000125825	n/a	1.0	n/a	1	0	44	1	nogo_punish	0	0	-1	0	0	1	0	n/a	n/a	-1	1.0	1.0	195.7414217002224	484.8021913000848	485.8064050001558	487.321281200042	488.8258690000512	489.8434819001705	n/a	n/a	490.8505377001129	491.8269031001255	2020-11-11 13:27:52.334034	0.430172057408687	0.0	0.0	0.0	-0.430172057408687	0.0	-0.430172057408687	0.0	0.0	0.0	-0.430172057408687	-5.00719964765854	-10.614401709148446	-4.842217892157563	-3.2130573320676232	-9.230539451675842	-7.407347702887698	-3.2130573320676232	-5.679898078167316	-10.617403372051887	-0.0030016629034369524	-9.325667944792627	1.2703927205674395	1	missed	0.0
296.0053818000015	7.550541599979624	go_punish	0.521146500017494	296.12679169978946	298.88804629980586	301.43216799991205	2.7612546000164	297.13127599982556	300.42134409979917	302.4387480998412	1.75677029998036	1.0108239001128823	1.2385851999279112	n/a	1.0	n/a	1	0	45	2	go_punish	1	0	-1	1	1	1	0	n/a	n/a	0	0.521146500017494	1.0	195.7414217002224	491.8682134000119	492.8726977000479	494.6294680000283	496.1627658000216	497.17358970013447	n/a	n/a	498.1801698000636	499.4187549999915	2020-11-11 13:27:52.334034	1.13212660700978	-0.427515581405375	-2.89060744066811	-2.21268568817601	-1.75848083365833	-2.89060744066811	-1.13212660700978	-0.427515581405375	-2.89060744066811	-1.75848083365833	-2.89060744066811	0.427515581405375	-9.912447159547352	-5.269733473562938	-6.103664772735733	-11.443225139851851	-8.73565647913734	-6.103664772735733	-0.24518284910340066	-12.375884205710218	-2.46343704616286	-9.753183526198002	-1.6202147201006707	1	missed	0.0
303.5956338001415	6.949350599898025	go_reward	0.3058865999337286	303.7170436999295	305.7180508999154	308.2615017998032	2.0010071999859065	304.7219319997821	307.2523538998794	309.2693707998842	0.9961189001332968	1.0091478999237893	1.397023499943316	n/a	1.0	n/a	1	0	46	4	go_reward	0	0	1	1	1	1	0	n/a	n/a	0	0.3058865999337286	1.0	195.7414217002224	499.4584654001519	500.4633537000045	501.4594726001378	502.9937756001018	504.0029235000256	n/a	n/a	505.0107925001066	506.40781600004993	2020-11-11 13:27:52.334034	40.1076414730917	28.6903205778361	0.0	28.6903205778361	40.1076414730917	0.0	-40.1076414730917	28.6903205778361	0.0	40.1076414730917	0.0	-28.6903205778361	29.063067706534564	23.848102685678537	-3.2130573320676232	19.45978112616026	33.13046582761269	-3.2130573320676232	-29.363019008344875	29.490238101039807	0.4271703945052501	19.364652633043473	1.2703927205674395	1	missed	0.0
310.581943300087	7.240345299942419	go_reward	0.2668839001562446	310.703353199875	313.1260796999559	315.66658309986815	2.4227265000808984	311.70818579988565	314.6570576999802	316.6732598999515	1.4178939000702826	1.0095253998879912	1.2704385998658836	n/a	1.0	n/a	1	0	47	4	go_reward	0	0	1	1	1	1	0	n/a	n/a	0	0.2668839001562446	1.0	195.7414217002224	506.4447749000974	507.449607500108	508.8675014001783	510.3984794002026	511.40800480009057	n/a	n/a	512.4146816001739	513.6851202000398	2020-11-11 13:27:52.334034	24.1538852175216	17.3572522251943	0.0	17.3572522251943	24.1538852175216	0.0	-24.1538852175216	17.3572522251943	0.0	24.1538852175216	0.0	-17.3572522251943	13.10931145096447	12.515034333036738	-3.2130573320676232	8.12671277351846	17.17670957204259	-3.2130573320676232	-18.029950655703075	13.536481845469714	0.4271703945052501	8.031584280401674	1.2703927205674395	1	missed	0.0
317.8636207000818	5.782526700058952	nogo_reward	1.0	317.9850305998698	319.3387955999933	321.8588510998525	1.3537650001235306	318.98985649994574	320.8446991997771	322.86535909981467	0.34893910004757345	1.014151900075376	0.9021982001140714	n/a	1.0	n/a	1	0	48	3	nogo_reward	1	0	1	0	0	1	0	n/a	n/a	1	1.0	1.0	195.7414217002224	513.7264523000922	514.7312782001682	515.0802173002157	516.5861208999995	517.6002728000749	n/a	n/a	518.6067808000371	519.5089790001512	2020-11-11 13:27:52.334034	11.0710747472816	0.0	18.023387524204	18.023387524204	6.95231277692239	18.023387524204	-11.0710747472816	18.023387524204	0.0	18.023387524204	6.95231277692239	11.008784284315901	0.026500980724467382	-4.842217892157563	14.810330192136377	8.792848072528159	-0.02486286855662101	14.810330192136377	10.336085853807125	7.405984152152113	7.37948317142764	8.697719579411373	1.2703927205674395	1	missed	0.0
323.6852230001241	6.3017740000505	nogo_punish	1.0	323.8066328999121	325.3748219998088	327.8902479999233	1.5681890998966992	324.8121648998931	326.880389199825	328.8969950999599	0.5626570999156684	1.0098588000983	1.2114118000026792	n/a	1.0	n/a	1	0	49	1	nogo_punish	1	-1	0	0	0	1	0	n/a	n/a	0	1.0	1.0	195.7414217002224	519.5480546001345	520.5535866001155	521.1162437000312	522.6218109000474	523.6316697001457	n/a	n/a	524.6384168001823	525.849828600185	2020-11-11 13:27:52.334034	-0.717504055931122	0.0	-1.93156572940952	-1.93156572940952	-1.2140616734784	-1.93156572940952	0.717504055931122	-1.93156572940952	0.0	-1.93156572940952	-1.2140616734784	1.93156572940952	-11.762077822488255	-4.842217892157563	-5.1446230614771435	-11.162105181085362	-8.19123731895741	-5.1446230614771435	1.2588672989007446	-12.548969101461408	-0.7868912789731499	-11.257233674202148	1.2703927205674395	1	missed	0.0
330.0243191001937	6.3114767000079155	go_punish	0.2897971998900175	330.14572899998166	331.9933439998422	334.54083539987914	1.8476149998605251	331.15025589987636	333.5267420997843	335.5471217997838	0.8430880999658257	1.014093300094828	0.910083900205791	n/a	1.0	n/a	1	0	50	2	go_punish	0	-1	0	1	1	1	0	n/a	n/a	-1	0.2897971998900175	1.0	195.7414217002224	525.8871507002041	526.8916776000988	527.7347657000646	529.2681638000067	530.2822571001016	n/a	n/a	531.2885435000062	532.198627400212	2020-11-11 13:27:52.334034	1.64552233286538	-0.272291900011573	-2.89060744066811	-1.32177775208677	-1.24508510780273	-2.89060744066811	-1.64552233286538	-0.272291900011573	-2.89060744066811	-1.24508510780273	-2.89060744066811	-4.734907747646967	-9.399051433691753	-5.114509792169136	-6.103664772735733	-10.552317203762613	-8.222260753281741	-6.103664772735733	-5.407606178155743	-11.862488479854617	-2.46343704616286	-9.597959844804201	-1.6202147201006707	1	missed	0.0
336.3726402001921	6.702144999988377	go_reward	0.2907001001294702	336.4940500999801	338.15843429998495	340.70414709998295	1.6643842000048608	337.49936489993706	339.69058519997634	341.71064049983397	0.6590694000478834	1.0135619000066072	1.485554600134492	n/a	1.0	n/a	1	0	51	4	go_reward	1	1	0	1	1	1	0	n/a	n/a	1	0.2907001001294702	1.0	195.7414217002224	532.2354718002025	533.2407866001595	533.8998560002074	535.4320069001988	536.4455688002054	n/a	n/a	537.4520622000564	538.9376168001909	2020-11-11 13:27:52.334034	14.9255675036535	10.8254266783806	0.0	10.8254266783806	14.9255675036535	0.0	-14.9255675036535	10.8254266783806	0.0	14.9255675036535	0.0	18.206745130139304	3.880993737096368	5.983208786223037	-3.2130573320676232	1.594887226704758	7.94839185817449	-3.2130573320676232	17.53404669963053	4.308164131601613	0.4271703945052501	1.4997587335879725	1.2703927205674395	1	missed	0.0
343.11557320016436	6.319477800047025	go_punish	1.0	343.23698309995234	344.79358899989165	347.3126373998821	1.5566058999393135	344.2409108998254	346.2987752999179	348.3201080998406	0.5526781000662595	1.0138620999641716	1.2363528001587838	n/a	1.0	n/a	1	0	52	2	go_punish	1	0	-1	1	0	0	1	n/a	n/a	-1	1.0	1.0	195.7414217002224	538.9784048001748	539.9823326000478	540.5350107001141	542.0401970001403	543.0540591001045	n/a	n/a	544.061529800063	545.2978826002218	2020-11-11 13:27:52.334034	0.768400650023244	-2.10845960027528	-2.89060744066811	-2.74661069130442	-3.65900809069135	-2.89060744066811	-0.768400650023244	-2.89060744066811	-2.10845960027528	-2.89060744066811	-3.65900809069135	-2.11659220699043	-10.276173116533888	-6.950677492432843	-6.103664772735733	-11.977150142980262	-10.636183736170361	-6.103664772735733	-2.7892906374992057	-13.508010812719998	-3.2318376961861	-12.216275385460737	-0.8380668797078406	1	missed	0.0
349.47737430012785	6.831769699929282	nogo_reward	1.0	349.5987841999158	351.43589289998636	353.95452269981615	1.8371087000705302	350.6031805998646	352.94096209993586	354.9610775997862	0.8327123001217842	1.013560599880293	1.4694763000588864	n/a	1.0	n/a	1	0	53	3	nogo_reward	1	0	1	0	0	1	0	n/a	n/a	1	1.0	1.0	195.7414217002224	545.3402059001382	546.344602300087	547.1773146002088	548.6823838001583	549.6959444000386	n/a	n/a	550.7024993000086	552.1719756000675	2020-11-11 13:27:52.334034	13.3749088125369	0.0	21.9714499742809	21.9714499742809	8.59654116174403	21.9714499742809	-13.3749088125369	21.9714499742809	0.0	21.9714499742809	8.59654116174403	7.060721834239001	2.3303350459797674	-4.842217892157563	18.758392642213277	12.74091052260506	1.6193655162650193	18.758392642213277	6.388023403730225	11.354046602229014	9.02371155624928	12.645782029488274	1.2703927205674395	1	missed	0.0
356.3463779001031	5.845263299997896	go_punish	0.2830755000468343	356.4677877998911	358.00801819982007	360.55058269994333	1.540230399928987	357.4720074997749	359.5395136999432	361.55680629983544	0.5360107000451535	1.011069000000134	0.7562448000535369	n/a	1.0	n/a	1	0	54	2	go_punish	1	0	-1	1	1	1	1	n/a	n/a	0	0.2830755000468343	1.0	195.7414217002224	552.2092095001135	553.2134291999973	553.7494399000425	555.2809354001656	556.2920044001658	n/a	n/a	557.2982280000579	558.0544728001114	2020-11-11 13:27:52.334034	-0.331357813860059	-2.10845960027528	-3.66922478677093	-3.58080174401142	-4.00058260063099	-3.66922478677093	0.331357813860059	-2.10845960027528	-3.66922478677093	-4.00058260063099	-3.66922478677093	2.10845960027528	-11.375931580417191	-6.950677492432843	-6.882282118838553	-12.811341195687262	-10.97775824611	-6.882282118838553	1.4357611697665043	-14.617985972682877	-3.24205439226568	-11.434127545067907	-2.3988320662034903	1	missed	0.0
362.2309402001556	6.125212999992073	go_reward	0.2855634000152349	362.3523500999436	363.68352449988015	366.22882619989105	1.3311743999365717	363.35726699978113	365.21521329996176	367.23550649988465	0.3262575000990182	1.013612899929285	1.2420566000510007	n/a	1.0	n/a	1	0	55	4	go_reward	1	1	0	1	1	1	0	n/a	n/a	1	0.2855634000152349	1.0	195.7414217002224	558.093771800166	559.0986887000035	559.4249462001026	560.9566350001842	561.9702479001135	n/a	n/a	562.9769282001071	564.2189848001581	2020-11-11 13:27:52.334034	25.4843261305553	18.3502465116704	0.0	18.3502465116704	25.4843261305553	0.0	-25.4843261305553	18.3502465116704	0.0	25.4843261305553	0.0	10.681925296849503	14.439752363998167	13.508028619512835	-3.2130573320676232	9.119707059994557	18.507150485076288	-3.2130573320676232	10.009226866340727	14.866922758503412	0.4271703945052501	9.024578566877771	1.2703927205674395	1	missed	0.0
368.3925303001888	6.581973799970001	go_reward	0.2855800001416355	368.5139401999768	370.0775613998994	372.62210389995016	1.5636211999226362	369.5189545999747	371.60845639999025	373.62830499978736	0.5586067999247462	1.0136474999599159	1.4676090001594275	n/a	1.0	n/a	1	0	56	4	go_reward	1	1	0	1	1	1	0	n/a	n/a	1	0.2855800001416355	1.0	195.7414217002224	564.2553619001992	565.2603763001971	565.8189831001218	567.3498781002127	568.3635256001726	n/a	n/a	569.3697267000098	570.8373357001692	2020-11-11 13:27:52.334034	31.40046972767	22.5486934433501	0.0	22.5486934433501	31.40046972767	0.0	-31.40046972767	22.5486934433501	0.0	31.40046972767	0.0	6.483478365169802	20.355895961112868	17.706475551192536	-3.2130573320676232	13.318153991674258	24.42329408219099	-3.2130573320676232	5.810779934661026	20.78306635561811	0.4271703945052501	13.223025498557472	1.2703927205674395	1	missed	0.0
375.0108862000052	6.373129400191829	go_reward	0.32816579984501	375.13229609979317	376.60192969976924	379.14805749990046	1.4696335999760777	376.1367801998276	378.1315000997856	380.1550546998624	0.46514949994161725	1.0165574001148343	1.3503708001226187	n/a	1.0	n/a	1	0	57	4	go_reward	1	1	0	1	1	1	1	n/a	n/a	1	0.32816579984501	1.0	195.7414217002224	570.8737178000156	571.87820190005	572.3433513999917	573.872921800008	574.8894792001229	n/a	n/a	575.8964764000848	577.2468472002074	2020-11-11 13:27:52.334034	34.8440427776938	24.9845604589845	0.0	24.9845604589845	34.8440427776938	0.0	-34.8440427776938	24.9845604589845	0.0	34.8440427776938	0.0	4.047611349535401	23.79946901113667	20.142342566826937	-3.2130573320676232	15.754021007308658	27.86686713221479	-3.2130573320676232	3.3749129190266256	24.22663940564191	0.4271703945052501	15.658892514191873	1.2703927205674395	1	missed	0.0
381.42435610014945	7.123709499835968	go_reward	0.2754628001712262	381.54576599993743	384.11769909993745	386.6618143999949	2.571933100000024	382.55044479994103	385.648425599793	387.6690910998732	1.5672542999964207	1.0133888002019376	1.0003843999002129	n/a	1.0	n/a	1	0	58	4	go_reward	1	1	0	1	1	1	1	n/a	n/a	1	0.2754628001712262	1.0	195.7414217002224	577.2871877001598	578.2918665001635	579.8591208001599	581.3898473000154	582.4032361002173	n/a	n/a	583.4105128000956	584.4108971999958	2020-11-11 13:27:52.334034	36.9123507854282	26.444082282964	0.0	26.444082282964	36.9123507854282	0.0	-36.9123507854282	26.444082282964	0.0	36.9123507854282	0.0	2.588089525555901	25.86777701887107	21.601864390806437	-3.2130573320676232	17.21354283128816	29.93517513994919	-3.2130573320676232	1.9153910950471253	26.294947413376313	0.4271703945052501	17.118414338171373	1.2703927205674395	1	missed	0.0
388.5896025002003	7.0278075998649	nogo_reward	1.0	388.71101239998825	390.7577635999769	393.27539509977214	2.0467511999886483	389.7155900998041	392.26258379989304	394.28242549998686	1.0421735001727939	1.012811299879104	1.4563944998662919	n/a	1.0	n/a	1	0	59	3	nogo_reward	1	0	1	0	0	1	0	n/a	n/a	1	1.0	1.0	195.7414217002224	584.4524341002107	585.4570118000265	586.4991853001993	588.0040055001155	589.0168167999946	n/a	n/a	590.0238472002093	591.4802417000756	2020-11-11 13:27:52.334034	14.7885269785854	0.0	24.4045144000035	24.4045144000035	9.61598742141817	24.4045144000035	-14.7885269785854	24.4045144000035	0.0	24.4045144000035	9.61598742141817	4.627657408516402	3.743953212028268	-4.842217892157563	21.191457067935875	15.173974948327658	2.6388117759391596	21.191457067935875	3.9549589780076264	13.787111027951612	10.04315781592342	15.078846455210872	1.2703927205674395	1	missed	0.0
395.65698279999197	6.236707600066438	nogo_reward	1.0	395.77839269977994	397.6831444997806	400.2018084998708	1.9047518000006676	396.78280919999816	399.1880356997717	401.20912629994564	0.900335299782455	1.0137728000991046	0.8059739999007434	n/a	1.0	n/a	1	0	60	3	nogo_reward	1	0	1	0	0	1	0	n/a	n/a	1	1.0	1.0	195.7414217002224	591.5198144000024	592.5242309002206	593.424566200003	594.9294573999941	595.9432302000932	n/a	n/a	596.950548000168	597.7565220000688	2020-11-11 13:27:52.334034	15.6791208758096	0.0	25.9415282934135	25.9415282934135	10.262407417604	25.9415282934135	-15.6791208758096	25.9415282934135	0.0	25.9415282934135	10.262407417604	3.0906435151064002	4.634547109252468	-4.842217892157563	22.728470961345877	16.71098884173766	3.28523177212499	22.728470961345877	2.4179450845976245	15.324124921361614	10.68957781210925	16.615860348620874	1.2703927205674395	1	missed	0.0
