onset	duration	trial_type	response_time	cueOnset	targetOnset	fbOnset	cueRT	firstfixOnset	secondfixOnset	waitOnset	firstfixdur	secondfixdur	waitdur	nback_fbOnset	nback_response_time	nback_targetOnset	block	wm	trial	cue	cond	is_common	outcome_go	outcome_nogo	key_correct	key_pressed	is_correct	key_correct_nback	key_pressed_nback	is_correct_nback	outcome	rt	rt_nback	time_scan	time_onset	time_isi1	time_circle	time_isi2	time_feedback	time_same	time_correct	time_iti	time_done	timestamp_scan	DV	Qgo	Qnogo	SV	Wgo	Wnogo	mDV	Qchosen	Qunchosen	Wchosen	Wunchosen	PE	DVC	QgoC	QnogoC	SVC	WgoC	WnogoC	PEC	WchosenC	WunchosenC	QchosenC	QunchosenC	run	outcome_nback	nback_targetResp
0.0	7.280013399897143	nogo_reward	1.0	0.02909409999847412	2.510594599880278	5.031490699853748	2.481500499881804	1.03557930001989	4.017343399813399	6.03962739999406	1.475015299860388	1.0141473000403494	1.269480099901557	n/a	1.0	n/a	1	0	61	3	nogo_reward	1	0	1	0	0	1	1	n/a	n/a	1	1.0	1.0	661.6700966001954	661.6991907001939	662.7056759002153	664.1806912000757	665.6874400000088	666.7015873000491	n/a	n/a	667.7097240001895	668.979204100091	2020-11-11 13:35:38.262228	16.2530814711996	0.0	26.9333601250465	26.9333601250465	10.6802786538469	26.9333601250465	-16.2530814711996	26.9333601250465	0.0	26.9333601250465	10.6802786538469	2.0988116834734	5.208507704642468	-4.842217892157563	23.720302792978877	17.70282067337066	3.703103008367889	23.720302792978877	1.4261132529646243	16.315956752994616	11.10744904835215	17.607692180253874	1.2703927205674395	2	missed	0.0
7.320266599999741	6.978517899988219	go_reward	0.2825368999037891	7.349360699998215	9.890698099974543	12.437303300015628	2.541337399976328	8.3542935999576	11.423343600006774	13.44427049998194	1.5364045000169426	1.0139597000088543	0.8836081000044942	n/a	1.0	n/a	1	0	62	4	go_reward	1	1	0	1	1	1	0	n/a	n/a	1	0.2825368999037891	1.0	661.6700966001954	669.0194573001936	670.024390200153	671.5607947001699	673.0934402002022	674.107399900211	n/a	n/a	675.1143671001773	675.9979752001818	2020-11-11 13:35:38.262228	38.1879359217353	27.342669214644	0.0	27.342669214644	38.1879359217353	0.0	-38.1879359217353	27.342669214644	0.0	38.1879359217353	0.0	1.6895025938759005	27.14336215517817	22.500451322486438	-3.2130573320676232	18.11212976296816	31.21076027625629	-3.2130573320676232	1.0168041633671248	27.570532549683413	0.4271703945052501	18.017001269851374	1.2703927205674395	2	missed	0.0
14.335079499986023	7.6735610999166965	nogo_punish	1.0	14.364173599984497	17.133331699995324	19.64793989993632	2.769158100010827	15.368140099802986	18.638544799992815	20.654537599999458	1.7651916001923382	1.0093950999435037	1.3831970999017358	n/a	1.0	n/a	1	0	63	1	nogo_punish	1	-1	0	0	0	1	0	n/a	n/a	0	1.0	1.0	661.6700966001954	676.0342702001799	677.0382366999984	678.8034283001907	680.3086414001882	681.3180365001317	n/a	n/a	682.3246342001949	683.7078313000966	2020-11-11 13:35:38.262228	-0.23877176023289	0.0	-1.13324960509028	-1.13324960509028	-0.894477844857393	-1.13324960509028	0.23877176023289	-1.13324960509028	0.0	-1.13324960509028	-0.894477844857393	1.13324960509028	-11.283345526790022	-4.842217892157563	-4.3463069371579035	-10.363789056766121	-7.871653490336404	-4.3463069371579035	0.4605511745815044	-11.750652977142167	-0.46730745035214294	-10.458917549882907	1.2703927205674395	2	missed	0.0
22.045411200029776	6.147317999973893	go_punish	0.3473577999975532	22.07450530002825	23.43589959992096	25.978248999919742	1.3613942998927087	23.079992099897936	24.968520399881527	26.9848613999784	0.3559075000230223	1.0097286000382155	1.2369619000237435	n/a	1.0	n/a	1	0	64	2	go_punish	1	0	-1	1	1	1	0	n/a	n/a	0	0.3473577999975532	1.0	661.6700966001954	683.7446019002236	684.7500887000933	685.1059962001164	686.6386170000769	687.6483456001151	n/a	n/a	688.6549580001738	689.8919199001975	2020-11-11 13:35:38.262228	1.10264519040308	-1.25018533214714	-3.66922478677093	-2.1540451736907	-2.56657959636785	-3.66922478677093	-1.10264519040308	-1.25018533214714	-3.66922478677093	-2.56657959636785	-3.66922478677093	1.25018533214714	-9.941928576154051	-6.092403224304703	-6.882282118838553	-11.384584625366543	-9.54375524184686	-6.882282118838553	0.5774869016383642	-13.183982968419738	-3.24205439226568	-10.575853276939768	-2.3988320662034903	2	missed	0.0
28.232498899800703	7.011032000184059	nogo_punish	1.0	28.261592999799177	30.7306637999136	33.244971399893984	2.469070800114423	29.266043199924752	32.23556789988652	34.25238609989174	1.464620599988848	1.0094035000074655	1.020238900091499	n/a	1.0	n/a	1	0	65	1	nogo_punish	1	-1	0	0	0	1	1	n/a	n/a	0	1.0	1.0	661.6700966001954	689.9316895999946	690.9361398001201	692.400760400109	693.9056645000819	694.9150680000894	n/a	n/a	695.9224827000871	696.9427216001786	2020-11-11 13:35:38.262228	0.0267342744911251	0.0	-0.68674981124702	-0.68674981124702	-0.713484085738145	-0.68674981124702	-0.0267342744911251	-0.68674981124702	0.0	-0.68674981124702	-0.713484085738145	0.68674981124702	-11.017839492066008	-4.842217892157563	-3.8998071433146433	-9.917289262922862	-7.690659731217155	-3.8998071433146433	0.014051380738244301	-11.304153183298908	-0.28631369123289496	-10.012417756039648	1.2703927205674395	2	missed	0.0
35.27957869996317	7.145884400000796	nogo_punish	1.0	35.30867279996164	38.04048409988172	40.55528059997596	2.731811299920082	36.312484699999914	39.54619529983029	41.56221409980208	1.72799939988181	1.0090853001456708	0.8923431001603603	n/a	1.0	n/a	1	0	66	1	nogo_punish	1	-1	0	0	0	1	0	n/a	n/a	0	1.0	1.0	661.6700966001954	696.978769400157	697.9825813001953	699.7105807000771	701.2162919000257	702.2253772001714	n/a	n/a	703.2323106999975	704.1246538001578	2020-11-11 13:35:38.262228	0.179865081664975	0.0	-0.427515581405375	-0.427515581405375	-0.60738066307035	-0.427515581405375	-0.179865081664975	-0.427515581405375	0.0	-0.427515581405375	-0.60738066307035	0.427515581405375	-10.864708684892157	-4.842217892157563	-3.6405729134729983	-9.658055033081217	-7.58455630854936	-3.6405729134729983	-0.24518284910340066	-11.044918953457262	-0.18021026856509992	-9.753183526198002	1.2703927205674395	2	missed	0.0
42.46781189995818	6.912015300011262	nogo_reward	1.0	42.49690599995665	44.53963919985108	47.057379100006074	2.0427331998944283	43.50161909987219	46.04432230000384	48.06395209999755	1.038020099978894	1.0130568000022322	1.3449691999703646	n/a	1.0	n/a	1	0	67	3	nogo_reward	1	0	1	0	0	1	0	n/a	n/a	1	1.0	1.0	661.6700966001954	704.167002600152	705.1717157000676	706.2097358000465	707.7144189001992	708.7274757002015	n/a	n/a	709.734048700193	711.0790179001633	2020-11-11 13:35:38.262228	16.6303884679358	0.0	27.5853850008749	27.5853850008749	10.9549965329391	27.5853850008749	-16.6303884679358	27.5853850008749	0.0	27.5853850008749	10.9549965329391	1.446786807645001	5.585814701378666	-4.842217892157563	24.372327668807277	18.35484554919906	3.9778208874600898	24.372327668807277	0.7740883771362254	16.96798162882301	11.38216692744435	18.259717056082273	1.2703927205674395	2	missed	0.0
49.42047769995406	5.888336899923161	nogo_punish	1.0	49.44957179995254	50.796908600023016	53.31188079994172	1.3473368000704795	50.45424019987695	52.30216859979555	54.319142799824476	0.34266840014606714	1.0097122001461685	1.0187659000512213	n/a	1.0	n/a	1	0	68	1	nogo_punish	1	-1	0	0	0	1	1	n/a	n/a	0	1.0	1.0	661.6700966001954	711.1196684001479	712.1243368000723	712.4670052002184	713.9722651999909	714.9819774001371	n/a	n/a	715.9892394000199	717.0080053000711	2020-11-11 13:35:38.262228	0.271084696940319	0.0	-0.272291900011573	-0.272291900011573	-0.543376596951891	-0.272291900011573	-0.271084696940319	-0.272291900011573	0.0	-0.272291900011573	-0.543376596951891	0.272291900011573	-10.773489069616813	-4.842217892157563	-3.485349232079196	-9.502831351687416	-7.5205522424309015	-3.485349232079196	-0.40040653049720265	-10.889695272063461	-0.11620620244664093	-9.597959844804201	1.2703927205674395	2	missed	0.0
55.34547429997474	6.6719263000413775	nogo_punish	1.0	55.374568399973214	57.139536699978635	59.653791199903935	1.764968300005421	56.37865650001913	58.64496179996058	60.66127489996143	0.7608801999595016	1.0088293999433517	1.3852198000531644	n/a	1.0	n/a	1	0	69	1	nogo_punish	1	-1	0	0	0	1	0	n/a	n/a	0	1.0	1.0	661.6700966001954	717.0446650001686	718.0487531002145	718.809633300174	720.315058400156	721.3238878000993	n/a	n/a	722.3313715001568	723.71659130021	2020-11-11 13:35:38.262228	0.326928916361602	0.0	-0.176893870865758	-0.176893870865758	-0.50382278722736	-0.176893870865758	-0.326928916361602	-0.176893870865758	0.0	-0.176893870865758	-0.50382278722736	0.176893870865758	-10.71764485019553	-4.842217892157563	-3.389951202933381	-9.4074333225416	-7.480998432706371	-3.389951202933381	-0.4958045596430176	-10.794297242917645	-0.07665239272210989	-9.502561815658385	1.2703927205674395	2	missed	0.0
62.05440239980817	7.457764100050554	go_punish	0.2916733999736607	62.08349649980664	64.51061329990625	67.05218899995089	2.4271168000996113	63.0878170998767	66.0433068999555	68.05905209993944	1.422796200029552	1.0088820999953896	1.4822084999177605	n/a	1.0	n/a	1	0	70	2	go_punish	1	0	-1	1	1	1	0	n/a	n/a	0	0.2916733999736607	1.0	661.6700966001954	723.753593100002	724.7579137000721	726.1807099001016	727.7134035001509	728.7222856001463	n/a	n/a	729.7291487001348	731.2113572000526	2020-11-11 13:35:38.262228	1.92178814028936	-0.765258184915997	-3.66922478677093	-1.3347512477318	-1.74743664648157	-3.66922478677093	-1.92178814028936	-0.765258184915997	-3.66922478677093	-1.74743664648157	-3.66922478677093	0.765258184915997	-9.122785626267772	-5.60747607707356	-6.882282118838553	-10.565290699407642	-8.72461229196058	-6.882282118838553	0.0925597544072213	-12.364840018533457	-3.24205439226568	-10.090926129708624	-2.3988320662034903	2	missed	0.0
69.55238759983331	5.791387600125745	nogo_punish	1.0	69.58148169983178	71.08568219980225	73.5998038998805	1.504200499970466	70.58518109982833	72.5909347999841	74.60695449984632	0.500501099973917	1.0088690998964012	0.7659148001112044	n/a	1.0	n/a	1	0	71	1	nogo_punish	1	-1	0	0	0	1	1	n/a	n/a	0	1.0	1.0	661.6700966001954	731.2515783000272	732.2552777000237	732.7557787999976	734.2610314001795	735.2699005000759	n/a	n/a	736.2770511000417	737.0429659001529	2020-11-11 13:35:38.262228	0.361929277297423	0.0	-0.116935727056858	-0.116935727056858	-0.478865004354281	-0.116935727056858	-0.361929277297423	-0.116935727056858	0.0	-0.116935727056858	-0.478865004354281	0.116935727056858	-10.68264448925971	-4.842217892157563	-3.3299930591244813	-9.347475178732699	-7.456040649833292	-3.3299930591244813	-0.5557627034519177	-10.734339099108745	-0.051694609849030904	-9.442603671849485	1.2703927205674395	2	missed	0.0
75.38028489984572	6.557794600026682	nogo_punish	1.0	75.4093789998442	77.24663039995357	79.76319590001367	1.8372514001093805	76.41460229991935	78.7525183998514	80.76934279990382	0.832028100034222	1.0106775001622736	1.1978307999670506	n/a	1.0	n/a	1	0	72	1	nogo_punish	1	-1	0	0	0	1	0	n/a	n/a	0	1.0	1.0	661.6700966001954	737.0794756000396	738.0846989001147	738.916727000149	740.4226150000468	741.4332925002091	n/a	n/a	742.4394394000992	743.6372702000663	2020-11-11 13:35:38.262228	0.384320121653772	0.0	-0.0785083736689773	-0.0785083736689773	-0.462828495322749	-0.0785083736689773	-0.384320121653772	-0.0785083736689773	0.0	-0.0785083736689773	-0.462828495322749	0.0785083736689773	-10.66025364490336	-4.842217892157563	-3.2915657057366006	-9.30904782534482	-7.44000414080176	-3.2915657057366006	-0.5941900568397983	-10.695911745720865	-0.03565810081749893	-9.404176318461605	1.2703927205674395	2	missed	0.0
81.97308909986168	5.955631700111553	nogo_punish	1.0	82.00218319986016	83.57025210000575	86.08914489997551	1.5680689001455903	83.00768479984254	85.07562459982	87.09603609982878	0.5625673001632094	1.0135203001555055	0.861778800142929	n/a	1.0	n/a	1	0	73	1	nogo_punish	0	0	-1	0	0	1	1	n/a	n/a	-1	1.0	1.0	661.6700966001954	743.6722798000555	744.6777814000379	745.2403487002011	746.7457212000154	747.7592415001709	n/a	n/a	748.7661327000242	749.6279115001671	2020-11-11 13:35:38.262228	0.398906134056396	0.0	-0.0534515216433821	-0.0534515216433821	-0.452357655699778	-0.0534515216433821	-0.398906134056396	-0.0534515216433821	0.0	-0.0534515216433821	-0.452357655699778	-4.953748126015158	-10.645667632500736	-4.842217892157563	-3.2665088537110054	-9.283990973319224	-7.429533301178789	-3.2665088537110054	-5.626446556523934	-10.67085489369527	-0.02518726119452791	-9.37911946643601	1.2703927205674395	2	missed	0.0
87.97293639997952	6.314168300013989	nogo_reward	1.0	88.00203049997799	89.33218869986013	91.85192099981941	1.3301581998821348	89.00681289983913	90.83847129996866	92.85865599988028	0.32537580002099276	1.013449699850753	1.4575428001116961	n/a	1.0	n/a	1	0	74	3	nogo_reward	1	0	1	0	0	1	0	n/a	n/a	1	1.0	1.0	661.6700966001954	749.6721271001734	750.6769095000345	751.0022853000555	752.508567900164	753.5220176000148	n/a	n/a	754.5287526000757	755.9862954001874	2020-11-11 13:35:38.262228	16.8828197447427	0.0	28.0211384801416	28.0211384801416	11.1383187353988	28.0211384801416	-16.8828197447427	28.0211384801416	0.0	28.0211384801416	11.1383187353988	1.0110333283783	5.838245978185569	-4.842217892157563	24.808081148073978	18.79059902846576	4.161143089919789	24.808081148073978	0.3383348978695243	17.403735108089712	11.56548912990405	18.695470535348974	1.2703927205674395	2	missed	0.0
94.32319849985652	6.743120500119403	nogo_punish	1.0	94.35229259985499	96.25794359995052	98.77377249998972	1.9056510000955313	95.35736639983952	97.76379639981315	99.78043409995735	0.9005772001110017	1.0099761001765728	1.314979000017047	n/a	1.0	n/a	1	0	75	1	nogo_punish	1	-1	0	0	0	1	1	n/a	n/a	0	1.0	1.0	661.6700966001954	756.0223892000504	757.0274630000349	757.9280402001459	759.4338930000085	760.4438691001851	n/a	n/a	761.4505307001527	762.7655097001698	2020-11-11 13:35:38.262228	-0.739113097489942	0.0	-1.96842485174918	-1.96842485174918	-1.22931175425923	-1.96842485174918	0.739113097489942	-1.96842485174918	0.0	-1.96842485174918	-1.22931175425923	1.96842485174918	-11.783686864047073	-4.842217892157563	-5.1814821838168035	-11.198964303425022	-8.20648739973824	-5.1814821838168035	1.2957264212404045	-12.585828223801068	-0.8021413597539799	-11.294092796541808	1.2703927205674395	2	missed	0.0
101.10964449984021	6.539599600015208	nogo_reward	1.0	101.13873859983869	102.80442920001224	105.32277580001391	1.6656906001735479	102.14335989998654	104.3091623999644	106.32926869997755	0.6610693000257015	1.0136134000495076	1.3490694998763502	n/a	1.0	n/a	1	0	76	3	nogo_reward	1	0	1	0	0	1	1	n/a	n/a	1	1.0	1.0	661.6700966001954	762.8088352000341	763.8134565001819	764.4745258002076	765.9792590001598	766.9928724002093	n/a	n/a	767.9993653001729	769.3484348000493	2020-11-11 13:35:38.262228	17.0543946631457	0.0	28.3166970583523	28.3166970583523	11.2623023952066	28.3166970583523	-17.0543946631457	28.3166970583523	0.0	28.3166970583523	11.2623023952066	0.7154747501676013	6.009820896588568	-4.842217892157563	25.103639726284676	19.08615760667646	4.285126749727589	25.103639726284676	0.04277631965882567	17.699293686300415	11.68947278971185	18.991029113559673	1.2703927205674395	2	missed	0.0
107.69518429995514	7.746890699956566	nogo_reward	1.0	107.72427839995362	110.55699429986998	113.07456729980186	2.8327158999163657	108.72941999998875	112.06439989991486	114.08260679990053	1.8275742998812348	1.0101673998869956	1.388562300009653	n/a	1.0	n/a	1	0	77	3	nogo_reward	0	1	0	0	0	1	0	n/a	n/a	0	1.0	1.0	661.6700966001954	769.394375000149	770.3995166001841	772.2270909000654	773.7344965001103	774.7446638999972	n/a	n/a	775.7527034000959	777.1412657001056	2020-11-11 13:35:38.262228	17.1727005690733	0.0	28.5198824421023	28.5198824421023	11.347181873029	28.5198824421023	-17.1727005690733	28.5198824421023	0.0	28.5198824421023	11.347181873029	-28.5198824421023	6.128126802516167	-4.842217892157563	25.306825110034676	19.28934299042646	4.370006227549989	25.306825110034676	-29.192580872611074	17.90247907005041	11.77435226753425	19.194214497309673	1.2703927205674395	2	missed	0.0
115.47919699992053	7.006624300032854	go_reward	0.2485303999856114	115.508291099919	118.12080119992606	120.67040760000236	2.612510100007057	116.5128702998627	119.65530109987594	121.6770020998083	1.6079309000633657	1.0151065001264215	0.8379133001435548	n/a	1.0	n/a	1	0	78	4	go_reward	1	1	0	1	1	1	0	n/a	n/a	1	0.2485303999856114	1.0	661.6700966001954	777.1783877001144	778.1829669000581	779.7908978001215	781.3253977000713	782.3405042001978	n/a	n/a	783.3470987000037	784.1850120001473	2020-11-11 13:35:38.262228	38.9926795024755	27.9089440462755	0.0	27.9089440462755	38.9926795024755	0.0	-38.9926795024755	27.9089440462755	0.0	38.9926795024755	0.0	1.123227762244401	27.948105735918364	23.066726154117937	-3.2130573320676232	18.67840459459966	32.01550385699649	-3.2130573320676232	0.45052933173562526	28.375276130423607	0.4271703945052501	18.583276101482873	1.2703927205674395	2	missed	0.0
122.52262519998476	5.85371489985846	nogo_punish	1.0	122.55171929998323	124.11071389983408	126.62572079990059	1.5589945998508483	123.55635440000333	125.61585409985855	127.63291639997624	0.5543594998307526	1.0098667000420392	0.7725177998654544	n/a	1.0	n/a	1	0	79	1	nogo_punish	1	-1	0	0	0	1	0	n/a	n/a	0	1.0	1.0	661.6700966001954	784.2218159001786	785.2264510001987	785.7808105000295	787.285950700054	788.295817400096	n/a	n/a	789.3030130001716	790.0755308000371	2020-11-11 13:35:38.262228	-0.253893063422818	0.0	-1.15896731932204	-1.15896731932204	-0.905074255899218	-1.15896731932204	0.253893063422818	-1.15896731932204	0.0	-1.15896731932204	-0.905074255899218	1.15896731932204	-11.29846682997995	-4.842217892157563	-4.372024651389664	-10.389506770997881	-7.882249901378229	-4.372024651389664	0.48626888881326435	-11.776370691373927	-0.4779038613939679	-10.484635264114667	1.2703927205674395	2	missed	0.0
128.41509449994192	7.114104999927804	nogo_punish	1.0	128.4441885999404	130.79772149981	133.3118973998353	2.353532899869606	129.44895459990948	132.303048199974	134.31973439990543	1.348766899900511	1.008849199861288	1.238559199962765	n/a	1.0	n/a	1	0	80	1	nogo_punish	1	-1	0	0	0	1	0	n/a	n/a	0	1.0	1.0	661.6700966001954	790.1142852001358	791.1190512001049	792.4678181000054	793.9731448001694	794.9819940000307	n/a	n/a	795.9898310001008	797.2283902000636	2020-11-11 13:35:38.262228	0.0160301938919514	0.0	-0.704890709543269	-0.704890709543269	-0.72092090343522	-0.704890709543269	-0.0160301938919514	-0.704890709543269	0.0	-0.704890709543269	-0.72092090343522	0.704890709543269	-11.02854357266518	-4.842217892157563	-3.9179480416108925	-9.935430161219111	-7.698096548914231	-3.9179480416108925	0.0321922790344934	-11.322294081595157	-0.2937505089299699	-10.030558654335897	1.2703927205674395	2	missed	0.0
135.56565399980173	6.115170600125566	nogo_punish	1.0	135.5947480998002	137.02936249994673	139.54517950001173	1.434614400146529	136.59957989980467	138.53557369997725	140.55190989980474	0.4297826001420617	1.0096058000344783	1.1580088001210243	n/a	1.0	n/a	1	0	81	1	nogo_punish	1	-1	0	0	0	1	1	n/a	n/a	0	1.0	1.0	661.6700966001954	797.2648446999956	798.2696765000001	798.6994591001421	800.2056703001726	801.2152761002071	n/a	n/a	802.2220065000001	803.3800153001212	2020-11-11 13:35:38.262228	0.172205696939057	0.0	-0.440443236044618	-0.440443236044618	-0.612648932983675	-0.440443236044618	-0.172205696939057	-0.440443236044618	0.0	-0.440443236044618	-0.612648932983675	0.440443236044618	-10.872368069618075	-4.842217892157563	-3.653500568112241	-9.67098268772046	-7.589824578462686	-3.653500568112241	-0.23225519446415765	-11.057846608096506	-0.18547853847842488	-9.766111180837246	1.2703927205674395	2	missed	0.0
141.7244239000138	7.613858699798584	go_punish	0.2768041999079287	141.75351800001226	144.71437039994635	147.25809379993007	2.9608523999340832	142.75731020001695	146.24839570000768	148.26519820000976	1.9570601999294013	1.0096980999223888	1.1021784998010844	n/a	1.0	n/a	1	0	82	2	go_punish	1	0	-1	1	1	1	0	n/a	n/a	0	0.2768041999079287	1.0	661.6700966001954	803.4236146002077	804.4274068002123	806.3844670001417	807.9184923002031	808.9281904001255	n/a	n/a	809.9352948002052	811.0374733000062	2020-11-11 13:35:38.262228	2.40633597881668	-0.480967103048757	-3.66922478677093	-0.847838804495738	-1.26288880795425	-3.66922478677093	-2.40633597881668	-0.480967103048757	-3.66922478677093	-1.26288880795425	-3.66922478677093	0.480967103048757	-8.638237787740453	-5.3231849952063195	-6.882282118838553	-10.07837825617158	-8.240064453433261	-6.882282118838553	-0.19173132746001864	-11.880292180006137	-3.24205439226568	-9.806635047841384	-2.3988320662034903	2	missed	0.0
149.37783929985017	6.832757500000298	go_reward	0.3029455000068992	149.40693339984864	151.1953579999972	153.7425126999151	1.7884246001485735	150.41114440001547	152.7274625999853	154.75012460001744	0.7842135999817401	1.0150500999297947	1.4895662998314947	n/a	1.0	n/a	1	0	83	4	go_reward	1	1	0	1	1	1	0	n/a	n/a	1	0.3029455000068992	1.0	661.6700966001954	811.077030000044	812.0812410002109	812.8654546001926	814.3975592001807	815.4126093001105	n/a	n/a	816.4202212002128	817.9097875000443	2020-11-11 13:35:38.262228	39.5105115975548	28.2731191669183	0.0	28.2731191669183	39.5105115975548	0.0	-39.5105115975548	28.2731191669183	0.0	39.5105115975548	0.0	0.7590526416016026	28.46593783099767	23.430901274760735	-3.2130573320676232	19.042579715242457	32.533335952075795	-3.2130573320676232	0.08635421109282693	28.893108225502914	0.4271703945052501	18.94745122212567	1.2703927205674395	2	missed	0.0
156.24523169989698	7.088579599978402	nogo_punish	1.0	156.27432579989545	158.8459873998072	161.36065299995244	2.5716615999117494	157.2790256999433	160.3512006998062	162.36688639991917	1.5669616998638958	1.0094523001462221	0.9960189999546856	n/a	1.0	n/a	1	0	84	1	nogo_punish	1	-1	0	0	0	1	0	n/a	n/a	0	1.0	1.0	661.6700966001954	817.9444224000908	818.9491223001387	820.5160840000026	822.0212973000016	823.0307496001478	n/a	n/a	824.0369830001146	825.0330020000692	2020-11-11 13:35:38.262228	0.265548029143249	0.0	-0.281593492242678	-0.281593492242678	-0.547141521385927	-0.281593492242678	-0.265548029143249	-0.281593492242678	0.0	-0.281593492242678	-0.547141521385927	0.281593492242678	-10.779025737413884	-4.842217892157563	-3.4946508243103014	-9.51213294391852	-7.524317166864938	-3.4946508243103014	-0.39110493826609766	-10.898996864294565	-0.1199711268806769	-9.607261437035305	1.2703927205674395	2	missed	0.0
163.3695582000073	7.191708299797028	nogo_punish	1.0	163.39865230000578	165.8206479998771	168.33959979983047	2.4219956998713315	164.4035834998358	167.3263441999443	169.34764169994742	1.417064500041306	1.013255599886179	1.2427188998553902	n/a	1.0	n/a	1	0	85	1	nogo_punish	0	0	-1	0	0	1	0	n/a	n/a	-1	1.0	1.0	661.6700966001954	825.0687489002012	826.0736801000312	827.4907446000725	828.9964408001397	830.0096964000259	n/a	n/a	831.0177383001428	832.2604571999982	2020-11-11 13:35:38.262228	0.322888032668427	0.0	-0.183647707571678	-0.183647707571678	-0.506535740240105	-0.183647707571678	-0.322888032668427	-0.183647707571678	0.0	-0.183647707571678	-0.506535740240105	-4.823551940086862	-10.721685733888705	-4.842217892157563	-3.396705039639301	-9.41418715924752	-7.483711385719116	-3.396705039639301	-5.496250370595638	-10.801051079623566	-0.07936534573485488	-9.509315652364306	1.2703927205674395	2	missed	0.0
170.6022067000158	5.943324799882248	go_punish	0.3793913999106735	170.6313008000143	172.02388859982602	174.56668499996886	1.3925877998117357	171.63551659998484	173.55706149991602	175.57400839985348	0.3883719998411834	1.0096235000528395	1.0006172000430524	n/a	1.0	n/a	1	0	86	2	go_punish	1	0	-1	1	1	1	0	n/a	n/a	0	0.3793913999106735	1.0	661.6700966001954	832.3013974002097	833.3056132001802	833.6939852000214	835.2271581001114	836.2367816001642	n/a	n/a	837.2441050000489	838.2447222000919	2020-11-11 13:35:38.262228	2.70134611332406	-0.30915102235123	-3.66922478677093	-0.550094976954405	-0.96787867344687	-3.66922478677093	-2.70134611332406	-0.30915102235123	-3.66922478677093	-0.96787867344687	-3.66922478677093	0.30915102235123	-8.343227653233072	-5.151368914508793	-6.882282118838553	-9.780634428630247	-7.94505431892588	-6.882282118838553	-0.36354740815754566	-11.585282045498758	-3.24205439226568	-9.634818967143858	-2.3988320662034903	2	missed	0.0
176.58296479983255	6.202968900091946	go_punish	0.3638961999677121	176.61205889983103	178.30536399991252	180.85517859994434	1.6933051000814885	177.61681919987313	179.84121819981374	181.86160760000348	0.6885448000393808	1.0139604001305997	0.953420199919492	n/a	1.0	n/a	1	0	87	2	go_punish	0	-1	0	1	1	1	0	n/a	n/a	-1	0.3638961999677121	1.0	661.6700966001954	838.2821555000264	839.2869158000685	839.9754606001079	841.5113148000091	842.5252752001397	n/a	n/a	843.5317042001989	844.4851244001184	2020-11-11 13:35:38.262228	2.88538793458851	-0.202611585097511	-3.66922478677093	-0.363569083429299	-0.783836852182423	-3.66922478677093	-2.88538793458851	-0.202611585097511	-3.66922478677093	-0.783836852182423	-3.66922478677093	-4.804588062561029	-8.159185831968623	-5.044829477255074	-6.882282118838553	-9.594108535105141	-7.761012497661434	-6.882282118838553	-5.477286493069805	-11.40124022423431	-3.24205439226568	-9.528279529890138	-2.3988320662034903	2	missed	0.0
182.82773459982127	6.463474699994549	nogo_reward	1.0	182.85682869981974	184.35548589983955	186.87443419988267	1.4986572000198066	183.86186830000952	185.86129039991647	187.8808610998094	0.4936175998300314	1.0131437999662012	1.4394423000048846	n/a	1.0	n/a	1	0	88	3	nogo_reward	1	0	1	0	0	1	0	n/a	n/a	1	1.0	1.0	661.6700966001954	844.5269253000151	845.5319649002049	846.025582500035	847.5313870001119	848.5445308000781	n/a	n/a	849.5509577000048	850.9904000000097	2020-11-11 13:35:38.262228	10.4885329237549	0.0	17.2354362224752	17.2354362224752	6.7469032987203	17.2354362224752	-10.4885329237549	17.2354362224752	0.0	17.2354362224752	6.7469032987203	11.7967355860447	-0.5560408428022328	-4.842217892157563	14.022378890407577	8.004896770799359	-0.2302723467587109	14.022378890407577	11.124037155535925	6.6180328504233135	7.17407369322555	7.9097682776825735	1.2703927205674395	2	missed	0.0
189.33198109990917	6.272955399937928	nogo_punish	1.0	189.36107519990765	190.8289794998709	193.34361119987443	1.4679042999632657	190.36583389993757	192.3347516998183	194.35060689994134	0.46314559993334115	1.0088595000561327	1.2834236999042332	n/a	1.0	n/a	1	0	89	1	nogo_punish	1	-1	0	0	0	1	0	n/a	n/a	0	1.0	1.0	661.6700966001954	851.031171800103	852.035930500133	852.4990761000663	854.0048483000137	855.0137078000698	n/a	n/a	856.0207035001367	857.304127200041	2020-11-11 13:35:38.262228	-0.78872309199309	0.0	-2.05344807180902	-2.05344807180902	-1.26472497981593	-2.05344807180902	0.78872309199309	-2.05344807180902	0.0	-2.05344807180902	-1.26472497981593	2.05344807180902	-11.833296858550222	-4.842217892157563	-5.266505403876643	-11.283987523484862	-8.24190062529494	-5.266505403876643	1.3807496413002442	-12.670851443860908	-0.8375545853106798	-11.379116016601648	1.2703927205674395	2	missed	0.0
195.64048179984093	6.400279700057581	go_reward	0.3120375999715179	195.6695758998394	197.58931049983948	200.13587699993514	1.9197346000000834	196.6742165000178	199.12209479999729	201.1425356999971	0.9150939998216927	1.0137821999378502	0.9273198998998851	n/a	1.0	n/a	1	0	90	4	go_reward	1	1	0	1	1	1	0	n/a	n/a	1	0.3120375999715179	1.0	661.6700966001954	857.3396725000348	858.3443131002132	859.2594071000349	860.7921914001927	861.8059736001305	n/a	n/a	862.8126323001925	863.7399522000924	2020-11-11 13:35:38.262228	39.8495918855772	28.5115615452498	0.0	28.5115615452498	39.8495918855772	0.0	-39.8495918855772	28.5115615452498	0.0	39.8495918855772	0.0	0.5206102632701004	28.805018119020065	23.669343653092238	-3.2130573320676232	19.28102209357396	32.87241624009819	-3.2130573320676232	-0.15208816723867524	29.23218851352531	0.4271703945052501	19.185893600457174	1.2703927205674395	2	missed	0.0
202.0785272999201	6.705074500059709	go_punish	0.256735400063917	202.10762139991857	204.07458909996785	206.61688599991612	1.9669677000492811	203.1128141998779	205.6066443999298	207.6236035998445	0.9617749000899494	1.0102415999863297	1.1890923001337796	n/a	1.0	n/a	1	0	91	2	go_punish	1	0	-1	1	1	1	0	n/a	n/a	0	0.256735400063917	1.0	661.6700966001954	863.777718000114	864.7829108000733	865.7446857001632	867.2767410001252	868.2869826001115	n/a	n/a	869.2937002000399	870.4827925001737	2020-11-11 13:35:38.262228	0.2871773190067	-2.06664235476262	-3.66922478677093	-2.17581718128372	-3.38204746776423	-3.66922478677093	-0.2871773190067	-2.06664235476262	-3.66922478677093	-3.38204746776423	-3.66922478677093	2.06664235476262	-10.757396447550432	-6.908860246920183	-6.882282118838553	-11.406356632959561	-10.35922311324324	-6.882282118838553	1.3939439242538443	-13.999450839816117	-3.24205439226568	-11.392310299555248	-2.3988320662034903	2	missed	0.0
208.82202839991078	6.92014649999328	nogo_punish	1.0	208.85112249990925	211.29037509998307	213.81040339986794	2.4392526000738144	209.85614369995892	212.796822699951	214.81718569993973	1.4342314000241458	1.013580699916929	0.9540832999628037	n/a	1.0	n/a	1	0	92	1	nogo_punish	0	0	-1	0	0	1	0	n/a	n/a	-1	1.0	1.0	661.6700966001954	870.5212191001046	871.5262403001543	872.9604717001785	874.4669193001464	875.4805000000633	n/a	n/a	876.4872823001351	877.4413656000979	2020-11-11 13:35:38.262228	-0.286834988267148	0.0	-1.21541108425384	-1.21541108425384	-0.928576095986691	-1.21541108425384	0.286834988267148	-1.21541108425384	0.0	-1.21541108425384	-0.928576095986691	-3.7917885634047	-11.331408754824281	-4.842217892157563	-4.428468416321463	-10.445950535929683	-7.905751741465702	-4.428468416321463	-4.464486993913476	-11.832814456305726	-0.5014057014814409	-10.541079029046468	1.2703927205674395	2	missed	0.0
215.77733559999615	6.0550686998758465	nogo_punish	1.0	215.80642969999462	217.12886759988032	219.64362169988453	1.3224378998856992	216.8119746998418	218.6345210999716	220.65068729990162	0.31689290003851056	1.0091005999129266	1.2108110999688506	n/a	1.0	n/a	1	0	93	1	nogo_punish	1	-1	0	0	0	1	0	n/a	n/a	0	1.0	1.0	661.6700966001954	877.47652630019	878.4820713000372	878.7989642000757	880.304617700167	881.3137183000799	n/a	n/a	882.320783900097	883.5315950000659	2020-11-11 13:35:38.262228	-1.15386443977896	0.0	-2.67448640336285	-2.67448640336285	-1.52062196358389	-2.67448640336285	1.15386443977896	-2.67448640336285	0.0	-2.67448640336285	-1.52062196358389	2.67448640336285	-12.198438206336093	-4.842217892157563	-5.887543735430473	-11.905025855038692	-8.4977976090629	-5.887543735430473	2.0017879728540744	-13.291889775414738	-1.09345156907864	-12.000154348155478	1.2703927205674395	2	missed	0.0
221.87511479994282	7.273934399941936	nogo_reward	1.0	221.9042088999413	224.18465179996565	226.70272069983184	2.2804429000243545	222.91002289997414	225.6900990998838	227.70972399995662	1.2746288999915123	1.0126215999480337	1.4684192999266088	n/a	1.0	n/a	1	0	94	3	nogo_reward	1	0	1	0	0	1	0	n/a	n/a	1	1.0	1.0	661.6700966001954	883.5743055001367	884.5801195001695	885.854748400161	887.3601957000792	888.3728173000272	n/a	n/a	889.379820600152	890.8482399000786	2020-11-11 13:35:38.262228	13.4397535373758	0.0	22.163358615071	22.163358615071	8.72360507769523	22.163358615071	-13.4397535373758	22.163358615071	0.0	22.163358615071	8.72360507769523	6.868813193448901	2.395179770818668	-4.842217892157563	18.950301283003377	12.932819163395159	1.7464294322162202	18.950301283003377	6.196114762940125	11.545955243019113	9.15077547220048	12.837690670278374	1.2703927205674395	2	missed	0.0
229.19365899986587	7.654282100033015	go_punish	0.310592700028792	229.22275309986435	231.98173010000028	234.5245900999289	2.7589770001359284	230.22722959984094	233.51477000000887	235.53181559988298	1.7545005001593381	1.0098200999200344	1.3452196000143886	n/a	1.0	n/a	1	0	95	2	go_punish	1	0	-1	1	1	1	0	n/a	n/a	0	0.310592700028792	1.0	661.6700966001954	890.8928497000597	891.8973262000363	893.6518267001957	895.1848666002043	896.1946867001243	n/a	n/a	897.2019122000784	898.5471318000928	2020-11-11 13:35:38.262228	1.48114679107723	-1.2246856333985	-3.66922478677093	-1.29976608318098	-2.1880779956937	-3.66922478677093	-1.48114679107723	-1.2246856333985	-3.66922478677093	-2.1880779956937	-3.66922478677093	1.2246856333985	-9.563426975479903	-6.066903525556063	-6.882282118838553	-10.530305534856822	-9.165253641172711	-6.882282118838553	0.5519872028897242	-12.805481367745587	-3.24205439226568	-10.550353578191128	-2.3988320662034903	2	missed	0.0
236.8838323999662	6.425246999831984	nogo_punish	1.0	236.91292649996467	238.57476709992625	241.0895738999826	1.6618405999615788	237.91737529984675	240.08001959999103	242.09620469994843	0.6573918000794947	1.0095542999915779	1.2419687998482232	n/a	1.0	n/a	1	0	96	1	nogo_punish	1	-1	0	0	0	1	0	n/a	n/a	0	1.0	1.0	661.6700966001954	898.5830231001601	899.5874719000421	900.2448637001216	901.7501162001864	902.759670500178	n/a	n/a	903.7663013001438	905.008270099992	2020-11-11 13:35:38.262228	-0.511938883030081	0.0	-1.59966406512486	-1.59966406512486	-1.08772518209478	-1.59966406512486	0.511938883030081	-1.59966406512486	0.0	-1.59966406512486	-1.08772518209478	1.59966406512486	-11.556512649587214	-4.842217892157563	-4.812721397192483	-10.830203516800701	-8.06490082757379	-4.812721397192483	0.9269656346160843	-12.217067437176748	-0.6605547875895299	-10.925332009917486	1.2703927205674395	2	missed	0.0
243.35868799989112	7.154278100002671	nogo_reward	1.0	243.3877820998896	245.60539769986644	248.12460380000982	2.2176155999768525	244.39197229989804	247.11092479992658	249.13111479999498	1.2134253999684006	1.0136790000832434	1.4109453998972867	n/a	1.0	n/a	1	0	97	3	nogo_reward	1	0	1	0	0	1	0	n/a	n/a	1	1.0	1.0	661.6700966001954	905.057878700085	906.0620689000934	907.2754943000618	908.781021400122	909.7947004002052	n/a	n/a	910.8012114001904	912.2121568000877	2020-11-11 13:35:38.262228	15.0518259982114	0.0	24.8836806757439	24.8836806757439	9.83185467753254	24.8836806757439	-15.0518259982114	24.8836806757439	0.0	24.8836806757439	9.83185467753254	4.148491132776002	4.0072522316542685	-4.842217892157563	21.670623343676276	15.653141224068058	2.8546790320535296	21.670623343676276	3.475792702267226	14.266277303692013	10.25902507203779	15.558012730951273	1.2703927205674395	2	missed	0.0
250.55344129982416	7.041496800025811	nogo_punish	1.0	250.58253539982263	253.3448859998026	255.86093620001338	2.762350599979982	251.5865128999576	254.85054509993643	256.8674149999862	1.7583730998450164	1.0103911000769585	0.7566171998622622	n/a	1.0	n/a	1	0	98	1	nogo_punish	1	-1	0	0	0	1	1	n/a	n/a	0	1.0	1.0	661.6700966001954	912.252632000018	913.256609500153	915.014982599998	916.5206417001318	917.5310328002088	n/a	n/a	918.5375116001816	919.2941288000438	2020-11-11 13:35:38.262228	-0.148426468120644	0.0	-0.986300712098557	-0.986300712098557	-0.837874243977912	-0.986300712098557	0.148426468120644	-0.986300712098557	0.0	-0.986300712098557	-0.837874243977912	0.986300712098557	-11.193000234677775	-4.842217892157563	-4.19935804416618	-10.2168401637744	-7.8150498894569225	-4.19935804416618	0.3136022815897813	-11.603704084150444	-0.4107038494726619	-10.311968656891185	1.2703927205674395	2	missed	0.0
257.63560319994576	7.233291300013548	go_punish	0.3433099999092519	257.66469729994424	259.996823000023	262.54109979979705	2.332125700078791	258.6698800998274	261.53166199987743	263.54867639997985	1.3269429001956041	1.009437799919624	1.3493121999779305	n/a	1.0	n/a	1	0	99	2	go_punish	1	0	-1	1	1	1	0	n/a	n/a	0	0.3433099999092519	1.0	661.6700966001954	919.3347939001396	920.3399767000228	921.6669196002184	923.2017586000728	924.2111963999924	n/a	n/a	925.2187730001752	926.5680852001532	2020-11-11 13:35:38.262228	2.15879958549073	-0.749502925121507	-3.66922478677093	-0.801792921729077	-1.51042520128021	-3.66922478677093	-2.15879958549073	-0.749502925121507	-3.66922478677093	-1.51042520128021	-3.66922478677093	0.749502925121507	-8.885774181066402	-5.59172081727907	-6.882282118838553	-10.03233237340492	-8.487600846759221	-6.882282118838553	0.07680449461273131	-12.127828573332097	-3.24205439226568	-10.075170869914134	-2.3988320662034903	2	missed	0.0
264.90559989982296	6.50575100001879	go_reward	0.3755359000060707	264.93469399982143	266.66255109990016	269.2101247999818	1.7278571000787224	265.93926929985184	268.19592849980097	270.2171528998298	0.7232818000483121	1.0141963001808563	1.2232921000104398	n/a	1.0	n/a	1	0	100	4	go_reward	1	1	0	1	1	1	0	n/a	n/a	1	0.3755359000060707	1.0	661.6700966001954	926.6047906000168	927.6093659000472	928.3326477000955	929.8660250999964	930.8802214001772	n/a	n/a	931.8872495000252	933.1105416000356	2020-11-11 13:35:38.262228	40.0751202941834	28.6702080980283	0.0	28.6702080980283	40.0751202941834	0.0	-40.0751202941834	28.6702080980283	0.0	40.0751202941834	0.0	0.3619637104916009	29.030546527626267	23.827990205870737	-3.2130573320676232	19.43966864635246	33.09794464870439	-3.2130573320676232	-0.3107347200171747	29.45771692213151	0.4271703945052501	19.344540153235673	1.2703927205674395	2	missed	0.0
271.4509813999757	5.997507199877987	nogo_punish	1.0	271.4800754999742	273.04359859996464	275.558800800005	1.563523099990448	272.48476709984243	274.54857370001264	276.56577689992264	0.55883150012221	1.0102270999923348	0.9118057999295388	n/a	1.0	n/a	1	0	101	1	nogo_punish	1	-1	0	0	0	1	0	n/a	n/a	0	1.0	1.0	661.6700966001954	933.1501721001696	934.1548637000378	934.71369520016	936.218670300208	937.2288974002004	n/a	n/a	938.235873500118	939.1476793000476	2020-11-11 13:35:38.262228	0.0651879951916513	0.0	-0.62372326270839	-0.62372326270839	-0.688911257900042	-0.62372326270839	-0.0651879951916513	-0.62372326270839	0.0	-0.62372326270839	-0.688911257900042	0.62372326270839	-10.97938577136548	-4.842217892157563	-3.8367805947760134	-9.854262714384232	-7.666086903379052	-3.8367805947760134	-0.04897516780038569	-11.241126634760278	-0.26174086339479197	-9.949391207501018	1.2703927205674395	2	missed	0.0
277.48558439989574	6.808780000079423	go_reward	0.2799051001202315	277.5146784998942	279.3653491998558	281.9257568998728	1.8506706999615972	278.52110909996543	280.91219489998184	282.93215659982525	0.844240099890385	1.0135619998909533	1.3913019001483917	n/a	1.0	n/a	1	0	102	4	go_reward	1	1	0	1	1	1	1	n/a	n/a	1	0.2799051001202315	1.0	661.6700966001954	939.1847751000896	940.1912057001608	941.0354458000512	942.5822915001772	943.5958535000682	n/a	n/a	944.6022532000206	945.993555100169	2020-11-11 13:35:38.262228	40.2272609871999	28.7773099740494	0.0	28.7773099740494	40.2272609871999	0.0	-40.2272609871999	28.7773099740494	0.0	40.2272609871999	0.0	0.25486183447050337	29.182687220642766	23.935092081891835	-3.2130573320676232	19.546770522373556	33.25008534172089	-3.2130573320676232	-0.4178365960382723	29.60985761514801	0.4271703945052501	19.45164202925677	1.2703927205674395	2	missed	0.0
284.3322624999565	6.145400600041967	go_reward	0.302297200076282	284.361356599955	285.83093299996096	288.3702828998212	1.4695764000059626	285.36563030001696	287.36057249992143	289.3768066999038	0.4653026999440044	1.0097103998997454	1.129950500093173	n/a	1.0	n/a	1	0	103	4	go_reward	0	0	1	1	1	1	0	n/a	n/a	0	0.302297200076282	1.0	661.6700966001954	946.0314532001504	947.0357269002124	947.5010296001564	949.0306691001168	950.0403795000166	n/a	n/a	951.0469033000992	952.1768538001924	2020-11-11 13:35:38.262228	40.3312332585885	28.8505845479985	0.0	28.8505845479985	40.3312332585885	0.0	-40.3312332585885	28.8505845479985	0.0	40.3312332585885	0.0	-28.8505845479985	29.286659492031365	24.008366655840938	-3.2130573320676232	19.62004509632266	33.35405761310949	-3.2130573320676232	-29.523282978507275	29.713829886536608	0.4271703945052501	19.524916603205874	1.2703927205674395	2	missed	0.0
290.51905839983374	6.199200300034022	go_punish	0.2192317999433726	290.5481524998322	292.39591809990816	294.9351158000062	1.8477656000759453	291.55347669986077	293.92587419995095	295.9418519998434	0.8424414000473917	1.0092416000552475	0.8055008000228554	n/a	1.0	n/a	1	0	104	2	go_punish	1	0	-1	1	1	1	0	n/a	n/a	0	0.2192317999433726	1.0	661.6700966001954	952.2182491000276	953.2235733000562	954.0660147001036	955.5959708001463	956.6052124002016	n/a	n/a	957.6119486000388	958.4174494000616	2020-11-11 13:35:38.262228	2.55769375950951	-0.471128540450953	-3.66922478677093	-0.507973869063233	-1.11153102726142	-3.66922478677093	-2.55769375950951	-0.471128540450953	-3.66922478677093	-1.11153102726142	-3.66922478677093	0.471128540450953	-8.486880007047622	-5.313346432608515	-6.882282118838553	-9.738513320739075	-8.08870667274043	-6.882282118838553	-0.20156989005782266	-11.728934399313307	-3.24205439226568	-9.796796485243581	-2.3988320662034903	2	missed	0.0
296.7569190999493	6.577603899873793	go_punish	0.3274349998682737	296.7860131999478	298.32581699988805	300.87146930000745	1.5398037999402732	297.78970009996556	299.85675939987425	301.8781558999326	0.5361168999224901	1.014709900133198	1.4854611998889595	n/a	1.0	n/a	1	0	105	2	go_punish	0	-1	0	1	1	1	0	n/a	n/a	-1	0.3274349998682737	1.0	661.6700966001954	958.4561098001432	959.459796700161	959.9959136000834	961.5268560000696	962.5415659002028	n/a	n/a	963.548252500128	965.033713700017	2020-11-11 13:35:38.262228	2.79966670022124	-0.302956229585972	-3.66922478677093	-0.329202833822011	-0.869558086549689	-3.66922478677093	-2.79966670022124	-0.302956229585972	-3.66922478677093	-0.869558086549689	-3.66922478677093	-4.7042434180725685	-8.244907066335893	-5.145174121743535	-6.882282118838553	-9.559742285497853	-7.846733732028699	-6.882282118838553	-5.376941848581344	-11.486961458601577	-3.24205439226568	-9.628624174378599	-2.3988320662034903	2	missed	0.0
303.4254329998512	6.1331307999789715	nogo_reward	1.0	303.45452709984966	305.0174163999036	307.5355012998916	1.5628893000539392	304.45960769988596	306.5223606999498	308.54192409990355	0.557808700017631	1.0131405999418348	1.045733799925074	n/a	1.0	n/a	1	0	106	3	nogo_reward	1	0	1	0	0	1	0	n/a	n/a	1	1.0	1.0	661.6700966001954	965.124623700045	966.1297043000814	966.687513000099	968.1924573001452	969.205597900087	n/a	n/a	970.212020700099	971.257754500024	2020-11-11 13:35:38.262228	15.9722963441078	0.0	26.4496289486597	26.4496289486597	10.4773326045519	26.4496289486597	-15.9722963441078	26.4496289486597	0.0	26.4496289486597	10.4773326045519	2.582542859860201	4.927722577550668	-4.842217892157563	23.236571616592077	17.21908949698386	3.50015695907289	23.236571616592077	1.9098444293514252	15.832225576607813	10.90450299905715	17.123961003867073	1.2703927205674395	2	missed	0.0
309.59955699997954	6.279140499886239	nogo_punish	1.0	309.628651099978	310.98240390000865	313.49699289980344	1.3537528000306338	310.6327156999614	312.48814209993	314.503642599797	0.34968820004723966	1.0088507998734713	1.4041490000672638	n/a	1.0	n/a	1	0	107	1	nogo_punish	1	-1	0	0	0	1	0	n/a	n/a	0	1.0	1.0	661.6700966001954	971.2987477001734	972.3028123001568	972.652500500204	974.1582387001254	975.1670894999988	n/a	n/a	976.1737391999924	977.5778882000596	2020-11-11 13:35:38.262228	0.194619055325921	0.0	-0.403053988126314	-0.403053988126314	-0.597673043452236	-0.403053988126314	-0.194619055325921	-0.403053988126314	0.0	-0.403053988126314	-0.597673043452236	0.403053988126314	-10.849954711231211	-4.842217892157563	-3.616111320193937	-9.633593439802155	-7.5748486889312465	-3.616111320193937	-0.26964444238246166	-11.020457360178202	-0.17050264894698597	-9.72872193291894	1.2703927205674395	2	missed	0.0
315.9164390999357	6.316251399926841	go_punish	0.3356758002191782	315.9455331999342	317.80546289985057	320.3520543000194	1.8599296999163926	316.9498985998798	319.33826299989596	321.35959779983375	0.8555642999707516	1.0137913001234438	0.9021868000272661	n/a	1.0	n/a	1	0	108	2	go_punish	0	-1	0	1	1	1	0	n/a	n/a	-1	0.3356758002191782	1.0	661.6700966001954	977.6156298001296	978.6199952000752	979.475559500046	981.0083596000914	982.0221509002148	n/a	n/a	983.0296944000291	983.9318812000564	2020-11-11 13:35:38.262228	0.234765810912672	-2.1302536040661	-3.66922478677093	-2.14914222495704	-3.43445897585826	-3.66922478677093	-0.234765810912672	-2.1302536040661	-3.66922478677093	-3.43445897585826	-3.66922478677093	-2.87694604359244	-10.80980795564446	-6.972471496223663	-6.882282118838553	-11.379681676632881	-10.41163462133727	-6.882282118838553	-3.549644474101216	-14.051862347910149	-3.24205439226568	-11.455921548858727	-2.3988320662034903	2	missed	0.0
322.2696175999009	6.478529799962416	nogo_punish	1.0	322.2987116998994	324.2776078998578	326.79298049979843	1.978896199958399	323.30409069987945	325.78338969987817	327.7998134000226	0.9735171999783461	1.009590799920261	0.9774280998392442	n/a	1.0	n/a	1	0	109	1	nogo_punish	1	-1	0	0	0	1	1	n/a	n/a	0	1.0	1.0	661.6700966001954	983.9688083000948	984.9741873000748	985.9477045000532	987.4534863000736	988.4630770999938	n/a	n/a	989.469910000218	990.4473381000572	2020-11-11 13:35:38.262228	0.27510233489801	0.0	-0.2653970055419	-0.2653970055419	-0.54049934043991	-0.2653970055419	-0.27510233489801	-0.2653970055419	0.0	-0.2653970055419	-0.54049934043991	0.2653970055419	-10.769471431659122	-4.842217892157563	-3.478454337609523	-9.495936457217741	-7.51767498591892	-3.478454337609523	-0.40730142496687566	-10.882800377593787	-0.11332894593465992	-9.591064950334527	1.2703927205674395	2	missed	0.0
328.79892740002833	6.778755499981344	nogo_reward	1.0	328.8280215000268	330.6112869998906	333.1319493998308	1.7832654998637736	329.8326650999952	332.11637289985083	334.138222699985	0.77862189989537	1.015576499979943	1.4685543000231291	n/a	1.0	n/a	1	0	110	3	nogo_reward	1	0	1	0	0	1	0	n/a	n/a	1	1.0	1.0	661.6700966001954	990.4981181002222	991.5027617001906	992.281383600086	993.7864695000462	994.8020460000262	n/a	n/a	995.8083193001804	997.2768736002035	2020-11-11 13:35:38.262228	16.517426508179	0.0	27.3826660633323	27.3826660633323	10.8652395551534	27.3826660633323	-16.517426508179	27.3826660633323	0.0	27.3826660633323	10.8652395551534	1.6495057451876	5.4728527416218675	-4.842217892157563	24.169608731264677	18.15212661165646	3.888063909674389	24.169608731264677	0.9768073146788244	16.765262691280412	11.29240994965865	18.056998118539674	1.2703927205674395	2	missed	0.0
335.61540549993515	5.957500800024604	go_reward	0.4025030999910086	335.6444995999336	337.00862679979764	339.55120639991935	1.364127199864015	336.64935169997625	338.5404973998666	340.558367599966	0.3592750998213887	1.0107090000527705	1.0436327999922241	n/a	1.0	n/a	1	0	111	4	go_reward	0	0	1	1	1	1	0	n/a	n/a	0	0.4025030999910086	1.0	661.6700966001954	997.314596200129	998.3194483001716	998.678723399993	1000.210594000062	1001.2213030001147	n/a	n/a	1002.2284642001614	1003.2720970001536	2020-11-11 13:35:38.262228	24.3182348598234	17.4754694853714	0.0	17.4754694853714	24.3182348598234	0.0	-24.3182348598234	17.4754694853714	0.0	24.3182348598234	0.0	-17.4754694853714	13.273661093266266	12.633251593213835	-3.2130573320676232	8.244930033695557	17.341059214344387	-3.2130573320676232	-18.148167915880173	13.700831487771511	0.4271703945052501	8.149801540578771	1.2703927205674395	2	missed	0.0
341.6098090999293	6.41219730000023	go_reward	0.303788100136444	341.63890319992777	343.29035859997384	345.8355490998366	1.6514554000460748	342.64356280001823	344.82167640002444	346.8420361999888	0.646795799955612	1.0138726998121683	1.2090642999392003	n/a	1.0	n/a	1	0	112	4	go_reward	1	1	0	1	1	1	0	n/a	n/a	1	0.303788100136444	1.0	661.6700966001954	1003.3089998001232	1004.3136594002136	1004.9604552001692	1006.4917730002198	1007.505645700032	n/a	n/a	1008.5121328001842	1009.7211971001234	2020-11-11 13:35:38.262228	15.0475681250511	10.9135126875057	0.0	10.9135126875057	15.0475681250511	0.0	-15.0475681250511	10.9135126875057	0.0	15.0475681250511	0.0	18.118659121014204	4.002994358493968	6.071294795348137	-3.2130573320676232	1.6829732358298575	8.070392479572089	-3.2130573320676232	17.44596069050543	4.430164752999213	0.4271703945052501	1.587844742713072	1.2703927205674395	2	missed	0.0
348.06360829994094	5.580103799933568	go_punish	0.3547910000197589	348.0927023999394	349.3702620998956	351.91260149981815	1.277559699956214	349.0979293999262	350.9013672999572	352.91919909999706	0.2723326999694109	1.0112341998609509	0.7536070998759214	n/a	1.0	n/a	1	0	113	2	go_punish	1	0	-1	1	1	1	0	n/a	n/a	0	0.3547910000197589	1.0	661.6700966001954	1009.7627990001348	1010.7680260001216	1011.040358700091	1012.5714639001526	1013.5826981000135	n/a	n/a	1014.5892957001925	1015.3429028000684	2020-11-11 13:35:38.262228	-1.26705201567099	-3.19739805725884	-3.66922478677093	-3.21112318457425	-4.93627680244192	-3.66922478677093	1.26705201567099	-3.19739805725884	-3.66922478677093	-4.93627680244192	-3.66922478677093	3.19739805725884	-12.311625782228122	-8.039615949416403	-6.882282118838553	-12.441662636250092	-11.913452447920932	-6.882282118838553	2.5246996267500643	-15.553680174493808	-3.24205439226568	-12.523066002051468	-2.3988320662034903	2	missed	0.0
353.7112638999241	5.9047634999734555	nogo_reward	1.0	353.7403579999226	355.1601535999216	357.6748944998254	1.41979559999902	354.7452320000158	356.66595229995437	358.6828556000254	0.4149215999058242	1.0089421998710577	0.9622658998706584	n/a	1.0	n/a	1	0	114	3	nogo_reward	0	1	0	0	0	1	0	n/a	n/a	0	1.0	1.0	661.6700966001954	1015.410454600118	1016.4153286002112	1016.830250200117	1018.3360489001498	1019.3449911000208	n/a	n/a	1020.3529522002208	1021.3152181000914	2020-11-11 13:35:38.262228	16.8503694730088	0.0	27.954946135268	27.954946135268	11.1045766622592	27.954946135268	-16.8503694730088	27.954946135268	0.0	27.954946135268	11.1045766622592	-27.954946135268	5.8057957064516685	-4.842217892157563	24.741888803200375	18.724406683592157	4.12740101678019	24.741888803200375	-28.627644565776773	17.337542763216113	11.53174705676445	18.62927819047537	1.2703927205674395	2	missed	0.0
359.65743899997335	7.004045799839901	nogo_reward	1.0	359.6865330999718	362.20466219983064	364.7231528998818	2.518129099858811	360.691235399805	363.71006780001335	365.73069759993814	1.513426800025627	1.0130850998684764	0.9598812998735866	n/a	1.0	n/a	1	0	115	3	nogo_reward	1	0	1	0	0	1	0	n/a	n/a	1	1.0	1.0	661.6700966001954	1021.3566297001672	1022.3613320000004	1023.874758800026	1025.3801644002087	1026.3932495000772	n/a	n/a	1027.4007942001335	1028.3606755000071	2020-11-11 13:35:38.262228	10.29234026264	0.0	16.8889132580693	16.8889132580693	6.59657299542927	16.8889132580693	-10.29234026264	16.8889132580693	0.0	16.8889132580693	6.59657299542927	12.1432585504506	-0.7522335039171324	-4.842217892157563	13.675855926001677	7.65837380639346	-0.3806026500497408	13.675855926001677	11.470560119941824	6.271509886017414	7.02374338993452	7.563245313276674	1.2703927205674395	2	missed	0.0
366.7021402998362	7.058992000063881	go_punish	0.3662851999979466	366.73123439983465	368.777913399972	371.3220027999487	2.046679000137374	367.7356499999296	370.311059899861	372.32840269990265	1.0422634000424296	1.0109429000876844	1.4618236999958754	n/a	1.0	n/a	1	0	116	2	go_punish	1	0	-1	1	1	1	0	n/a	n/a	0	0.3662851999979466	1.0	661.6700966001954	1028.40133100003	1029.405746600125	1030.4480100001674	1031.9811565000564	1032.992099400144	n/a	n/a	1033.998499300098	1035.460323000094	2020-11-11 13:35:38.262228	0.540388259907896	-1.90984913852693	-3.66922478677093	-1.91991400270289	-3.12883652686304	-3.66922478677093	-0.540388259907896	-1.90984913852693	-3.66922478677093	-3.12883652686304	-3.66922478677093	1.90984913852693	-10.504185506649236	-6.7520670306844925	-6.882282118838553	-11.150453454378733	-10.106012172342052	-6.882282118838553	1.2371507080181545	-13.746239898914927	-3.24205439226568	-11.235517083319557	-2.3988320662034903	2	missed	0.0
373.79972859984264	6.942523800069466	go_punish	0.2791281000245362	373.8288226998411	375.8290597000157	378.36857459996827	2.000237000174593	374.8329498998355	377.359627999831	379.3750690999443	0.9961098001801929	1.0089466001372784	1.3962773999662659	n/a	1.0	n/a	1	0	117	2	go_punish	1	0	-1	1	1	1	0	n/a	n/a	0	0.2791281000245362	1.0	661.6700966001954	1035.4989193000365	1036.503046500031	1037.499156300211	1039.0297246000264	1040.0386712001637	n/a	n/a	1041.0451657001397	1042.441443100106	2020-11-11 13:35:38.262228	1.57411176644495	-1.17601203760991	-3.66922478677093	-1.18345743519596	-2.09511302032598	-3.66922478677093	-1.57411176644495	-1.17601203760991	-3.66922478677093	-2.09511302032598	-3.66922478677093	1.17601203760991	-9.470462000112182	-6.018229929767473	-6.882282118838553	-10.413996886871802	-9.07228866580499	-6.882282118838553	0.5033136071011343	-12.712516392377868	-3.24205439226568	-10.501679982402537	-2.3988320662034903	2	missed	0.0
380.78520119981863	6.2802560001143775	nogo_reward	1.0	380.8142952998171	382.6307335000017	385.15087999985553	1.8164382001846207	381.8185530998744	384.13662979984656	386.158379299799	0.8121804001273176	1.0142502000089735	0.9361720001325011	n/a	1.0	n/a	1	0	118	3	nogo_reward	1	0	1	0	0	1	0	n/a	n/a	1	1.0	1.0	661.6700966001954	1042.4843919000125	1043.4886497000698	1044.3008301001971	1045.806726400042	1046.820976600051	n/a	n/a	1047.8284758999944	1048.7646479001269	2020-11-11 13:35:38.262228	13.3190939260681	0.0	21.9484645524169	21.9484645524169	8.62937062634878	21.9484645524169	-13.3190939260681	21.9484645524169	0.0	21.9484645524169	8.62937062634878	7.083707256103001	2.274520159510967	-4.842217892157563	18.735407220349277	12.71792510074106	1.65219498086977	18.735407220349277	6.411008825594225	11.331061180365014	9.05654102085403	12.622796607624274	1.2703927205674395	2	missed	0.0
387.10483790002763	6.599673499818891	nogo_punish	1.0	387.1339320000261	389.3034882999491	391.81802469980903	2.169556299922988	388.1382561998905	390.8084501998967	392.8248968999835	1.1652321000585744	1.0095744999123326	0.9087085998614839	n/a	1.0	n/a	1	0	119	1	nogo_punish	1	-1	0	0	0	1	0	n/a	n/a	0	1.0	1.0	661.6700966001954	1048.8040286002215	1049.808352800086	1050.9735849001445	1052.478546800092	1053.4881213000044	n/a	n/a	1054.494993500179	1055.4037021000404	2020-11-11 13:35:38.262228	0.32627981836124	0.0	-0.177679146026933	-0.177679146026933	-0.503958964388173	-0.177679146026933	-0.32627981836124	-0.177679146026933	0.0	-0.177679146026933	-0.503958964388173	0.177679146026933	-10.718293948195893	-4.842217892157563	-3.3907364780945564	-9.408218597702774	-7.481134609867183	-3.3907364780945564	-0.4950192844818426	-10.79508251807882	-0.07678856988292293	-9.50334709081956	1.2703927205674395	2	missed	0.0
393.74314589984715	7.468761499971151	go_punish	0.3993396000005305	393.7722399998456	396.4806870999746	399.0264718998221	2.7084471001289785	394.7768619998824	398.01206009997986	400.0332629999609	1.7038251000922173	1.0144117998422644	1.20773849985585	n/a	1.0	n/a	1	0	120	2	go_punish	0	-1	0	1	1	1	0	n/a	n/a	-1	0.3993396000005305	1.0	661.6700966001954	1055.442336600041	1056.4469586000778	1058.15078370017	1059.6821567001753	1060.6965685000175	n/a	n/a	1061.7033596001563	1062.9110981000122	2020-11-11 13:35:38.262228	2.18603470246123	-0.742786131240261	-3.66922478677093	-0.748339931452436	-1.4831900843097	-3.66922478677093	-2.18603470246123	-0.742786131240261	-3.66922478677093	-1.4831900843097	-3.66922478677093	-4.264413516418279	-8.858539064095902	-5.585004023397824	-6.882282118838553	-9.978879383128278	-8.46036572978871	-6.882282118838553	-4.937111946927055	-12.100593456361587	-3.24205439226568	-10.06845407603289	-2.3988320662034903	2	missed	0.0
