onset	duration	trial_type	response_time	cueOnset	targetOnset	fbOnset	cueRT	firstfixOnset	secondfixOnset	waitOnset	firstfixdur	secondfixdur	waitdur	nback_fbOnset	nback_response_time	nback_targetOnset	block	wm	trial	cue	cond	is_common	outcome_go	outcome_nogo	key_correct	key_pressed	is_correct	key_correct_nback	key_pressed_nback	is_correct_nback	outcome	rt	rt_nback	time_scan	time_onset	time_isi1	time_circle	time_isi2	time_feedback	time_same	time_correct	time_iti	time_done	timestamp_scan	DV	Qgo	Qnogo	SV	Wgo	Wnogo	mDV	Qchosen	Qunchosen	Wchosen	Wunchosen	PE	DVC	QgoC	QnogoC	SVC	WgoC	WnogoC	PEC	WchosenC	WunchosenC	QchosenC	QunchosenC	run	outcome_nback	nback_targetResp
0.0	8.831363299992518	go_reward	1.0	0.045361399999819696	1.8946837999974377	4.418825899992953	1.849322399997618	1.0489685999928042	3.40541639999725	7.483532899990735	0.8457152000046335	1.0134094999957028	1.3931918000016026	6.477623400001903	0.5628081000031671	5.438999599995441	1	1	1	2	go_reward	1	1	0	1	0	0	0	0.0	1.0	0	1.0	0.5628081000031671	471.52335090001	471.5687123000098	472.5723195000028	473.4180347000074	474.9287673000072	475.9421768000029	476.9623505000054	478.0009743000119	479.0068838000007	480.4000756000023	2020-11-13 10:15:39.135926	1.20097810088087	0.0	0.0	0.0	-1.20097810088087	0.0	-1.20097810088087	0.0	0.0	0.0	-1.20097810088087	0.0	-11.591083306505748	-5.03651255789856	-5.05476077654234	-11.205496290789776	-3.4396354465542887	-5.05476077654234	-0.9860339615221234	-10.04273976480119	1.5483435417045586	-11.314084069987677	1.2228107355467719	1	correct	1.0
8.894858600004227	8.36422939998738	nogo_reward	1.0	8.940220000004047	10.790010099997744	13.314545999994152	1.8497900999936974	9.94495099999773	12.304115499995532	16.35687039999175	0.8450591000000145	1.0104304999986198	0.9475789999996778	15.349959300001501	0.5942440999933751	14.328149900000426	1	1	2	1	nogo_reward	1	0	1	0	0	1	0	0.0	1.0	1	1.0	0.5942440999933751	471.52335090001	480.463570900014	481.4683019000077	482.3133610000077	483.8274664000055	484.8378969000041	485.8515008000104	486.8733102000115	487.8802213000017	488.8278003000014	2020-11-13 10:15:39.135926	1.20097810088087	0.0	0.0	0.0	-1.20097810088087	0.0	-1.20097810088087	0.0	0.0	0.0	-1.20097810088087	34.7443035453824	-11.591083306505748	-5.03651255789856	-5.05476077654234	-11.205496290789776	-3.4396354465542887	-5.05476077654234	33.758269583860276	-10.04273976480119	1.5483435417045586	-11.314084069987677	1.2228107355467719	1	correct	1.0
17.2932922999899	7.729814800011752	nogo_reward	1.0	17.33865369998972	18.69794909999473	21.24174820000195	1.35929540000501	18.341921799990814	20.216512600003625	24.29955470000283	0.356027300003916	1.0252355999983251	0.7689137999986428	23.285195000004023	0.4771913000004133	22.25417099999322	1	1	3	1	nogo_reward	1	0	1	0	0	1	0	0.0	1.0	1	1.0	0.4771913000004133	471.52335090001	488.8620045999997	489.8652727000008	490.2213000000047	491.7398635000136	492.7650991000119	493.7775219000032	494.808545900014	495.8229056000128	496.59181940001145	2020-11-13 10:15:39.135926	27.153948653211	0.0	19.5060303363233	19.5060303363233	-7.64791831688776	19.5060303363233	-27.153948653211	19.5060303363233	0.0	19.5060303363233	-7.64791831688776	15.238273209059102	14.361887245824382	-5.03651255789856	14.45126955978096	8.300534045533523	-9.886575662561178	14.45126955978096	14.252239247536979	9.463290571522109	-4.898596674302332	8.191946266335622	1.2228107355467719	1	correct	1.0
25.087807499992778	8.32050440000603	go_punish	1.0	25.133168899992597	26.690312099992354	29.211045899995952	1.5571431999997571	26.12970469999715	28.190413599993917	32.2571609000006	0.5606073999952059	1.0206323000020348	1.1965123999980278	31.247826199993142	0.8098989000136498	30.228558299990254	1	1	4	4	go_punish	0	-1	0	1	0	0	0	0.0	1.0	0	1.0	0.8098989000136498	471.52335090001	496.65651980000257	497.6530556000071	498.2136630000023	499.7137645000039	500.7343968000059	501.7519092000002	502.7711771000031	503.7805118000106	504.9770242000086	2020-11-13 10:15:39.135926	1.20097810088087	0.0	0.0	0.0	-1.20097810088087	0.0	-1.20097810088087	0.0	0.0	0.0	-1.20097810088087	0.0	-11.591083306505748	-5.03651255789856	-5.05476077654234	-11.205496290789776	-3.4396354465542887	-5.05476077654234	-0.9860339615221234	-10.04273976480119	1.5483435417045586	-11.314084069987677	1.2228107355467719	1	correct	1.0
33.4458697999944	8.295765500006382	go_punish	0.3742578999954276	33.49123119999422	34.86415589999524	37.419479899996134	1.3729247000010218	34.50626339999144	36.397461899992834	40.453899999993155	0.3578925000037998	1.0220180000032997	1.3330967000074452	39.437072000000626	0.7076430000015534	38.42493480000121	1	1	5	4	go_punish	1	0	-1	1	1	1	0	0.0	1.0	0	0.3742578999954276	0.7076430000015534	471.52335090001	505.0145821000042	506.0296143000014	506.3875068000052	507.9208128000028	508.9428308000061	509.9482857000112	510.9604229000106	511.9772509000031	513.3103476000106	2020-11-13 10:15:39.135926	-1.20097810088087	0.0	0.0	0.0	-1.20097810088087	0.0	1.20097810088087	0.0	0.0	-1.20097810088087	0.0	0.0	-13.993039508267486	-5.03651255789856	-5.05476077654234	-11.205496290789776	-3.4396354465542887	-5.05476077654234	-0.9860339615221234	-11.243717865682061	2.7493216425854285	-11.314084069987677	1.2228107355467719	1	correct	1.0
41.81069719999505	8.52004339999985	nogo_punish	1.0	41.85605859999487	43.40815659999498	45.93006129999412	1.5520980000001146	42.85565640000277	44.92074899999716	48.96979360000114	0.5525001999922097	1.0093122999969637	1.406308399993577	47.9667158999946	0.3739132000046083	46.94052039999224	1	1	6	3	nogo_punish	1	-1	0	0	0	1	0	0.0	1.0	0	1.0	0.3739132000046083	471.52335090001	513.3794095000048	514.3790073000127	514.931507500005	516.4440999000071	517.4534122000041	518.4638713000022	519.4900668000046	520.4931445000111	521.8994529000047	2020-11-13 10:15:39.135926	1.20097810088087	0.0	0.0	0.0	-1.20097810088087	0.0	-1.20097810088087	0.0	0.0	0.0	-1.20097810088087	0.0	-11.591083306505748	-5.03651255789856	-5.05476077654234	-11.205496290789776	-3.4396354465542887	-5.05476077654234	-0.9860339615221234	-10.04273976480119	1.5483435417045586	-11.314084069987677	1.2228107355467719	1	correct	1.0
50.37337109999498	9.3804902999982	go_reward	0.3219046000012895	50.4187324999948	52.84049039999081	55.391791499991086	2.4217578999960097	51.41400710000016	54.379204600001685	58.44061389999115	1.4264832999906503	1.012586899989401	1.3586089000018546	57.44340750000265	0.6709354999911739	56.42544649999763	1	1	7	2	go_reward	1	1	0	1	1	1	0	0.0	1.0	1	0.3219046000012895	0.6709354999911739	471.52335090001	521.9420834000048	522.9373580000101	524.3638413000008	525.9025555000117	526.9151424000011	527.9487974000076	528.9667584000126	529.9639648000011	531.322573700003	2020-11-13 10:15:39.135926	-1.20097810088087	0.0	0.0	0.0	-1.20097810088087	0.0	1.20097810088087	0.0	0.0	-1.20097810088087	0.0	34.7443035453824	-13.993039508267486	-5.03651255789856	-5.05476077654234	-11.205496290789776	-3.4396354465542887	-5.05476077654234	33.758269583860276	-11.243717865682061	2.7493216425854285	-11.314084069987677	1.2228107355467719	1	correct	1.0
59.79004449999775	7.928928900000756	go_punish	1.0	59.83540589999757	61.39887089999684	63.912985000002664	1.563464999999269	60.85119469999336	62.89855849999003	66.96207219999633	0.5476762000034796	1.0144265000126325	0.8022626000019955	65.9469659000024	0.7301866000052541	64.91922549999435	1	1	8	4	go_punish	1	0	-1	1	0	0	0	0.0	1.0	-1	1.0	0.7301866000052541	471.52335090001	531.3587568000075	532.3745456000033	532.9222218000068	534.4219094	535.4363359000126	536.4425764000043	537.4703168000124	538.4854231000063	539.2876857000083	2020-11-13 10:15:39.135926	1.20097810088087	0.0	0.0	0.0	-1.20097810088087	0.0	-1.20097810088087	0.0	0.0	0.0	-1.20097810088087	-5.84227866569514	-11.591083306505748	-5.03651255789856	-5.05476077654234	-11.205496290789776	-3.4396354465542887	-5.05476077654234	-6.828312627217263	-10.04273976480119	1.5483435417045586	-11.314084069987677	1.2228107355467719	1	correct	1.0
67.7563841999945	8.769852600002196	go_reward	0.371706499994616	67.80174559999432	69.50267699999677	72.04934679999133	1.700931400002446	68.80798810000124	71.0413220999908	75.09508919999644	0.6946888999955263	1.008024700000533	1.4765090000000782	74.0840443999914	0.5156819000112591	73.05359719999251	1	1	9	2	go_reward	0	0	1	1	1	1	1	0.0	0.0	0	0.371706499994616	0.5156819000112591	471.52335090001	539.3250965000043	540.3313390000112	541.0260279000067	542.5646730000008	543.5726977000013	544.5769481000025	545.6073953000014	546.6184401000064	548.0949491000065	2020-11-13 10:15:39.135926	11.8581120194355	19.5060303363233	0.0	19.5060303363233	11.8581120194355	0.0	-11.8581120194355	19.5060303363233	0.0	11.8581120194355	0.0	-19.5060303363233	-0.9339493879511167	14.469517778424738	-5.05476077654234	8.300534045533523	9.619454673762082	-5.05476077654234	-20.492064297845424	1.81537225463431	2.7493216425854285	8.191946266335622	1.2228107355467719	1	wrong	1.0
76.5629154999915	8.610435300011886	nogo_reward	1.0	76.60827689999132	78.3605213999981	80.87483849999262	1.752244500006782	77.6099494999944	79.86571549999644	83.92703169999004	0.7505719000037061	1.0091229999961797	1.2916805000131717	82.91992749999918	0.4235736999980872	81.8967818999954	1	1	10	1	nogo_reward	1	0	1	0	0	1	0	0.0	1.0	1	1.0	0.4235736999980872	471.52335090001	548.1316278000013	549.1333004000044	549.8838723000081	551.3890664000064	552.3981894000026	553.4201328000054	554.4432784000091	555.4503826	556.7420631000132	2020-11-13 10:15:39.135926	37.5708487090908	0.0	27.2324763979128	27.2324763979128	-10.3383723111779	27.2324763979128	-37.5708487090908	27.2324763979128	0.0	27.2324763979128	-10.3383723111779	7.5118271474695995	24.778787301704178	-5.03651255789856	22.17771562137046	16.026980107123023	-12.577029656851318	22.17771562137046	6.525793185947476	17.18973663311161	-7.589050668592471	15.918392327925124	1.2228107355467719	1	correct	1.0
85.21037519999663	8.343048700000509	go_reward	0.4009985000011511	85.25573659999645	87.24035809999623	89.79252350000024	1.9846214999997756	86.25492880000093	88.76963019999675	92.84434529999271	0.9854292999953032	1.0228933000034885	0.7544400000042515	91.83687489999284	0.5506165000115288	90.79577099999005	1	1	11	2	go_reward	1	1	0	1	1	1	1	1.0	1.0	1	0.4009985000011511	0.5506165000115288	471.52335090001	556.7790875000064	557.7782797000109	558.7637090000062	560.2929811000067	561.3158744000102	562.3191219	563.3602258000028	564.3676962000027	565.1221362000069	2020-11-13 10:15:39.135926	3.83501396641848	7.72644606158954	0.0	7.72644606158954	3.83501396641848	0.0	-3.83501396641848	7.72644606158954	0.0	3.83501396641848	0.0	27.01785748379286	-8.957047440968138	2.6899335036909795	-5.05476077654234	-3.4790502292002365	1.5963566207450612	-5.05476077654234	26.031823522270734	-6.207725798382711	2.7493216425854285	-3.5876380083981374	1.2228107355467719	1	correct	1.0
93.59038449999935	8.811616299994057	go_reward	0.4106605999986641	93.63574589999916	95.43073809999623	97.97500219999347	1.7949921999970684	94.64246560000174	96.96248649999325	101.01322300000174	0.7882724999944912	1.0125157000002218	1.4341391999914777	100.00206679999246	0.393892499996582	98.9824787999969	1	1	12	2	go_reward	1	1	0	1	1	1	0	0.0	1.0	1	0.4106605999986641	0.393892499996582	471.52335090001	565.1590968000091	566.1658165000117	566.9540890000062	568.4858374000032	569.4983531000034	570.5058297000069	571.5254177000024	572.5365739000117	573.9707131000032	2020-11-13 10:15:39.135926	14.0760186083115	22.98101965132	0.0	22.98101965132	14.0760186083115	0.0	-14.0760186083115	22.98101965132	0.0	14.0760186083115	0.0	11.7632838940624	1.283957200924883	17.94450709342144	-5.05476077654234	11.775523360530224	11.837361262638082	-5.05476077654234	10.777249932540277	4.03327884351031	2.7493216425854285	11.666935581332323	1.2228107355467719	1	correct	1.0
102.43969199999992	8.393079699992086	go_punish	1.0	102.48505339999974	104.42049819999374	106.93089010000404	1.935444799994002	103.49893289999454	105.92232779999904	109.98137419999694	0.9215652999992017	1.0085623000049964	0.896758899994893	108.97379789999104	0.4826791000086814	107.94267209999089	1	1	13	4	go_punish	0	-1	0	1	0	0	0	0.0	1.0	0	1.0	0.4826791000086814	471.52335090001	574.0084043000097	575.0222838000045	575.9438491000037	577.445678700009	578.454241000014	579.4660230000009	580.497148800001	581.5047251000069	582.4014840000018	2020-11-13 10:15:39.135926	-2.8863610976712	0.0	-3.10048699829021	-3.10048699829021	-0.214125900619014	-3.10048699829021	2.8863610976712	-3.10048699829021	0.0	-3.10048699829021	-0.214125900619014	3.10048699829021	-15.678422505057817	-5.03651255789856	-8.15524777483255	-14.305983289079986	-2.452783246292433	-8.15524777483255	2.1144530367680865	-13.1432267630914	2.5351957419664144	-14.414571068277887	1.2228107355467719	1	correct	1.0
110.87251420000393	9.362626599991927	nogo_punish	0.3104607999994186	110.91787560000375	113.69325039999967	116.24982559999626	2.775374799995916	111.92554640000162	115.23269679999794	119.30567529999826	1.767703999998048	1.0171287999983178	0.9748268999974243	118.29006440000376	0.4866042000066954	117.26351099999738	1	1	14	3	nogo_punish	0	0	-1	0	1	0	0	0.0	1.0	0	0.3104607999994186	0.4866042000066954	471.52335090001	582.4412265000137	583.4488973000116	585.2166013000096	586.7560477000079	587.7731765000062	588.7868619000074	589.8134153000137	590.8290262000082	591.8038531000057	2020-11-13 10:15:39.135926	-1.20097810088087	0.0	0.0	0.0	-1.20097810088087	0.0	1.20097810088087	0.0	0.0	-1.20097810088087	0.0	0.0	-13.993039508267486	-5.03651255789856	-5.05476077654234	-11.205496290789776	-3.4396354465542887	-5.05476077654234	-0.9860339615221234	-11.243717865682061	2.7493216425854285	-11.314084069987677	1.2228107355467719	1	correct	1.0
120.2913763999968	8.79745460000413	nogo_punish	0.2983021999971242	120.33673779999663	122.52311680000275	125.07807750000211	2.186379000006127	121.35342859999218	124.0580506999977	128.10799150000094	1.1696882000105688	1.0200268000044161	1.0262008999998216	127.09366129999398	0.6753234000061639	126.08102109999163	1	1	15	3	nogo_punish	1	-1	0	0	1	0	0	0.0	1.0	-1	0.2983021999971242	0.6753234000061639	471.52335090001	591.8600887000066	592.8767795000022	594.0464677000127	595.5814016000077	596.6014284000121	597.6043720000016	598.617012200004	599.6313424000109	600.6575433000107	2020-11-13 10:15:39.135926	-1.20097810088087	0.0	0.0	0.0	-1.20097810088087	0.0	1.20097810088087	0.0	0.0	-1.20097810088087	0.0	-5.84227866569514	-13.993039508267486	-5.03651255789856	-5.05476077654234	-11.205496290789776	-3.4396354465542887	-5.05476077654234	-6.828312627217263	-11.243717865682061	2.7493216425854285	-11.314084069987677	1.2228107355467719	1	correct	1.0
129.1255009000015	9.376741699990816	go_punish	0.8683357999980217	129.17086230000132	131.70091479999246	134.23995409999043	2.530052499991143	130.18672979999974	133.23406679999607	137.27029519999633	1.5141849999927217	1.005887299994356	1.277308799995808	136.27072079999198	0.4156279999879189	135.2527121000021	1	1	16	4	go_punish	1	0	-1	1	1	1	0	0.0	1.0	0	0.8683357999980217	0.4156279999879189	471.52335090001	600.6942132000113	601.7100807000097	603.2242657000024	604.757417700006	605.7633050000004	606.7760630000121	607.794071700002	608.7936461000063	610.0709549000021	2020-11-13 10:15:39.135926	0.559759690541478	0.0	-1.32024386806198	-1.32024386806198	-0.760484177520503	-1.32024386806198	-0.559759690541478	0.0	-1.32024386806198	-0.760484177520503	-1.32024386806198	0.0	-12.23230171684514	-5.03651255789856	-6.37500464460432	-12.525740158851756	-2.999141523193922	-6.37500464460432	-0.9860339615221234	-10.803223942321694	1.4290777745234486	-11.314084069987677	-0.09743313251520802	1	correct	1.0
138.53924420000112	8.364657999991323	nogo_reward	1.0	138.58460560000094	140.14953609999793	142.6891556999908	1.56493049999699	139.59393799999089	141.66531979999854	145.73093150000204	0.555598100007046	1.0238358999922639	1.2183320999902207	144.72370799999044	0.468388799999957	143.70194800000172	1	1	17	1	nogo_reward	1	0	1	0	0	1	0	0.0	1.0	1	1.0	0.468388799999957	471.52335090001	610.1079565000109	611.1172889000009	611.6728870000079	613.1886707000085	614.2125066000008	615.2252989000117	616.2470589000004	617.254282400012	618.4726145000022	2020-11-13 10:15:39.135926	42.3029207502082	0.0	30.7074657129096	30.7074657129096	-11.5954550372987	30.7074657129096	-42.3029207502082	30.7074657129096	0.0	30.7074657129096	-11.5954550372987	4.036837832472802	29.510859342821583	-5.03651255789856	25.652704936367257	19.50196942211982	-13.834112382972119	25.652704936367257	3.050803870950679	20.66472594810841	-8.846133394713272	19.393381642921923	1.2228107355467719	1	correct	1.0
146.9443014999997	9.28196169999137	nogo_punish	0.2896437000017613	146.98966289999953	149.80766409999342	152.36668540000392	2.818001199993887	147.98280630000227	151.35182429999986	155.4044056999992	1.8248577999911504	1.0148611000040546	0.8672188999917125	154.39062829999602	0.4742299000063212	153.36711669999931	1	1	18	3	nogo_punish	1	-1	0	0	1	0	0	0.0	1.0	-1	0.2896437000017613	0.4742299000063212	471.52335090001	618.5130138000095	619.5061572000122	621.3310150000034	622.8751752000098	623.8900363000139	624.8904676000093	625.913979200006	626.9277566000092	627.7949755000009	2020-11-13 10:15:39.135926	-3.31461289890922	-3.10048699829021	0.0	-3.10048699829021	-3.31461289890922	0.0	3.31461289890922	-3.10048699829021	0.0	-3.31461289890922	0.0	-2.74179166740493	-16.106674306295837	-8.136999556188771	-5.05476077654234	-14.305983289079986	-5.553270244582638	-5.05476077654234	-3.7278256289270537	-13.35735266371041	2.7493216425854285	-14.414571068277887	1.2228107355467719	1	correct	1.0
156.2665616000013	8.882296999989194	nogo_punish	1.0	156.31192300000112	158.89638679999916	161.41451029999007	2.5844637999980478	157.32728599999973	160.4062455999956	164.4403975000023	1.5691007999994326	1.00826469999447	0.7538224999880185	163.44202619999123	0.424676399998134	162.42576919999556	1	1	19	3	nogo_punish	1	-1	0	0	0	1	0	0.0	1.0	0	1.0	0.424676399998134	471.52335090001	627.8352739000111	628.8506369000097	630.4197377000091	631.9295965000056	632.9378612	633.9491201000055	634.9653771000012	635.9637484000123	636.7175709000003	2020-11-13 10:15:39.135926	4.19436284361083	-4.42073086635219	0.0	-4.42073086635219	-4.19436284361083	0.0	-4.19436284361083	0.0	-4.42073086635219	0.0	-4.19436284361083	0.0	-8.597698563775786	-9.45724342425075	-5.05476077654234	-15.626227157141965	-6.433020189284249	-5.05476077654234	-0.9860339615221234	-10.04273976480119	-1.4450412010254015	-11.314084069987677	-3.197920130805418	1	correct	1.0
165.18611149999197	8.987997500007623	go_punish	1.0	165.2314728999918	167.5814692999993	170.1110706000036	2.3499964000075124	166.2363897000032	169.0941632000031	173.16288389998954	1.3450795999960974	1.0169074000004912	1.056586500009871	172.14989639999112	0.6583071000059135	171.1301470000035	1	1	20	4	go_punish	1	0	-1	1	0	0	0	0.0	1.0	-1	1.0	0.6583071000059135	471.52335090001	636.7548238000018	637.7597406000132	639.1048202000093	640.6175141000131	641.6344215000136	642.6534979000135	643.6732473000011	644.6862347999995	645.7428213000094	2020-11-13 10:15:39.135926	-0.336441580486633	0.0	-1.32024386806198	-0.628041055620697	-0.983802287575347	-1.32024386806198	0.336441580486633	-1.32024386806198	0.0	-1.32024386806198	-0.983802287575347	-4.52203479763316	-13.12850298787325	-5.03651255789856	-6.37500464460432	-11.833537346410473	-3.2224596332487656	-6.37500464460432	-5.508068759155283	-11.36298363286317	1.7655193550100816	-12.634327938049656	1.2228107355467719	1	correct	1.0
174.2120059000008	9.031884999989416	go_punish	0.4944023999996716	174.25736730000062	176.7331911999936	179.27917120000347	2.4758238999929745	175.26712190000399	178.2626423000038	182.32456280000042	1.4660692999896128	1.0165288999996847	0.9646894999896176	181.31082749999769	0.7032208000018727	180.29011669999454	1	1	21	4	go_punish	0	-1	0	1	1	1	0	0.0	1.0	-1	0.4944023999996716	0.7032208000018727	471.52335090001	645.7807182000106	646.790472800014	648.2565421000036	649.7859932000138	650.8025221000134	651.8134676000045	652.8341784000077	653.8479137000104	654.8126032	2020-11-13 10:15:39.135926	3.62999827402653	0.0	-3.72852805391091	-3.42551593360427	-0.0985297798843777	-3.72852805391091	-3.62999827402653	0.0	-3.72852805391091	-0.0985297798843777	-3.72852805391091	-5.84227866569514	-9.162063133360087	-5.03651255789856	-8.78328883045325	-14.631012224394047	-2.3371871255577963	-8.78328883045325	-6.828312627217263	-10.141269544685569	-0.9792064113254813	-11.314084069987677	-2.505717318364138	1	correct	1.0
183.28907790000085	7.9185198999912245	nogo_punish	1.0	183.33443930000067	184.6712611999974	187.20808149999357	1.3368218999967212	184.33808119999594	186.18553129999782	190.26379509999242	0.3331800000014482	1.0225501999957487	0.9891640999994706	189.25247639999725	0.4194202999933623	188.2309060999978	1	1	22	3	nogo_punish	1	-1	0	0	0	1	0	0.0	1.0	0	1.0	0.4194202999933623	471.52335090001	654.8577902000106	655.8614321000059	656.1946121000074	657.7088822000078	658.7314324000035	659.7542570000078	660.7758273000072	661.7871460000024	662.7763101000019	2020-11-13 10:15:39.135926	4.96403923056717	-4.42073086635219	0.0	-1.94828492368268	-4.96403923056717	0.0	-4.96403923056717	0.0	-4.42073086635219	0.0	-4.96403923056717	0.0	-7.828022176819447	-9.45724342425075	-5.05476077654234	-13.153781214472456	-7.202696576240589	-5.05476077654234	-0.9860339615221234	-10.04273976480119	-2.214717587981742	-11.314084069987677	-3.197920130805418	1	correct	1.0
191.2487445000006	8.317286599994986	nogo_reward	1.0	191.29410590000043	192.57990759999666	195.11820719999378	1.2858016999962274	192.29970319999848	194.09619529999327	198.14792509999825	0.28020439999818336	1.022011900000507	1.463467399997171	197.13963389999117	0.6766637999971863	196.12563019999652	1	1	23	1	nogo_reward	0	1	0	0	0	1	0	0.0	1.0	0	1.0	0.6766637999971863	471.52335090001	662.8174568000104	663.8230541000084	664.1032585000066	665.6195462000032	666.6415581000037	667.6489811000065	668.6629848000011	669.6712760000082	671.1347434000054	2020-11-13 10:15:39.135926	44.6652163430005	0.0	32.4289962638486	32.4289962638486	-12.2362200791518	32.4289962638486	-44.6652163430005	32.4289962638486	0.0	32.4289962638486	-12.2362200791518	-32.4289962638486	31.873154935613883	-5.03651255789856	27.374235487306265	21.22349997305883	-14.474877424825218	27.374235487306265	-33.41503022537073	22.386256499047413	-9.48689843656637	21.114912193860924	1.2228107355467719	1	correct	1.0
199.60287309999694	9.842116400002851	go_punish	1.0	199.64823449999676	202.39897100000235	204.93585259999963	2.750736500005587	200.66092789999675	203.91459939999913	207.99858369999856	1.7380431000055978	1.0212532000005012	1.4917672000010498	206.98355989999254	0.3864388000074541	205.95384039999044	1	1	24	4	go_punish	0	-1	0	1	0	0	0	0.0	1.0	0	1.0	0.3864388000074541	471.52335090001	671.1715854000067	672.1842788000067	673.9223219000123	675.4379503000091	676.4592035000096	677.4771913000004	678.5069108000025	679.5219346000085	681.0137018000096	2020-11-13 10:15:39.135926	-0.919746383701237	-3.10048699829021	-3.72852805391091	-4.60028580051534	-2.80878167020967	-3.72852805391091	0.919746383701237	-3.72852805391091	-3.10048699829021	-3.72852805391091	-2.80878167020967	3.72852805391091	-13.711807791087853	-8.136999556188771	-8.78328883045325	-15.805782091305115	-5.047439015883089	-8.78328883045325	2.742494092388786	-13.7712678187121	-0.05946002762424163	-15.042612123898587	-1.8776762627434382	1	correct	1.0
209.48216289999255	8.20667250000406	go_reward	1.0	209.52752429999236	211.20037569999113	213.73997969999618	1.6728513999987626	210.52976510000008	212.71654870000202	216.77939749999496	0.6706105999910505	1.0234309999941615	0.9547993000014685	215.7719225000037	0.6920604000042658	214.75425139999425	1	1	25	2	go_reward	1	1	0	1	0	0	0	0.0	1.0	0	1.0	0.6920604000042658	471.52335090001	681.0508752000023	682.05311600001	682.7237266000011	684.239899600012	685.2633306000062	686.2776023000042	687.2952734000137	688.3027484000049	689.2575477000064	2020-11-13 10:15:39.135926	-17.9748695958207	28.9540069488519	0.0	28.9540069488519	17.9748695958207	0.0	17.9748695958207	0.0	28.9540069488519	0.0	17.9748695958207	0.0	-30.76693100320732	23.91749439095334	-5.05476077654234	17.748510658062123	15.73621225014728	-5.05476077654234	-0.9860339615221234	-10.04273976480119	20.724191238406128	-11.314084069987677	30.176817684398674	1	correct	1.0
217.7245239999902	8.318072000009124	nogo_reward	1.0	217.76988539999002	219.14056719999644	221.64913550000347	1.3706818000064231	218.78126849999535	220.63758629999938	224.70716350000293	0.35929870000109076	1.011549200004083	1.3807938999962062	223.6897881999903	0.6635343999951147	222.66480630000297	1	1	26	1	nogo_reward	0	1	0	0	0	1	0	0.0	1.0	0	1.0	0.6635343999951147	471.52335090001	689.2932363	690.3046194000053	690.6639181000064	692.1609372000094	693.1724864000134	694.1881572000129	695.2131391000003	696.2305144000129	697.6113083000091	2020-11-13 10:15:39.135926	19.9808249140549	0.0	13.8419255272534	13.8419255272534	-6.13889938680154	13.8419255272534	-19.9808249140549	13.8419255272534	0.0	13.8419255272534	-6.13889938680154	-13.8419255272534	7.188763506668282	-5.03651255789856	8.78716475071106	2.6364292364636235	-8.377556732474957	8.78716475071106	-14.827959488775523	3.7991857624522094	-3.389577744216111	2.5278414572657226	1.2228107355467719	1	correct	1.0
226.0791992000013	8.239678699988872	nogo_reward	1.0	226.12456060000113	227.77275639999425	230.29683359999035	1.6481957999931183	227.12499989999924	229.27868709999893	233.35507429999416	0.6477564999950118	1.018146499991417	1.0091649999958463	232.34040559999994	0.3821198999939952	231.31114069999603	1	1	27	1	nogo_reward	1	0	1	0	0	1	0	0.0	1.0	1	1.0	0.3821198999939952	471.52335090001	697.6479115000111	698.6483508000092	699.2961073000042	700.8020380000089	701.8201845000003	702.834491600006	703.8637565000099	704.8784252000041	705.8875902	2020-11-13 10:15:39.135926	10.2853974939155	0.0	6.63558463052946	6.63558463052946	-3.64981286338602	6.63558463052946	-10.2853974939155	6.63558463052946	0.0	6.63558463052946	-3.64981286338602	28.10871891485294	-2.506663913471117	-5.03651255789856	1.5808238539871207	-4.569911660260316	-5.888470209059438	1.5808238539871207	27.122684953330815	-3.40715513427173	-0.9004912208005913	-4.678499439458217	1.2228107355467719	1	correct	1.0
234.35494639999524	9.25091610000527	go_punish	1.0	234.40030779999506	237.15332430000126	239.68913869999233	2.753016500006197	235.40066040000238	238.66558559999976	242.73607410000113	1.752663899998879	1.0235530999925686	0.9151497999991989	241.72147069999482	0.3832499999989522	240.70504939999955	1	1	28	4	go_punish	0	-1	0	1	0	0	0	0.0	1.0	0	1.0	0.3832499999989522	471.52335090001	705.923658700005	706.9240113000124	708.6766752000112	710.1889365000097	711.2124896000023	712.2284003000095	713.2448216000048	714.2594250000111	715.1745748000103	2020-11-13 10:15:39.135926	1.95977935005916	-3.10048699829021	-1.64527280337604	-2.05270884981644	-3.60505215343519	-1.64527280337604	-1.95977935005916	-1.64527280337604	-3.10048699829021	-1.64527280337604	-3.60505215343519	1.64527280337604	-10.832282057327458	-8.136999556188771	-6.7000335799183794	-13.258205140606217	-5.843709499108609	-6.7000335799183794	0.6592388418539166	-11.68801256817723	-0.8557305108497615	-12.959356873363717	-1.8776762627434382	1	correct	1.0
243.64520499999344	8.336670600008802	go_reward	0.3701374999945983	243.69056639999326	245.02209009999933	247.57420249999268	1.3315237000060733	244.70473199999833	246.56327189999865	250.60174630000256	0.31735810000100173	1.0109305999940261	1.4254906999995	249.6085155000037	0.8573485000088112	248.58797569999297	1	1	29	2	go_reward	1	1	0	1	1	1	0	0.0	1.0	1	0.3701374999945983	0.8573485000088112	471.52335090001	715.2139173000032	716.2280829000083	716.5454410000093	718.0866228000086	719.0975534000027	720.1113266000029	721.1318664000137	722.1250972000125	723.550587900012	2020-11-13 10:15:39.135926	23.4558726039035	28.9540069488519	0.0	12.1203949763143	23.4558726039035	0.0	-23.4558726039035	28.9540069488519	0.0	23.4558726039035	0.0	5.790296596530499	10.663811196516884	23.91749439095334	-5.05476077654234	0.9148986855245234	21.217215258230084	-5.05476077654234	4.804262635008376	13.41313283910231	2.7493216425854285	17.639922878864226	1.2228107355467719	1	correct	1.0
252.0183784999972	8.81764789999579	go_punish	1.0	252.06373989999702	253.91326069999195	256.43956959999923	1.8495207999949344	253.06830929999705	255.42962249999982	259.49222179999924	0.8449513999948977	1.0099470999994082	1.3891659999935655	258.47778230000404	0.7213168000016594	257.44894639999256	1	1	30	4	go_punish	1	0	-1	1	0	0	1	0.0	0.0	-1	1.0	0.7213168000016594	471.52335090001	723.587090800007	724.591660200007	725.4366116000019	726.9529734000098	727.9629205000092	728.9722973000025	730.001133200014	731.0155727000092	732.4047387000028	2020-11-13 10:15:39.135926	3.1372118622048	-3.10048699829021	-0.807595989783843	-1.0163571782515	-3.94480785198864	-0.807595989783843	-3.1372118622048	-0.807595989783843	-3.10048699829021	-0.807595989783843	-3.94480785198864	-5.034682675911297	-9.654849545181817	-8.136999556188771	-5.862356766326183	-12.221853469041276	-6.183465197662059	-5.862356766326183	-6.02071663743342	-10.850335754585034	-1.1954862094032115	-12.12168005977152	-1.8776762627434382	1	wrong	1.0
260.8744762999995	9.1523118000041	go_reward	0.3696562999975867	260.91983769999933	263.5405636999931	266.1014623999945	2.620725999993738	261.9314543999935	265.08891340000264	269.1395569000015	1.6091092999995453	1.01254899999185	0.9325926000019535	268.14120319999347	0.6007847000000766	267.11372069999925	1	1	31	2	go_reward	1	1	0	1	1	1	1	1.0	1.0	1	0.3696562999975867	0.6007847000000766	471.52335090001	732.4431886000093	733.4548053000035	735.063914600003	736.6122643000126	737.6248133000045	738.6370716000092	739.6645541000034	740.6629078000115	741.5955004000134	2020-11-13 10:15:39.135926	21.8792917569013	31.6264253126376	0.0	25.2226553671247	21.8792917569013	0.0	-21.8792917569013	31.6264253126376	0.0	21.8792917569013	0.0	3.1178782327448005	9.087230349514682	26.58991275473904	-5.05476077654234	14.017159076334922	19.64063441122788	-5.05476077654234	2.1318442712226773	11.836551992100109	2.7493216425854285	20.31234124264992	1.2228107355467719	1	correct	1.0
270.0673547000042	9.027144499996211	go_punish	0.3300840000010794	270.11271610000404	272.3264296999987	274.8650401999912	2.213713599994662	271.1101558999944	273.84607149999647	277.903066400002	1.2162738000042737	1.0189686999947298	1.2367941999982577	276.89299739999115	1.0	275.8827517000027	1	1	32	4	go_punish	1	0	-1	1	1	1	1	n/a	0.0	-1	0.3300840000010794	1.0	471.52335090001	741.636067000014	742.6335068000044	743.8497806000087	745.3694224000064	746.3883911000012	747.4061026000127	748.4163483000011	749.426417300012	750.6632115000102	2020-11-13 10:15:39.135926	0.411466583601279	-3.10048699829021	-3.52993985973803	-3.64474158287791	-3.11847327613675	-3.52993985973803	-0.411466583601279	-3.10048699829021	-3.52993985973803	-3.11847327613675	-3.52993985973803	3.10048699829021	-12.380594823785339	-8.136999556188771	-8.58470063628037	-14.850237873667687	-5.357130621810169	-8.58470063628037	2.1144530367680865	-13.161213040937941	-0.7806182171526013	-14.414571068277887	-2.307129124191258	1	missed	0.0
279.1361906999955	8.409345599997323	nogo_punish	1.0	279.1815520999953	280.9126382999966	283.438562299998	1.7310862000013003	280.19136419999995	282.42656259999785	286.48394689999986	0.7212740999966627	1.0119997000001604	1.1069507999927737	285.4698239999998	0.4249545000056969	284.45434879999084	1	1	33	3	nogo_punish	1	-1	0	0	0	1	0	0.0	1.0	0	1.0	0.4249545000056969	471.52335090001	750.7049030000053	751.7147151000099	752.4359892000066	753.9499135000078	754.961913200008	755.9776997000008	756.9931749000098	758.0072978000098	759.1142486000026	2020-11-13 10:15:39.135926	5.2889370331929	-4.42073086635219	0.0	-0.953069990934754	-5.2889370331929	0.0	-5.2889370331929	0.0	-4.42073086635219	0.0	-5.2889370331929	0.0	-7.5031243741937175	-9.45724342425075	-5.05476077654234	-12.15856628172453	-7.527594378866318	-5.05476077654234	-0.9860339615221234	-10.04273976480119	-2.539615390607471	-11.314084069987677	-3.197920130805418	1	correct	1.0
287.58156019999296	8.417067500005942	nogo_reward	1.0	287.6269215999928	289.1296525999933	291.651454699997	1.5027310000004945	288.6430917999969	290.6486312999914	294.68691370000306	0.4865607999963686	1.0028234000055818	1.357075399995665	293.6786374999938	0.3670253000018419	292.66243810000014	1	1	34	1	nogo_reward	1	0	1	0	0	1	0	0.0	1.0	1	1.0	0.3670253000018419	471.52335090001	759.1502725000028	760.1664427000069	760.6530035000033	762.1719822000014	763.174805600007	764.1857890000101	765.2019884000038	766.210264600013	767.5673400000087	2020-11-13 10:15:39.135926	31.9358872264268	0.0	22.9750506534767	22.9750506534767	-8.96083657295011	22.9750506534767	-31.9358872264268	22.9750506534767	0.0	22.9750506534767	-8.96083657295011	11.769252891905701	19.14382581904018	-5.03651255789856	17.920289876934362	11.769554362686923	-11.199493918623528	17.920289876934362	10.783218930383578	12.93231088867551	-6.211514930364681	11.660966583489023	1.2228107355467719	1	correct	1.0
296.04362749999564	8.986812400005874	nogo_punish	1.0	296.08898889999546	298.3734961000009	300.9082018999907	2.2845072000054643	297.0927217999997	299.88737669998955	303.939269399998	1.2807743000012124	1.020825200001127	1.1365319000033196	302.94194560000324	0.3849579999950947	301.9272545999993	1	1	35	3	nogo_punish	1	-1	0	0	0	1	1	1.0	1.0	0	1.0	0.3849579999950947	471.52335090001	767.6123398000054	768.6160727000097	769.8968470000109	771.4107275999995	772.4315528000006	773.4506055000093	774.4652965000132	775.462620300008	776.5991522000113	2020-11-13 10:15:39.135926	5.44077554115924	-4.42073086635219	0.0	-0.504583869477203	-5.44077554115924	0.0	-5.44077554115924	0.0	-4.42073086635219	0.0	-5.44077554115924	0.0	-7.351285866227378	-9.45724342425075	-5.05476077654234	-11.71008016026698	-7.679432886832658	-5.05476077654234	-0.9860339615221234	-10.04273976480119	-2.691453898573811	-11.314084069987677	-3.197920130805418	1	correct	1.0
305.06808620000083	8.324051799994777	nogo_reward	1.0	305.11344760000065	306.9843327999988	309.49753280000004	1.8708851999981562	306.11958779999986	308.4880667999969	312.5393422999914	0.8647449999989476	1.0094660000031581	0.8981571000040276	311.54054879999603	0.4722565000120085	310.51600789999065	1	1	36	1	nogo_reward	1	0	1	0	0	1	1	1.0	1.0	1	1.0	0.4722565000120085	471.52335090001	776.6367985000106	777.6429387000098	778.5076837000088	780.0114177000069	781.02088370001	782.0393588000006	783.063899700006	784.0626932000014	784.9608503000054	2020-11-13 10:15:39.135926	40.2560308749252	0.0	29.1699259709507	29.1699259709507	-11.0861049039745	29.1699259709507	-40.2560308749252	29.1699259709507	0.0	29.1699259709507	-11.0861049039745	5.574377574431701	27.463969467538583	-5.03651255789856	24.115165194408362	17.964429680160926	-13.324762249647918	24.115165194408362	4.588343612909577	19.12718620614951	-8.33678326138907	17.85584190096302	1.2228107355467719	1	correct	1.0
313.4353196000011	8.858315999998013	go_punish	0.2792485000099987	313.4806810000009	315.8830772999936	318.4220290999947	2.402396299992688	314.47653430000355	317.3984497999918	321.45947299999534	1.4065429999900516	1.0235793000028934	0.8795240000035847	320.44758549999096	0.3771863000001758	319.4240901000012	1	1	37	4	go_punish	1	0	-1	1	1	1	0	0.0	1.0	0	0.2792485000099987	0.3771863000001758	471.52335090001	785.0040319000109	785.9998852000135	787.4064282000036	788.9218007000018	789.9453800000047	790.9474410000112	791.9709364000009	792.9828239000053	793.8623479000089	2020-11-13 10:15:39.135926	-0.550397254148833	-4.42073086635219	-3.52993985973803	-4.73028374959918	-4.08033711388686	-3.52993985973803	0.550397254148833	-4.42073086635219	-3.52993985973803	-4.08033711388686	-3.52993985973803	4.42073086635219	-13.342458661535451	-9.45724342425075	-8.58470063628037	-15.935780040388956	-6.318994459560279	-8.58470063628037	3.4346969048300666	-14.12307687868805	-0.7806182171526013	-15.734814936339866	-2.307129124191258	1	correct	1.0
322.33219950000057	8.258706699998584	go_reward	0.3744898000004468	322.3775609000004	323.8558572000038	326.4169796999922	1.4782963000034215	323.39204219999374	325.3888942999911	329.46894059999613	0.46381500001007225	1.028085400001146	1.1673270000028424	328.45853639999405	0.4782717000052798	327.4279208999942	1	1	38	2	go_reward	1	1	0	1	1	1	0	0.0	1.0	1	0.3744898000004468	0.4782717000052798	471.52335090001	793.9009118000104	794.9153931000037	795.3792081000138	796.912245200001	797.9403306000022	798.9512718000042	799.981887300004	800.9922915000061	802.159618500009	2020-11-13 10:15:39.135926	21.4991783323486	32.9491014287142	0.0	30.1813915502006	21.4991783323486	0.0	-21.4991783323486	32.9491014287142	0.0	21.4991783323486	0.0	1.7952021166682002	8.707116924961982	27.91258887081564	-5.05476077654234	18.975895259410827	19.260520986675182	-5.05476077654234	0.8091681551460768	11.456438567547409	2.7493216425854285	21.63501735872652	1.2228107355467719	1	correct	1.0
330.62888109999767	8.420742300004349	go_reward	0.3388804999995045	330.6742424999975	332.0284258000029	334.55826669999806	1.3541833000053884	331.6894226000004	333.53815510000277	337.6014686999988	0.3390032000024803	1.020111599995289	1.4935161000030348	336.5910281999968	0.3682828000019071	335.5699275999941	1	1	39	2	go_reward	1	1	0	1	1	1	0	0.0	1.0	1	0.3388804999995045	0.3682828000019071	471.52335090001	802.1975934000075	803.2127735000104	803.5517767000129	805.0615060000127	806.081617600008	807.0932785000041	808.1143791000068	809.1248196000088	810.6183357000118	2020-11-13 10:15:39.135926	21.4343594547801	33.6563808651974	0.0	32.3364902843267	21.4343594547801	0.0	-21.4343594547801	33.6563808651974	0.0	21.4343594547801	0.0	1.0879226801850024	8.642298047393483	28.619868307298837	-5.05476077654234	21.130993993536926	19.195702109106684	-5.05476077654234	0.10188871866287896	11.39161968997891	2.7493216425854285	22.34229679520972	1.2228107355467719	1	correct	1.0
339.09154149999085	9.406351400000858	nogo_punish	1.0	339.1369028999907	341.67264809999324	344.18545489999815	2.535745200002566	340.1459249999898	343.18009249999886	347.23165639999206	1.5267231000034371	1.0053623999992851	1.3115978999994695	346.2240136000037	0.6033001000032527	345.20308749999094	1	1	40	3	nogo_punish	1	-1	0	0	0	1	0	0.0	1.0	0	1.0	0.6033001000032527	471.52335090001	810.6602538000006	811.6692758999998	813.1959990000032	814.7034434000088	815.7088058000081	816.7264384000009	817.7473645000136	818.755007300002	820.0666052000015	2020-11-13 10:15:39.135926	5.51762845282388	-4.42073086635219	0.0	-0.28397886029691	-5.51762845282388	0.0	-5.51762845282388	0.0	-4.42073086635219	0.0	-5.51762845282388	0.0	-7.274432954562737	-9.45724342425075	-5.05476077654234	-11.489475151086687	-7.756285798497299	-5.05476077654234	-0.9860339615221234	-10.04273976480119	-2.7683068102384514	-11.314084069987677	-3.197920130805418	1	correct	1.0
348.5384718999994	8.724704099993687	nogo_punish	1.0	348.58383329999924	350.4989274999971	353.031505299994	1.9150941999978386	349.5908679999993	352.0127796000015	356.0793083000026	0.908059499997762	1.0187256999925012	1.2292290999903344	355.0604980999924	0.3516314000007696	354.0499404000002	1	1	41	3	nogo_punish	1	-1	0	0	0	1	0	0.0	1.0	0	1.0	0.3516314000007696	471.52335090001	820.1071842000092	821.1142189000093	822.022278400007	823.5361305000115	824.554856200004	825.5732913000102	826.5838490000024	827.6026592000126	828.8318883000029	2020-11-13 10:15:39.135926	5.55908044502079	-4.42073086635219	0.0	-0.167711113450507	-5.55908044502079	0.0	-5.55908044502079	0.0	-4.42073086635219	0.0	-5.55908044502079	0.0	-7.232980962365827	-9.45724342425075	-5.05476077654234	-11.373207404240283	-7.7977377906942085	-5.05476077654234	-0.9860339615221234	-10.04273976480119	-2.8097588024353612	-11.314084069987677	-3.197920130805418	1	correct	1.0
357.30100730000413	9.301484399999026	go_punish	0.323919600006775	357.34636870000395	359.8283991999924	362.3768052999949	2.4820304999884684	358.3600114000001	361.36654859999544	365.41066480000154	1.4683877999923425	1.0102566999994451	1.237188300001435	364.4078462000034	0.6339217000058852	363.3963609999919	1	1	42	4	go_punish	1	0	-1	1	1	1	0	0.0	1.0	0	0.323919600006775	0.6339217000058852	471.52335090001	828.8697196000139	829.88336230001	831.3517501000024	832.8898995000054	833.9001562000049	834.9197119000019	835.9311971000134	836.9340157000115	838.171204000013	2020-11-13 10:15:39.135926	1.10763037345716	-1.94828492368268	-3.52993985973803	-2.13287785580747	-2.42230948628087	-3.52993985973803	-1.10763037345716	-1.94828492368268	-3.52993985973803	-2.42230948628087	-3.52993985973803	1.94828492368268	-11.684431033929457	-6.98479748158124	-8.58470063628037	-13.338374146597246	-4.660966831954289	-8.58470063628037	0.9622509621605566	-12.46504925108206	-0.7806182171526013	-13.262368993670357	-2.307129124191258	1	correct	1.0
366.6431176000042	8.445746499986853	nogo_punish	1.0	366.688479000004	368.5185235999961	371.0459742999956	1.8300445999921067	367.6990100999974	370.03263999999035	374.08697299999767	0.8195134999987204	1.0133343000052264	1.047252499993192	373.07998300000327	0.5064083000033861	372.060041299992	1	1	43	3	nogo_punish	0	0	-1	0	0	1	1	1.0	1.0	-1	1.0	0.5064083000033861	471.52335090001	838.211829900014	839.2223610000074	840.0418745000061	841.5559909000003	842.5693252000056	843.583392200002	844.6033339000132	845.6103239000076	846.6575764000008	2020-11-13 10:15:39.135926	5.58261745739213	-4.42073086635219	0.0	-0.10295790242724	-5.58261745739213	0.0	-5.58261745739213	0.0	-4.42073086635219	0.0	-5.58261745739213	-5.84227866569514	-7.209443949994487	-9.45724342425075	-5.05476077654234	-11.308454193217017	-7.821274803065549	-5.05476077654234	-6.828312627217263	-10.04273976480119	-2.833295814806702	-11.314084069987677	-3.197920130805418	1	correct	1.0
375.1277005000011	9.010297300003003	nogo_reward	1.0	375.1730619000009	377.22243249999883	379.75300559999596	2.0493705999979284	376.1830501999939	378.72780330000387	382.78571080000256	1.0393823000049451	1.0252022999920882	1.3976484000013443	381.7746199999965	0.4135802000091644	380.75671849999344	1	1	44	1	nogo_reward	1	0	1	0	0	1	0	0.0	1.0	1	1.0	0.4135802000091644	471.52335090001	846.6964128000109	847.7064011000039	848.7457834000088	850.2511542000138	851.2763565000059	852.2800694000034	853.2979709000065	854.3090617000125	855.7067101000139	2020-11-13 10:15:39.135926	43.8888275898896	0.0	31.8466750255994	31.8466750255994	-12.0421525642902	31.8466750255994	-43.8888275898896	31.8466750255994	0.0	31.8466750255994	-12.0421525642902	2.8976285197830016	31.096766182502982	-5.03651255789856	26.791914249057058	20.64117873480962	-14.280809909963619	26.791914249057058	1.9115945582608782	21.80393526079821	-9.292830921704772	20.532590955611724	1.2228107355467719	1	correct	1.0
384.1739518999966	8.735713300004136	nogo_reward	1.0	384.21931329999643	386.19242239999585	388.7168193999969	1.9731090999994194	385.2331922000012	387.703978199992	391.74084319999383	0.9592301999946358	1.0128412000049138	1.214183400006732	390.7286460000032	0.4389148000045679	389.7163368000038	1	1	45	1	nogo_reward	1	0	1	0	0	1	0	0.0	1.0	1	1.0	0.4389148000045679	471.52335090001	855.7426642000064	856.7565431000112	857.7157733000058	859.227329100002	860.2401703000069	861.2396877000137	862.2519969000132	863.2641941000038	864.4783775000105	2020-11-13 10:15:39.135926	45.6404549980245	0.0	33.1268649138553	33.1268649138553	-12.5135900841692	33.1268649138553	-45.6404549980245	33.1268649138553	0.0	33.1268649138553	-12.5135900841692	1.6174386315271008	32.84839359063788	-5.03651255789856	28.072104137312962	21.921368623065526	-14.752247429842619	28.072104137312962	0.6314046700049774	23.08412514905411	-9.764268441583772	21.81278084386762	1.2228107355467719	1	correct	1.0
392.95228599999973	8.040193299995735	nogo_reward	1.0	392.99764739999955	394.44066510000266	396.9706834999961	1.4430177000031108	394.0034808999917	395.95894179999596	400.0081868999987	0.4371842000109609	1.0117417000001296	1.029653799996595	398.99400700000115	0.5981042999919737	397.98495549999643	1	1	46	1	nogo_reward	1	0	1	0	0	1	1	1.0	1.0	1	1.0	0.5981042999919737	471.52335090001	864.5209983000095	865.5268318000017	865.9640160000126	867.4822927000059	868.4940344000061	869.5083064000064	870.5173579000111	871.5315378000087	872.5611916000053	2020-11-13 10:15:39.135926	46.5536018388328	0.0	33.7899591189819	33.7899591189819	-12.7636427198509	33.7899591189819	-46.5536018388328	33.7899591189819	0.0	33.7899591189819	-12.7636427198509	0.9543444264005032	33.76154043144618	-5.03651255789856	28.73519834243956	22.584462828192123	-15.002300065524318	28.73519834243956	-0.031689535121620205	23.747219354180707	-10.014321077265471	22.47587504899422	1.2228107355467719	1	correct	1.0
401.0315572999971	8.409597100006067	go_reward	0.5957205000013346	401.0769186999969	403.13140420000127	405.6638027000008	2.0544855000043754	402.08653659999254	404.6616963999986	408.71540259999165	1.044867600008729	1.0021063000021968	0.7711132000113139	407.7037915999972	0.4406872999970801	406.68265539999993	1	1	47	2	go_reward	1	1	0	1	1	1	0	0.0	1.0	1	0.5957205000013346	0.4406872999970801	471.52335090001	872.6002696000069	873.6098875000025	874.6547551000112	876.1850473000086	877.1871536000108	878.2060063000099	879.2271425000072	880.2387535000016	881.0098667000129	2020-11-13 10:15:39.135926	21.4506826077097	34.0580208352657	0.0	33.378245769715	21.4506826077097	0.0	-21.4506826077097	34.0580208352657	0.0	21.4506826077097	0.0	0.6862827101167	8.658621200323084	29.02150827736714	-5.05476077654234	22.172749478925226	19.212025262036285	-5.05476077654234	-0.29975125140542347	11.407942842908511	2.7493216425854285	22.743936765278022	1.2228107355467719	1	correct	1.0
409.4834142999898	8.395815100011532	nogo_punish	1.0	409.52877569998964	411.49252569999953	414.0193505999923	1.9637500000098953	410.5293082999997	412.99847639999643	417.08115949999774	0.9632173999998486	1.0208741999958875	0.8434313000034308	416.0670279999904	0.3649834999960148	415.03628259999095	1	1	48	3	nogo_punish	1	-1	0	0	0	1	0	0.0	1.0	0	1.0	0.3649834999960148	471.52335090001	881.0521265999996	882.0526592000097	883.0158766000095	884.5218273000064	885.5427015000023	886.5596335000009	887.5903789000004	888.6045104000077	889.4479417000111	2020-11-13 10:15:39.135926	1.50921835666755	-4.42073086635219	-3.10048699829021	-3.16573173635079	-4.60970535495776	-3.10048699829021	-1.50921835666755	-3.10048699829021	-4.42073086635219	-3.10048699829021	-4.60970535495776	3.10048699829021	-11.282843050719068	-9.45724342425075	-8.15524777483255	-14.371228027140567	-6.848362700631179	-8.15524777483255	2.1144530367680865	-13.1432267630914	-1.8603837123723315	-14.414571068277887	-3.197920130805418	1	correct	1.0
417.91574189999665	9.24426809999568	nogo_reward	1.0	417.96110329999647	420.28235270000005	422.8032329999987	2.3212494000035804	418.9589772000036	421.7931576999981	425.85185629999614	1.323375499996473	1.010075300000608	1.3535150999960024	424.84526119999646	0.3635879999928875	423.82169669998984	1	1	49	1	nogo_reward	0	1	0	0	0	1	0	0.0	1.0	0	1.0	0.3635879999928875	471.52335090001	889.4844542000064	890.4823281000135	891.80570360001	893.3165086000081	894.3265839000087	895.3450475999998	896.3686121000064	897.3752072000061	898.7287223000021	2020-11-13 10:15:39.135926	47.060140546734	0.0	34.1558671453097	34.1558671453097	-12.9042734014243	34.1558671453097	-47.060140546734	34.1558671453097	0.0	34.1558671453097	-12.9042734014243	-34.1558671453097	34.26807913934738	-5.03651255789856	29.10110636876736	22.950370854519925	-15.142930747097719	29.10110636876736	-35.141901106831824	24.11312738050851	-10.154951758838871	22.84178307532202	1.2228107355467719	1	correct	1.0
427.19541479999316	8.47250730000087	nogo_reward	1.0	427.240776199993	428.67539289999695	431.20406340000045	1.4346167000039713	428.2562750999932	430.18101529999683	434.24695649999205	0.41911780000373255	1.0230481000036207	1.4663270000017974	433.2323233999924	0.3834887999983039	432.2187363999984	1	1	50	1	nogo_reward	1	0	1	0	0	1	0	0.0	1.0	1	1.0	0.3834887999983039	471.52335090001	898.764127100003	899.7796260000032	900.1987438000069	901.7043662000068	902.7274143000104	903.7420873000084	904.7556743000024	905.770307400002	907.2366344000038	2020-11-13 10:15:39.135926	21.4025827043952	0.0	14.8622948459237	14.8622948459237	-6.54028785847147	14.8622948459237	-21.4025827043952	14.8622948459237	0.0	14.8622948459237	-6.54028785847147	19.8820086994587	8.610521297008583	-5.03651255789856	9.80753406938136	3.656798555133923	-8.77894520414489	9.80753406938136	18.895974737936577	4.819555081122509	-3.7909662158860415	3.548210775936022	1.2228107355467719	1	correct	1.0
435.70409479999216	8.78016260000004	nogo_reward	1.0	435.749456199992	437.5271385999948	440.0521499000024	1.7776824000028455	436.7518527999928	439.04092319999484	443.0793297999917	0.7752858000020524	1.011226700007569	1.450289000000339	442.0868843999924	0.8684891000011703	441.064720399998	1	1	51	1	nogo_reward	1	0	1	0	0	1	1	1.0	1.0	1	1.0	0.8684891000011703	471.52335090001	907.272807100002	908.2752037000027	909.0504895000048	910.5642741000048	911.5755008000124	912.588071300008	913.6102353000024	914.6026807000017	916.052969700002	2020-11-13 10:15:39.135926	37.1181390528375	0.0	26.7704670023944	26.7704670023944	-10.3476720504431	26.7704670023944	-37.1181390528375	26.7704670023944	0.0	26.7704670023944	-10.3476720504431	7.973836542988	24.32607764545088	-5.03651255789856	21.71570622585206	15.564970711604625	-12.586329396116518	21.71570622585206	6.987802581465877	16.72772723759321	-7.598350407857671	15.456382932406724	1.2228107355467719	1	correct	1.0
444.5250197999994	9.037957799999162	nogo_punish	1.0	444.57038119999925	447.01412559999164	449.55559560000245	2.443744399992397	445.5851055999956	448.5328356999962	452.599779199998	1.4290199999960578	1.0227599000062355	1.0085598000003984	451.5990923999924	0.4456381000054534	450.57154449999507	1	1	52	3	nogo_punish	1	-1	0	0	0	1	0	0.0	1.0	0	1.0	0.4456381000054534	471.52335090001	916.0937321000092	917.1084565000056	918.5374765000016	920.0561866000062	921.0789465000124	922.094895400005	923.1224433000024	924.123130100008	925.1316899000084	2020-11-13 10:15:39.135926	3.84437068109141	-4.42073086635219	-1.32024386806198	-1.36269970968635	-5.16461454915339	-1.32024386806198	-3.84437068109141	-1.32024386806198	-4.42073086635219	-1.32024386806198	-5.16461454915339	1.32024386806198	-8.947690726295207	-9.45724342425075	-6.37500464460432	-12.568196000476126	-7.403271894826808	-6.37500464460432	0.3342099065398565	-11.36298363286317	-2.415292906567961	-12.634327938049656	-3.197920130805418	1	correct	1.0
453.6001178000006	9.872780599995167	go_punish	0.2290987000014865	453.6454792000004	456.43016669999645	458.98123429999407	2.784687499996039	454.66036819999863	457.97164099999645	462.0186369000003	1.769798499997819	1.0095932999976185	1.4996228999953019	461.0093824999931	0.3995334999926854	459.9978853999928	1	1	53	4	go_punish	1	0	-1	1	1	1	0	0.0	1.0	0	0.2290987000014865	0.3995334999926854	471.52335090001	925.1688301000104	926.1837191000086	927.9535176000064	929.4949919000064	930.504585200004	931.5212363000028	932.532733400003	933.5419878000102	935.0416107000055	2020-11-13 10:15:39.135926	1.7522977931214	-0.953069990934754	-3.52993985973803	-1.06740066997884	-1.77764206661663	-3.52993985973803	-1.7522977931214	-0.953069990934754	-3.52993985973803	-1.77764206661663	-3.52993985973803	0.953069990934754	-11.039763614265217	-5.989582548833314	-8.58470063628037	-12.272896960768616	-4.016299412290048	-8.58470063628037	-0.03296397058736944	-11.820381831417821	-0.7806182171526013	-12.267154060922431	-2.307129124191258	1	correct	1.0
463.5110604999936	8.177465100001427	go_reward	0.2487103999883402	463.55642189999344	465.2406400000036	467.78473369999847	1.6842181000101846	464.5706178999973	466.77662819999387	470.8275697999924	0.6700221000063493	1.0081055000046035	0.9063172000024906	469.82825069999683	0.4184653000120306	468.80079339999065	1	1	54	2	go_reward	1	1	0	1	1	1	0	0.0	1.0	1	0.2487103999883402	0.4184653000120306	471.52335090001	935.0797728000034	936.0939688000072	936.7639909000136	938.2999791000038	939.3080846000084	940.3241443000006	941.3516016000068	942.3509207000023	943.2572379000048	2020-11-13 10:15:39.135926	21.4825802194688	34.297205369443	0.0	33.9251051742033	21.4825802194688	0.0	-21.4825802194688	34.297205369443	0.0	21.4825802194688	0.0	0.44709817593940215	8.690518812082184	29.260692811544438	-5.05476077654234	22.719608883413528	19.243922873795384	-5.05476077654234	-0.5389357855827213	11.43984045466761	2.7493216425854285	22.98312129945532	1.2228107355467719	1	correct	1.0
471.72917629999586	8.378546100007952	nogo_punish	1.0	471.7745376999957	473.34960259999207	475.86262010000064	1.5750648999963914	472.7801246000016	474.8428125999926	478.9096267999994	0.569477999990454	1.019807500008028	1.2434570000042413	477.8949799999972	0.3799976000009337	476.8651699000038	1	1	55	3	nogo_punish	1	-1	0	0	0	1	0	1.0	0.0	0	1.0	0.3799976000009337	471.52335090001	943.2978886000056	944.3034755000116	944.872953500002	946.3661635000026	947.3859710000106	948.3885208000138	949.4183309000072	950.4329777000094	951.6764347000136	2020-11-13 10:15:39.135926	4.76529423758443	-4.42073086635219	-0.628041055620697	-0.656295650911827	-5.39333529320513	-0.628041055620697	-4.76529423758443	-0.628041055620697	-4.42073086635219	-0.628041055620697	-5.39333529320513	0.628041055620697	-8.026767169802188	-9.45724342425075	-5.682801832163037	-11.861791941701604	-7.631992638878549	-5.682801832163037	-0.3579929059014264	-10.670780820421887	-2.6440136506197014	-11.942125125608374	-3.197920130805418	1	wrong	1.0
480.1450354999978	9.968938000005664	go_reward	0.2978723999985959	480.1903968999976	483.1583337999908	485.7186023999966	2.9679368999932194	481.198960099995	484.69442580000043	488.75810680000006	1.9593736999958082	1.0241765999961672	1.401228100003209	487.75130029999127	0.9821441999956732	486.72908579999046	1	1	56	2	go_reward	1	1	0	1	1	1	1	1.0	1.0	1	0.2978723999985959	0.9821441999956732	471.52335090001	951.7137478000076	952.722311000005	954.6816847000008	956.2177767000104	957.2419533000066	958.2524367000004	959.2746512000012	960.28145770001	961.6826858000132	2020-11-13 10:15:39.135926	21.5122400972439	34.445210339069	0.0	34.2312997816651	21.5122400972439	0.0	-21.5122400972439	34.445210339069	0.0	21.5122400972439	0.0	0.2990932063134011	8.720178689857283	29.40869778117044	-5.05476077654234	23.025803490875326	19.27358275157048	-5.05476077654234	-0.6869407552087223	11.46950033244271	2.7493216425854285	23.13112626908132	1.2228107355467719	1	correct	1.0
490.150533299995	9.485126200001218	nogo_reward	1.0	490.1958946999948	492.917234499997	495.44042210000043	2.72133980000217	491.2119590999936	494.4314435999986	498.4824585000024	1.7052754000034156	1.008978500001831	1.1985623999936479	497.47009089999483	0.4165359000035096	496.4535807999928	1	1	57	1	nogo_reward	1	0	1	0	0	1	0	0.0	1.0	1	1.0	0.4165359000035096	471.52335090001	961.7192456000048	962.7353100000036	964.440585400007	965.9547945000086	966.9637730000104	967.9769317000028	968.9934418000048	970.0058094000124	971.204371800006	2020-11-13 10:15:39.135926	42.9157896308525	0.0	31.102470667889	31.102470667889	-11.8133189629635	31.102470667889	-42.9157896308525	31.102470667889	0.0	31.102470667889	-11.8133189629635	3.6418328774933997	30.123728223465882	-5.03651255789856	26.047709891346663	19.896974377099227	-14.051976308636918	26.047709891346663	2.6557989159712765	21.05973090308781	-9.063997320378071	19.788386597901322	1.2228107355467719	1	correct	1.0
499.6739799999922	8.355946900003005	go_reward	0.323674100000062	499.719341399992	501.2325576000004	503.7891687999944	1.5132162000084008	500.7353388999908	502.7663375999982	506.8308851000038	0.49721870000962554	1.022831199996176	1.2444031999912113	505.83111069999006	0.7487948999914806	504.8035203000036	1	1	58	2	go_reward	1	1	0	1	1	1	1	1.0	1.0	1	0.323674100000062	0.7487948999914806	471.52335090001	971.242692300002	972.2586898000008	972.7559085000104	974.2896885000082	975.3125197000044	976.3268712000136	977.3544616	978.3542360000138	979.598639200005	2020-11-13 10:15:39.135926	21.5358844938866	34.5397247832858	0.0	34.4117325399111	21.5358844938866	0.0	-21.5358844938866	34.5397247832858	0.0	21.5358844938866	0.0	0.20457876209660242	8.743823086499981	29.503212225387237	-5.05476077654234	23.206236249121325	19.29722714821318	-5.05476077654234	-0.781455199425521	11.493144729085408	2.7493216425854285	23.22564071329812	1.2228107355467719	1	correct	1.0
508.06693119999545	8.253200000006359	nogo_reward	1.0	508.11229259999527	509.5810124999988	512.1059363999956	1.4687199000035207	509.1190314999984	511.08184410000104	515.1489594000012	0.4619810000003781	1.0240922999945496	1.2165332000004128	514.1408157999977	0.4948995000013383	513.1171753999952	1	1	59	1	nogo_reward	1	0	1	0	0	1	1	1.0	1.0	1	1.0	0.4948995000013383	471.52335090001	979.6356435000052	980.6423824000084	981.1043634000088	982.605195000011	983.6292873000056	984.6405263000051	985.6641667000076	986.6723103000112	987.8888435000116	2020-11-13 10:15:39.135926	45.3585453130901	0.0	32.9078614621305	32.9078614621305	-12.4506838509596	32.9078614621305	-45.3585453130901	32.9078614621305	0.0	32.9078614621305	-12.4506838509596	1.836442083251903	32.56648390570348	-5.03651255789856	27.85310068558816	21.702365171340723	-14.689341196633018	27.85310068558816	0.8504081217297796	22.865121697329307	-9.70136220837417	21.59377739214282	1.2228107355467719	1	correct	1.0
516.3584308999998	7.911458299990045	go_reward	0.445750400001998	516.4037922999996	517.7884695999965	520.3306908999948	1.384677299996838	517.4080958999984	519.318194099993	523.3562148999916	0.3803736999980174	1.012496800001827	0.9590356999980258	522.3497511000024	0.3457251000072574	521.3335479999951	1	1	60	2	go_reward	1	1	0	1	1	1	1	1.0	1.0	1	0.445750400001998	0.3457251000072574	471.52335090001	987.9271432000096	988.9314468000084	989.3118205000064	990.841545000003	991.8540418000048	992.856898900005	993.8731020000124	994.8795658000016	995.8386014999996	2020-11-13 10:15:39.135926	21.5537274829549	34.6016923467346	0.0	34.5225223207849	21.5537274829549	0.0	-21.5537274829549	34.6016923467346	0.0	21.5537274829549	0.0	0.14261119864779914	8.761666075568284	29.56517978883604	-5.05476077654234	23.317026029995127	19.31507013728148	-5.05476077654234	-0.8434227628743243	11.51098771815371	2.7493216425854285	23.287608276746923	1.2228107355467719	1	correct	1.0
