onset	duration	trial_type	response_time	cueOnset	targetOnset	fbOnset	cueRT	firstfixOnset	secondfixOnset	waitOnset	firstfixdur	secondfixdur	waitdur	nback_fbOnset	nback_response_time	nback_targetOnset	block	wm	trial	cue	cond	is_common	outcome_go	outcome_nogo	key_correct	key_pressed	is_correct	key_correct_nback	key_pressed_nback	is_correct_nback	outcome	rt	rt_nback	time_scan	time_onset	time_isi1	time_circle	time_isi2	time_feedback	time_same	time_correct	time_iti	time_done	timestamp_scan	DV	Qgo	Qnogo	SV	Wgo	Wnogo	mDV	Qchosen	Qunchosen	Wchosen	Wunchosen	PE	DVC	QgoC	QnogoC	SVC	WgoC	WnogoC	PEC	WchosenC	WunchosenC	QchosenC	QunchosenC	run	outcome_nback	nback_targetResp
0.0	7.686232699998072	go_punish	1.0	0.04362570001080712	2.8091512000098646	5.338180100006639	2.7655254999990575	1.0506839000006494	4.315284900003235	6.346411400008719	1.7584673000092153	1.0228952000034042	1.3834470000001602	n/a	1.0	n/a	2	0	1	4	go_punish	1	0	-1	1	0	0	0	n/a	n/a	-1	1.0	1.0	1740.7878912000017	1740.8315169000125	1741.8385751000023	1743.5970424000116	1745.103176100005	1746.1260713000083	n/a	n/a	1747.1343026000104	1748.5177496000106	2020-11-13 10:36:48.408033	1.20097810088087	0.0	0.0	0.0	-1.20097810088087	0.0	-1.20097810088087	0.0	0.0	0.0	-1.20097810088087	-5.84227866569514	-11.591083306505748	-5.03651255789856	-5.05476077654234	-11.205496290789776	-3.4396354465542887	-5.05476077654234	-6.828312627217263	-10.04273976480119	1.5483435417045586	-11.314084069987677	1.2228107355467719	3	missed	0.0
7.756471499989857	6.824207500001648	go_reward	1.0	7.800097200000664	9.843370500005904	12.366361000007373	2.0432733000052394	8.809175600006483	11.359493100011377	13.379504800002678	1.0341948999994202	1.0068678999959957	1.2447998999996344	n/a	1.0	n/a	2	0	2	2	go_reward	1	1	0	1	0	0	0	n/a	n/a	0	1.0	1.0	1740.7878912000017	1748.5879884000024	1749.5970668000082	1750.6312617000076	1752.147384300013	1753.154252200009	n/a	n/a	1754.1673960000044	1755.412195900004	2020-11-13 10:36:48.408033	1.20097810088087	0.0	0.0	0.0	-1.20097810088087	0.0	-1.20097810088087	0.0	0.0	0.0	-1.20097810088087	0.0	-11.591083306505748	-5.03651255789856	-5.05476077654234	-11.205496290789776	-3.4396354465542887	-5.05476077654234	-0.9860339615221234	-10.04273976480119	1.5483435417045586	-11.314084069987677	1.2228107355467719	3	missed	0.0
14.624596399997017	5.972527099991794	go_reward	1.0	14.668222100007824	16.095391100010374	18.620295100001158	1.42716900000255	15.679486100008717	17.600484300011658	19.632863000005955	0.41590500000165775	1.0198107999895	1.0078861999936635	n/a	1.0	n/a	2	0	3	2	go_reward	1	1	0	1	0	0	0	n/a	n/a	0	1.0	1.0	1740.7878912000017	1755.4561133000095	1756.4673773000104	1756.883282300012	1758.3883755000134	1759.4081863000029	n/a	n/a	1760.4207542000077	1761.4286404000013	2020-11-13 10:36:48.408033	1.20097810088087	0.0	0.0	0.0	-1.20097810088087	0.0	-1.20097810088087	0.0	0.0	0.0	-1.20097810088087	0.0	-11.591083306505748	-5.03651255789856	-5.05476077654234	-11.205496290789776	-3.4396354465542887	-5.05476077654234	-0.9860339615221234	-10.04273976480119	1.5483435417045586	-11.314084069987677	1.2228107355467719	3	missed	0.0
20.64002329998766	6.478951100012637	go_reward	0.3454444999952102	20.683648999998468	22.492597600008366	25.027923000001238	1.8089486000098987	21.68652139999881	24.01075410000317	26.03959140001075	0.8060762000095565	1.0171688999980688	1.123008700000355	n/a	1.0	n/a	2	0	4	2	go_reward	1	1	0	1	1	1	1	n/a	n/a	1	0.3454444999952102	1.0	1740.7878912000017	1761.4715402000002	1762.4744126000005	1763.28048880001	1764.7986453000049	1765.815814200003	n/a	n/a	1766.8274826000124	1767.9504913000128	2020-11-13 10:36:48.408033	-1.20097810088087	0.0	0.0	0.0	-1.20097810088087	0.0	1.20097810088087	0.0	0.0	-1.20097810088087	0.0	34.7443035453824	-13.993039508267486	-5.03651255789856	-5.05476077654234	-11.205496290789776	-3.4396354465542887	-5.05476077654234	33.758269583860276	-11.243717865682061	2.7493216425854285	-11.314084069987677	1.2228107355467719	3	missed	0.0
27.192820199998096	5.9452249000023585	nogo_punish	1.0	27.236445900008903	28.877871700009337	31.411489700010634	1.6414258000004338	28.230476000011322	30.395653800005448	32.413635000004206	0.6473956999980146	1.015835900005186	0.7680358000070555	n/a	1.0	n/a	2	0	5	3	nogo_punish	1	-1	0	0	0	1	0	n/a	n/a	0	1.0	1.0	1740.7878912000017	1768.0243371000106	1769.018367200013	1769.665762900011	1771.1835450000071	1772.1993809000123	n/a	n/a	1773.201526200006	1773.969562000013	2020-11-13 10:36:48.408033	1.20097810088087	0.0	0.0	0.0	-1.20097810088087	0.0	-1.20097810088087	0.0	0.0	0.0	-1.20097810088087	0.0	-11.591083306505748	-5.03651255789856	-5.05476077654234	-11.205496290789776	-3.4396354465542887	-5.05476077654234	-0.9860339615221234	-10.04273976480119	1.5483435417045586	-11.314084069987677	1.2228107355467719	3	missed	0.0
33.181483099993784	6.063106400004472	nogo_punish	1.0	33.22510880000459	34.55838070000732	37.06915750000894	1.3332719000027282	34.23291109999968	36.06048949999945	38.08079440001143	0.3254696000076365	1.008668000009493	1.2074207999976352	n/a	1.0	n/a	2	0	6	3	nogo_punish	1	-1	0	0	0	1	0	n/a	n/a	0	1.0	1.0	1740.7878912000017	1774.0130000000063	1775.0208023000014	1775.346271900009	1776.8483807000011	1777.8570487000106	n/a	n/a	1778.8686856000131	1780.0761064000108	2020-11-13 10:36:48.408033	1.20097810088087	0.0	0.0	0.0	-1.20097810088087	0.0	-1.20097810088087	0.0	0.0	0.0	-1.20097810088087	0.0	-11.591083306505748	-5.03651255789856	-5.05476077654234	-11.205496290789776	-3.4396354465542887	-5.05476077654234	-0.9860339615221234	-10.04273976480119	1.5483435417045586	-11.314084069987677	1.2228107355467719	3	missed	0.0
39.29031689999101	6.721199599996908	go_reward	0.229957599993213	39.33394260000182	41.32044920000749	43.85901020000142	1.9865066000056686	40.34621500001208	42.847351100004516	44.85479840000312	0.9742341999954078	1.0116590999969048	1.2003437999956077	n/a	1.0	n/a	2	0	7	2	go_reward	1	1	0	1	1	1	0	n/a	n/a	1	0.229957599993213	1.0	1740.7878912000017	1780.1218338000035	1781.1341062000138	1782.1083404000092	1783.6352423000062	1784.6469014000031	n/a	n/a	1785.6426896000048	1786.8430334000004	2020-11-13 10:36:48.408033	17.1289251208885	17.0310056770499	0.0	17.0310056770499	17.1289251208885	0.0	-17.1289251208885	17.0310056770499	0.0	17.1289251208885	0.0	17.7132978683325	4.336863713501883	11.99449311915134	-5.05476077654234	5.825509386260125	14.890267775215081	-5.05476077654234	16.727263906810375	7.086185356087309	2.7493216425854285	5.716921607062224	1.2228107355467719	3	missed	0.0
46.0396962999946	7.4301132999974016	go_punish	0.2766300999937812	46.08332200000541	48.55280990000733	51.095033100005594	2.4694879000019228	47.0795969000028	50.06810360000213	52.10676210001088	1.4732130000045345	1.0269295000034617	1.4066731999919284	n/a	1.0	n/a	2	0	8	4	go_punish	0	-1	0	1	1	1	0	n/a	n/a	-1	0.2766300999937812	1.0	1740.7878912000017	1786.871213200007	1787.8674881000045	1789.340701100009	1790.8559948000038	1791.8829243000073	n/a	n/a	1792.8946533000126	1794.3013265000045	2020-11-13 10:36:48.408033	1.30612185804637	0.0	-2.77141117202046	-2.77141117202046	-1.46528931397409	-2.77141117202046	-1.30612185804637	0.0	-2.77141117202046	-1.46528931397409	-2.77141117202046	-5.84227866569514	-11.485939549340248	-5.03651255789856	-7.8261719485628	-13.976907462810237	-3.7039466596475084	-7.8261719485628	-6.828312627217263	-11.50802907877528	-0.02208952943503162	-11.314084069987677	-1.5486004364736883	3	missed	0.0
53.498474399995985	6.281099999992648	go_punish	1.0	53.54210010000679	55.08529020000401	57.615482100008876	1.5431900999972186	54.53541770001152	56.5902887000118	58.6241798999979	0.5498724999924889	1.0251933999970788	1.1990202000015415	n/a	1.0	n/a	2	0	9	4	go_punish	1	0	-1	1	0	0	0	n/a	n/a	-1	1.0	1.0	1740.7878912000017	1794.3299913000085	1795.3233089000132	1795.8731814000057	1797.3781799000135	1798.4033733000106	n/a	n/a	1799.4120710999996	1800.6110913000011	2020-11-13 10:36:48.408033	1.60111698075731	-2.77141117202046	-2.77141117202046	-4.1835270029391	-4.37252815277777	-2.77141117202046	-1.60111698075731	-2.77141117202046	-2.77141117202046	-2.77141117202046	-4.37252815277777	-3.07086749367468	-11.190944426629308	-7.80792372991902	-7.8261719485628	-15.389023293728876	-6.611185498451189	-7.8261719485628	-4.056901455196804	-12.814150936821651	-1.6232065101923414	-14.085495242008138	-1.5486004364736883	3	missed	0.0
59.824706299987156	6.79977580001264	go_reward	0.3457580999966012	59.86833199999796	61.651454300008254	64.19047260000639	1.783122300010291	60.8731756000052	63.17025690000423	65.1968270000068	0.7782787000030567	1.0202157000021543	1.4712808000037967	n/a	1.0	n/a	2	0	10	2	go_reward	1	1	0	1	1	1	0	n/a	n/a	1	0.3457580999966012	1.0	1740.7878912000017	1800.6562231999997	1801.661066800007	1802.43934550001	1803.958148100006	1804.978363800008	n/a	n/a	1805.9847182000085	1807.4559990000123	2020-11-13 10:36:48.408033	26.1801094822507	25.4327304814526	0.0	25.4327304814526	26.1801094822507	0.0	-26.1801094822507	25.4327304814526	0.0	26.1801094822507	0.0	9.3115730639298	13.388048074864082	20.39621792355404	-5.05476077654234	14.227234190662825	23.941452136577283	-5.05476077654234	8.325539102407676	16.13736971744951	2.7493216425854285	14.118646411464924	1.2228107355467719	3	missed	0.0
66.68242949999672	6.171432499992079	nogo_reward	1.0	66.72605520000752	68.44046900000785	70.9624455000012	1.7144138000003295	67.72162150000759	69.95682459999784	71.96523400000274	0.7188475000002654	1.0056209000033505	0.9322536999968634	n/a	1.0	n/a	2	0	11	1	nogo_reward	0	1	0	0	0	1	0	n/a	n/a	0	1.0	1.0	1740.7878912000017	1807.5139464000092	1808.5095127000093	1809.2283602000095	1810.7447157999995	1811.750336700003	n/a	n/a	1812.7531252000044	1813.6853789000013	2020-11-13 10:36:48.408033	1.20097810088087	0.0	0.0	0.0	-1.20097810088087	0.0	-1.20097810088087	0.0	0.0	0.0	-1.20097810088087	0.0	-11.591083306505748	-5.03651255789856	-5.05476077654234	-11.205496290789776	-3.4396354465542887	-5.05476077654234	-0.9860339615221234	-10.04273976480119	1.5483435417045586	-11.314084069987677	1.2228107355467719	3	missed	0.0
72.8822336000012	7.24607229999674	go_punish	0.2786452000000281	72.92585930001201	75.20873420000112	77.74155200000632	2.2828748999891104	73.93551390001062	76.73651080000832	78.75786769999831	1.2732202999904985	1.0050411999980042	1.414063900010433	n/a	1.0	n/a	2	0	12	4	go_punish	1	0	-1	1	1	1	0	n/a	n/a	0	0.2786452000000281	1.0	1740.7878912000017	1813.7137505000137	1814.7234051000123	1815.9966254000028	1817.52440200001	1818.529443200008	n/a	n/a	1819.5457589	1820.9598228000104	2020-11-13 10:36:48.408033	-0.260291251242482	-2.77141117202046	-4.1835270029391	-4.92431593654644	-4.44381825418158	-4.1835270029391	0.260291251242482	-2.77141117202046	-4.1835270029391	-4.44381825418158	-4.1835270029391	2.77141117202046	-13.052352658629099	-7.80792372991902	-9.238287779481439	-16.129812227336217	-6.682475599854999	-9.238287779481439	1.7853772104983368	-14.48655801898277	-1.4342053603536717	-14.085495242008138	-2.9607162673923284	3	missed	0.0
80.15565079999237	7.171759600008727	go_punish	0.3432332000083988	80.19927650000318	82.9251923999982	85.46599789999868	2.725915899995016	81.20098230001099	84.4493811999996	86.4728149	1.7242100999872036	1.0166166999990764	0.8982212000119034	n/a	1.0	n/a	2	0	13	4	go_punish	1	0	-1	1	1	1	0	n/a	n/a	0	0.3432332000083988	1.0	1740.7878912000017	1820.9871677000049	1821.9888735000127	1823.7130836	1825.2372724000013	1826.2538891000004	n/a	n/a	1827.2607061000017	1828.1589273000136	2020-11-13 10:36:48.408033	1.32515825303168	-1.41211583091864	-4.1835270029391	-2.55167843580391	-2.85836874990742	-4.1835270029391	-1.32515825303168	-1.41211583091864	-4.1835270029391	-2.85836874990742	-4.1835270029391	1.41211583091864	-11.466903154354938	-6.4486283888172	-9.238287779481439	-13.757174726593686	-5.097026095580839	-9.238287779481439	0.4260818693965165	-12.90110851470861	-1.4342053603536717	-12.726199900906318	-2.9607162673923284	3	missed	0.0
87.35702609999862	6.118828999999323	go_punish	0.3079605000093579	87.40065180000943	88.74963580000622	91.30121190000477	1.3489839999967899	88.39456359999872	90.2794010000066	92.3267583999982	0.3550722000074984	1.0218108999981723	1.1927224000105525	n/a	1.0	n/a	2	0	14	4	go_punish	1	0	-1	1	1	1	1	n/a	n/a	0	0.3079605000093579	1.0	1740.7878912000017	1828.1885430000111	1829.1824548000004	1829.537527000008	1831.0672922000083	1832.0891031000065	n/a	n/a	1833.1146496	1834.3073720000104	2020-11-13 10:36:48.408033	2.11151759783209	-0.74078893360734	-4.1835270029391	-1.35924567501675	-2.07200940510701	-4.1835270029391	-2.11151759783209	-0.74078893360734	-4.1835270029391	-2.07200940510701	-4.1835270029391	0.74078893360734	-10.680543809554527	-5.7773014915059	-9.238287779481439	-12.564741965806526	-4.310666750780429	-9.238287779481439	-0.24524502791478342	-12.114749169908201	-1.4342053603536717	-12.054873003595016	-2.9607162673923284	3	missed	0.0
93.5042217000007	6.435707599987154	go_punish	0.2769326999987243	93.5478474000115	95.01638430000435	97.57900860000473	1.4685368999928414	94.55109639999841	96.55155570000329	98.58618310000725	0.4652879000059329	1.0274529000014354	1.3973718999914126	n/a	1.0	n/a	2	0	15	4	go_punish	0	-1	0	1	1	1	1	n/a	n/a	-1	0.2769326999987243	1.0	1740.7878912000017	1834.3357386000132	1835.3389876	1835.804275500006	1837.339446900005	1838.3668998000064	n/a	n/a	1839.374074300009	1840.7714462000004	2020-11-13 10:36:48.408033	2.51330054917737	-0.398773671277926	-4.1835270029391	-0.742036115524138	-1.67022645376173	-4.1835270029391	-2.51330054917737	-0.398773671277926	-4.1835270029391	-1.67022645376173	-4.1835270029391	-5.443504994417214	-10.278760858209248	-5.435286229176486	-9.238287779481439	-11.947532406313915	-3.9088837994351486	-9.238287779481439	-6.429538955939337	-11.71296621856292	-1.4342053603536717	-11.712857741265603	-2.9607162673923284	3	missed	0.0
99.96992129999853	6.19063389999792	nogo_reward	1.0	100.01354700000934	101.77301200000466	104.31179710000265	1.7594649999953162	101.00818930000241	103.28830310000922	105.32260569999903	0.7648227000022416	1.023493999993434	0.8815752000082284	n/a	1.0	n/a	2	0	16	1	nogo_reward	1	0	1	0	0	1	0	n/a	n/a	1	1.0	1.0	1740.7878912000017	1840.801438200011	1841.796080500004	1842.5609032000064	1844.076194300011	1845.0996883000043	n/a	n/a	1846.1104969000007	1846.992072100009	2020-11-13 10:36:48.408033	1.20097810088087	0.0	0.0	0.0	-1.20097810088087	0.0	-1.20097810088087	0.0	0.0	0.0	-1.20097810088087	34.7443035453824	-11.591083306505748	-5.03651255789856	-5.05476077654234	-11.205496290789776	-3.4396354465542887	-5.05476077654234	33.758269583860276	-10.04273976480119	1.5483435417045586	-11.314084069987677	1.2228107355467719	3	missed	0.0
106.2058007999874	7.840384400013363	nogo_punish	1.0	106.24942649999821	109.20927700000152	111.7243068000098	2.959850500003313	107.24613150001073	110.71583570000075	112.73110450000945	1.9631454999907874	1.0084711000090465	1.35870640000212	n/a	1.0	n/a	2	0	17	3	nogo_punish	1	-1	0	0	0	1	0	n/a	n/a	0	1.0	1.0	1740.7878912000017	1847.0373177	1848.0340227000124	1849.9971682000032	1851.5037269000024	1852.5121980000115	n/a	n/a	1853.5189957000111	1854.8777021000133	2020-11-13 10:36:48.408033	1.20097810088087	0.0	0.0	0.0	-1.20097810088087	0.0	-1.20097810088087	0.0	0.0	0.0	-1.20097810088087	0.0	-11.591083306505748	-5.03651255789856	-5.05476077654234	-11.205496290789776	-3.4396354465542887	-5.05476077654234	-0.9860339615221234	-10.04273976480119	1.5483435417045586	-11.314084069987677	1.2228107355467719	3	missed	0.0
114.07590109999	6.049438900008681	nogo_reward	1.0	114.11952680000081	115.3927712000002	117.9180451999996	1.2732443999993848	115.12266210000939	116.90458060000628	118.9249341000102	0.2701090999908047	1.0134645999933127	1.244031599999289	n/a	1.0	n/a	2	0	18	1	nogo_reward	1	0	1	0	0	1	1	n/a	n/a	1	1.0	1.0	1740.7878912000017	1854.9074180000025	1855.910553300011	1856.180662400002	1857.692471800008	1858.7059364000013	n/a	n/a	1859.712825300012	1860.9568569000112	2020-11-13 10:36:48.408033	16.9330862332113	0.0	17.0310056770499	17.0310056770499	0.0979194438386078	17.0310056770499	-16.9330862332113	17.0310056770499	0.0	17.0310056770499	0.0979194438386078	17.7132978683325	4.141024825824681	-5.03651255789856	11.976244900507561	5.825509386260125	-2.140737901834811	11.976244900507561	16.727263906810375	6.9882659122487105	2.8472410864240363	5.716921607062224	1.2228107355467719	3	missed	0.0
120.17127439999581	6.393187900001294	nogo_punish	1.0	120.21490010000662	121.56171160000622	124.10099010000681	1.3468114999996033	121.22263970000472	123.07966380000266	125.10727620001103	0.33907190000149967	1.021326300004148	1.5008117999968817	n/a	1.0	n/a	2	0	19	3	nogo_punish	1	-1	0	0	0	1	1	n/a	n/a	0	1.0	1.0	1740.7878912000017	1861.0027913000083	1862.0105309000064	1862.349602800008	1863.8675550000044	1864.8888813000085	n/a	n/a	1865.8951674000127	1867.3959792000096	2020-11-13 10:36:48.408033	1.20097810088087	0.0	0.0	0.0	-1.20097810088087	0.0	-1.20097810088087	0.0	0.0	0.0	-1.20097810088087	0.0	-11.591083306505748	-5.03651255789856	-5.05476077654234	-11.205496290789776	-3.4396354465542887	-5.05476077654234	-0.9860339615221234	-10.04273976480119	1.5483435417045586	-11.314084069987677	1.2228107355467719	3	missed	0.0
126.6071009000002	7.460121999990179	nogo_punish	1.0	126.65072660001101	129.17475760000502	131.69718860001035	2.524030999994011	127.660343100011	130.67726930000913	132.71114520000992	1.5144144999940181	1.01991930000122	1.3997033999912674	n/a	1.0	n/a	2	0	20	3	nogo_punish	1	-1	0	0	0	1	0	n/a	n/a	0	1.0	1.0	1740.7878912000017	1867.4386178000127	1868.4482343000127	1869.9626488000067	1871.4651605000108	1872.485079800012	n/a	n/a	1873.4990364000116	1874.8987398000029	2020-11-13 10:36:48.408033	1.20097810088087	0.0	0.0	0.0	-1.20097810088087	0.0	-1.20097810088087	0.0	0.0	0.0	-1.20097810088087	0.0	-11.591083306505748	-5.03651255789856	-5.05476077654234	-11.205496290789776	-3.4396354465542887	-5.05476077654234	-0.9860339615221234	-10.04273976480119	1.5483435417045586	-11.314084069987677	1.2228107355467719	3	missed	0.0
134.09483129999717	6.867653900000732	go_punish	0.2748186999961035	134.13845700000797	136.54956300000708	139.07654850000063	2.4111059999991085	135.1321007000074	138.0702616000051	140.0907370000059	1.41746229999967	1.00628689999553	0.9153739000028054	n/a	1.0	n/a	2	0	21	4	go_punish	1	0	-1	1	1	1	0	n/a	n/a	0	0.2748186999961035	1.0	1740.7878912000017	1874.9263482000097	1875.919991900009	1877.3374542000088	1878.8581528000068	1879.8644397000023	n/a	n/a	1880.8786282000076	1881.7940021000104	2020-11-13 10:36:48.408033	-0.311655685883015	-2.99109424215194	-4.1835270029391	-3.18552969180194	-4.49518268882212	-4.1835270029391	0.311655685883015	-2.99109424215194	-4.1835270029391	-4.49518268882212	-4.1835270029391	2.99109424215194	-13.103717093269632	-8.027606800050501	-9.238287779481439	-14.391025982591717	-6.733840034495539	-9.238287779481439	2.0050602806298166	-14.53792245362331	-1.4342053603536717	-14.305178312139617	-2.9607162673923284	3	missed	0.0
140.99009549999028	5.960157800000161	go_punish	0.3960204000031808	141.03372120000108	142.5933451000019	145.14410640000983	1.5596239000008154	142.0426503000051	144.12930490000872	146.15469500000472	0.5506947999967906	1.0148015000011128	0.8391839999965214	n/a	1.0	n/a	2	0	22	4	go_punish	1	0	-1	1	1	1	0	n/a	n/a	0	0.3960204000031808	1.0	1740.7878912000017	1881.8216124000028	1882.8305415000068	1883.3812363000036	1884.9171961000104	1885.9319976000115	n/a	n/a	1886.9425862000064	1887.781770200003	2020-11-13 10:36:48.408033	1.28932609706431	-1.53569520503337	-4.1835270029391	-1.64789570610414	-2.89420090587479	-4.1835270029391	-1.28932609706431	-1.53569520503337	-4.1835270029391	-2.89420090587479	-4.1835270029391	1.53569520503337	-11.502735310322308	-6.572207762931931	-9.238287779481439	-12.853391996893917	-5.132858251548209	-9.238287779481439	0.5496612435112467	-12.93694067067598	-1.4342053603536717	-12.849779275021048	-2.9607162673923284	3	missed	0.0
146.97850620000077	5.943794299994352	go_punish	0.3552590000035707	147.02213190001157	148.45420640001225	151.00856470000872	1.432074500000681	148.01794869999821	149.98651329999825	152.00377720000665	0.4362577000140391	1.0220514000104686	0.9621489999992718	n/a	1.0	n/a	2	0	23	4	go_punish	1	0	-1	1	1	1	1	n/a	n/a	0	0.3552590000035707	1.0	1740.7878912000017	1887.8100231000133	1888.8058399	1889.242097600014	1890.7744045	1891.7964559000104	n/a	n/a	1892.7916684000083	1893.7538174000076	2020-11-13 10:36:48.408033	2.08730271358821	-0.811645009142613	-4.1835270029391	-0.877507724979988	-2.09622428935089	-4.1835270029391	-2.08730271358821	-0.811645009142613	-4.1835270029391	-2.09622428935089	-4.1835270029391	0.811645009142613	-10.704758693798407	-5.848157567041174	-9.238287779481439	-12.083004015769765	-4.334881635024308	-9.238287779481439	-0.17438895237951046	-12.13896405415208	-1.4342053603536717	-12.12572907913029	-2.9607162673923284	3	missed	0.0
152.95018459999142	7.007902400000376	go_punish	0.2822804000024916	152.99381030000222	155.4550891000108	158.00238550000336	2.4612788000085857	153.98978560000228	156.9898974000098	159.01984540000535	1.465303500008531	1.0124880999935613	0.9818672999972478	n/a	1.0	n/a	2	0	24	4	go_punish	1	0	-1	1	1	1	1	n/a	n/a	0	0.2822804000024916	1.0	1740.7878912000017	1893.781701500004	1894.777676800004	1896.2429803000125	1897.7777886000115	1898.790276700005	n/a	n/a	1899.807736600007	1900.7896039000043	2020-11-13 10:36:48.408033	2.49719915918952	-0.440118096813426	-4.1835270029391	-0.479396799812904	-1.68632784374958	-4.1835270029391	-2.49719915918952	-0.440118096813426	-4.1835270029391	-1.68632784374958	-4.1835270029391	0.440118096813426	-10.294862248197097	-5.476630654711986	-9.238287779481439	-11.68489309060268	-3.9249851894229986	-9.238287779481439	-0.5459158647086975	-11.729067608550771	-1.4342053603536717	-11.754202166801104	-2.9607162673923284	3	missed	0.0
159.98827679999545	6.460299300000543	go_punish	0.3100625000079162	160.03190250000625	161.9412574000014	164.484620700008	1.9093548999951508	161.0490983000052	163.47613560000877	165.4816183000073	0.8921590999962064	1.008485099999234	1.010583499999484	n/a	1.0	n/a	2	0	25	4	go_punish	0	-1	0	1	1	1	1	n/a	n/a	-1	0.3100625000079162	1.0	1740.7878912000017	1900.819793700008	1901.836989500007	1902.729148600003	1904.2640268000105	1905.2725119000097	n/a	n/a	1906.269509500009	1907.2800930000085	2020-11-13 10:36:48.408033	2.71344034918055	-0.244201360433359	-4.1835270029391	-0.267973443111885	-1.47008665375856	-4.1835270029391	-2.71344034918055	-0.244201360433359	-4.1835270029391	-1.47008665375856	-4.1835270029391	-5.598077305261781	-10.078621058206068	-5.280713918331919	-9.238287779481439	-11.473469733901661	-3.7087439994319786	-9.238287779481439	-6.584111266783904	-11.51282641855975	-1.4342053603536717	-11.558285430421035	-2.9607162673923284	3	missed	0.0
166.47880029999942	6.783505599989212	nogo_reward	1.0	166.52242600001023	168.3725344999982	170.91026000000397	1.8501084999879822	167.51332189999835	169.8895363000047	171.92293090000726	0.8592125999998643	1.0207236999992801	1.3830006999921807	n/a	1.0	n/a	2	0	26	1	nogo_reward	1	0	1	0	0	1	0	n/a	n/a	1	1.0	1.0	1740.7878912000017	1907.310317200012	1908.3012131	1909.1604257	1910.6774275000064	1911.6981512000057	n/a	n/a	1912.710822100009	1914.0938228000011	2020-11-13 10:36:48.408033	24.6853514806546	0.0	25.4327304814526	25.4327304814526	0.747379000798049	25.4327304814526	-24.6853514806546	25.4327304814526	0.0	25.4327304814526	0.747379000798049	9.3115730639298	11.893290073267982	-5.03651255789856	20.377969704910264	14.227234190662825	-1.4912783448753697	20.377969704910264	8.325539102407676	15.389990716651411	3.4967006433834777	14.118646411464924	1.2228107355467719	3	missed	0.0
173.2931055999943	6.799407400001655	nogo_reward	1.0	173.3367313000051	175.26333919999865	177.7867783000106	1.9266078999935417	174.34419020000473	176.7774251000078	178.78321069999924	0.9191489999939222	1.0093532000028063	1.3529280000075232	n/a	1.0	n/a	2	0	27	1	nogo_reward	1	0	1	0	0	1	0	n/a	n/a	1	1.0	1.0	1740.7878912000017	1914.1246225000068	1915.1320814000064	1916.0512304000003	1917.5653163000095	1918.5746695000123	n/a	n/a	1919.571101900001	1920.9240299000085	2020-11-13 10:36:48.408033	28.6365337313783	0.0	29.7155828857384	29.7155828857384	1.0790491543601	29.7155828857384	-28.6365337313783	29.7155828857384	0.0	29.7155828857384	1.0790491543601	5.0287206596440015	15.844472323991683	-5.03651255789856	24.66082210919606	18.510086594948625	-1.1596081913133187	24.66082210919606	4.042686698121878	19.67284312093721	3.8283707969455287	18.40149881575072	1.2228107355467719	3	missed	0.0
180.1359089999894	7.338060399998085	go_reward	0.2960244999994756	180.1795347000002	182.62426870000468	185.16573580000795	2.4447340000044733	181.19782100000862	184.1437169999988	186.17189959999837	1.4264476999960607	1.022018800009164	1.3456954999999198	n/a	1.0	n/a	2	0	28	2	go_reward	1	1	0	1	1	1	0	n/a	n/a	1	0.2960244999994756	1.0	1740.7878912000017	1920.967425900002	1921.9857122000103	1923.4121599000064	1924.9316082000005	1925.9536270000096	n/a	n/a	1926.9597908	1928.3054863	2020-11-13 10:36:48.408033	30.7946320400985	29.7155828857384	0.0	29.7155828857384	30.7946320400985	0.0	-30.7946320400985	29.7155828857384	0.0	30.7946320400985	0.0	5.0287206596440015	18.00257063271188	24.67907032783984	-5.05476077654234	18.510086594948625	28.555974694425082	-5.05476077654234	4.042686698121878	20.75189227529731	2.7493216425854285	18.40149881575072	1.2228107355467719	3	missed	0.0
187.5186223999915	6.083301200008009	nogo_punish	1.0	187.5622481000023	188.9559296000075	191.47893760001102	1.3936815000051865	188.56959480000637	190.46670750000317	192.48763630000735	0.38633480000112286	1.012230100007855	1.1579130000029636	n/a	1.0	n/a	2	0	29	3	nogo_punish	1	-1	0	0	0	1	0	n/a	n/a	0	1.0	1.0	1740.7878912000017	1928.350139300004	1929.357486000008	1929.7438208000092	1931.2545987000049	1932.2668288000127	n/a	n/a	1933.275527500009	1934.433440500012	2020-11-13 10:36:48.408033	1.20097810088087	0.0	0.0	0.0	-1.20097810088087	0.0	-1.20097810088087	0.0	0.0	0.0	-1.20097810088087	0.0	-11.591083306505748	-5.03651255789856	-5.05476077654234	-11.205496290789776	-3.4396354465542887	-5.05476077654234	-0.9860339615221234	-10.04273976480119	1.5483435417045586	-11.314084069987677	1.2228107355467719	3	missed	0.0
193.62978709999902	7.0240270999929635	go_punish	0.2702813000069	193.67341280000983	196.2280133000022	198.7362834000087	2.5546004999923753	194.68271590000927	197.73067170000263	199.73444150001137	1.5452973999929327	1.0056117000060567	0.9629983999914202	n/a	1.0	n/a	2	0	30	4	go_punish	1	0	-1	1	1	1	0	n/a	n/a	0	0.2702813000069	1.0	1740.7878912000017	1934.4613040000115	1935.470607100011	1937.015904500004	1938.5185629000043	1939.5241746000104	n/a	n/a	1940.522332700013	1941.4853311000045	2020-11-13 10:36:48.408033	-0.205449582408975	-2.90975095883279	-4.1835270029391	-2.92433735456338	-4.38897658534808	-4.1835270029391	0.205449582408975	-2.90975095883279	-4.1835270029391	-4.38897658534808	-4.1835270029391	2.90975095883279	-12.997510989795591	-7.94626351673135	-9.238287779481439	-14.129833645353155	-6.6276339310214984	-9.238287779481439	1.9237169973106665	-14.43171635014927	-1.4342053603536717	-14.223835028820467	-2.9607162673923284	3	missed	0.0
200.70496499999717	5.858269000003929	go_reward	0.2672686000005342	200.74859070000798	202.20807290000062	204.73511420001137	1.4594821999926353	201.7496169000076	203.72602670000902	205.7513144000111	0.45845599999302067	1.0090875000023516	0.8555453000008129	n/a	1.0	n/a	2	0	31	2	go_reward	0	0	1	1	1	1	0	n/a	n/a	0	0.2672686000005342	1.0	1740.7878912000017	1941.5364819000097	1942.5375081000093	1942.9959641000023	1944.5139179000107	1945.523005400013	n/a	n/a	1946.5392056000128	1947.3947509000136	2020-11-13 10:36:48.408033	33.2140946221649	31.9623833801403	0.0	31.9623833801403	33.2140946221649	0.0	-33.2140946221649	31.9623833801403	0.0	33.2140946221649	0.0	-31.9623833801403	20.42203321477828	26.925870822241738	-5.05476077654234	20.75688708935052	30.975437276491483	-5.05476077654234	-32.94841734166242	23.17135485736371	2.7493216425854285	20.648299310152623	1.2228107355467719	3	missed	0.0
206.60677899999428	6.108070000002044	go_reward	0.2546672000025864	206.65040470000508	208.29764950000344	210.85323560000666	1.6472447999983615	207.6540978999983	209.83040780000715	211.85531910001032	0.6435516000051393	1.0228277999995044	0.9031555999968077	n/a	1.0	n/a	2	0	32	2	go_reward	1	1	0	1	1	1	0	n/a	n/a	1	0.2546672000025864	1.0	1740.7878912000017	1947.4382959000068	1948.4419891	1949.0855407000051	1950.6182990000088	1951.6411268000084	n/a	n/a	1952.643210300012	1953.5463659000088	2020-11-13 10:36:48.408033	16.1848119883362	16.1405163229201	0.0	16.1405163229201	16.1848119883362	0.0	-16.1848119883362	16.1405163229201	0.0	16.1848119883362	0.0	18.6037872224623	3.392750580949583	11.104003765021538	-5.05476077654234	4.935020032130323	13.946154642662782	-5.05476077654234	17.617753260940177	6.14207222353501	2.7493216425854285	4.826432252932422	1.2228107355467719	3	missed	0.0
212.74623739998788	5.962803200003691	nogo_reward	1.0	212.78986309999868	214.11250780000387	216.6437187999984	1.3226447000051849	213.7992907000007	215.62811440000928	217.65020810000715	0.3132171000031576	1.0156043999891153	1.102458199995226	n/a	1.0	n/a	2	0	33	1	nogo_reward	1	0	1	0	0	1	0	n/a	n/a	1	1.0	1.0	1740.7878912000017	1953.5777543000004	1954.5871819000024	1954.9003990000056	1956.416005600011	1957.43161	n/a	n/a	1958.4380993000088	1959.540557500004	2020-11-13 10:36:48.408033	30.7106721381157	0.0	31.9623833801403	31.9623833801403	1.25171124202457	31.9623833801403	-30.7106721381157	31.9623833801403	0.0	31.9623833801403	1.25171124202457	2.781920165242102	17.918610730729085	-5.03651255789856	26.907622603597957	20.75688708935052	-0.9869461036488487	26.907622603597957	1.7958862037199788	21.91964361533911	4.001032884609998	20.648299310152623	1.2228107355467719	3	missed	0.0
218.7547521999952	6.139373400000977	nogo_punish	1.0	218.79837790000602	220.64603149999994	223.18026000000782	1.8476535999939188	219.8033278000073	222.14967490000708	224.18446110001196	0.8427036999926258	1.030585100000735	0.7532901999950354	n/a	1.0	n/a	2	0	34	3	nogo_punish	1	-1	0	0	0	1	0	n/a	n/a	0	1.0	1.0	1740.7878912000017	1959.5862691000077	1960.591219000009	1961.4339227000016	1962.9375661000088	1963.9681512000095	n/a	n/a	1964.9723523000137	1965.7256425000087	2020-11-13 10:36:48.408033	1.20097810088087	0.0	0.0	0.0	-1.20097810088087	0.0	-1.20097810088087	0.0	0.0	0.0	-1.20097810088087	0.0	-11.591083306505748	-5.03651255789856	-5.05476077654234	-11.205496290789776	-3.4396354465542887	-5.05476077654234	-0.9860339615221234	-10.04273976480119	1.5483435417045586	-11.314084069987677	1.2228107355467719	3	missed	0.0
224.9242197999995	6.64618840000162	nogo_reward	1.0	224.9678455000103	226.81196720000275	229.33227530001022	1.8441216999924563	225.9675865000022	228.310810300012	230.34489600000938	0.8443807000005563	1.0214649999982157	1.2691379000025336	n/a	1.0	n/a	2	0	35	1	nogo_reward	0	1	0	0	0	1	1	n/a	n/a	0	1.0	1.0	1740.7878912000017	1965.755736700012	1966.755477700004	1967.5998584000045	1969.0987015000137	1970.120166500012	n/a	n/a	1971.132787200011	1972.4019251000136	2020-11-13 10:36:48.408033	31.8283287898345	0.0	33.17152199997	33.17152199997	1.34319321013551	33.17152199997	-31.8283287898345	33.17152199997	0.0	33.17152199997	1.34319321013551	-33.17152199997	19.036267382447882	-5.03651255789856	28.11676122342766	21.966025709180222	-0.8954641355379087	28.11676122342766	-34.15755596149212	23.128782235168806	4.092514852720939	21.857437929982318	1.2228107355467719	3	missed	0.0
231.61396279999462	7.6088828000065405	go_reward	0.2707826999976532	231.65758850000543	234.22145190001106	236.77782010000305	2.56386340000563	232.65786010000716	235.7521913000087	237.78443150001112	1.5635918000039055	1.0256287999943652	1.4820398000008481	n/a	1.0	n/a	2	0	36	2	go_reward	1	1	0	1	1	1	0	n/a	n/a	1	0.2707826999976532	1.0	1740.7878912000017	1972.4454797000071	1973.4457513000089	1975.0093431000128	1976.5400825000104	1977.5657113000048	n/a	n/a	1978.5723227000128	1980.0543625000137	2020-11-13 10:36:48.408033	26.1786060544284	25.4356144674396	0.0	25.4356144674396	26.1786060544284	0.0	-26.1786060544284	25.4356144674396	0.0	26.1786060544284	0.0	9.308689077942802	13.386544647041783	20.399101909541038	-5.05476077654234	14.230118176649823	23.939948708754983	-5.05476077654234	8.322655116420679	16.13586628962721	2.7493216425854285	14.121530397451922	1.2228107355467719	3	missed	0.0
239.2497360999987	6.444240299999137	go_punish	0.4017645999992965	239.2933618000095	240.95254040000123	243.48051210000995	1.6591785999917192	240.29384350001033	242.46000099999924	244.494213800004	0.6586968999909004	1.020511100010708	1.2433883000046535	n/a	1.0	n/a	2	0	37	4	go_punish	1	0	-1	1	1	1	0	n/a	n/a	0	0.4017645999992965	1.0	1740.7878912000017	1980.0812530000112	1981.081734700012	1981.740431600003	1983.247892200001	1984.2684033000116	n/a	n/a	1985.2821050000057	1986.5254933000103	2020-11-13 10:36:48.408033	1.3468270014936	-1.49198357643484	-4.1835270029391	-1.50104975708879	-2.8367000014455	-4.1835270029391	-1.3468270014936	-1.49198357643484	-4.1835270029391	-2.8367000014455	-4.1835270029391	1.49198357643484	-11.445234405893018	-6.5284961343334	-9.238287779481439	-12.706546047878566	-5.075357347118919	-9.238287779481439	0.5059496149127165	-12.87943976624669	-1.4342053603536717	-12.806067646422518	-2.9607162673923284	3	missed	0.0
245.7397360999894	7.140097499999683	go_reward	0.2876482000137912	245.7833618000002	248.60758020001185	251.15720430000465	2.8242184000116595	246.77399770000193	250.13703399999918	252.1618190000006	1.8335825000099248	1.020170300005475	0.7616402999992715	n/a	1.0	n/a	2	0	38	2	go_reward	1	1	0	1	1	1	1	n/a	n/a	1	0.2876482000137912	1.0	1740.7878912000017	1986.571253000002	1987.5618889000036	1989.3954714000135	1990.9249252000009	1991.9450955000063	n/a	n/a	1992.9497102000023	1993.7113505000016	2020-11-13 10:36:48.408033	31.0165404126605	29.9288459722457	0.0	29.9288459722457	31.0165404126605	0.0	-31.0165404126605	29.9288459722457	0.0	31.0165404126605	0.0	4.815457573136701	18.224479005273885	24.89233341434714	-5.05476077654234	18.72334968145592	28.77788306698708	-5.05476077654234	3.829423611614578	20.97380064785931	2.7493216425854285	18.614761902258024	1.2228107355467719	3	missed	0.0
252.90716609999072	6.687937900001543	go_punish	0.2842455999925732	252.95079180000153	255.16505290000327	257.6977342000023	2.2142611000017496	253.94575399999985	256.6844229999988	258.7071259000072	1.2192989000034231	1.0133112000034998	0.9316037999958553	n/a	1.0	n/a	2	0	39	4	go_punish	1	0	-1	1	1	1	1	n/a	n/a	0	0.2842455999925732	1.0	1740.7878912000017	1993.7386830000032	1994.7336452000015	1995.952944100005	1997.4723142000005	1998.485625400004	n/a	n/a	1999.495017100009	2000.4266209000048	2020-11-13 10:36:48.408033	2.11900260727123	-0.78770808489251	-4.1835270029391	-0.793411820491105	-2.06452439566787	-4.1835270029391	-2.11900260727123	-0.78770808489251	-4.1835270029391	-2.06452439566787	-4.1835270029391	0.78770808489251	-10.673058800115388	-5.8242206427910705	-9.238287779481439	-11.998908111280882	-4.303181741341289	-9.238287779481439	-0.19832587662961343	-12.107264160469061	-1.4342053603536717	-12.101792154880187	-2.9607162673923284	3	missed	0.0
259.6235063999918	6.814741800000775	go_punish	0.2784794000035617	259.6671321000026	262.11115979999863	264.6613907999995	2.4440276999960133	260.67524989999924	263.6427052000072	265.6796361000013	1.4359098999993876	1.0186855999922955	0.8022378000021035	n/a	1.0	n/a	2	0	40	4	go_punish	1	0	-1	1	1	1	0	n/a	n/a	0	0.2784794000035617	1.0	1740.7878912000017	2000.4550233000043	2001.463141100001	2002.8990510000003	2004.4305964000089	2005.4492820000012	n/a	n/a	2006.467527300003	2007.269765100005	2020-11-13 10:36:48.408033	2.51496407400604	-0.426783416484079	-4.1835270029391	-0.430412920030697	-1.66856292893306	-4.1835270029391	-2.51496407400604	-0.426783416484079	-4.1835270029391	-1.66856292893306	-4.1835270029391	0.426783416484079	-10.277097333380578	-5.463295974382639	-9.238287779481439	-11.635909210820474	-3.9072202746064786	-9.238287779481439	-0.5592505450380444	-11.71130269373425	-1.4342053603536717	-11.740867486471757	-2.9607162673923284	3	missed	0.0
266.469474999991	7.294667000008985	nogo_reward	1.0	266.5131007000018	268.8343448000087	271.3573770000073	2.3212441000068793	267.5061611999988	270.3489005000008	272.36279170001194	1.3281836000098792	1.008476500006509	1.44497599999886	n/a	1.0	n/a	2	0	41	1	nogo_reward	0	1	0	0	0	1	0	n/a	n/a	0	1.0	1.0	1740.7878912000017	2007.3009919000035	2008.2940524000005	2009.6222360000104	2011.1367917000025	2012.145268200009	n/a	n/a	2013.1506829000136	2014.5956589000125	2020-11-13 10:36:48.408033	16.7127799955637	0.0	16.8063335947925	16.8063335947925	0.0935535992287624	16.8063335947925	-16.7127799955637	16.8063335947925	0.0	16.8063335947925	0.0935535992287624	-16.8063335947925	3.920718588177083	-5.03651255789856	11.751572818250159	5.600837304002722	-2.145103746444656	11.751572818250159	-17.792367556314623	6.763593829991308	2.842875241814191	5.492249524804821	1.2228107355467719	3	missed	0.0
273.8104741999996	7.677134899989824	nogo_punish	1.0	273.8540999000104	276.6120251000102	279.12653710000427	2.757925199999818	274.8592849999984	278.1046581999983	280.1270637000123	1.7527401000118061	1.0218789000059587	1.4041710999879342	n/a	1.0	n/a	2	0	42	3	nogo_punish	1	-1	0	0	0	1	0	n/a	n/a	0	1.0	1.0	1740.7878912000017	2014.641991100012	2015.6471762	2017.399916300012	2018.8925494	2019.914428300006	n/a	n/a	2020.914954900014	2022.319126000002	2020-11-13 10:36:48.408033	1.20097810088087	0.0	0.0	0.0	-1.20097810088087	0.0	-1.20097810088087	0.0	0.0	0.0	-1.20097810088087	0.0	-11.591083306505748	-5.03651255789856	-5.05476077654234	-11.205496290789776	-3.4396354465542887	-5.05476077654234	-0.9860339615221234	-10.04273976480119	1.5483435417045586	-11.314084069987677	1.2228107355467719	3	missed	0.0
281.5185838999896	6.288181600000826	nogo_reward	1.0	281.5622096000004	283.092372800005	285.6135394000007	1.5301632000046084	282.5539888000055	284.60372350001103	286.62572760001035	0.5383839999994962	1.0098158999896896	1.2246635999908904	n/a	1.0	n/a	2	0	43	1	nogo_reward	0	1	0	0	0	1	1	n/a	n/a	0	1.0	1.0	1740.7878912000017	2022.350100800002	2023.3418800000072	2023.8802640000067	2025.3916147000127	2026.4014306000024	n/a	n/a	2027.413618800012	2028.638282400003	2020-11-13 10:36:48.408033	9.30796040278099	0.0	8.77896789507886	8.77896789507886	-0.528992507702128	8.77896789507886	-9.30796040278099	8.77896789507886	0.0	8.77896789507886	-0.528992507702128	-8.77896789507886	-3.484101004605627	-5.03651255789856	3.724207118536521	-2.426528395710916	-2.7676498533755467	3.724207118536521	-9.765001856600984	-1.26377186972233	2.2203291348833005	-2.5351161749088167	1.2228107355467719	3	missed	0.0
287.853077199994	6.950513599993428	nogo_punish	1.0	287.8967029000048	289.85284770000703	292.36839630000736	1.956144800002221	288.9023969000116	291.3533371000083	293.3798329999986	0.9504507999954512	1.0150591999990866	1.4673834999996416	n/a	1.0	n/a	2	0	44	3	nogo_punish	1	-1	0	0	0	1	1	n/a	n/a	0	1.0	1.0	1740.7878912000017	2028.6845941000065	2029.6902881000133	2030.6407389000087	2032.14122830001	2033.156287500009	n/a	n/a	2034.1677242000003	2035.6351077	2020-11-13 10:36:48.408033	1.20097810088087	0.0	0.0	0.0	-1.20097810088087	0.0	-1.20097810088087	0.0	0.0	0.0	-1.20097810088087	0.0	-11.591083306505748	-5.03651255789856	-5.05476077654234	-11.205496290789776	-3.4396354465542887	-5.05476077654234	-0.9860339615221234	-10.04273976480119	1.5483435417045586	-11.314084069987677	1.2228107355467719	3	missed	0.0
294.84801229998993	7.342294800007949	go_reward	0.3498423999990336	294.89163800000074	297.6545970000002	300.1868506000028	2.762958999999455	295.8896531000064	299.1780355000078	301.1873400000036	1.7649438999937956	1.0088150999949903	1.0465928000051008	n/a	1.0	n/a	2	0	45	2	go_reward	1	1	0	1	1	1	0	n/a	n/a	1	0.3498423999990336	1.0	1740.7878912000017	2035.6795292000024	2036.677544300008	2038.442488200002	2039.9659267000095	2040.9747418000045	n/a	n/a	2041.9752312000053	2043.0218240000104	2020-11-13 10:36:48.408033	33.4410412069279	32.1794402699338	0.0	32.1794402699338	33.4410412069279	0.0	-33.4410412069279	32.1794402699338	0.0	33.4410412069279	0.0	2.5648632754486016	20.64897979954128	27.142927712035238	-5.05476077654234	20.973943979144025	31.202383861254482	-5.05476077654234	1.5788293139264782	23.39830144212671	2.7493216425854285	20.86535619994612	1.2228107355467719	3	missed	0.0
302.23559589999786	7.068033399991691	nogo_punish	1.0	302.27922160000867	304.44816040000273	306.9808432999996	2.1689387999940664	303.2901529000078	305.961696099999	307.9961102000086	1.1580074999949375	1.0191472000005888	1.3511447999917436	n/a	1.0	n/a	2	0	46	3	nogo_punish	1	-1	0	0	0	1	1	n/a	n/a	0	1.0	1.0	1740.7878912000017	2043.0671128000104	2044.0780441000095	2045.2360516000044	2046.7495873000007	2047.7687345000013	n/a	n/a	2048.7840014000103	2050.135146200002	2020-11-13 10:36:48.408033	1.20097810088087	0.0	0.0	0.0	-1.20097810088087	0.0	-1.20097810088087	0.0	0.0	0.0	-1.20097810088087	0.0	-11.591083306505748	-5.03651255789856	-5.05476077654234	-11.205496290789776	-3.4396354465542887	-5.05476077654234	-0.9860339615221234	-10.04273976480119	1.5483435417045586	-11.314084069987677	1.2228107355467719	3	missed	0.0
309.34826559999783	6.6241975000011735	nogo_punish	1.0	309.39189130000864	311.45145360000583	313.9752118000031	2.0595622999971965	310.4065759000075	312.95661090000044	314.9886100000001	1.0448776999983238	1.0186009000026388	1.0274788000097033	n/a	1.0	n/a	2	0	47	3	nogo_punish	1	-1	0	0	0	1	0	n/a	n/a	0	1.0	1.0	1740.7878912000017	2050.1797825000103	2051.194467100009	2052.2393448000075	2053.744502100002	2054.763103000005	n/a	n/a	2055.776501200002	2056.8039800000115	2020-11-13 10:36:48.408033	1.20097810088087	0.0	0.0	0.0	-1.20097810088087	0.0	-1.20097810088087	0.0	0.0	0.0	-1.20097810088087	0.0	-11.591083306505748	-5.03651255789856	-5.05476077654234	-11.205496290789776	-3.4396354465542887	-5.05476077654234	-0.9860339615221234	-10.04273976480119	1.5483435417045586	-11.314084069987677	1.2228107355467719	3	missed	0.0
316.017311699994	5.975266699999338	go_reward	0.405578299993067	316.06093740000483	317.43674040000747	319.9995429999983	1.3758030000026338	317.0742224999992	318.97328390000644	321.0089240000086	0.3625179000082426	1.0262590999918757	1.0272800999955507	n/a	1.0	n/a	2	0	48	2	go_reward	1	1	0	1	1	1	0	n/a	n/a	1	0.405578299993067	1.0	1740.7878912000017	2056.8488286000065	2057.862113700001	2058.224631600009	2059.761175100008	2060.7874342	n/a	n/a	2061.7968152000103	2062.824095300006	2020-11-13 10:36:48.408033	34.6933612237769	33.3422380264631	0.0	33.3422380264631	34.6933612237769	0.0	-34.6933612237769	33.3422380264631	0.0	34.6933612237769	0.0	1.4020655189193008	21.901299816390278	28.30572546856454	-5.05476077654234	22.136741735673326	32.45470387810348	-5.05476077654234	0.41603155739717734	24.650621458975706	2.7493216425854285	22.02815395647542	1.2228107355467719	3	missed	0.0
322.02658710000105	5.964568099996541	go_punish	0.4797065000020666	322.07021280001186	323.57861290000415	326.11157040001103	1.5084000999922864	323.0804163999999	325.1017122000046	327.1222470000064	0.4981965000042692	1.0098582000064198	0.9125339000020176	n/a	1.0	n/a	2	0	49	4	go_punish	1	0	-1	1	1	1	0	n/a	n/a	0	0.4797065000020666	1.0	1740.7878912000017	2062.8581040000136	2063.8683076000016	2064.366504100006	2065.8896034000063	2066.8994616000127	n/a	n/a	2067.910138200008	2068.82267210001	2020-11-13 10:36:48.408033	2.72354553425	-0.236655763523403	-4.1835270029391	-0.238990338268657	-1.4599814686891	-4.1835270029391	-2.72354553425	-0.236655763523403	-4.1835270029391	-1.4599814686891	-4.1835270029391	0.236655763523403	-10.068515873136617	-5.273168321421963	-9.238287779481439	-11.444486629058433	-3.6986388143625186	-9.238287779481439	-0.7493781979987204	-11.502721233490291	-1.4342053603536717	-11.55073983351108	-2.9607162673923284	3	missed	0.0
328.0236268000008	7.068000499988557	go_punish	0.4163765000121202	328.0672525000116	330.08587819999934	332.6231234000004	2.0186256999877514	329.08679720001214	331.6147042000082	333.63721610000334	0.9990809999871999	1.008419199992204	1.498036899996805	n/a	1.0	n/a	2	0	50	4	go_punish	1	0	-1	1	1	1	0	n/a	n/a	0	0.4163765000121202	1.0	1740.7878912000017	2068.8551437000133	2069.874688400014	2070.873769400001	2072.40259540001	2073.411014600002	n/a	n/a	2074.425107300005	2075.923144200002	2020-11-13 10:36:48.408033	2.83609952876705	-0.134008266947953	-4.1835270029391	-0.135525255709972	-1.34742747417205	-4.1835270029391	-2.83609952876705	-0.134008266947953	-4.1835270029391	-1.34742747417205	-4.1835270029391	0.134008266947953	-9.955961878619567	-5.1705208248465135	-9.238287779481439	-11.341021546499748	-3.5860848198454685	-9.238287779481439	-0.8520256945741704	-11.390167238973241	-1.4342053603536717	-11.44809233693563	-2.9607162673923284	3	missed	0.0
335.1214952000005	6.771476199996414	nogo_reward	1.0	335.1651209000113	336.93945640001016	339.46334510001157	1.7743354999988696	336.1563547000112	338.4515547000044	340.4708887000013	0.7831016999989515	1.0117904000071576	1.465708400006406	n/a	1.0	n/a	2	0	51	1	nogo_reward	1	0	1	0	0	1	0	n/a	n/a	1	1.0	1.0	1740.7878912000017	2075.953012100013	2076.944245900013	2077.727347600012	2079.239445900006	2080.2512363000133	n/a	n/a	2081.258779900003	2082.7244883000094	2020-11-13 10:36:48.408033	5.55642210917971	0.0	4.71065787859735	4.71065787859735	-0.845764230582363	4.71065787859735	-5.55642210917971	4.71065787859735	0.0	4.71065787859735	-0.845764230582363	30.033645666785052	-7.235639298206907	-5.03651255789856	-0.3441028979449898	-6.4948384121924265	-3.0844215762557816	-0.3441028979449898	29.047611705262927	-5.332081886203841	1.9035574120030656	-6.603426191390327	1.2228107355467719	3	missed	0.0
341.924460899987	7.431447200011462	nogo_reward	1.0	341.96808659999783	344.57865260000085	347.1041027000026	2.6105660000030184	342.9704616000088	346.08019310000213	348.11292320000916	1.6081909999920754	1.0239096000004793	1.286610600000131	n/a	1.0	n/a	2	0	52	1	nogo_reward	1	0	1	0	0	1	0	n/a	n/a	1	1.0	1.0	1740.7878912000017	2082.7559777999995	2083.7583528000105	2085.3665438000025	2086.868084300004	2087.8919939000043	n/a	n/a	2088.900814400011	2090.187425000011	2020-11-13 10:36:48.408033	19.3311855759636	0.0	19.6199989432024	19.6199989432024	0.288813367238783	19.6199989432024	-19.3311855759636	19.6199989432024	0.0	19.6199989432024	0.288813367238783	15.12430460218	6.5391241685769845	-5.03651255789856	14.56523816666006	8.414502652412624	-1.9498439784346357	14.56523816666006	14.138270640657877	9.57725917840121	3.0381350098242117	8.305914873214723	1.2228107355467719	3	missed	0.0
349.38444419999723	6.383777399998053	go_punish	1.0	349.42806990000804	350.9718683000103	353.49822750000726	1.543798400002288	350.42855219999933	352.48308160000283	354.50143200000434	0.5433161000109976	1.015145900004427	1.3104153000017504	n/a	1.0	n/a	2	0	53	4	go_punish	1	0	-1	1	0	0	0	n/a	n/a	-1	1.0	1.0	1740.7878912000017	2090.2159611000097	2091.216443400001	2091.759759500012	2093.2709728000045	2094.286118700009	n/a	n/a	2095.289323200006	2096.599738500008	2020-11-13 10:36:48.408033	-2.89817209100046	-0.0773481531778946	-4.1835270029391	-0.0783433988247872	-1.28535491193864	-4.1835270029391	2.89817209100046	-4.1835270029391	-0.0773481531778946	-4.1835270029391	-1.28535491193864	-1.65875166275604	-15.690233498387077	-5.113860711076455	-9.238287779481439	-11.283839689614563	-3.5240122576120587	-9.238287779481439	-2.644785624278163	-14.226266767740292	1.4639667306467885	-15.497611072926777	1.1454625823688773	3	missed	0.0
355.79888029998983	6.166575100010959	go_punish	0.3150374000106239	355.84250600000064	357.2102205000117	359.7497124000072	1.3677145000110613	356.84693360001233	358.7420236000032	360.7626543000076	0.36328689999936614	1.0076888000039617	1.2464268000039738	n/a	1.0	n/a	2	0	54	4	go_punish	1	0	-1	1	1	1	0	n/a	n/a	0	0.3150374000106239	1.0	1740.7878912000017	2096.6303972000023	2097.634824800014	2097.9981117000134	2099.529914800005	2100.537603600009	n/a	n/a	2101.5505455000093	2102.7969723000133	2020-11-13 10:36:48.408033	3.37765507072809	-0.0773481531778946	-4.92431593654644	-2.81750559951694	-1.54666086581835	-4.92431593654644	-3.37765507072809	-0.0773481531778946	-4.92431593654644	-1.54666086581835	-4.92431593654644	0.0773481531778946	-9.414406336658526	-5.113860711076455	-9.97907671308878	-14.023001890306716	-3.7853182114917687	-9.97907671308878	-0.9086858083442289	-11.58940063061954	-2.174994293961012	-11.391432223165571	-3.7015052009996685	3	missed	0.0
361.9963465999899	7.282881500010262	nogo_reward	1.0	362.0399723000007	364.73415770000406	367.2717000000114	2.6941854000033345	363.0354882000104	366.2473352000086	368.281902100003	1.6986694999936844	1.024364800002786	1.0409517000080086	n/a	1.0	n/a	2	0	55	1	nogo_reward	1	0	1	0	0	1	0	n/a	n/a	1	1.0	1.0	1740.7878912000017	2102.8278635000024	2103.823379400012	2105.5220489000058	2107.0352264000103	2108.059591200013	n/a	n/a	2109.0697933000047	2110.1107450000127	2020-11-13 10:36:48.408033	26.0352665213643	0.0	26.8867739506604	26.8867739506604	0.851507429296117	26.8867739506604	-26.0352665213643	26.8867739506604	0.0	26.8867739506604	0.851507429296117	7.857529594721999	13.243205113977682	-5.03651255789856	21.83201317411806	15.681277659870625	-1.3871499163773016	21.83201317411806	6.871495633199876	16.84403418585921	3.6008290718815457	15.572689880672725	1.2228107355467719	3	missed	0.0
369.3271895999933	5.825652100000298	go_reward	0.3010990000038873	369.3708153000041	370.8651962000001	373.4159278000004	1.494380899996031	370.37484070000914	372.3996751000084	374.42465380000044	0.49035549999098293	1.0162526999920374	0.7718136000039522	n/a	1.0	n/a	2	0	56	2	go_reward	1	1	0	1	1	1	0	n/a	n/a	1	0.3010990000038873	1.0	1740.7878912000017	2110.158706500006	2111.162731900011	2111.653087400002	2113.18756630001	2114.203819000002	n/a	n/a	2115.212545000002	2115.984358600006	2020-11-13 10:36:48.408033	35.3578119021264	33.9597481973055	0.0	33.9597481973055	35.3578119021264	0.0	-35.3578119021264	33.9597481973055	0.0	35.3578119021264	0.0	0.7845553480768999	22.56575049473978	28.92323563940694	-5.05476077654234	22.754251906515726	33.11915455645298	-5.05476077654234	-0.20147861344522355	25.31507213732521	2.7493216425854285	22.645664127317822	1.2228107355467719	3	missed	0.0
375.1828284999938	6.211559000003035	go_punish	0.248571299991454	375.2264542000046	376.9217042000089	379.4612906000109	1.6952500000043074	376.24677950001137	378.4406926000081	380.47462690000225	0.6749246999975185	1.020598000002792	0.963386300005368	n/a	1.0	n/a	2	0	57	4	go_punish	1	0	-1	1	1	1	0	n/a	n/a	0	0.248571299991454	1.0	1740.7878912000017	2116.0143454000063	2117.034670700013	2117.7095954000106	2119.22858380001	2120.2491818000126	n/a	n/a	2121.262518100004	2122.2259044000093	2020-11-13 10:36:48.408033	3.53974469633941	-0.0454355173088455	-4.92431593654644	-1.43968201619225	-1.38457124020703	-4.92431593654644	-3.53974469633941	-0.0454355173088455	-4.92431593654644	-1.38457124020703	-4.92431593654644	0.0454355173088455	-9.252316711047207	-5.081948075207406	-9.97907671308878	-12.645178306982027	-3.6232285858804487	-9.97907671308878	-0.9405984442132779	-11.427311005008221	-2.174994293961012	-11.359519587296523	-3.7015052009996685	3	missed	0.0
381.4390108999942	7.349755500006722	nogo_punish	1.0	381.482636600005	383.850394000008	386.37331300000346	2.367757400003029	382.4902518000015	385.36548610001023	387.3796495999993	1.3601422000065213	1.0078268999932334	1.4527425000123912	n/a	1.0	n/a	2	0	58	3	nogo_punish	1	-1	0	0	0	1	0	n/a	n/a	0	1.0	1.0	1740.7878912000017	2122.2705278000067	2123.278143000003	2124.6382852000097	2126.153377300012	2127.161204200005	n/a	n/a	2128.167540800001	2129.6202833000134	2020-11-13 10:36:48.408033	1.20097810088087	0.0	0.0	0.0	-1.20097810088087	0.0	-1.20097810088087	0.0	0.0	0.0	-1.20097810088087	0.0	-11.591083306505748	-5.03651255789856	-5.05476077654234	-11.205496290789776	-3.4396354465542887	-5.05476077654234	-0.9860339615221234	-10.04273976480119	1.5483435417045586	-11.314084069987677	1.2228107355467719	3	missed	0.0
388.83463949999714	6.317506899998989	go_reward	0.255041299998993	388.87826520000795	390.4191939000009	392.9705295000024	1.5409286999929463	389.8704085000061	391.94853500000295	393.9820305000028	0.5487853999948129	1.0219944999994368	1.2137416000041412	n/a	1.0	n/a	2	0	59	2	go_reward	0	0	1	1	1	1	0	n/a	n/a	0	0.255041299998993	1.0	1740.7878912000017	2129.6661564000096	2130.658299700008	2131.2070851000026	2132.7364262000046	2133.758420700004	n/a	n/a	2134.7699217000045	2135.9836633000086	2020-11-13 10:36:48.408033	35.7189599713351	34.2958644122611	0.0	34.2958644122611	35.7189599713351	0.0	-35.7189599713351	34.2958644122611	0.0	35.7189599713351	0.0	-34.2958644122611	22.926898563948484	29.259351854362542	-5.05476077654234	23.09036812147133	33.480302625661686	-5.05476077654234	-35.28189837378323	25.676220206533912	2.7493216425854285	22.981780342273424	1.2228107355467719	3	missed	0.0
395.1985970999958	6.354454899992561	nogo_punish	1.0	395.24222280000663	397.1062862000106	399.63178150000726	1.8640634000039427	396.248840400003	398.62134370001127	400.63950610000734	0.8574458000075538	1.010437799995998	0.9571715999918524	n/a	1.0	n/a	2	0	60	3	nogo_punish	0	0	-1	0	0	1	1	n/a	n/a	-1	1.0	1.0	1740.7878912000017	2136.0301140000083	2137.0367316000047	2137.8941774000123	2139.409234900013	2140.419672700009	n/a	n/a	2141.427397300009	2142.384568900001	2020-11-13 10:36:48.408033	1.20097810088087	0.0	0.0	0.0	-1.20097810088087	0.0	-1.20097810088087	0.0	0.0	0.0	-1.20097810088087	-5.84227866569514	-11.591083306505748	-5.03651255789856	-5.05476077654234	-11.205496290789776	-3.4396354465542887	-5.05476077654234	-6.828312627217263	-10.04273976480119	1.5483435417045586	-11.314084069987677	1.2228107355467719	3	missed	0.0
