onset	duration	trial_type	response_time	cueOnset	targetOnset	fbOnset	cueRT	firstfixOnset	secondfixOnset	waitOnset	firstfixdur	secondfixdur	waitdur	nback_fbOnset	nback_response_time	nback_targetOnset	block	wm	trial	cue	cond	is_common	outcome_go	outcome_nogo	key_correct	key_pressed	is_correct	key_correct_nback	key_pressed_nback	is_correct_nback	outcome	rt	rt_nback	time_scan	time_onset	time_isi1	time_circle	time_isi2	time_feedback	time_same	time_correct	time_iti	time_done	timestamp_scan	DV	Qgo	Qnogo	SV	Wgo	Wnogo	mDV	Qchosen	Qunchosen	Wchosen	Wunchosen	PE	DVC	QgoC	QnogoC	SVC	WgoC	WnogoC	PEC	WchosenC	WunchosenC	QchosenC	QunchosenC	run	outcome_nback	nback_targetResp
0.0	8.589317999998457	go_punish	0.2948247000022093	0.023302000001649503	1.6115217000044595	4.150742700003548	1.58821970000281	1.0395212000005358	3.1399992000081056	7.211016800007428	0.5720005000039237	1.010743499995442	1.4016031999926781	6.1968287000056534	0.4792159999924479	5.166217000005645	1	1	61	4	go_punish	1	0	-1	1	1	1	0	0.0	1.0	0	0.2948247000022093	0.4792159999924479	1058.8541274000015	1058.8774294000032	1059.893648600002	1060.465649100006	1061.9941266000096	1063.004870100005	1064.0203444000072	1065.0509561000072	1066.065144200009	1067.4667474000016	2020-11-13 10:25:26.469181	2.03361719774436	-0.504583869477203	-3.52993985973803	-0.577626639700268	-1.49632266199367	-3.52993985973803	-2.03361719774436	-0.504583869477203	-3.52993985973803	-1.49632266199367	-3.52993985973803	0.504583869477203	-10.758444209642256	-5.541096427375764	-8.58470063628037	-11.783122930490045	-3.7349800076670885	-8.58470063628037	-0.4814500920449204	-11.53906242679486	-0.7806182171526013	-11.81866793946488	-2.307129124191258	2	correct	1.0
8.628728600000613	9.142528299998958	go_reward	0.2521299999934854	8.652030600002263	10.712402500008693	13.253837700002123	2.0603719000064302	9.666287100000773	12.241411800001742	16.311082000000397	1.0461154000079205	1.0124259000003804	1.4834769000008237	15.303098100004945	0.485257599997567	14.26634420000505	1	1	62	2	go_reward	1	1	0	1	1	1	1	0.0	0.0	1	0.2521299999934854	0.485257599997567	1058.8541274000015	1067.5061580000038	1068.5204145000023	1069.5665299000102	1071.0955392000033	1072.1079651000036	1073.1204716000066	1074.1572255000065	1075.165209400002	1076.6486863000027	2020-11-13 10:25:26.469181	21.5669040688077	34.6432416601649	0.0	34.5928800286674	21.5669040688077	0.0	-21.5669040688077	34.6432416601649	0.0	21.5669040688077	0.0	0.10106188521750425	8.774842661421081	29.606729102266335	-5.05476077654234	23.387383737877627	19.328246723134278	-5.05476077654234	-0.8849720763046192	11.524164304006508	2.7493216425854285	23.329157590177218	1.2228107355467719	2	wrong	1.0
17.809916500002146	8.370391000003792	go_reward	0.4230612999963341	17.833218500003795	19.68734220000647	22.223675200002845	1.854123700002674	18.845860700006824	21.203215900008445	25.262385499998572	0.8414814999996452	1.0204592999943998	0.9412240000090151	24.260350500000868	0.3363530999922659	23.234017100010988	1	1	63	2	go_reward	0	0	1	1	1	1	0	0.0	1.0	0	0.4230612999963341	0.3363530999922659	1058.8541274000015	1076.6873459000053	1077.6999881000083	1078.541469600008	1080.05734330001	1081.0778026000044	1082.0881445000125	1083.1144779000024	1084.1165129	1085.057736900009	2020-11-13 10:25:26.469181	21.5765614334332	34.6716445308499	0.0	34.6388319079723	21.5765614334332	0.0	-21.5765614334332	34.6716445308499	0.0	21.5765614334332	0.0	-34.6716445308499	8.784500026046581	29.635131972951342	-5.05476077654234	23.43333561718253	19.33790408775978	-5.05476077654234	-35.65767849237203	11.533821668632008	2.7493216425854285	23.357560460862224	1.2228107355467719	2	correct	1.0
26.226076300008344	8.752709499997081	nogo_punish	1.0	26.249378300009994	28.176635600000964	30.69525560000352	1.9272572999909698	27.253663800002187	29.691467500000954	33.72676109999907	0.922971799998777	1.0037881000025664	1.2753267000080086	32.7199428000024	0.3708778000000166	31.698750700001483	1	1	64	3	nogo_punish	1	-1	0	0	0	1	0	0.0	1.0	0	1.0	0.3708778000000166	1058.8541274000015	1085.1035057000115	1086.1077912000037	1087.0307630000025	1088.5455949000025	1089.549383000005	1090.552878100003	1091.574070200004	1092.5808885000006	1093.8562152000086	2020-11-13 10:25:26.469181	5.17338685958932	-4.42073086635219	-0.325028935314057	-0.344199744093388	-5.49841579490338	-0.325028935314057	-5.17338685958932	-0.325028935314057	-4.42073086635219	-0.325028935314057	-5.49841579490338	0.325028935314057	-7.618674547797297	-9.45724342425075	-5.379789711856397	-11.549696034883164	-7.737073140576799	-5.379789711856397	-0.6610050262080664	-10.367768700115247	-2.7490941523179515	-11.639113005301734	-3.197920130805418	2	correct	1.0
35.01748770000995	8.706249799986836	nogo_reward	1.0	35.0407897000116	36.73329160000162	39.24732640000025	1.6925018999900203	36.0473127000007	38.24039610000932	42.285528699998395	0.6859789000009187	1.0069302999909269	1.4615108000000419	41.278860100006796	0.3555901999934576	40.25885480000602	1	1	65	1	nogo_reward	0	1	0	0	0	1	0	0.0	1.0	0	1.0	0.3555901999934576	1058.8541274000015	1093.8949171000131	1094.9014401000022	1095.5874190000031	1097.0945235000108	1098.1014538000018	1099.1129822000075	1100.1329875000083	1101.1396561	1102.6011669	2020-11-13 10:25:26.469181	46.5006370636611	0.0	33.7447490023749	33.7447490023749	-12.7558880612862	33.7447490023749	-46.5006370636611	33.7447490023749	0.0	33.7447490023749	-12.7558880612862	-33.7447490023749	33.70857565627448	-5.03651255789856	28.689988225832565	22.539252711585128	-14.994545406959618	28.689988225832565	-34.73078296389703	23.702009237573712	-10.006566418700771	22.430664932387224	1.2228107355467719	2	correct	1.0
43.76624110000557	8.60823879999225	nogo_punish	1.0	43.78954310000722	45.34574770000495	47.87252230000763	1.5562045999977272	44.804069100006245	46.85308290000853	50.9167138000048	0.5416785999987042	1.0194393999991007	1.4810680999946726	49.90424860001099	0.3602157999994233	48.870078699997975	1	1	66	3	nogo_punish	1	-1	0	0	0	1	1	1.0	1.0	0	1.0	0.3602157999994233	1058.8541274000015	1102.6436705000087	1103.6581965000078	1104.1998751000065	1105.70721030001	1106.7266497000091	1107.7242060999995	1108.7583760000125	1109.7708412000063	1111.251909300001	2020-11-13 10:25:26.469181	5.37143817525113	-4.42073086635219	-0.179554934163146	-0.192783584153561	-5.55099310941428	-0.179554934163146	-5.37143817525113	-0.179554934163146	-4.42073086635219	-0.179554934163146	-5.55099310941428	0.179554934163146	-7.420623232135487	-9.45724342425075	-5.234315710705486	-11.398279874943338	-7.789650455087699	-5.234315710705486	-0.8064790273589775	-10.222294698964337	-2.801671466828852	-11.493639004150824	-3.197920130805418	2	correct	1.0
52.413433599998825	7.980089800010319	go_reward	0.3823421999986749	52.436735600000475	53.98602209999831	56.54348050001158	1.5492864999978337	53.44157300000393	55.526384400000325	59.56906910000566	0.544449099994381	1.0170961000112584	0.8477563000051305	58.568986900005484	0.6092728000076022	57.54317710000055	1	1	67	2	go_reward	1	1	0	1	1	1	0	0.0	1.0	1	0.3823421999986749	0.6092728000076022	1058.8541274000015	1111.290863000002	1112.2957004000054	1112.8401494999998	1114.3805118000018	1115.397607900013	1116.397304500002	1117.423114300007	1118.4231965000072	1119.2709528000123	2020-11-13 10:25:26.469181	8.52454368836187	15.1853611786684	0.0	15.1635340972245	8.52454368836187	0.0	-8.52454368836187	15.1853611786684	0.0	8.52454368836187	0.0	19.558942366714	-4.267517719024747	10.14884862076984	-5.05476077654234	3.9580378064347244	6.2858863426884515	-5.05476077654234	18.572908405191875	-1.5181960764393203	2.7493216425854285	3.8712771086807223	1.2228107355467719	2	correct	1.0
60.42971060000127	9.367452300008154	nogo_reward	1.0	60.45301260000292	63.19382700001029	65.72703550000756	2.740814400007366	61.46111730000143	64.7091759000034	68.78793570000585	1.7327097000088543	1.017859600004158	1.0325292000052286	67.7717600000035	0.3608942999999271	66.73636950000969	1	1	68	1	nogo_reward	1	0	1	0	0	1	0	0.0	1.0	1	1.0	0.3608942999999271	1058.8541274000015	1119.3071400000044	1120.315244700003	1122.0479544000118	1123.563303300005	1124.581162900009	1125.5904969000112	1126.625887400005	1127.6420631000074	1128.6745923000126	2020-11-13 10:25:26.469181	21.1275244074992	0.0	14.6607359510489	14.6607359510489	-6.46678845645031	14.6607359510489	-21.1275244074992	14.6607359510489	0.0	14.6607359510489	-6.46678845645031	20.083567594333502	8.335463000112584	-5.03651255789856	9.605975174506561	3.4552396602591244	-8.705445802123728	9.605975174506561	19.097533632811377	4.61799618624771	-3.717466813864881	3.3466518810612236	1.2228107355467719	2	correct	1.0
69.83583560000989	8.445992699998897	nogo_reward	1.0	69.85913760001154	71.77066390001005	74.29017480000039	1.9115262999985134	70.87022070000239	73.27741100000299	77.3258700000008	0.9004432000076577	1.0127637999974013	0.9792603000096278	76.3201526000048	0.348570699992706	75.29480570000328	1	1	69	1	nogo_reward	0	1	0	0	0	1	0	0.0	1.0	0	1.0	0.348570699992706	1058.8541274000015	1128.713265000013	1129.724348100004	1130.6247913000116	1132.1315384000045	1133.144302200002	1134.1489331000048	1135.1742800000063	1136.1799974000023	1137.159257700012	2020-11-13 10:25:26.469181	36.9780635531888	0.0	26.6679271653108	26.6679271653108	-10.310136387878	26.6679271653108	-36.9780635531888	26.6679271653108	0.0	26.6679271653108	-10.310136387878	-26.6679271653108	24.186002145802178	-5.03651255789856	21.613166388768462	15.462430874521024	-12.548793733551419	21.613166388768462	-27.653961126832925	16.62518740050961	-7.560814745292571	15.353843095323123	1.2228107355467719	2	correct	1.0
78.32044180000958	8.567592399995192	go_reward	0.3278087000071537	78.34374380001123	79.92270140000642	82.4628598999991	1.5789575999951921	79.35920980000833	81.44393560000776	85.5223934000096	0.5634915999980876	1.0189242999913404	1.388942799996812	84.50496080001199	0.3573018000024603	83.4800633999987	1	1	70	2	go_reward	1	1	0	1	1	1	0	0.0	1.0	1	0.3278087000071537	0.3573018000024603	1058.8541274000015	1137.1978712000127	1138.2133372000098	1138.776828800008	1140.2980630000093	1141.3169873000006	1142.3341908000002	1143.3590882000135	1144.3765208000111	1145.765463600008	2020-11-13 10:25:26.469181	16.5528347044192	26.9788810402438	0.0	26.9640950125121	16.5528347044192	0.0	-16.5528347044192	26.9788810402438	0.0	16.5528347044192	0.0	7.765422505138602	3.760773297032584	21.942368482345238	-5.05476077654234	15.758598721722324	14.314177358745782	-5.05476077654234	6.779388543616479	6.510094939618011	2.7493216425854285	15.664796970256122	1.2228107355467719	2	correct	1.0
86.92965600000753	7.8503014000016265	nogo_punish	1.0	86.95295800000918	88.35196380000002	90.85806980000098	1.3990057999908458	87.95900280000956	89.85428440000419	93.90295100001117	0.3929609999904642	1.0037853999967865	0.9003083999996306	92.88804430000937	0.330234199995175	91.87417340000707	1	1	71	3	nogo_punish	1	-1	0	0	0	1	0	0.0	1.0	0	1.0	0.330234199995175	1058.8541274000015	1145.8070854000107	1146.813130200011	1147.2060912000015	1148.7084118000057	1149.7121972000025	1150.7283008000086	1151.7421717000109	1152.7570784000127	1153.6573868000123	2020-11-13 10:25:26.469181	5.47472828365013	-4.42073086635219	-0.104423926133765	-0.11368904397873	-5.57915220978389	-0.104423926133765	-5.47472828365013	-0.104423926133765	-4.42073086635219	-0.104423926133765	-5.57915220978389	0.104423926133765	-7.317333123736487	-9.45724342425075	-5.159184702676105	-11.319185334768507	-7.817809555457309	-5.159184702676105	-0.8816100353883585	-10.147163690934956	-2.829830567198462	-11.418507996121443	-3.197920130805418	2	correct	1.0
94.82582680000633	9.78715899999952	nogo_punish	1.0	94.84912880000797	97.60908370000857	100.130201699998	2.7599549000005936	95.85569370001053	99.12261770000646	103.16097450000257	1.753389999998035	1.0075839999915388	1.4753133000049274	102.15817809999885	0.3472115000040503	101.14418780000437	1	1	72	3	nogo_punish	1	-1	0	0	0	1	0	0.0	1.0	0	1.0	0.3472115000040503	1058.8541274000015	1153.7032562000095	1154.709821100012	1156.46321110001	1157.976745100008	1158.9843290999995	1159.998315200006	1161.0123055000004	1162.015101900004	1163.490415200009	2020-11-13 10:25:26.469181	5.53179718109362	-4.42073086635219	-0.0632871873167423	-0.069862935452818	-5.59508436841036	-0.0632871873167423	-5.53179718109362	-0.0632871873167423	-4.42073086635219	-0.0632871873167423	-5.59508436841036	0.0632871873167423	-7.260264226292997	-9.45724342425075	-5.118047963859082	-11.275359226242594	-7.833741714083779	-5.118047963859082	-0.9227467742053811	-10.106026952117933	-2.8457627258249314	-11.37737125730442	-3.197920130805418	2	correct	1.0
104.65020080000977	8.157889099995373	nogo_reward	1.0	104.67350280001142	105.95263450000539	108.48146490000386	1.2791316999939681	105.6770531000077	107.46769679999898	111.50515770001243	0.2755813999976908	1.0137681000048815	1.32623419999436	110.50618550000968	0.323319499992067	109.4939141000068	1	1	73	1	nogo_reward	0	1	0	0	0	1	0	0.0	1.0	0	1.0	0.323319499992067	1058.8541274000015	1163.527630200013	1164.5311805000092	1164.806761900007	1166.3218242000005	1167.3355923000054	1168.3480415000083	1169.3603129000112	1170.359285100014	1171.6855193000083	2020-11-13 10:25:26.469181	16.8898067126506	0.0	11.5429504681447	11.5429504681447	-5.3468562445059	11.5429504681447	-16.8898067126506	11.5429504681447	0.0	11.5429504681447	-5.3468562445059	-11.5429504681447	4.097745305263983	-5.03651255789856	6.48818969160236	0.3374541773549229	-7.5855135901793185	6.48818969160236	-12.528984429666822	1.5002107033435088	-2.5975346019204713	0.22886639815702203	1.2228107355467719	2	correct	1.0
112.8461568000057	9.588977499995963	go_reward	0.3322268999909283	112.86945880000735	115.47507040000369	118.01321370000392	2.6056115999963367	113.86305929999799	117.00291880000464	121.05815760001155	1.6120111000057022	1.0102948999992805	1.400278699991759	120.04324970000039	0.5220303000096465	119.03132819999905	1	1	74	2	go_reward	1	1	0	1	1	1	0	0.0	1.0	1	0.3322268999909283	0.5220303000096465	1058.8541274000015	1171.7235862000089	1172.7171866999995	1174.3291978000052	1175.8570462000062	1176.8673411000054	1177.8854556000006	1178.897377100002	1179.912285000013	1181.3125637000048	2020-11-13 10:25:26.469181	19.3747500770173	31.2403041338014	0.0	31.2301251552271	19.3747500770173	0.0	-19.3747500770173	31.2403041338014	0.0	19.3747500770173	0.0	3.5039994115810025	6.5826886696306826	26.203791575902837	-5.05476077654234	20.024628864437325	17.13609273134388	-5.05476077654234	2.5179654500588793	9.33201031221611	2.7493216425854285	19.926220063813723	1.2228107355467719	2	correct	1.0
122.47323370000254	9.158591700004536	go_punish	0.2990726999996695	122.49653570000419	124.6661347000047	127.22163830000522	2.1695990000005168	123.49938190000853	126.20128480000153	130.2374138000016	1.1667527999961749	1.0203535000036936	1.4177136000071187	129.23576300000445	0.3688016000087373	128.2256395000004	1	1	75	4	go_punish	1	0	-1	1	1	1	0	0.0	1.0	0	0.2990726999996695	0.3688016000087373	1058.8541274000015	1181.3506631000057	1182.35350930001	1183.5202621000062	1185.055412200003	1186.0757657000067	1187.079766900002	1188.089890400006	1189.0915412000031	1190.5092548000102	2020-11-13 10:25:26.469181	2.16788798989119	-0.28397886029691	-3.52993985973803	-0.331865319749206	-1.36205186984684	-3.52993985973803	-2.16788798989119	-0.28397886029691	-3.52993985973803	-1.36205186984684	-3.52993985973803	0.28397886029691	-10.624173417495427	-5.32049141819547	-8.58470063628037	-11.537361610538982	-3.6007092155202587	-8.58470063628037	-0.7020551012252134	-11.404791634648031	-0.7806182171526013	-11.598062930284588	-2.307129124191258	2	correct	1.0
131.67127700000128	8.767615799996065	go_punish	0.3501419999956852	131.69457900000293	133.984269100009	136.52712410000117	2.289690100006055	132.70665100000065	135.51666000000864	139.58305880001012	1.2776181000083398	1.0104640999925323	0.8791359999888755	138.56798320000257	0.6649099999922328	137.54440160001127	1	1	76	4	go_punish	1	0	-1	1	1	1	0	0.0	1.0	0	0.3501419999956852	0.6649099999922328	1058.8541274000015	1190.5487064000044	1191.5607784000022	1192.8383965000105	1194.3707874000102	1195.3812515000027	1196.3985290000128	1197.422110600004	1198.4371862000116	1199.3163222000005	2020-11-13 10:25:26.469181	2.23666649451806	-0.167711113450507	-3.52993985973803	-0.199800208758673	-1.29327336521998	-3.52993985973803	-2.23666649451806	-0.167711113450507	-3.52993985973803	-1.29327336521998	-3.52993985973803	0.167711113450507	-10.555394912868557	-5.204223671349068	-8.58470063628037	-11.405296499548449	-3.5319307108933984	-8.58470063628037	-0.8183228480716165	-11.33601313002117	-0.7806182171526013	-11.481795183438184	-2.307129124191258	2	correct	1.0
140.4777699999977	8.30067370001052	go_punish	0.2805126000021118	140.50107199999934	142.0658537999991	144.59389640000904	1.5647817999997642	141.50334160000807	143.58579910000867	147.6419876	0.5625121999910334	1.0080973000003723	1.1597581000098671	146.6367213000051	0.4124169999995501	145.60797910000838	1	1	77	4	go_punish	1	0	-1	1	1	1	1	1.0	1.0	0	0.2805126000021118	0.4124169999995501	1058.8541274000015	1199.3551994000009	1200.3574690000096	1200.9199812000006	1202.4399265000102	1203.4480238000106	1204.46210650001	1205.4908487000066	1206.4961150000015	1207.6558731000114	2020-11-13 10:25:26.469181	2.2739422373696	-0.10295790242724	-3.52993985973803	-0.124869959325611	-1.25599762236843	-3.52993985973803	-2.2739422373696	-0.10295790242724	-3.52993985973803	-1.25599762236843	-3.52993985973803	0.10295790242724	-10.518119170017018	-5.1394704603258	-8.58470063628037	-11.330366250115388	-3.4946549680418486	-8.58470063628037	-0.8830760590948834	-11.29873738716962	-0.7806182171526013	-11.417041972414918	-2.307129124191258	2	correct	1.0
148.81957469999907	8.357507000007672	go_reward	0.2938444000028539	148.84287670000072	150.50948430001176	153.0331019000007	1.666607600011048	149.8546651000072	152.01899140000774	156.07119709999847	0.6548192000045674	1.0141104999929667	1.1291866000099162	155.06754490001208	0.4402738000062527	154.0490904000037	1	1	78	2	go_reward	0	0	1	1	1	1	0	0.0	1.0	0	0.2938444000028539	0.4402738000062527	1058.8541274000015	1207.6970041000022	1208.7087925000087	1209.3636117000133	1210.8731188000093	1211.8872293000022	1212.9032178000052	1213.9216723000136	1214.9253245	1216.05451110001	2020-11-13 10:25:26.469181	20.5147309054907	33.0009764963807	0.0	32.9938674957327	20.5147309054907	0.0	-20.5147309054907	33.0009764963807	0.0	20.5147309054907	0.0	-33.0009764963807	7.722669498104084	27.96446393848214	-5.05476077654234	21.788371204942926	18.276073559817284	-5.05476077654234	-33.98701045790283	10.47199114068951	2.7493216425854285	21.686892426393023	1.2228107355467719	2	correct	1.0
157.21933069999795	8.600383400000283	go_punish	0.4010893000086071	157.2426326999996	159.0302481000108	161.57071570000016	1.787615400011191	158.250466900005	160.54904870000632	164.60946640001225	0.7797812000058002	1.0216669999938404	1.233549699987634	163.59882130000938	0.4693267999973614	162.57204440000373	1	1	79	4	go_punish	0	-1	0	1	1	1	1	1.0	1.0	-1	0.4010893000086071	0.4693267999973614	1058.8541274000015	1216.0967601000011	1217.1045943000065	1217.8843755000123	1219.4031761000078	1220.4248431000017	1221.4261718000052	1222.452948700011	1223.4635938000138	1224.6971435000014	2020-11-13 10:25:26.469181	2.29508796911134	-0.0652447380605788	-3.52993985973803	-0.0804551831523591	-1.23485189062669	-3.52993985973803	-2.29508796911134	-0.0652447380605788	-3.52993985973803	-1.23485189062669	-3.52993985973803	-5.7770339276345615	-10.496973438275276	-5.101757295959139	-8.58470063628037	-11.285951473942136	-3.4735092363001088	-8.58470063628037	-6.763067889156685	-11.27759165542788	-0.7806182171526013	-11.379328808048257	-2.307129124191258	2	correct	1.0
165.85692190000555	9.513486900003045	nogo_reward	1.0	165.8802239000072	168.5876995000001	171.12148660000844	2.707475599992904	166.87298939999937	170.0976535000084	174.15175360000308	1.7147101000007297	1.0238331000000471	1.241957200007164	173.1409961000029	0.4226218000112567	172.1236261000015	1	1	80	1	nogo_reward	1	0	1	0	0	1	0	0.0	1.0	1	1.0	0.4226218000112567	1058.8541274000015	1224.7343513000087	1225.7271168000009	1227.4418269000016	1228.95178090001	1229.97561400001	1230.977753500003	1231.9951235000044	1233.0058810000046	1234.2478382000118	2020-11-13 10:25:26.469181	8.95018029519086	0.0	5.64709789188762	5.64709789188762	-3.30308240330324	5.64709789188762	-8.95018029519086	5.64709789188762	0.0	5.64709789188762	-3.30308240330324	29.097205653494782	-3.8418811121957575	-5.03651255789856	0.5923371153452806	-5.558398398902156	-5.541739748976658	0.5923371153452806	28.111171691972658	-4.39564187291357	-0.5537607607178114	-5.666986178100057	1.2228107355467719	2	correct	1.0
175.41173960000742	8.638368899992201	nogo_reward	1.0	175.43504160000907	177.6538379999986	180.17733450001128	2.2187963999895146	176.43990450000297	179.1671817000024	183.2137718000015	1.213933499995619	1.010152800008882	0.8596386999997776	182.2046915000103	0.3728533999965293	181.1833909999989	1	1	81	1	nogo_reward	1	0	1	0	0	1	0	0.0	1.0	1	1.0	0.3728533999965293	1058.8541274000015	1234.2891690000106	1235.2940319000045	1236.5079654	1238.021309100004	1239.0314619000128	1240.0375184000004	1241.0588189000118	1242.067899200003	1242.9275379000028	2020-11-13 10:25:26.469181	31.3314097194559	0.0	22.5283365731644	22.5283365731644	-8.8030731462915	22.5283365731644	-31.3314097194559	22.5283365731644	0.0	22.5283365731644	-8.8030731462915	12.215966972218002	18.53934831206928	-5.03651255789856	17.473575796622058	11.322840282374623	-11.041730491964918	17.473575796622058	11.229933010695879	12.485596808363209	-6.053751503706071	11.214252503176722	1.2228107355467719	2	correct	1.0
184.09708130000195	8.127835799998593	nogo_punish	1.0	184.1203833000036	185.48181150000937	188.00857190000556	1.3614282000057756	185.12478120000765	186.99880650000728	191.0499082000024	0.35703030000172475	1.0097653999982867	1.1983108999997967	190.0412065999992	0.3511976000008872	189.0220918999987	1	1	82	3	nogo_punish	1	-1	0	0	0	1	0	0.0	1.0	0	1.0	0.3511976000008872	1058.8541274000015	1242.974510700005	1243.9789086000092	1244.335938900011	1245.8529339000088	1246.862699300007	1247.8762193000002	1248.8953340000007	1249.904035600004	1251.1023465000037	2020-11-13 10:25:26.469181	5.5648412520985	-4.42073086635219	-0.0396707151104978	-0.044393758330903	-5.60451196720899	-0.0396707151104978	-5.5648412520985	-0.0396707151104978	-4.42073086635219	-0.0396707151104978	-5.60451196720899	0.0396707151104978	-7.2272201552881175	-9.45724342425075	-5.094431491652838	-11.24989004912068	-7.8431693128824085	-5.094431491652838	-0.9463632464116256	-10.082410479911688	-2.8551903246235613	-11.353754785098175	-3.197920130805418	2	correct	1.0
192.26855279999995	9.263981700001978	nogo_punish	1.0	192.2918548000016	194.7682602999996	197.29311860000598	2.476405499998009	193.30186250001157	196.27076890000922	200.3380602000109	1.4663977999880444	1.0223496999967665	1.2177762999926927	199.32970090000913	0.3100612999987788	198.30024450000224	1	1	83	3	nogo_punish	1	-1	0	0	0	1	0	0.0	1.0	0	1.0	0.3100612999987788	1058.8541274000015	1251.1459822000031	1252.155989900013	1253.6223877000011	1255.1248963000107	1256.1472460000075	1257.1543719000038	1258.1838283000106	1259.1921876000124	1260.409963900005	2020-11-13 10:25:26.469181	5.58472743801747	-4.42073086635219	-0.0255740229500809	-0.0290033045382896	-5.61030146096755	-0.0255740229500809	-5.58472743801747	-0.0255740229500809	-4.42073086635219	-0.0255740229500809	-5.61030146096755	0.0255740229500809	-7.207333969369147	-9.45724342425075	-5.08033479949242	-11.234499595328066	-7.848958806640969	-5.08033479949242	-0.9604599385720425	-10.068313787751272	-2.8609798183821216	-11.339658092937759	-3.197920130805418	2	correct	1.0
201.57067130001087	8.591834199993173	go_punish	0.3745606000011321	201.59397330001252	203.0738209999986	205.62891759999934	1.4798476999860668	202.60714950000738	204.604173300002	208.6866627999991	0.4666714999912074	1.0247442999973373	1.4991447000065818	207.67250739999895	0.4992368000093847	206.64407819999929	1	1	84	4	go_punish	0	-1	0	1	1	1	0	0.0	1.0	-1	0.3745606000011321	0.4992368000093847	1058.8541274000015	1260.448100700014	1261.461276900009	1261.9279484	1263.4583007000035	1264.4830450000009	1265.4982056000008	1266.5266348000005	1267.5407902000006	1269.0399349000072	2020-11-13 10:25:26.469181	0.193906469431928	-3.14294283991458	-3.52993985973803	-3.15365544424639	-3.3360333903061	-3.52993985973803	-0.193906469431928	-3.14294283991458	-3.52993985973803	-3.3360333903061	-3.52993985973803	-2.6993358257805604	-12.598154937954689	-8.17945539781314	-8.58470063628037	-14.359151735036166	-5.574690735979519	-8.58470063628037	-3.685369787302684	-13.37877315510729	-0.7806182171526013	-14.457026909902257	-2.307129124191258	2	correct	1.0
210.2058534000098	9.411587899987353	nogo_punish	1.0	210.22915540001145	213.01437820000888	215.5380233000035	2.7852227999974275	211.24167590000457	214.51696860000106	218.583761900009	1.7727023000043118	1.0210547000024235	1.0569813999898088	217.56977990000473	0.3188606000039726	216.55537370000138	1	1	85	3	nogo_punish	1	-1	0	0	0	1	1	1.0	1.0	0	1.0	0.3188606000039726	1058.8541274000015	1269.083282800013	1270.095803300006	1271.8685056000104	1273.3710960000026	1274.392150700005	1275.409501100003	1276.4239073000062	1277.4378893000105	1278.4948707000003	2020-11-13 10:25:26.469181	5.59708729581249	-4.42073086635219	-0.0168818186742857	-0.0193965332420814	-5.61396911448678	-0.0168818186742857	-5.59708729581249	-0.0168818186742857	-4.42073086635219	-0.0168818186742857	-5.61396911448678	0.0168818186742857	-7.194974111574127	-9.45724342425075	-5.071642595216625	-11.224892824031858	-7.852626460160199	-5.071642595216625	-0.9691521428478377	-10.059621583475476	-2.8646474719013515	-11.330965888661963	-3.197920130805418	2	correct	1.0
219.65877249999903	8.765305300010368	nogo_punish	1.0	219.68207450000068	222.11365680000767	224.62550690000376	2.431582300006994	220.69186760000616	223.63067140000953	227.6614494000096	1.4217892000015127	0.9948354999942239	0.7859304000014617	226.65280210001242	0.3429367000062484	225.6353767000112	1	1	86	3	nogo_punish	1	-1	0	0	0	1	0	0.0	1.0	0	1.0	0.3429367000062484	1058.8541274000015	1278.5362019000022	1279.5459950000077	1280.9677842000092	1282.484798800011	1283.4796343000053	1284.4895041000127	1285.506929500014	1286.515576800011	1287.3015072000126	2020-11-13 10:25:26.469181	5.60498196023139	-4.42073086635219	-0.0113727766168447	-0.0132337524113134	-5.61635473684823	-0.0113727766168447	-5.60498196023139	-0.0113727766168447	-4.42073086635219	-0.0113727766168447	-5.61635473684823	0.0113727766168447	-7.187079447155227	-9.45724342425075	-5.066133553159184	-11.21873004320109	-7.8550120825216485	-5.066133553159184	-0.9746611849052788	-10.054112541418036	-2.8670330942628013	-11.325456846604522	-3.197920130805418	2	correct	1.0
228.4642196000059	8.526583600003505	go_reward	0.2867859999969369	228.48752160000754	230.46453650000353	233.01916510000615	1.977014899995993	229.49349970000935	231.99475740001094	236.0524321000123	0.9710367999941809	1.0244076999952085	0.961673099998734	235.04636370000685	0.3504533999948762	234.03486500000895	1	1	87	2	go_reward	1	1	0	1	1	1	0	0.0	1.0	1	0.2867859999969369	0.3504533999948762	1058.8541274000015	1287.341649000009	1288.3476271000109	1289.318663900005	1290.8488848000125	1291.8732925000077	1292.8889924000105	1293.9004911000084	1294.9065595000138	1295.8682326000126	2020-11-13 10:25:26.469181	7.96918401889083	14.3027952971617	0.0	14.2977655886502	7.96918401889083	0.0	-7.96918401889083	14.3027952971617	0.0	7.96918401889083	0.0	20.4415082482207	-4.822877388495788	9.26628273926314	-5.05476077654234	3.0922692978604243	5.730526673217411	-5.05476077654234	19.455474286698575	-2.073555745910361	2.7493216425854285	2.988711227174022	1.2228107355467719	2	correct	1.0
237.02993240000797	8.811758499999996	go_punish	0.2784879999962868	237.05323440000961	238.85683860001177	241.42389500000013	1.8036042000021553	238.06079630000772	240.40404259999946	244.4732348000109	0.7960423000040464	1.0198524000006728	1.3917580999986967	243.4592178000023	0.4467677999928128	242.42958219999878	1	1	88	4	go_punish	0	-1	0	1	1	1	0	0.0	1.0	-1	0.2784879999962868	0.4467677999928128	1058.8541274000015	1295.9073618000111	1296.9149237000092	1297.7109660000133	1299.258170000001	1300.2780224000016	1301.2837096000003	1302.3133452000038	1303.3273622000124	1304.7191203000111	2020-11-13 10:25:26.469181	-0.678277166548333	-4.44898546164332	-3.52993985973803	-4.45662843786035	-4.20821702628637	-3.52993985973803	0.678277166548333	-4.44898546164332	-3.52993985973803	-4.20821702628637	-3.52993985973803	-1.3932932040518198	-13.470338573934951	-9.48549801954188	-8.58470063628037	-15.662124728650127	-6.4468743719597885	-8.58470063628037	-2.379327165573943	-14.25095679108756	-0.7806182171526013	-15.763069531630997	-2.307129124191258	2	correct	1.0
245.883514000001	7.833425100005115	nogo_reward	1.0	245.90681600000266	247.40756800000986	249.93422880000458	1.5007520000071963	246.90785930000152	248.91665790000138	252.97523409999872	0.4997087000083411	1.017570900003193	0.7650070000090636	251.97119229999976	0.3762988999951631	250.938015799999	1	1	89	1	nogo_reward	1	0	1	0	0	1	0	0.0	1.0	1	1.0	0.3762988999951631	1058.8541274000015	1304.7609434000042	1305.761986700003	1306.2616954000114	1307.770785300003	1308.788356200006	1309.7921432000005	1310.8253197000013	1311.8293615000002	1312.5943685000093	2020-11-13 10:25:26.469181	39.9756830378675	0.0	28.9624348539939	28.9624348539939	-11.0132481838736	28.9624348539939	-39.9756830378675	28.9624348539939	0.0	28.9624348539939	-11.0132481838736	5.7818686913885	27.18362163048088	-5.03651255789856	23.90767407745156	17.756938563204123	-13.251905529547019	23.90767407745156	4.795834729866376	18.91969508919271	-8.263926541288171	17.648350784006226	1.2228107355467719	2	correct	1.0
253.754107700006	9.732044899996254	go_punish	0.3505167999974219	253.77740970000764	256.61090450000506	259.1382506000084	2.8334947999974247	254.78805400000442	258.12092820000566	262.1599017999981	1.8228505000006407	1.0173224000027403	1.3495528000057675	261.158769300004	0.5581038999953307	260.1430846000005	1	1	90	4	go_punish	1	0	-1	1	1	1	1	1.0	1.0	0	0.3505167999974219	0.5581038999953307	1058.8541274000015	1312.6315371000092	1313.642181400006	1315.4650319000066	1316.9750556000072	1317.99237800001	1318.997212000002	1320.0128967000055	1321.0140291999996	1322.3635820000054	2020-11-13 10:25:26.469181	-1.08442279719268	-5.06794273075222	-3.52993985973803	-5.07345952168614	-4.61436265693071	-3.52993985973803	1.08442279719268	-5.06794273075222	-3.52993985973803	-4.61436265693071	-3.52993985973803	5.06794273075222	-13.876484204579297	-10.10445528865078	-8.58470063628037	-16.278955812475917	-6.853020002604128	-8.58470063628037	4.081908769230097	-14.6571024217319	-0.7806182171526013	-16.382026800739897	-2.307129124191258	2	correct	1.0
263.52612409999733	9.040848400007008	nogo_reward	1.0	263.549426099999	265.5576338000103	268.0874283000014	2.008207700011326	264.55894390000344	267.06286350000323	271.11136350000766	0.9986899000068661	1.0245647999981884	1.4789109999983339	270.094148100005	0.4410349999961909	269.08829460000584	1	1	91	1	nogo_reward	1	0	1	0	0	1	1	0.0	0.0	1	1.0	0.4410349999961909	1058.8541274000015	1322.4035535000005	1323.413071300005	1324.4117612000118	1325.9169909000047	1326.941555700003	1327.9424220000074	1328.9482755000065	1329.9654909000092	1331.4444019000075	2020-11-13 10:25:26.469181	43.7589715102535	0.0	31.7499716900961	31.7499716900961	-12.0089998201574	31.7499716900961	-43.7589715102535	31.7499716900961	0.0	31.7499716900961	-12.0089998201574	2.994331855286301	30.966910102866883	-5.03651255789856	26.69521091355376	20.54447539930632	-14.24765716583082	26.69521091355376	2.008297893764178	21.70723192529491	-9.259678177571972	20.435887620108424	1.2228107355467719	2	wrong	1.0
272.6059152000089	8.370723499989026	go_punish	0.2427139000064926	272.62921720001054	274.4065891000064	276.95687960000964	1.7773718999958419	273.6407589000012	275.9370458000051	280.0050630000044	0.7658302000052117	1.0198338000045624	0.994877699995186	278.9959325000093	0.4040608000068459	277.967316399998	1	1	92	4	go_punish	1	0	-1	1	1	1	1	1.0	1.0	0	0.2427139000064926	0.4040608000068459	1058.8541274000015	1331.483344600012	1332.4948863000027	1333.260716500008	1334.7911732000066	1335.8110070000112	1336.8214437999995	1337.8500599000108	1338.859190400006	1339.854068100001	2020-11-13 10:25:26.469181	0.822790022872517	-2.28654250898715	-3.52993985973803	-2.29056694473697	-2.70714983686551	-3.52993985973803	-0.822790022872517	-2.28654250898715	-3.52993985973803	-2.70714983686551	-3.52993985973803	2.28654250898715	-11.9692713845141	-7.32305506688571	-8.58470063628037	-13.496063235526746	-4.945807182538928	-8.58470063628037	1.3005085474650266	-12.7498896016667	-0.7806182171526013	-13.600626578974827	-2.307129124191258	2	correct	1.0
281.01947199999995	8.013682600008906	nogo_punish	1.0	281.0427740000016	282.5184223000108	285.0661694000012	1.4756483000091976	282.046414500001	284.04510850000975	288.10289220001164	0.4720078000098056	1.0210608999914257	0.9535643999988679	287.0970538000113	0.5520591999957105	286.07323580000957	1	1	93	3	nogo_punish	1	-1	0	0	0	1	0	0.0	1.0	0	1.0	0.5520591999957105	1058.8541274000015	1339.8969014000031	1340.9005419000025	1341.3725497000123	1342.8992359000113	1343.9202968000027	1344.927363200011	1345.9511812000128	1346.9570196000132	1347.910584000012	2020-11-13 10:25:26.469181	5.61014400976762	-4.42073086635219	-0.0077980321624858	-0.0091869340376151	-5.61794204193011	-0.0077980321624858	-5.61014400976762	-0.0077980321624858	-4.42073086635219	-0.0077980321624858	-5.61794204193011	0.0077980321624858	-7.181917397618998	-9.45724342425075	-5.062558808704826	-11.214683224827391	-7.856599387603529	-5.062558808704826	-0.9782359293596377	-10.050537796963676	-2.8686203993446817	-11.321882102150163	-3.197920130805418	2	correct	1.0
289.07036470000435	8.213212200004136	nogo_reward	1.0	289.093666700006	290.46029770000337	292.9734524000089	1.3666309999973691	290.10273050000296	291.9592317000063	296.01449650000745	0.3575672000004033	1.0142207000026247	1.2923824000026798	295.0147378000113	0.5281982000014978	293.9860651000056	1	1	94	1	nogo_reward	1	0	1	0	0	1	0	0.0	1.0	1	1.0	0.5281982000014978	1058.8541274000015	1347.9477941000075	1348.9568579000045	1349.3144251000049	1350.8133591000078	1351.8275798000104	1352.840192500007	1353.8688652000128	1354.868623900009	1356.1610063000116	2020-11-13 10:25:26.469181	45.5825714805626	0.0	33.083121016416	33.083121016416	-12.4994504641466	33.083121016416	-45.5825714805626	33.083121016416	0.0	33.083121016416	-12.4994504641466	1.6611825289663997	32.79051007317598	-5.03651255789856	28.028360239873663	21.877624725626227	-14.738107809820018	28.028360239873663	0.6751485674442763	23.04038125161481	-9.750128821561171	21.769036946428322	1.2228107355467719	2	correct	1.0
297.3223441000009	8.57429210000555	go_reward	0.427396500002942	297.34564610000257	299.20279660000256	301.76919269999803	1.8571504999999888	298.3493166000119	300.7493854000061	304.8167695000013	0.8534799999906681	1.0198072999919532	1.1031687000067905	303.80026190000376	0.3596930999920005	302.76961280001	1	1	95	2	go_reward	0	0	1	1	1	1	0	0.0	1.0	0	0.427396500002942	0.3596930999920005	1058.8541274000015	1356.199773500004	1357.2034440000134	1358.056924000004	1359.6035128000076	1360.6233200999995	1361.6237402000115	1362.6543893000053	1363.6708969000028	1364.7740656000096	2020-11-13 10:25:26.469181	16.2444732691997	26.4851344945332	0.0	26.4815338329931	16.2444732691997	0.0	-16.2444732691997	26.4851344945332	0.0	16.2444732691997	0.0	-26.4851344945332	3.452411861813081	21.448621936634638	-5.05476077654234	15.276037542203325	14.00581592352628	-5.05476077654234	-27.471168456055324	6.201733504398508	2.7493216425854285	15.171050424545522	1.2228107355467719	2	correct	1.0
305.9341073000105	8.711566299985861	go_punish	0.2714201000053435	305.95740930001216	307.6318834999986	310.1790359000008	1.6744741999864345	306.9695287000068	309.16083960000856	313.22794690000615	0.6623547999918173	1.018196299992269	1.4410286999918753	312.2136879000029	0.374422200009576	311.18784179999807	1	1	96	4	go_punish	1	0	-1	1	1	1	0	0.0	1.0	0	0.2714201000053435	0.374422200009576	1058.8541274000015	1364.8115367000137	1365.8236561000083	1366.4860109	1368.01496700001	1369.0331633000023	1370.0419691999996	1371.0678153000044	1372.0820743000077	1373.5231029999995	2020-11-13 10:25:26.469181	1.59028072776716	-1.14189004294286	-3.52993985973803	-1.14485440573754	-1.93965913197088	-3.52993985973803	-1.59028072776716	-1.14189004294286	-3.52993985973803	-1.93965913197088	-3.52993985973803	1.14189004294286	-11.201780679619457	-6.17840260084142	-8.58470063628037	-12.350350696527316	-4.178316477644299	-8.58470063628037	0.1558560814207366	-11.98239889677207	-0.7806182171526013	-12.455974112930537	-2.307129124191258	2	correct	1.0
314.6878698000073	8.25832470000023	nogo_punish	1.0	314.71117180000897	316.03808610000146	318.5576835000104	1.3269142999924952	315.72192409999866	317.55276340000296	321.61124759999825	0.31616200000280514	1.004920100007439	1.358248900010949	320.6043727000074	0.3905342999933054	319.56877199999894	1	1	97	3	nogo_punish	1	-1	0	0	0	1	0	0.0	1.0	0	1.0	0.3905342999933054	1058.8541274000015	1373.5652992000105	1374.5760515000002	1374.892213500003	1376.4068908000045	1377.411810900012	1378.4228994000005	1379.458500100009	1380.4653749999998	1381.8236239000107	2020-11-13 10:25:26.469181	5.61358854427847	-4.42073086635219	-0.0054306178279293	-0.006475420216423	-5.6190191621064	-0.0054306178279293	-5.61358854427847	-0.0054306178279293	-4.42073086635219	-0.0054306178279293	-5.6190191621064	0.0054306178279293	-7.178472863108147	-9.45724342425075	-5.0601913943702685	-11.2119717110062	-7.857676507779819	-5.0601913943702685	-0.9806033436941941	-10.04817038262912	-2.8696975195209715	-11.319514687815607	-3.197920130805418	2	correct	1.0
322.98607290000655	8.221555900003295	go_reward	0.3143485000036889	323.0093749000082	324.86697120001213	327.4311999000056	1.8575963000039337	324.01132130000065	326.41718630000855	330.46909680000704	0.8556499000114854	1.0140135999970425	0.7618340000044554	329.4543481000003	0.4688694000069517	328.4314406000051	1	1	98	2	go_reward	1	1	0	1	1	1	0	1.0	0.0	1	0.3143485000036889	0.4688694000069517	1058.8541274000015	1381.8635023000097	1382.8654487000022	1383.7210986000136	1385.27131370001	1386.285327300007	1387.2855680000066	1388.3084755000018	1389.3232242000086	1390.085058200013	2020-11-13 10:25:26.469181	6.13614661564588	11.445149763218	0.0	11.4425443314304	6.13614661564588	0.0	-6.13614661564588	11.445149763218	0.0	6.13614661564588	0.0	23.299153782164403	-6.655914791740737	6.408637205319439	-5.05476077654234	0.23704804064062301	3.8974892699724615	-5.05476077654234	22.313119820642278	-3.9065931491553103	2.7493216425854285	0.13106569323032247	1.2228107355467719	2	wrong	1.0
331.2535585000005	9.894254200000432	nogo_punish	1.0	331.27686050000216	334.24114920001057	336.7782950000112	2.96428870000841	332.28252170000655	335.75319840000907	339.8201094000108	1.9586275000040132	1.0250966000021435	1.3510052999918116	338.8187448000101	0.3896786999976029	337.7956599000029	1	1	99	3	nogo_punish	0	0	-1	0	0	1	1	1.0	1.0	-1	1.0	0.3896786999976029	1058.8541274000015	1390.1309879000037	1391.136649100008	1393.095276600012	1394.6073258000106	1395.6324224000127	1396.6497873000044	1397.6728722000116	1398.6742368000123	1400.025242100004	2020-11-13 10:25:26.469181	5.61592829467982	-4.42073086635219	-0.0038345000170356	-0.0046262979919006	-5.61976279469685	-0.0038345000170356	-5.61592829467982	-0.0038345000170356	-4.42073086635219	-0.0038345000170356	-5.61976279469685	-5.838444165678105	-7.176133112706797	-9.45724342425075	-5.058595276559375	-11.210122588781678	-7.858420140370269	-5.058595276559375	-6.824478127200228	-10.046574264818226	-2.8704411521114217	-11.317918570004712	-3.197920130805418	2	correct	1.0
341.18704450000973	8.044576599990023	go_reward	0.5413787000143202	341.2103465000114	342.64493990001233	345.20197930000745	1.4345934000009493	342.21113380001066	344.1911515000104	348.24698890000604	0.4338061000016751	1.0108277999970596	1.0079341999953613	347.2294766000125	0.5627167000056943	346.20458430000895	1	1	100	2	go_reward	1	1	0	1	1	1	1	1.0	1.0	1	0.5413787000143202	0.5627167000056943	1058.8541274000015	1400.064473900013	1401.0652612000122	1401.4990673000138	1403.045278900012	1404.056106700009	1405.0587117000105	1406.083604000014	1407.1011163000076	1408.109050500003	2020-11-13 10:25:26.469181	15.3701743661103	25.0988453239644	0.0	25.0969413972077	15.3701743661103	0.0	-15.3701743661103	25.0988453239644	0.0	15.3701743661103	0.0	9.645458221418	2.5781129587236826	20.06233276606584	-5.05476077654234	13.891445106417924	13.131517020436881	-5.05476077654234	8.659424259895877	5.327434601309109	2.7493216425854285	13.784761253976724	1.2228107355467719	2	correct	1.0
349.26876829999674	8.796115700010205	go_reward	0.2909781000053044	349.2920702999984	351.6213664000102	354.1358807000072	2.3292961000117884	350.3048953000109	353.136912000002	357.1675292	1.3164710999992622	0.9989687000052072	0.9206568000086008	356.1579547000006	0.5196243999962462	355.1477652000033	1	1	101	2	go_reward	1	1	0	1	1	1	0	0.0	1.0	1	0.2909781000053044	0.5196243999962462	1058.8541274000015	1408.1461977	1409.1590227000124	1410.4754938000117	1411.9910394000035	1412.9900081000087	1414.0018926000048	1415.012082100002	1416.0216566000015	1416.94231340001	2020-11-13 10:25:26.469181	18.7426258070914	30.2237711505829	0.0	30.2223671731219	18.7426258070914	0.0	-18.7426258070914	30.2237711505829	0.0	18.7426258070914	0.0	4.520532394799503	5.950564399704783	25.187258592684337	-5.05476077654234	19.01687088233212	16.503968461417983	-5.05476077654234	3.5344984332773794	8.69988604229021	2.7493216425854285	18.90968708059522	1.2228107355467719	2	correct	1.0
358.10541080000985	9.214676799994777	nogo_punish	1.0	358.1287128000115	360.5627997999984	363.0899865000106	2.434086999986903	359.1414999000119	362.0730588000008	366.1300305000043	1.4212998999864794	1.0169277000097736	1.2133591000019806	365.1170287999996	0.3082693000033032	364.101981	1	1	102	3	nogo_punish	0	0	-1	0	0	1	0	1.0	0.0	-1	1.0	0.3082693000033032	1058.8541274000015	1416.982840200013	1417.9956273000134	1419.4169272	1420.9271862000023	1421.944113900012	1422.9561084000015	1423.9711562000011	1424.9841579000058	1426.1975170000078	2020-11-13 10:25:26.469181	1.53020363835859	-4.42073086635219	-3.10322824640925	-3.10383250787484	-4.63343188476784	-3.10322824640925	-1.53020363835859	-3.10322824640925	-4.42073086635219	-3.10322824640925	-4.63343188476784	-2.73905041928589	-11.261857769028028	-9.45724342425075	-8.15798902295159	-14.309328798664616	-6.872089230441259	-8.15798902295159	-3.7250843808080134	-13.14596801121044	-1.8841102421824116	-14.417312316396927	-3.197920130805418	2	wrong	1.0
367.36193850000564	7.965144999994891	nogo_punish	1.0	367.3852405000073	368.735399600002	371.2622374000059	1.3501590999946984	368.3933910000053	370.2377475000105	374.3079838999986	0.34200859999668864	1.0244898999953875	1.0424016000035863	373.29483520000963	0.3504102000006242	372.27382539999985	1	1	103	3	nogo_punish	1	-1	0	0	0	1	0	0.0	1.0	0	1.0	0.3504102000006242	1058.8541274000015	1426.2393679000088	1427.2475184000068	1427.5895270000035	1429.091874900012	1430.1163648000074	1431.1279528000014	1432.1489626000111	1433.1621113	1434.2045129000037	2020-11-13 10:25:26.469181	-0.229404262718921	-4.42073086635219	-4.42271266145356	-4.42317685603633	-4.19330839873463	-4.42271266145356	0.229404262718921	-4.42271266145356	-4.42073086635219	-4.42271266145356	-4.19330839873463	4.42271266145356	-13.021465670105538	-9.45724342425075	-9.4774734379959	-15.628673146826106	-6.431965744408049	-9.4774734379959	3.436678699931437	-14.46545242625475	-1.4439867561492017	-15.736796731441238	-3.197920130805418	2	correct	1.0
375.3694395000057	7.780080299999099	nogo_punish	1.0	375.39274150000733	376.72591050001233	379.25481009999953	1.3331690000050003	376.4014997000054	378.2311098000064	382.2762420000074	0.32441080000694456	1.023700299993152	0.8965797999990173	381.2673656000118	0.3670534000120824	380.2521682000081	1	1	104	3	nogo_punish	1	-1	0	0	0	1	1	1.0	1.0	0	1.0	0.3670534000120824	1058.8541274000015	1434.2468689000088	1435.255627100007	1435.5800379000138	1437.085237200008	1438.108937500001	1439.1062956000096	1440.1214930000133	1441.130369400009	1442.026949200008	2020-11-13 10:25:26.469181	3.01351885877985	-4.42073086635219	-1.94973241016952	-1.9500912427489	-4.96325126894937	-1.94973241016952	-3.01351885877985	-1.94973241016952	-4.42073086635219	-1.94973241016952	-4.96325126894937	1.94973241016952	-9.778542548606767	-9.45724342425075	-7.004493186711859	-13.155587533538677	-7.201908614622789	-7.004493186711859	0.9636984486473965	-11.992472174970711	-2.2139296263639414	-13.263816480157198	-3.197920130805418	2	correct	1.0
383.1866802000004	8.321863000004669	nogo_reward	1.0	383.20998220000206	384.9980153000072	387.53747110000427	1.7880331000051228	384.2179758999994	386.5132077000019	390.57641210001043	0.7800394000078086	1.0242634000023827	0.9554330999962986	389.56574520000163	0.4007348000013735	388.5414974000016	1	1	105	1	nogo_reward	1	0	1	0	0	1	0	0.0	1.0	1	1.0	0.4007348000013735	1058.8541274000015	1442.0641096000036	1443.072103300001	1443.8521427000087	1445.3673351000034	1446.3915985000058	1447.3956248000031	1448.4198726000031	1449.430539500012	1450.3859726000082	2020-11-13 10:25:26.469181	46.5306055823868	0.0	33.7719394392045	33.7719394392045	-12.7586661431824	33.7719394392045	-46.5306055823868	33.7719394392045	0.0	33.7719394392045	-12.7586661431824	0.9723641061778991	33.73854417500018	-5.03651255789856	28.717178662662164	22.566443148414727	-14.99732348885582	28.717178662662164	-0.013669855344224269	23.72919967440331	-10.009344500596972	22.457855369216823	1.2228107355467719	2	correct	1.0
391.5465334000037	8.636458199995104	nogo_reward	1.0	391.56983540000533	393.2377343999981	395.764826400002	1.667898999992758	392.5820543000011	394.75292040000227	398.80854720000957	0.655680099996971	1.0119059999997262	1.397746399990865	397.7981036999993	0.3673618999891914	396.77995399999804	1	1	106	1	nogo_reward	1	0	1	0	0	1	0	0.0	1.0	1	1.0	0.3673618999891914	1058.8541274000015	1450.4239628000068	1451.4361817000026	1452.0918617999996	1453.6070478000038	1454.6189538000035	1455.6340813999996	1456.6522311000008	1457.662674600011	1459.060421000002	2020-11-13 10:25:26.469181	47.0539566242113	0.0	34.1503161206814	34.1503161206814	-12.9036405035299	34.1503161206814	-47.0539566242113	34.1503161206814	0.0	34.1503161206814	-12.9036405035299	0.5939874247009982	34.26189521682468	-5.03651255789856	29.095555344139065	22.944819829891628	-15.142297849203318	29.095555344139065	-0.3920465368211252	24.107576355880212	-10.154318860944471	22.836232050693724	1.2228107355467719	2	correct	1.0
400.22291470000346	8.372809899999993	go_punish	0.2594657000008737	400.2462167000051	402.10078510000335	404.6574559000003	1.854568399998243	401.25930760000506	403.6350554000094	407.6934671000056	0.841477499998291	1.0224004999909084	0.9255594999995083	406.6888527999986	0.3368316999985836	405.66953540001145	1	1	107	4	go_punish	1	0	-1	1	1	1	0	0.0	1.0	0	0.2594657000008737	0.3368316999985836	1058.8541274000015	1459.1003441000066	1460.1134350000066	1460.9549125000049	1462.489182800011	1463.5115833000018	1464.523662800013	1465.5429802	1466.547594500007	1467.4731540000066	2020-11-13 10:25:26.469181	1.93676084060822	-0.615583543747043	-3.52993985973803	-0.617786669289496	-1.59317901912982	-3.52993985973803	-1.93676084060822	-0.615583543747043	-3.52993985973803	-1.59317901912982	-3.52993985973803	0.615583543747043	-10.855300566778396	-5.652096101645603	-8.58470063628037	-11.823282960079272	-3.8318363648032387	-8.58470063628037	-0.37045041777508037	-11.635918783931011	-0.7806182171526013	-11.92966761373472	-2.307129124191258	2	correct	1.0
408.6352234000078	8.825033299988718	go_punish	0.3120721000013873	408.65852540000947	410.7017332000107	413.23298020000243	2.0432078000012552	409.660744599998	412.2118187000017	416.2851310000117	1.0409886000127244	1.0211615000007441	1.198427699986496	415.2674383000124	0.3477643000078387	414.2515098000006	1	1	108	4	go_punish	1	0	-1	1	1	1	0	0.0	1.0	0	0.3120721000013873	0.3477643000078387	1058.8541274000015	1467.512652800011	1468.5148719999995	1469.5558606000122	1471.0659461000032	1472.087107600004	1473.105637200002	1474.121565700014	1475.1392584000132	1476.3376860999997	2020-11-13 10:25:26.469181	2.10766176101852	-0.351989090834058	-3.52993985973803	-0.353640104426792	-1.42227809871951	-3.52993985973803	-2.10766176101852	-0.351989090834058	-3.52993985973803	-1.42227809871951	-3.52993985973803	0.351989090834058	-10.684399646368098	-5.3885016487326185	-8.58470063628037	-11.559136395216568	-3.660935444392929	-8.58470063628037	-0.6340448706880655	-11.4650178635207	-0.7806182171526013	-11.666073160821735	-2.307129124191258	2	correct	1.0
417.4989102999971	8.950625800003763	go_punish	0.2879821999958949	417.5222122999987	420.1033098000046	422.6524720000016	2.5810975000058534	418.53604810001	421.6313369999991	425.69795700001146	1.5672616999945603	1.0211350000024595	0.7748810999910347	424.69921730000374	0.380486900001415	423.67079230000695	1	1	109	4	go_punish	1	0	-1	1	1	1	1	1.0	1.0	0	0.2879821999958949	0.380486900001415	1058.8541274000015	1476.3763397000002	1477.3901755000115	1478.957437200006	1480.4854644000006	1481.506599400003	1482.5249197000085	1483.5533447000053	1484.552084400013	1485.326965500004	2020-11-13 10:25:26.469181	2.19800683545556	-0.210811110149213	-3.52993985973803	-0.212057995402873	-1.33193302428247	-3.52993985973803	-2.19800683545556	-0.210811110149213	-3.52993985973803	-1.33193302428247	-3.52993985973803	0.210811110149213	-10.594054571931057	-5.247323668047773	-8.58470063628037	-11.41755428619265	-3.5705903699558887	-8.58470063628037	-0.7752228513729105	-11.374672789083661	-0.7806182171526013	-11.524895180136891	-2.307129124191258	2	correct	1.0
426.4873556000093	9.451932199997827	go_reward	0.3970762000099057	426.510657600011	428.88517819999856	431.45267310000804	2.3745205999875907	427.5231983999986	430.43799000000604	434.4973166999994	1.3619797999999719	1.014683100002003	1.4652731000094263	433.48674510000296	0.4641371999896364	432.4601361000098	1	1	110	2	go_reward	0	0	1	1	1	1	0	0.0	1.0	0	0.3970762000099057	0.4641371999896364	1058.8541274000015	1485.3647850000125	1486.3773258	1487.7393056	1489.2921174000076	1490.3068005000096	1491.3142635000113	1492.3408725000045	1493.351444100001	1494.8167172000103	2020-11-13 10:25:26.469181	20.1563131698681	32.4193045261976	0.0	32.4182604846329	20.1563131698681	0.0	-20.1563131698681	32.4193045261976	0.0	20.1563131698681	0.0	-32.4193045261976	7.364251762481482	27.38279196829904	-5.05476077654234	21.212764193843128	17.917655824194682	-5.05476077654234	-33.405338487719725	10.113573405066909	2.7493216425854285	21.10522045620992	1.2228107355467719	2	correct	1.0
435.9773742999969	8.937465700000757	go_punish	0.2743285000033211	436.00067629999853	438.53499820000457	441.0848293000022	2.5343219000060344	437.0136514000044	440.0631621000068	444.1306659000113	1.521346800000174	1.0216671999953633	0.80747609998798	443.1179783000116	0.3734327999991365	442.1028493000051	1	1	111	4	go_punish	1	0	-1	1	1	1	1	1.0	1.0	0	0.2743285000033211	0.3734327999991365	1058.8541274000015	1494.8548037	1495.867778800006	1497.389125600006	1498.9172895000083	1499.9389567000037	1500.9569767000066	1501.9721057000131	1502.9847933000128	1503.7922694000008	2020-11-13 10:25:26.469181	2.24846632429607	-0.131046639945117	-3.52993985973803	-0.1319951876342	-1.28147353544196	-3.52993985973803	-2.24846632429607	-0.131046639945117	-3.52993985973803	-1.28147353544196	-3.52993985973803	0.131046639945117	-10.543595083090548	-5.167559197843677	-8.58470063628037	-11.337491478423976	-3.520130881115379	-8.58470063628037	-0.8549873215770064	-11.32421330024315	-0.7806182171526013	-11.445130709932794	-2.307129124191258	2	correct	1.0
444.9570262000052	8.56367180000234	nogo_punish	1.0	444.98032820000685	446.7212312000049	449.24560660000157	1.7409029999980703	445.99197590000426	448.22650000000453	452.2930747000064	0.7292553000006592	1.0191065999970306	1.2509253000027911	451.2774126000004	0.3469537000055425	450.2632780999995	1	1	112	3	nogo_punish	1	-1	0	0	0	1	0	0.0	1.0	0	1.0	0.3469537000055425	1058.8541274000015	1503.8344556000084	1504.8461033000058	1505.5753586000064	1507.080627400006	1508.099734000003	1509.117405500001	1510.131540000002	1511.147202100008	1512.3981274000107	2020-11-13 10:25:26.469181	4.33420569432664	-4.42073086635219	-0.954137219015706	-0.954416259033852	-5.28834291334234	-0.954137219015706	-4.33420569432664	-0.954137219015706	-4.42073086635219	-0.954137219015706	-5.28834291334234	0.954137219015706	-8.457855713059978	-9.45724342425075	-6.008897995558046	-12.159912549823629	-7.527000259015758	-6.008897995558046	-0.031896742506417386	-10.996876983816897	-2.539021270756911	-12.268221289003383	-3.197920130805418	2	correct	1.0
453.5593116000093	9.43548079999141	nogo_reward	1.0	453.582613600011	456.10603140000626	458.6347549000059	2.5234177999952863	454.58120559999975	457.6230849999995	461.6678861000112	1.5248258000065107	1.0116699000063818	1.350208299991209	460.6565112000101	0.3856068000022787	459.6438326000066	1	1	113	1	nogo_reward	1	0	1	0	0	1	0	0.0	1.0	1	1.0	0.3856068000022787	1058.8541274000015	1512.4367410000125	1513.4353330000013	1514.9601588000078	1516.477212400001	1517.4888823000074	1518.497960000008	1519.5106386000116	1520.5220135000127	1521.872221800004	2020-11-13 10:25:26.469181	47.3571947049146	0.0	34.3686507598988	34.3686507598988	-12.9885439450158	34.3686507598988	-47.3571947049146	34.3686507598988	0.0	34.3686507598988	-12.9885439450158	0.37565278548360226	34.56513329752798	-5.03651255789856	29.31388998335646	23.163154469109024	-15.22720129068922	29.31388998335646	-0.6103811760385212	24.32591099509761	-10.239222302430372	23.05456668991112	1.2228107355467719	2	correct	1.0
463.0332732000097	8.161635699987528	nogo_reward	1.0	463.05657520001137	464.4040650000102	466.93542910000565	1.3474897999988116	464.05999970001017	465.9206926000045	469.971747200005	0.3440653000000111	1.0147365000011632	1.2464636999939103	468.9689786000092	0.7037050999933854	467.93953790000546	1	1	114	1	nogo_reward	1	0	1	0	0	1	0	1.0	0.0	1	1.0	0.7037050999933854	1058.8541274000015	1521.9107026000129	1522.9141271000117	1523.2581924000117	1524.774820000006	1525.7895565000072	1526.793665300007	1527.8231060000107	1528.8258746000065	1530.0723383000004	2020-11-13 10:25:26.469181	47.5400029921616	0.0	34.4998049174174	34.4998049174174	-13.0401980747443	34.4998049174174	-47.5400029921616	34.4998049174174	0.0	34.4998049174174	-13.0401980747443	0.244498627965001	34.74794158477498	-5.03651255789856	29.445044140875062	23.294308626627625	-15.278855420417718	29.445044140875062	-0.7415353335571224	24.45706515261621	-10.290876432158871	23.18572084742972	1.2228107355467719	2	wrong	1.0
471.23356819999753	8.345090200004051	go_punish	0.4199325999943539	471.2568701999992	472.76830560000985	475.324231600011	1.5114354000106687	472.26810780000255	474.3129934000028	478.3659856000015	0.5001978000072995	1.0112382000081652	1.2359748000017134	477.3567966999983	0.3655544000066584	476.3367054999983	1	1	115	4	go_punish	1	0	-1	1	1	1	0	0.0	1.0	0	0.4199325999943539	0.3655544000066584	1058.8541274000015	1530.1109976000007	1531.122235200004	1531.6224330000114	1533.1671208000043	1534.1783590000125	1535.1908328999998	1536.2109240999998	1537.220113000003	1538.4560878000048	2020-11-13 10:25:26.469181	2.27792528262312	-0.0839875325293332	-3.52993985973803	-0.0847140842988498	-1.25201457711491	-3.52993985973803	-2.27792528262312	-0.0839875325293332	-3.52993985973803	-1.25201457711491	-3.52993985973803	0.0839875325293332	-10.514136124763496	-5.1205000904278934	-8.58470063628037	-11.290210375088627	-3.4906719227883287	-8.58470063628037	-0.9020464289927902	-11.2947543419161	-0.7806182171526013	-11.39807160251701	-2.307129124191258	2	correct	1.0
479.6222584000061	9.567407099995762	nogo_punish	1.0	479.64556040000775	482.4043829000004	484.93869350000773	2.758822499992675	480.65038940000545	483.93089910000003	487.9914393000074	1.7539934999949764	1.0077944000076968	1.2215281999961007	486.9836620999997	0.3119637000054354	485.95738140000344	1	1	116	3	nogo_punish	1	-1	0	0	0	1	0	1.0	0.0	0	1.0	0.3119637000054354	1058.8541274000015	1538.4996878000093	1539.504516800007	1541.258510300002	1542.7850265000015	1543.7928209000092	1544.811508800005	1545.8377895000012	1546.845566700009	1548.067094900005	2020-11-13 10:25:26.469181	4.93494624234189	-4.42073086635219	-0.505377617190719	-0.50559584071997	-5.44032385953261	-0.505377617190719	-4.93494624234189	-0.505377617190719	-4.42073086635219	-0.505377617190719	-5.44032385953261	0.505377617190719	-7.8571151650447275	-9.45724342425075	-5.560138393733059	-11.711092131509746	-7.6789812052060284	-5.560138393733059	-0.48065634433140436	-10.54811738199191	-2.6910022169471812	-11.819461687178396	-3.197920130805418	2	wrong	1.0
489.2294219000032	8.435089399994467	go_reward	0.4579984000010881	489.25272390000487	490.6710827000063	493.2225936000034	1.4183588000014424	490.251205100009	492.2024355000033	496.2880682000107	0.419877599997335	1.020158100000117	1.3997450999886496	495.2748851000074	0.4390134000132093	494.2352847000004	1	1	117	2	go_reward	0	0	1	1	1	1	0	0.0	1.0	0	0.4579984000010881	0.4390134000132093	1058.8541274000015	1548.1068513000064	1549.1053325000105	1549.5252101000078	1551.0565629000048	1552.076721000005	1553.089412100002	1554.129012500009	1555.1421956000122	1556.5419407000009	2020-11-13 10:25:26.469181	7.75630352919175	13.9547025819292	0.0	13.9539201137432	7.75630352919175	0.0	-7.75630352919175	13.9547025819292	0.0	7.75630352919175	0.0	-13.9547025819292	-5.035757878194867	8.91819002403064	-5.05476077654234	2.7484238229534235	5.517646183518331	-5.05476077654234	-14.940736543451322	-2.2864362356094405	2.7493216425854285	2.640618511941522	1.2228107355467719	2	correct	1.0
497.7029708000043	8.526937400005636	go_punish	0.3588321000133874	497.726272800006	499.7183688000082	502.2779682000112	1.9920960000022205	498.73865690000844	501.25469310001085	505.3382700000077	0.9797118999997565	1.023275100000319	0.9149402000039117	504.3234650000088	0.3785059999936493	503.2915923000112	1	1	118	4	go_punish	1	0	-1	1	1	1	0	0.0	1.0	0	0.3588321000133874	0.3785059999936493	1058.8541274000015	1556.5804002000075	1557.59278430001	1558.5724962000097	1560.1088205000124	1561.1320956000127	1562.1457197000127	1563.1775924000103	1564.1923974000092	1565.1073376000131	2020-11-13 10:25:26.469181	2.29575887652003	-0.0552175201163407	-3.52993985973803	-0.055777647924434	-1.234180983218	-3.52993985973803	-2.29575887652003	-0.0552175201163407	-3.52993985973803	-1.234180983218	-3.52993985973803	0.0552175201163407	-10.496302530866586	-5.091730078014901	-8.58470063628037	-11.26127393871421	-3.4728383288914184	-8.58470063628037	-0.9308164414057827	-11.27692074801919	-0.7806182171526013	-11.369301590104017	-2.307129124191258	2	correct	1.0
506.2685974000053	9.030188199991017	go_reward	0.1456487999967066	506.29189940000697	508.78467130000377	511.32257440000853	2.4927718999967965	507.3069861000115	510.30756870000937	514.3640568999983	1.4776851999922656	1.0150056999991648	0.9580306999996537	513.3538550000087	0.5430777000001399	512.3301872000013	1	1	119	2	go_reward	1	1	0	1	1	1	1	1.0	1.0	1	0.1456487999967066	0.5430777000001399	1058.8541274000015	1565.1460268000085	1566.161113500013	1567.6387987000053	1569.1616961000109	1570.17670180001	1571.1843146000028	1572.2079824000102	1573.2181842999998	1574.1762149999995	2020-11-13 10:25:26.469181	3.05415195163529	6.76312505474727	0.0	6.76253433728275	3.05415195163529	0.0	-3.05415195163529	6.76312505474727	0.0	3.05415195163529	0.0	27.98117849063513	-9.737909455751327	1.72661249684871	-5.05476077654234	-4.442961953507027	0.8154946059618715	-5.05476077654234	26.995144529113006	-6.9885878131659	2.7493216425854285	-4.550959015240407	1.2228107355467719	2	correct	1.0
515.3411471	9.025380699997186	go_reward	0.3923374000005424	515.3644491000016	517.7959110000086	520.3380741000003	2.4314619000069797	516.3697513000081	519.3287695000038	523.3595556000075	1.4261597000004258	1.0093045999965398	1.0302741999912541	522.3488369000117	0.6974647000024561	521.335725600002	1	1	120	2	go_reward	1	1	0	1	1	1	0	0.0	1.0	1	0.3923374000005424	0.6974647000024561	1058.8541274000015	1574.218576500003	1575.2238787000097	1576.65003840001	1578.1828969000053	1579.1922015000018	1580.1898530000035	1581.2029643000133	1582.213683000009	1583.2439572000003	2020-11-13 10:25:26.469181	14.0758497415604	23.0866819544573	0.0	23.086232945443	14.0758497415604	0.0	-14.0758497415604	23.0866819544573	0.0	14.0758497415604	0.0	11.6576215909251	1.2837883341737832	18.05016939655874	-5.05476077654234	11.880736654653225	11.837192395886982	-5.05476077654234	10.671587629402977	4.03310997675921	2.7493216425854285	11.772597884469624	1.2228107355467719	2	correct	1.0
