onset	duration	trial_type	response_time	cueOnset	targetOnset	fbOnset	cueRT	firstfixOnset	secondfixOnset	waitOnset	firstfixdur	secondfixdur	waitdur	nback_fbOnset	nback_response_time	nback_targetOnset	block	wm	trial	cue	cond	is_common	outcome_go	outcome_nogo	key_correct	key_pressed	is_correct	key_correct_nback	key_pressed_nback	is_correct_nback	outcome	rt	rt_nback	time_scan	time_onset	time_isi1	time_circle	time_isi2	time_feedback	time_same	time_correct	time_iti	time_done	timestamp_scan	DV	Qgo	Qnogo	SV	Wgo	Wnogo	mDV	Qchosen	Qunchosen	Wchosen	Wunchosen	PE	DVC	QgoC	QnogoC	SVC	WgoC	WnogoC	PEC	WchosenC	WunchosenC	QchosenC	QunchosenC	run	outcome_nback	nback_targetResp
0.0	6.6277789999730885	go_reward	0.2787405999843031	0.02405199990607798	2.199546999996528	4.751525100087747	2.17549500009045	1.0264355998951942	3.7302566999569535	5.752771700033918	1.1731114001013339	1.0212684001307935	0.8990592998452485	n/a	1.0	n/a	1	0	61	4	go_reward	1	1	0	1	1	1	0	n/a	n/a	1	0.2787405999843031	1.0	821.5159505000338	821.5400024999399	822.542386099929	823.7154975000303	825.2462071999907	826.2674756001215	n/a	n/a	827.2687222000677	828.167781499913	2020-01-03 17:44:12.936172	42.6797290089149	31.0014496147866	0.0	31.0014496147866	42.6797290089149	0.0	-42.6797290089149	31.0014496147866	0.0	42.6797290089149	0.0	1.8261537016386953	30.27158772094878	26.133234846071513	1.7696272954136032	25.06424949576711	33.92053337040995	1.7696272954136032	1.2750250937980376	32.98087419338617	2.7092864724373884	24.844844194868216	3.058017946616901	2	missed	0.0
6.664585000136867	5.9507683999836445	nogo_reward	0.6796436998993158	6.688637000042945	8.13873349991627	10.665873900055885	1.4500964998733252	7.701879899948835	9.654371599899605	11.676506799878553	0.436853599967435	1.0115023001562804	0.9628986001480371	n/a	1.0	n/a	1	0	62	3	nogo_reward	0	1	0	0	1	0	0	n/a	n/a	1	0.6796436998993158	1.0	821.5159505000338	828.2045875000767	829.2178303999826	829.6546839999501	831.1703220999334	832.1818244000897	n/a	n/a	833.1924572999123	834.1553559000604	2020-01-03 17:44:12.936172	3.73593776863768	1.60028896991387	0.0	1.60028896991387	3.73593776863768	0.0	-3.73593776863768	1.60028896991387	0.0	3.73593776863768	0.0	31.227314346511427	-8.672203519328438	-3.267925798801219	1.7696272954136032	-4.33691114910562	-5.023257869867267	1.7696272954136032	30.67618573867077	-5.962917046891048	2.7092864724373884	-4.556316450004514	3.058017946616901	2	missed	0.0
12.651157200103626	7.61727249994874	go_punish	0.3003350000362843	12.675209200009704	15.400062900036573	17.948694699909538	2.7248537000268698	13.689231300028041	16.93191959988326	18.94950579991564	1.7108316000085324	1.0167751000262797	1.342975900042802	n/a	1.0	n/a	1	0	63	2	go_punish	0	-1	0	1	1	1	0	n/a	n/a	-1	0.3003350000362843	1.0	821.5159505000338	834.1911597000435	835.2051818000618	836.9160134000704	838.447870099917	839.4646451999433	n/a	n/a	840.4654562999494	841.8084321999922	2020-01-03 17:44:12.936172	9.0678631256111	-0.0584249976135046	-7.80058159693963	-0.962884375836851	1.26728152867147	-7.80058159693963	-9.0678631256111	-0.0584249976135046	-7.80058159693963	1.26728152867147	-7.80058159693963	-8.624334981084404	-3.340278162355018	-4.926639766328593	-6.030954301526027	-6.900084494856341	-7.491914109833477	-6.030954301526027	-9.175463588925062	-8.431573286857258	-5.091295124502242	-6.215030417531889	-4.7425636503227295	2	missed	0.0
20.30218750005588	6.217249799985439	go_punish	0.6641142000444233	20.326239499961957	21.674255900084972	24.215910400031134	1.348016400123015	21.330541000002995	23.194823399884626	25.22301930002868	0.34371490008197725	1.0210870001465082	1.3204699999187142	n/a	1.0	n/a	1	0	64	2	go_punish	1	0	-1	1	1	1	0	n/a	n/a	0	0.6641142000444233	1.0	821.5159505000338	841.8421899999958	842.8464915000368	843.1902064001188	844.7107738999184	845.7318609000649	n/a	n/a	846.7389698000625	848.0594397999812	2020-01-03 17:44:12.936172	2.86997817255932	-4.90760921761899	-7.80058159693963	-5.33634089341746	-4.93060342438031	-7.80058159693963	-2.86997817255932	-4.90760921761899	-7.80058159693963	-4.93060342438031	-7.80058159693963	4.90760921761899	-9.538163115406798	-9.775823986334078	-6.030954301526027	-11.27354101243695	-13.689799062885257	-6.030954301526027	4.356480609778332	-14.629458239909038	-5.091295124502242	-11.064214637537376	-4.7425636503227295	2	missed	0.0
26.555120800156146	7.229465699987486	nogo_punish	0.3136189000215381	26.579172800062224	29.416766399983317	31.961432399926707	2.8375935999210924	27.588572700042278	30.93764690007083	32.97067419998348	1.828193699941039	1.023785499855876	0.8379643000662327	n/a	1.0	n/a	1	0	65	1	nogo_punish	1	-1	0	0	1	0	0	n/a	n/a	-1	0.3136189000215381	1.0	821.5159505000338	848.095123300096	849.1045232000761	850.9327169000171	852.4535974001046	853.4773828999605	n/a	n/a	854.4866247000173	855.3245890000835	2020-01-03 17:44:12.936172	0.133945966798193	-4.87531483244508	-4.90000263608829	-4.90038958211961	-4.7660566692901	-4.90000263608829	-0.133945966798193	-4.87531483244508	-4.90000263608829	-4.7660566692901	-4.90000263608829	-3.807445146252829	-12.274195321167925	-9.74352960116017	-3.130375340674687	-10.8375897011391	-13.525252307795046	-3.130375340674687	-4.358573754093487	-14.464911484818828	-2.190716163650902	-11.031920252363465	-1.8419846894713894	2	missed	0.0
33.82082450017333	7.089738899841905	nogo_reward	0.258384000044316	33.84487650007941	36.19902510009706	38.73679709993303	2.354148600017652	34.8496985998936	37.71351390006021	39.74645440001041	1.3493265002034605	1.0232831998728216	1.188160999910906	n/a	1.0	n/a	1	0	66	3	nogo_reward	0	1	0	0	1	0	0	n/a	n/a	1	0.258384000044316	1.0	821.5159505000338	855.3608270001132	856.3656490999274	857.7149756001309	859.229464400094	860.2527475999668	n/a	n/a	861.2624049000442	862.4505658999551	2020-01-03 17:44:12.936172	27.2653606754698	19.3588531171663	0.0	19.3588531171663	27.2653606754698	0.0	-27.2653606754698	19.3588531171663	0.0	27.2653606754698	0.0	13.468750199258995	14.857219387503683	14.490638348451213	1.7696272954136032	13.421652998146811	18.506165036964852	1.7696272954136032	12.917621591418337	17.566505859941074	2.7092864724373884	13.202247697247916	3.058017946616901	2	missed	0.0
40.946244300110266	6.561064800014719	nogo_reward	0.3088662000373006	40.970296300016344	43.0316025998909	45.55991739989258	2.061306299874559	41.98458579997532	44.55604510009289	46.571734899887815	1.047016799915582	1.0038722997996956	0.9596262001432478	n/a	1.0	n/a	1	0	67	3	nogo_reward	1	0	1	0	1	0	0	n/a	n/a	0	0.3088662000373006	1.0	821.5159505000338	862.4862468000501	863.5005363000091	864.5475530999247	866.0719956001267	867.0758678999264	n/a	n/a	868.0876853999216	869.0473116000649	2020-01-03 17:44:12.936172	36.8897838423159	26.6254257949045	0.0	26.6254257949045	36.8897838423159	0.0	-36.8897838423159	26.6254257949045	0.0	36.8897838423159	0.0	-26.6254257949045	24.481642554349783	21.757211026189413	1.7696272954136032	20.68822567588501	28.13058820381095	1.7696272954136032	-27.176554402745158	27.190929026787174	2.7092864724373884	20.468820374986116	3.058017946616901	2	missed	0.0
47.54669690015726	6.321675699902698	go_punish	0.3922906001098454	47.570748900063336	49.136014099931344	51.67216459987685	1.5652651998680085	48.581264100037515	50.670522100059316	52.68665689998306	0.5547499998938292	1.0016424998175353	1.205767699982971	n/a	1.0	n/a	1	0	68	2	go_punish	1	0	-1	1	1	1	0	n/a	n/a	0	0.3922906001098454	1.0	821.5159505000338	869.0866994000971	870.0972146000713	870.6519645999651	872.1864726000931	873.1881150999106	n/a	n/a	874.2026074000169	875.4083750999998	2020-01-03 17:44:12.936172	6.68670022264854	-2.04204079348498	-7.80058159693963	-2.25556770756472	-1.11388137429109	-7.80058159693963	-6.68670022264854	-2.04204079348498	-7.80058159693963	-1.11388137429109	-7.80058159693963	2.04204079348498	-5.721441065317578	-6.910255562200069	-6.030954301526027	-8.192767826584209	-9.873077012796037	-6.030954301526027	1.4909121856443224	-10.812736189819818	-5.091295124502242	-8.198646213403364	-4.7425636503227295	2	missed	0.0
53.90199550008401	7.268423700006679	go_reward	0.4617069000378251	53.92604749999009	56.385749199893326	58.93457129993476	2.459701699903235	54.91766000003554	57.91695089987479	59.944095300044864	1.4680891998577863	1.0176204000599682	1.250375899951905	n/a	1.0	n/a	1	0	69	4	go_reward	1	1	0	1	1	1	0	n/a	n/a	1	0.4617069000378251	1.0	821.5159505000338	875.4419980000239	876.4336105000693	877.9016996999271	879.4329013999086	880.4505217999686	n/a	n/a	881.4600458000787	882.7104217000306	2020-01-03 17:44:12.936172	43.8912331906578	31.9169442958765	0.0	31.9169442958765	43.8912331906578	0.0	-43.8912331906578	31.9169442958765	0.0	43.8912331906578	0.0	0.9106590205487954	31.483091902691683	27.048729527161413	1.7696272954136032	25.97974417685701	35.13203755215285	1.7696272954136032	0.3595304127081377	34.192378375129074	2.7092864724373884	25.760338875958116	3.058017946616901	2	missed	0.0
61.20370459998958	6.518563800025731	go_reward	0.3605192000977695	61.227756599895656	63.26985440007411	65.78985480009578	2.0420978001784533	62.222973600029945	64.78945249994285	66.79928030003794	1.046880800044164	1.0004023001529276	0.9470400998834521	n/a	1.0	n/a	1	0	70	4	go_reward	1	1	0	1	1	1	0	n/a	n/a	1	0.3605192000977695	1.0	821.5159505000338	882.7437070999295	883.7389241000637	884.7858049001079	886.3054029999766	887.3058053001296	n/a	n/a	888.3152308000717	889.2622708999552	2020-01-03 17:44:12.936172	44.4703315006475	32.3548254287479	0.0	32.3548254287479	44.4703315006475	0.0	-44.4703315006475	32.3548254287479	0.0	44.4703315006475	0.0	0.47277788767739537	32.06219021268138	27.486610660032813	1.7696272954136032	26.41762530972841	35.71113586214255	1.7696272954136032	-0.07835072016326239	34.77147668511877	2.7092864724373884	26.198220008829516	3.058017946616901	2	missed	0.0
67.76407490018755	6.233698599971831	nogo_reward	0.4241138999350369	67.78812690009363	69.56638669990934	72.10920759988949	1.7782597998157144	68.7964542999398	71.08931529987603	73.12262680009007	0.769932399969548	1.0198923000134528	0.8991986999753863	n/a	1.0	n/a	1	0	71	3	nogo_reward	1	0	1	0	1	0	0	n/a	n/a	0	0.4241138999350369	1.0	821.5159505000338	889.3040774001274	890.3124047999736	891.0823371999431	892.6052657999098	893.6251580999233	n/a	n/a	894.6385773001239	895.5377760000993	2020-01-03 17:44:12.936172	16.5048220141419	11.2421533459205	0.0	11.2421533459205	16.5048220141419	0.0	-16.5048220141419	11.2421533459205	0.0	16.5048220141419	0.0	-11.2421533459205	4.096680726175784	6.3739385772054105	1.7696272954136032	5.304953226901009	7.745626375636954	1.7696272954136032	-11.793281953761158	6.805967198613173	2.7092864724373884	5.085547926002115	3.058017946616901	2	missed	0.0
74.0336262001656	7.256882899906486	nogo_reward	0.4681226999964565	74.05767820007168	76.63027470000088	79.17645539995283	2.5725964999292046	75.06108750007115	78.16240749997087	80.18944219988782	1.569187199929729	1.0140478999819607	1.1251189000903423	n/a	1.0	n/a	1	0	72	3	nogo_reward	1	0	1	0	1	0	0	n/a	n/a	0	0.4681226999964565	1.0	821.5159505000338	895.5736287001055	896.577038000105	898.1462252000347	899.6783580000047	900.6924058999866	n/a	n/a	901.7053926999216	902.830511600012	2020-01-03 17:44:12.936172	8.33326160090812	5.07373926386722	0.0	5.07373926386722	8.33326160090812	0.0	-8.33326160090812	5.07373926386722	0.0	8.33326160090812	0.0	-5.07373926386722	-4.074879687057997	0.20552449515213134	1.7696272954136032	-0.8634608551522698	-0.4259340375968268	1.7696272954136032	-5.624867871707878	-1.365593214620608	2.7092864724373884	-1.082866156051164	3.058017946616901	2	missed	0.0
81.32785170013096	7.224839200032761	nogo_reward	0.4889020998962223	81.35190370003704	83.84841790003702	86.35578830004658	2.4965141999999787	82.36437120009225	85.35947949998081	87.36576689989306	1.48404669994477	0.9963088000657763	1.2109760001767427	n/a	1.0	n/a	1	0	73	3	nogo_reward	1	0	1	0	1	0	1	n/a	n/a	0	0.4889020998962223	1.0	821.5159505000338	902.8678542000708	903.880321700126	905.3643684000708	906.8754300000146	907.8717388000804	n/a	n/a	908.8817173999269	910.0926934001036	2020-01-03 17:44:12.936172	4.81764828993293	2.41863329921103	0.0	2.41863329921103	4.81764828993293	0.0	-4.81764828993293	2.41863329921103	0.0	4.81764828993293	0.0	-2.41863329921103	-7.590492998033187	-2.449581469504059	1.7696272954136032	-3.51856681980846	-3.9415473485720165	1.7696272954136032	-2.9697619070516876	-4.881206525595798	2.7092864724373884	-3.7379721207073544	3.058017946616901	2	missed	0.0
88.59153460012749	6.387810799991826	go_punish	0.3148054999765008	88.61558660003357	90.63262040005066	93.18353060004301	2.0170338000170887	89.62673650006764	92.16363830002956	94.19662049994804	1.0058838999830186	1.0198923000134528	0.8067769000773524	n/a	1.0	n/a	1	0	74	2	go_punish	1	0	-1	1	1	1	0	n/a	n/a	0	0.3148054999765008	1.0	821.5159505000338	910.1315371000674	911.1426870001014	912.1485709000845	913.6795888000634	914.6994811000768	n/a	n/a	915.7125709999818	916.5193479000592	2020-01-03 17:44:12.936172	8.19579249782864	-0.912244882956934	-7.80058159693963	-1.02317269345159	0.395210900889019	-7.80058159693963	-8.19579249782864	-0.912244882956934	-7.80058159693963	0.395210900889019	-7.80058159693963	0.912244882956934	-4.212348790137478	-5.780459651672023	-6.030954301526027	-6.96037281247108	-8.363984737615928	-6.030954301526027	0.3611162751162762	-9.303643914639709	-5.091295124502242	-7.068850302875318	-4.7425636503227295	2	missed	0.0
95.01282329997048	6.94462880003266	go_punish	0.4272243999876082	95.03687529987656	96.9662621000316	99.49093799991545	1.9293868001550436	96.04469099990104	98.48161999997683	100.49329099990416	0.9215711001305635	1.0093179999386166	1.488213100005055	n/a	1.0	n/a	1	0	75	2	go_punish	1	0	-1	1	1	1	0	n/a	n/a	0	0.4272243999876082	1.0	821.5159505000338	916.5528257999104	917.5606414999348	918.4822126000654	919.9975705000106	921.0068884999492	n/a	n/a	922.009241499938	923.497454599943	2020-01-03 17:44:12.936172	8.83885022611985	-0.432007149025012	-7.80058159693963	-0.49176846724577	1.03826862918022	-7.80058159693963	-8.83885022611985	-0.432007149025012	-7.80058159693963	1.03826862918022	-7.80058159693963	0.432007149025012	-3.5692910618462665	-5.300221917740101	-6.030954301526027	-6.42896858626526	-7.720927009324727	-6.030954301526027	-0.11912145881564573	-8.660586186348509	-5.091295124502242	-6.588612568943397	-4.7425636503227295	2	missed	0.0
101.99206800013769	7.495543699944392	go_punish	0.7342260999139398	102.01612000004377	104.46827020007186	107.03068499988876	2.452150200028086	103.02118889987457	106.00683670002036	108.03304899996135	1.4470813001972829	1.0238482998684049	1.4786147000268102	n/a	1.0	n/a	1	0	76	2	go_punish	0	-1	0	1	1	1	1	n/a	n/a	-1	0.7342260999139398	1.0	821.5159505000338	923.5320705000776	924.5371393999084	925.9842207001057	927.5227872000542	928.5466354999226	n/a	n/a	929.5489994999951	931.027614200022	2020-01-03 17:44:12.936172	9.13026265297635	-0.214855521607192	-7.80058159693963	-0.248083241691749	1.32968105603672	-7.80058159693963	-9.13026265297635	-0.214855521607192	-7.80058159693963	1.32968105603672	-7.80058159693963	-8.467904457090718	-3.277878634989767	-5.083070290322281	-6.030954301526027	-6.185283360711239	-7.429514582468227	-6.030954301526027	-9.019033064931376	-8.369173759492007	-5.091295124502242	-6.3714609415255765	-4.7425636503227295	2	missed	0.0
109.52785519999452	6.336872300133223	nogo_reward	0.2968478999100625	109.5519071999006	111.36460689990781	113.91643920005299	1.8126997000072151	110.55198309989657	112.89538490003895	114.91916189994663	0.812623800011238	1.0210543000140433	0.9696176000871901	n/a	1.0	n/a	1	0	77	3	nogo_reward	1	0	1	0	1	0	0	n/a	n/a	0	0.2968478999100625	1.0	821.5159505000338	931.0678576999344	932.0679335999304	932.8805573999416	934.4113354000727	935.4323897000868	n/a	n/a	936.4351123999804	937.4047300000676	2020-01-03 17:44:12.936172	3.2145406964146	1.20721061753007	0.0	1.20721061753007	3.2145406964146	0.0	-3.2145406964146	1.20721061753007	0.0	3.2145406964146	0.0	-1.20721061753007	-9.193600591551517	-3.661004151185019	1.7696272954136032	-4.72998950148942	-5.544654942090347	1.7696272954136032	-1.7583392253707277	-6.484314119114128	2.7092864724373884	-4.949394802388314	3.058017946616901	2	missed	0.0
115.90006020013254	6.7674314000175855	go_punish	0.6416188001167029	115.92411220003862	117.91877379990183	120.46455390006304	1.994661599863207	116.93477960000746	119.45516590005718	121.47875909996219	0.9839941998943686	1.0093880000058562	1.212784500094017	n/a	1.0	n/a	1	0	78	2	go_punish	1	0	-1	1	1	1	1	n/a	n/a	0	0.6416188001167029	1.0	821.5159505000338	937.4400627000724	938.4507301000413	939.4347242999356	940.971116400091	941.9805044000968	n/a	n/a	942.994709599996	944.20749410009	2020-01-03 17:44:12.936172	2.89150817369403	-4.9867339314074	-7.80058159693963	-5.00572369219634	-4.9090734232456	-7.80058159693963	-2.89150817369403	-4.9867339314074	-7.80058159693963	-4.9090734232456	-7.80058159693963	4.9867339314074	-9.516633114272087	-9.854948700122488	-6.030954301526027	-10.942923811215831	-13.668269061750546	-6.030954301526027	4.435605323566742	-14.607928238774328	-5.091295124502242	-11.143339351325785	-4.7425636503227295	2	missed	0.0
122.70007510017615	7.7564511999951264	go_reward	0.4943715999834239	122.72412710008223	125.45608939998783	128.0118195998948	2.7319622999056037	123.72585120005544	126.98801349988219	129.01163959992118	1.730238199932387	1.0238061000126208	1.4689387001561727	n/a	1.0	n/a	1	0	79	4	go_reward	1	1	0	1	1	1	0	n/a	n/a	1	0.4943715999834239	1.0	821.5159505000338	944.240077600116	945.2418017000892	946.9720399000216	948.503963999916	949.5277700999286	n/a	n/a	950.527590099955	951.9965288001112	2020-01-03 17:44:12.936172	44.7593462927519	32.5735015871757	0.0	32.5735015871757	44.7593462927519	0.0	-44.7593462927519	32.5735015871757	0.0	44.7593462927519	0.0	0.25410172924959795	32.35120500478578	27.70528681846061	1.7696272954136032	26.63630146815621	36.00015065424695	1.7696272954136032	-0.2970268785910598	35.060491477223174	2.7092864724373884	26.416896167257313	3.058017946616901	2	missed	0.0
130.49812700017355	6.394445699872563	nogo_reward	0.8216605999041349	130.52217900007963	132.00585970003158	134.557752700057	1.4836806999519467	131.53154870006256	133.53777380008262	135.5618272998836	0.4743109999690205	1.019978899974376	1.3547974000686054	n/a	1.0	n/a	1	0	80	3	nogo_reward	0	1	0	0	1	0	0	n/a	n/a	1	0.8216605999041349	1.0	821.5159505000338	952.0381295001134	953.0474992000964	953.5218102000654	955.0537243001164	956.0737032000908	n/a	n/a	957.0777777999174	958.432575199986	2020-01-03 17:44:12.936172	2.44679835243126	0.62669144477296	0.0	0.62669144477296	2.44679835243126	0.0	-2.44679835243126	0.62669144477296	0.0	2.44679835243126	0.0	32.20091187165234	-9.961342935534857	-4.241523323942129	1.7696272954136032	-5.31050867424653	-6.312397286073686	1.7696272954136032	31.64978326381168	-7.2520564630974675	2.7092864724373884	-5.5299139751454245	3.058017946616901	2	missed	0.0
136.92607410019252	6.578997699776778	nogo_punish	1.0	136.9501261000986	138.51315769995563	141.03762590000417	1.5630315998570268	137.95094230002724	140.02051539998502	142.05065750004724	0.562215399928391	1.0171105000191574	1.478466299828142	n/a	1.0	n/a	1	0	81	1	nogo_punish	1	-1	0	0	0	1	0	n/a	n/a	0	1.0	1.0	821.5159505000338	958.4660766001324	959.466892800061	960.0291081999894	961.5364659000188	962.553576400038	n/a	n/a	963.566608000081	965.0450742999092	2020-01-03 17:44:12.936172	2.5079298331084	-6.89901051822405	-4.90000263608829	-6.9137769490128	-7.40793246919669	-4.90000263608829	-2.5079298331084	-4.90000263608829	-6.89901051822405	-4.90000263608829	-7.40793246919669	4.90000263608829	-9.900211454857718	-11.767225286939139	-3.130375340674687	-12.85097706803229	-16.167128107701636	-3.130375340674687	4.348874028247632	-14.598857451617018	-4.698645996759302	-11.056608056006674	-3.840992571607149	2	missed	0.0
143.53909269999713	6.915797100169584	go_reward	0.4602453000843525	143.5631446999032	145.905257999897	148.46036039991304	2.342113299993798	144.57903599995177	147.43676689988945	149.47991829994146	1.3262219999452327	1.023593500023594	0.9990235001313295	n/a	1.0	n/a	1	0	82	4	go_reward	1	1	0	1	1	1	0	n/a	n/a	1	0.4602453000843525	1.0	821.5159505000338	965.079095199937	966.0949864999856	967.4212084999308	968.9527173999232	969.9763108999468	n/a	n/a	970.9958687999753	971.9948923001066	2020-01-03 17:44:12.936172	44.9090734553464	32.6868609502048	0.0	32.6868609502048	44.9090734553464	0.0	-44.9090734553464	32.6868609502048	0.0	44.9090734553464	0.0	0.1407423662204934	32.500932167380284	27.818646181489715	1.7696272954136032	26.749660831185313	36.14987781684145	1.7696272954136032	-0.41038624162016435	35.210218639817676	2.7092864724373884	26.530255530286418	3.058017946616901	2	missed	0.0
150.4904626000207	6.625966100022197	nogo_punish	1.0	150.51451459992677	152.19497569999658	154.72969800001022	1.680461100069806	151.52314760000445	153.70996230002504	155.74004999990575	0.6718280999921262	1.0197356999851763	1.4004307000432163	n/a	1.0	n/a	1	0	83	1	nogo_punish	1	-1	0	0	0	1	1	n/a	n/a	0	1.0	1.0	821.5159505000338	972.0304650999606	973.0390981000382	973.7109262000304	975.2259128000588	976.245648500044	n/a	n/a	977.2560004999395	978.6564311999828	2020-01-03 17:44:12.936172	4.14081519012326	-6.89901051822405	-2.03820930985684	-2.93413932277222	-6.1790244999801	-2.03820930985684	-4.14081519012326	-2.03820930985684	-6.89901051822405	-2.03820930985684	-6.1790244999801	2.03820930985684	-8.267326097842858	-11.767225286939139	-0.2685820144432367	-8.87133944179171	-14.938220138485047	-0.2685820144432367	1.4870807020161823	-11.737064125385569	-3.4697380275427117	-8.194814729775224	-3.840992571607149	2	missed	0.0
157.14922610018414	5.875890499911975	go_reward	0.6534692000132054	157.17327810009022	158.71684319991618	161.26427250006236	1.543565099825969	158.17030879994866	160.25057679996826	162.27349100005824	0.546534399967527	1.0136957000941038	0.7756775999439469	n/a	1.0	n/a	1	0	84	4	go_reward	1	1	0	1	1	1	1	n/a	n/a	1	0.6534692000132054	1.0	821.5159505000338	978.689228600124	979.6862592999825	980.23279369995	981.766527300002	982.7802230000962	n/a	n/a	983.789441500092	984.565119100036	2020-01-03 17:44:12.936172	44.9892100739709	32.747570695847	0.0	32.747570695847	44.9892100739709	0.0	-44.9892100739709	32.747570695847	0.0	44.9892100739709	0.0	0.08003262057829374	32.581068786004785	27.879355927131915	1.7696272954136032	26.810370576827513	36.230014435465954	1.7696272954136032	-0.471095987262364	35.290355258442176	2.7092864724373884	26.590965275928617	3.058017946616901	2	missed	0.0
163.05651310016412	7.508558499859646	nogo_punish	1.0	163.0805651000702	166.06337550003082	168.58138919994224	2.982810399960613	164.0979063999838	167.575864699902	169.58718320005585	1.9654691000470166	1.0055245000402238	1.0019403998740017	n/a	1.0	n/a	1	0	85	1	nogo_punish	1	-1	0	0	0	1	1	n/a	n/a	0	1.0	1.0	821.5159505000338	984.596515600104	985.6138569000176	987.5793260000646	989.0918151999358	990.097339699976	n/a	n/a	991.1031337000896	992.1050740999636	2020-01-03 17:44:12.936172	4.77575146340901	-6.89901051822405	-0.910277015446557	-1.33266201048545	-5.68602847885557	-0.910277015446557	-4.77575146340901	-0.910277015446557	-6.89901051822405	-0.910277015446557	-5.68602847885557	0.910277015446557	-7.632389824557107	-11.767225286939139	0.8593502799670462	-7.26986212950494	-14.445224117360517	0.8593502799670462	0.3591484076058993	-10.609131830975285	-2.9767420064181813	-7.066882435364941	-3.840992571607149	2	missed	0.0
170.59936029999517	7.352346600033343	nogo_punish	1.0	170.62341229990125	173.04569659987465	175.57696349988703	2.4222842999733984	171.62468970008183	174.56165340007283	176.591316099977	1.4210068997928147	1.0153100998142008	1.3844427999575828	n/a	1.0	n/a	1	0	86	1	nogo_punish	1	-1	0	0	0	1	0	n/a	n/a	0	1.0	1.0	821.5159505000338	992.139362799935	993.1406402001156	994.5616470999084	996.0776039001066	997.0929139999208	n/a	n/a	998.1072666000108	999.4917093999684	2020-01-03 17:44:12.936172	5.04277000358134	-6.89901051822405	-0.430980228838478	-0.640051450049087	-5.47375023241982	-0.430980228838478	-5.04277000358134	-0.430980228838478	-6.89901051822405	-0.430980228838478	-5.47375023241982	0.430980228838478	-7.365371284384778	-11.767225286939139	1.3386470665751253	-6.5772515690685776	-14.232945870924766	1.3386470665751253	-0.12014837900217978	-10.129835044367207	-2.7644637599824318	-6.587585648756862	-3.840992571607149	2	missed	0.0
177.99137450009573	6.7216219999827445	nogo_reward	0.3434715999756008	178.0154265000018	179.7999519999138	182.33244920009736	1.7845254999119788	179.01898470008746	181.32185860001482	183.34601669991378	0.7809672998263295	1.010590600082537	1.3910318000707775	n/a	1.0	n/a	1	0	87	3	nogo_reward	1	0	1	0	1	0	0	n/a	n/a	0	0.3434715999756008	1.0	821.5159505000338	999.5313770000356	1000.5349352001213	1001.3159024999476	1002.8378091000486	1003.8483997001312	n/a	n/a	1004.8619671999476	1006.2529990000183	2020-01-03 17:44:12.936172	26.6694109152769	18.9085452147259	0.0	18.9085452147259	26.6694109152769	0.0	-26.6694109152769	18.9085452147259	0.0	26.6694109152769	0.0	-18.9085452147259	14.261269627310782	14.040330446010813	1.7696272954136032	12.971345095706411	17.91021527677195	1.7696272954136032	-19.459673822566558	16.970556099748173	2.7092864724373884	12.751939794807516	3.058017946616901	2	missed	0.0
184.74909280007694	7.611504100030402	go_punish	0.3350303000770509	184.77314479998302	187.55437009991135	190.08967599994503	2.7812252999283373	185.7894105000886	189.069596499903	191.09321879991342	1.7649595998227596	1.0200795000420158	1.2914301001000013	n/a	1.0	n/a	1	0	88	2	go_punish	1	0	-1	1	1	1	0	n/a	n/a	0	0.3350303000770509	1.0	821.5159505000338	1006.2890953000168	1007.3053610001224	1009.0703205999451	1010.5855469999368	1011.6056264999788	n/a	n/a	1012.6091692999472	1013.9005994000472	2020-01-03 17:44:12.936172	6.69381889928672	-2.08359663930664	-7.80058159693963	-2.09471337162772	-1.10676269765291	-7.80058159693963	-6.69381889928672	-2.08359663930664	-7.80058159693963	-1.10676269765291	-7.80058159693963	2.08359663930664	-5.714322388679397	-6.9518114080217295	-6.030954301526027	-8.03191349064721	-9.865958336157856	-6.030954301526027	1.5324680314659824	-10.805617513181637	-5.091295124502242	-8.240202059225025	-4.7425636503227295	2	missed	0.0
192.40333510003973	6.655271100113168	nogo_reward	0.793691199971363	192.4273870999458	194.27872449997824	196.83339569997042	1.8513374000324347	193.43433479988016	195.8132885999512	197.8465452999808	0.8443897000980769	1.0201071000192314	1.236112900078183	n/a	1.0	n/a	1	0	89	3	nogo_reward	1	0	1	0	1	0	1	n/a	n/a	0	0.793691199971363	1.0	821.5159505000338	1013.9433375999796	1014.950285299914	1015.794675000012	1017.329239099985	1018.3493462000042	n/a	n/a	1019.3624958000146	1020.5986087000928	2020-01-03 17:44:12.936172	11.9967780644477	7.83651956003418	0.0	7.83651956003418	11.9967780644477	0.0	-11.9967780644477	7.83651956003418	0.0	11.9967780644477	0.0	-7.83651956003418	-0.4113632235184177	2.968304791319091	1.7696272954136032	1.8993194410146899	3.237582425942753	1.7696272954136032	-8.387648167874838	2.2979232489189716	2.7092864724373884	1.6799141401157955	3.058017946616901	2	missed	0.0
199.09170180000376	6.426186900120115	nogo_punish	1.0	199.11575379990984	200.8956247998866	203.4228242000097	1.7798709999767652	200.11826659995143	202.40329420007765	204.43149710004218	0.7773581999351791	1.0195299999320468	1.110443599987775	n/a	1.0	n/a	1	0	90	1	nogo_punish	1	-1	0	0	0	1	0	n/a	n/a	0	1.0	1.0	821.5159505000338	1020.6317042999436	1021.6342170999852	1022.4115752999204	1023.9192447001114	1024.9387747000435	n/a	n/a	1025.947447600076	1027.0578912000638	2020-01-03 17:44:12.936172	5.1625298822153	-6.89901051822405	-0.214312900603683	-0.32219543082924	-5.37684278281898	-0.214312900603683	-5.1625298822153	-0.214312900603683	-6.89901051822405	-0.214312900603683	-5.37684278281898	0.214312900603683	-7.245611405750817	-11.767225286939139	1.5553143948099202	-6.25939554984873	-14.136038421323928	1.5553143948099202	-0.33681570723697474	-9.913167716132412	-2.667556310381592	-6.370918320522067	-3.840992571607149	2	missed	0.0
205.55005119997077	7.699257800122723	nogo_punish	1.0	205.57410319987684	208.34684369992465	210.86384409992024	2.772740500047803	206.58205630001612	209.8541067999322	211.87292389990762	1.7647873999085277	1.0097372999880463	1.400437100091949	n/a	1.0	n/a	1	0	91	1	nogo_punish	0	0	-1	0	0	1	0	n/a	n/a	-1	1.0	1.0	821.5159505000338	1027.0900536999106	1028.09800680005	1029.8627941999584	1031.370057299966	1032.379794599954	n/a	n/a	1033.3888743999414	1034.7893115000334	2020-01-03 17:44:12.936172	5.21922788876192	-6.89901051822405	-0.111129794006045	-0.168835626901641	-5.33035768276796	-0.111129794006045	-5.21922788876192	-0.111129794006045	-6.89901051822405	-0.111129794006045	-5.33035768276796	-8.571630184691864	-7.188913399204197	-11.767225286939139	1.6584975014075583	-6.106035745921131	-14.089553321272906	1.6584975014075583	-9.122758792532522	-9.809984609534773	-2.6210712103305713	-6.267735213924429	-3.840992571607149	2	missed	0.0
213.2912104001732	6.474138299935021	nogo_reward	0.3695282998960465	213.3152624000793	214.9839107999578	217.53215069998987	1.6686483998785206	214.32326669991016	216.5220562000759	218.5452660000883	0.660644100047648	1.0100944999139756	1.2441346999260077	n/a	1.0	n/a	1	0	92	3	nogo_reward	1	0	1	0	1	0	0	n/a	n/a	0	0.3695282998960465	1.0	821.5159505000338	1034.831212900113	1035.839217199944	1036.4998612999916	1038.0380067001097	1039.0481012000237	n/a	n/a	1040.061216500122	1041.305351200048	2020-01-03 17:44:12.936172	6.22962238353343	3.48355447032445	0.0	3.48355447032445	6.22962238353343	0.0	-6.22962238353343	3.48355447032445	0.0	6.22962238353343	0.0	-3.48355447032445	-6.178518904432687	-1.384660298390639	1.7696272954136032	-2.45364564869504	-2.529573254971517	1.7696272954136032	-4.0346830781651075	-3.469232431995298	2.7092864724373884	-2.6730509495939345	3.058017946616901	2	missed	0.0
219.80158610013314	6.309979300014675	nogo_reward	0.3418066999875009	219.8256381000392	221.79856009990908	224.34958450007252	1.9729219998698682	220.83015659986972	223.32955579995178	225.3537379999177	0.9684035000393578	1.020028700120747	0.7818794001361766	n/a	1.0	n/a	1	0	93	3	nogo_reward	1	0	1	0	1	0	0	n/a	n/a	0	0.3418066999875009	1.0	821.5159505000338	1041.341588600073	1042.3461070999035	1043.3145105999429	1044.8455062999856	1045.8655350001063	n/a	n/a	1046.8696884999515	1047.6515679000877	2020-01-03 17:44:12.936172	3.78846228908625	1.64015376392033	0.0	1.64015376392033	3.78846228908625	0.0	-3.78846228908625	1.64015376392033	0.0	3.78846228908625	0.0	-1.64015376392033	-8.619678998879866	-3.2280610047947587	1.7696272954136032	-4.29704635509916	-4.970733349418697	1.7696272954136032	-2.191282371760988	-5.910392526442478	2.7092864724373884	-4.516451655998054	3.058017946616901	2	missed	0.0
226.14771100017242	6.710323899984587	go_punish	0.3525513999629766	226.1717630000785	228.03694609995	230.59160110005178	1.8651830998715013	227.1855359999463	229.5678043998778	231.60686179995537	0.8514101000037044	1.023796700173989	1.2752251001077184	n/a	1.0	n/a	1	0	94	2	go_punish	0	-1	0	1	1	1	0	n/a	n/a	-1	0.3525513999629766	1.0	821.5159505000338	1047.6877135001123	1048.70148649998	1049.5528965999838	1051.0837548999116	1052.1075516000856	n/a	n/a	1053.1228122999892	1054.3980374000969	2020-01-03 17:44:12.936172	8.19781254792336	-0.934799421928685	-7.80058159693963	-0.941445892492234	0.397230950983738	-7.80058159693963	-8.19781254792336	-0.934799421928685	-7.80058159693963	0.397230950983738	-7.80058159693963	-7.7479605567692245	-4.2103287400427565	-5.803014190643774	-6.030954301526027	-6.878646011511724	-8.361964687521208	-6.030954301526027	-8.299089164609882	-9.30162386454499	-5.091295124502242	-7.091404841847069	-4.7425636503227295	2	missed	0.0
232.89337490010075	5.938003999879584	nogo_punish	1.0	232.91742690000683	234.56079709995538	237.08634579996578	1.6433701999485493	233.91519739991054	236.07703149993904	238.09564090007916	0.6455997000448406	1.0093143000267446	0.7597899998072535	n/a	1.0	n/a	1	0	95	1	nogo_punish	0	0	-1	0	0	1	0	n/a	n/a	-1	1.0	1.0	821.5159505000338	1054.4333774000406	1055.4311478999443	1056.0767475999892	1057.5929819999728	1058.6022962999996	n/a	n/a	1059.611591400113	1060.3713813999202	2020-01-03 17:44:12.936172	1.87454843574066	-6.89901051822405	-4.93506073412911	-4.96690810820273	-6.80960916986977	-4.93506073412911	-1.87454843574066	-4.93506073412911	-6.89901051822405	-4.93506073412911	-6.80960916986977	-3.747699244568799	-10.533592852225457	-11.767225286939139	-3.165433438715507	-10.90410822722222	-15.568804808374717	-3.165433438715507	-4.298827852409457	-14.63391554965784	-4.100322697432381	-11.091666154047495	-3.840992571607149	2	missed	0.0
238.86924640019402	6.169360699830804	nogo_reward	0.2992680000606924	238.8932984001001	240.46728099999018	243.0244066999294	1.573982599890087	239.905820999993	242.00411819992587	244.0323194998782	0.5614599999971688	1.0202885000035167	1.0303396000526845	n/a	1.0	n/a	1	0	96	3	nogo_reward	1	0	1	0	1	0	0	n/a	n/a	0	0.2992680000606924	1.0	821.5159505000338	1060.409248900134	1061.4217715000268	1061.983231500024	1063.5200686999597	1064.5403571999632	n/a	n/a	1065.548269999912	1066.5786095999647	2020-01-03 17:44:12.936172	2.69026296807501	0.810392093161417	0.0	0.810392093161417	2.69026296807501	0.0	-2.69026296807501	0.810392093161417	0.0	2.69026296807501	0.0	-0.810392093161417	-9.717878319891106	-4.0578226755536715	1.7696272954136032	-5.1268080258580735	-6.068932670429937	1.7696272954136032	-1.3615207010020747	-7.008591847453718	2.7092864724373884	-5.346213326756967	3.058017946616901	2	missed	0.0
245.07525400002487	6.449371800059453	go_punish	0.5245109000243247	245.09930599993095	246.9480264999438	249.49166289996356	1.8487205000128597	246.10499379993416	248.4792412999086	250.5022324998863	0.843032700009644	1.0124216000549495	1.0464453001040965	n/a	1.0	n/a	1	0	97	2	go_punish	0	-1	0	1	1	1	0	n/a	n/a	-1	0.5245109000243247	1.0	821.5159505000338	1066.6152564999647	1067.620944299968	1068.4639769999776	1069.9951917999424	1071.0076133999974	n/a	n/a	1072.01818299992	1073.0646283000242	2020-01-03 17:44:12.936172	2.46129401110036	-5.31992237316226	-7.80058159693963	-5.3239705873643	-5.33928758583927	-7.80058159693963	-2.46129401110036	-5.31992237316226	-7.80058159693963	-5.33928758583927	-7.80058159693963	-3.362837605535649	-9.946847276865757	-10.188137141877348	-6.030954301526027	-11.26117070638379	-14.098483224344218	-6.030954301526027	-3.9139662133763067	-15.038142401367999	-5.091295124502242	-11.476527793080646	-4.7425636503227295	2	missed	0.0
251.5636822001543	6.509487099945545	go_punish	0.7806257999036461	251.58773420006037	253.14474150002934	255.70211130008101	1.5570072999689728	252.58954859990627	254.68260119995102	256.7127650000623	0.5551929001230747	1.0195101001299918	1.384456299943622	n/a	1.0	n/a	1	0	98	2	go_punish	0	-1	0	1	1	1	0	n/a	n/a	-1	0.7806257999036461	1.0	821.5159505000338	1073.1036847000942	1074.10549909994	1074.6606920000631	1076.1985516999848	1077.2180618001148	n/a	n/a	1078.228715500096	1079.6131718000397	2020-01-03 17:44:12.936172	0.107259051398934	-7.12108697026742	-7.80058159693963	-7.12359339621887	-7.69332254554069	-7.80058159693963	-0.107259051398934	-7.12108697026742	-7.80058159693963	-7.69332254554069	-7.80058159693963	-1.561673008430489	-12.300882236567183	-11.989301738982508	-6.030954301526027	-13.060793515238359	-16.452518184045637	-6.030954301526027	-2.1128016162711467	-17.392177361069418	-5.091295124502242	-13.277692390185805	-4.7425636503227295	2	missed	0.0
258.1109289000742	7.4948772001080215	nogo_reward	0.2671688999980688	258.1349808999803	260.5683861998841	263.12487519998103	2.433405299903825	259.1469362000935	262.1049220999703	264.1376384999603	1.4214499997906387	1.0199531000107527	1.49221960012801	n/a	1.0	n/a	1	0	99	3	nogo_reward	1	0	1	0	1	0	0	n/a	n/a	0	0.2671688999980688	1.0	821.5159505000338	1079.650931400014	1080.6628867001273	1082.084336699918	1083.620872600004	1084.6408257000148	n/a	n/a	1085.653588999994	1087.145808600122	2020-01-03 17:44:12.936172	2.17023270507202	0.417231193674462	0.0	0.417231193674462	2.17023270507202	0.0	-2.17023270507202	0.417231193674462	0.0	2.17023270507202	0.0	-0.417231193674462	-10.237908582894097	-4.450983575040627	1.7696272954136032	-5.519968925345028	-6.588962933432927	1.7696272954136032	-0.9683598015151198	-7.528622110456708	2.7092864724373884	-5.739374226243922	3.058017946616901	2	missed	0.0
265.64085520012304	6.739476099843159	go_reward	0.4484465999994427	265.6649072000291	267.5031534999141	270.04700469993986	1.838246299884986	266.6693806999831	269.0272244000805	271.0505321000237	0.8337727999310118	1.0197802998593488	1.3538511998485774	n/a	1.0	n/a	1	0	100	4	go_reward	0	0	1	1	1	1	0	n/a	n/a	0	0.4484465999994427	1.0	821.5159505000338	1087.180857700063	1088.185331200017	1089.019103999948	1090.5431749001143	1091.5629551999737	n/a	n/a	1092.5664826000575	1093.920333799906	2020-01-03 17:44:12.936172	45.0333460096441	32.7810274804368	0.0	32.7810274804368	45.0333460096441	0.0	-45.0333460096441	32.7810274804368	0.0	45.0333460096441	0.0	-32.7810274804368	32.62520472167798	27.91281271172171	1.7696272954136032	26.843827361417308	36.27415037113915	1.7696272954136032	-33.33215608827746	35.33449119411537	2.7092864724373884	26.624422060518413	3.058017946616901	2	missed	0.0
272.41735910018906	6.317973400000483	go_punish	1.0	272.44141110009514	273.73572749993764	276.25202260003425	1.2943163998425007	273.4543926999904	275.2417713999748	277.26527419989	0.2813347999472171	1.0102512000594288	1.494110300205648	n/a	1.0	n/a	1	0	101	2	go_punish	0	-1	0	1	0	0	0	n/a	n/a	0	1.0	1.0	821.5159505000338	1093.957361600129	1094.9703432000242	1095.2516779999714	1096.7577219000086	1097.767973100068	n/a	n/a	1098.7812246999238	1100.2753350001294	2020-01-03 17:44:12.936172	0.9306745348525	-7.91623295775624	-7.80058159693963	-7.9178075277952	-8.73125613179213	-7.80058159693963	-0.9306745348525	-7.80058159693963	-7.91623295775624	-7.80058159693963	-8.73125613179213	7.80058159693963	-11.477466753113617	-12.784447726471328	-6.030954301526027	-13.855007646814691	-17.490451770297078	-6.030954301526027	7.249452989098972	-17.49943641246836	-6.021969659354741	-13.957187016858015	-4.858215011139339	2	missed	0.0
278.7665310001464	6.679935599910323	nogo_punish	1.0	278.7905830000525	281.0187584999951	283.5503473998979	2.2281754999426084	279.7939784999471	282.5299893999472	284.56298339995556	1.2247800000479856	1.0203579999506474	0.9075352000072598	n/a	1.0	n/a	1	0	102	1	nogo_punish	1	-1	0	0	0	1	0	n/a	n/a	0	1.0	1.0	821.5159505000338	1100.3065335000863	1101.309928999981	1102.534709000029	1104.045939899981	1105.0662978999317	n/a	n/a	1106.0789338999894	1106.9864690999966	2020-01-03 17:44:12.936172	0.48658923586294	-6.89901051822405	-6.9321556900322	-6.95021943154748	-7.41874492589514	-6.9321556900322	-0.48658923586294	-6.9321556900322	-6.89901051822405	-6.9321556900322	-7.41874492589514	6.9321556900322	-11.921552052103177	-11.767225286939139	-5.162528394618597	-12.887419550566971	-16.17794056440009	-5.162528394618597	6.381027082191542	-16.63101050556093	-4.709458453457752	-13.088761109950585	-3.840992571607149	2	missed	0.0
285.4818484999705	6.25229120021686	go_punish	1.0	285.5059004998766	287.24906409997493	289.7805325998927	1.7431636000983417	286.51503790006973	288.7568963998931	290.7783995999489	0.7340261999052018	1.0236361999996006	0.9797921001445502	n/a	1.0	n/a	1	0	103	2	go_punish	1	0	-1	1	0	0	1	n/a	n/a	-1	1.0	1.0	821.5159505000338	1107.0218509999104	1108.0309884001035	1108.7650146000087	1110.272846899927	1111.2964830999265	n/a	n/a	1112.2943500999827	1113.2741422001272	2020-01-03 17:44:12.936172	3.99082816852344	-7.91623295775624	-3.35093121758236	-3.41436472741307	-7.3417593861058	-3.35093121758236	-3.99082816852344	-3.35093121758236	-7.91623295775624	-3.35093121758236	-7.3417593861058	-5.331828761115549	-8.417313119442678	-12.784447726471328	-1.5813039221687566	-9.35156484643256	-16.100955024610748	-1.5813039221687566	-5.882957368956207	-13.049786033111088	-4.632472913668412	-9.507536637500744	-4.858215011139339	2	missed	0.0
291.76964660012163	6.084488600026816	nogo_punish	1.0	291.7936986000277	293.16738489991985	295.6941613999661	1.3736862998921424	292.8082000000868	294.68286189995706	296.7123334000353	0.35918489983305335	1.011299500009045	1.1658538000192493	n/a	1.0	n/a	1	0	104	1	nogo_punish	1	-1	0	0	0	1	1	n/a	n/a	0	1.0	1.0	821.5159505000338	1113.3096491000615	1114.3241505001206	1114.6833353999536	1116.1988123999909	1117.2101119	n/a	n/a	1118.228283900069	1119.3941377000883	2020-01-03 17:44:12.936172	3.24091183142071	-6.89901051822405	-2.94416543977857	-2.95466011979357	-6.18507727119928	-2.94416543977857	-3.24091183142071	-2.94416543977857	-6.89901051822405	-2.94416543977857	-6.18507727119928	2.94416543977857	-9.167229456545407	-11.767225286939139	-1.1745381443649667	-8.89186023881306	-14.944272909704226	-1.1745381443649667	2.3930368319379123	-12.643020255307299	-3.4757907987618912	-9.100770859696954	-3.840992571607149	2	missed	0.0
297.8875087001361	5.9137185998260975	go_reward	0.4378625000827014	297.9115607000422	299.23869349993765	301.7906865000259	1.3271327998954803	298.91099260002375	300.7813824999612	302.7997319998685	0.32770089991390705	1.0093040000647306	1.0255472999997437	n/a	1.0	n/a	1	0	105	4	go_reward	1	1	0	1	1	1	0	n/a	n/a	1	0.4378625000827014	1.0	821.5159505000338	1119.427511200076	1120.4269431000575	1120.7546439999714	1122.297332999995	1123.3066370000597	n/a	n/a	1124.3156824999023	1125.341229799902	2020-01-03 17:44:12.936172	20.4521994974959	14.2279497843682	0.0	14.2279497843682	20.4521994974959	0.0	-20.4521994974959	14.2279497843682	0.0	20.4521994974959	0.0	18.599653532057097	8.044058209529783	9.359735015653111	1.7696272954136032	8.29074966534871	11.693003858990954	1.7696272954136032	18.04852492421644	10.753344681967173	2.7092864724373884	8.071344364449814	3.058017946616901	2	missed	0.0
303.83485510014	5.950601199874654	go_reward	0.6105804999824613	303.85890710004605	305.3700782000085	307.9309817000758	1.5111710999624393	304.86360629997216	306.90734510007314	308.9403395999691	0.5064719000363311	1.0236366000026464	0.869168699951615	n/a	1.0	n/a	1	0	106	4	go_reward	1	1	0	1	1	1	0	n/a	n/a	1	0.6105804999824613	1.0	821.5159505000338	1125.3748576000798	1126.379556800006	1126.8860287000423	1128.423295600107	1129.4469322001096	n/a	n/a	1130.456290100003	1131.3254587999545	2020-01-03 17:44:12.936172	34.9405876500365	25.1605139012975	0.0	25.1605139012975	34.9405876500365	0.0	-34.9405876500365	25.1605139012975	0.0	34.9405876500365	0.0	7.667089415127798	22.53244636207038	20.29229913258241	1.7696272954136032	19.22331378227801	26.18139201153155	1.7696272954136032	7.11596080728714	25.241732834507772	2.7092864724373884	19.003908481379113	3.058017946616901	2	missed	0.0
309.8277442001272	6.132147300057113	nogo_reward	0.3086524000391364	309.8517962000333	311.2009145000484	313.751812200062	1.3491183000151068	310.85632549994625	312.73188639990985	314.75844340003096	0.34458900010213256	1.019925800152123	1.2255001000594348	n/a	1.0	n/a	1	0	107	3	nogo_reward	1	0	1	0	1	0	0	n/a	n/a	0	0.3086524000391364	1.0	821.5159505000338	1131.367746700067	1132.37227599998	1132.7168650000822	1134.2478368999436	1135.2677627000958	n/a	n/a	1136.2743939000648	1137.4998940001242	2020-01-03 17:44:12.936172	1.91292756878424	0.222576045845133	0.0	0.222576045845133	1.91292756878424	0.0	-1.91292756878424	0.222576045845133	0.0	1.91292756878424	0.0	-0.222576045845133	-10.495213719181876	-4.645638722869956	1.7696272954136032	-5.714624073174357	-6.846268069720707	1.7696272954136032	-0.7737046536857908	-7.785927246744488	2.7092864724373884	-5.934029374073251	3.058017946616901	2	missed	0.0
315.99726860015653	6.24879079987295	nogo_reward	0.4592722998932004	316.0213206000626	317.5263421998825	320.0531448998954	1.5050215998198837	317.0265605999159	319.0417051000986	321.0570731000041	0.4997815999665818	1.0114397997967899	1.2130382999314406	n/a	1.0	n/a	1	0	108	3	nogo_reward	1	0	1	0	1	0	0	n/a	n/a	0	0.4592722998932004	1.0	821.5159505000338	1137.5372711000964	1138.5425110999497	1139.0422926999163	1140.5576556001324	1141.5690953999292	n/a	n/a	1142.573023600038	1143.7860618999694	2020-01-03 17:44:12.936172	1.78067305205169	0.122460176943157	0.0	0.122460176943157	1.78067305205169	0.0	-1.78067305205169	0.122460176943157	0.0	1.78067305205169	0.0	-0.122460176943157	-10.627468235914428	-4.745754591771932	1.7696272954136032	-5.814739942076333	-6.9785225864532565	1.7696272954136032	-0.6735887847838148	-7.918181763477038	2.7092864724373884	-6.034145242975227	3.058017946616901	2	missed	0.0
322.28161650011316	6.209337699925527	nogo_punish	1.0	322.30566850001924	323.6480219999794	326.1481248000639	1.3423534999601543	323.3202257999219	325.1525055000093	327.1616221999284	0.32779620005749166	0.9956193000546136	1.3533840000163764	n/a	1.0	n/a	1	0	109	1	nogo_punish	1	-1	0	0	0	1	0	n/a	n/a	0	1.0	1.0	821.5159505000338	1143.821619000053	1144.8361762999557	1145.1639725000132	1146.668456000043	1147.6640753000977	n/a	n/a	1148.6775726999622	1150.0309566999786	2020-01-03 17:44:12.936172	4.35122790489681	-6.89901051822405	-1.33827284568703	-1.34450032844454	-5.68950075058384	-1.33827284568703	-4.35122790489681	-1.33827284568703	-6.89901051822405	-1.33827284568703	-5.68950075058384	1.33827284568703	-8.056913383069308	-11.767225286939139	0.4313544497265731	-7.28170044746403	-14.448696389088788	0.4313544497265731	0.7871442378463723	-11.037127661215758	-2.980214278146452	-7.494878265605415	-3.840992571607149	2	missed	0.0
328.5292934000024	6.01282000006222	go_punish	1.0	328.5533453999085	329.98659029998817	332.51633529993705	1.4332449000796714	329.5650422000326	331.49252009997144	333.5252465000376	0.4215480999555439	1.023815199965611	1.0409188999331036	n/a	1.0	n/a	1	0	110	2	go_punish	1	0	-1	1	0	0	0	n/a	n/a	-1	1.0	1.0	821.5159505000338	1150.0692958999423	1151.0809927000664	1151.502540800022	1153.0084706000052	1154.0322857999709	n/a	n/a	1155.0411970000714	1156.0821159000045	2020-01-03 17:44:12.936172	1.86476223700224	-7.91623295775624	-6.41356606601916	-6.44897957036938	-8.27832830302139	-6.41356606601916	-1.86476223700224	-6.41356606601916	-7.91623295775624	-6.41356606601916	-8.27832830302139	-2.269193912678749	-10.543379050963877	-12.784447726471328	-4.643938770605557	-12.38617968938887	-17.037523941526338	-4.643938770605557	-2.8203225205194067	-16.112420881547887	-5.569041830584001	-12.570171485937545	-4.858215011139339	2	missed	0.0
334.57672020001337	7.785602299962193	go_punish	0.2674930999055505	334.60077219991945	337.3789120998697	339.93339779996313	2.778139899950247	335.60784760001116	338.9098881999962	340.9292240999639	1.7710644998585394	1.0235095999669284	1.4571503999177366	n/a	1.0	n/a	1	0	111	2	go_punish	0	-1	0	1	1	1	0	n/a	n/a	-1	0.2674930999055505	1.0	821.5159505000338	1156.1167226999532	1157.123798100045	1158.8948625999035	1160.42583870003	1161.449348299997	n/a	n/a	1162.4451745999977	1163.9023249999154	2020-01-03 17:44:12.936172	-1.00766107400155	-7.91623295775624	-7.64474653125109	-7.66506144934017	-8.65240760525263	-7.64474653125109	1.00766107400155	-7.91623295775624	-7.64474653125109	-8.65240760525263	-7.64474653125109	-0.7665270209416697	-13.415802361967668	-12.784447726471328	-5.875119235837486	-13.60226156835966	-17.411603243757575	-5.875119235837486	-1.3176556287823273	-18.35126242078136	-4.935460058813701	-14.072838377674625	-4.586728584634189	2	missed	0.0
342.3954992000945	5.799929500091821	go_punish	1.0	342.41955120000057	343.8114461998923	346.32257570000365	1.391894999891747	343.4210898000747	345.3222590999212	347.32705809990875	0.3903563998176196	1.0003166000824422	0.892422600183636	n/a	1.0	n/a	1	0	112	2	go_punish	1	0	-1	1	0	0	1	n/a	n/a	-1	1.0	1.0	821.5159505000338	1163.9355017000344	1164.9370403001085	1165.327396699926	1166.838209599955	1167.8385262000374	n/a	n/a	1168.8430085999426	1169.7354312001262	2020-01-03 17:44:12.936172	1.54113683925717	-8.28867748902414	-7.64474653125109	-8.19101154973438	-9.18588337050826	-7.64474653125109	-1.54113683925717	-7.64474653125109	-8.28867748902414	-7.64474653125109	-9.18588337050826	-1.0380134474468194	-10.867004448708947	-13.15689225773923	-5.875119235837486	-14.12821166875387	-17.945079009013206	-5.875119235837486	-1.589142055287477	-17.343601346779817	-6.476596898070871	-13.801351951169474	-5.230659542407239	2	missed	0.0
348.23308160016313	7.521231999853626	go_reward	0.2756885001435876	348.2571336000692	350.8017368998844	353.346224399982	2.5446032998152077	349.2670146999883	352.3226328000892	354.3553377999924	1.5347221998961231	1.0235915998928249	1.4230277999304235	n/a	1.0	n/a	1	0	113	4	go_reward	1	1	0	1	1	1	0	n/a	n/a	1	0.2756885001435876	1.0	821.5159505000338	1169.773084100103	1170.782965200022	1172.3176873999182	1173.838583300123	1174.8621749000158	n/a	n/a	1175.8712883000262	1177.2943160999566	2020-01-03 17:44:12.936172	40.6099862847046	29.4394391837184	0.0	29.4394391837184	40.6099862847046	0.0	-40.6099862847046	29.4394391837184	0.0	40.6099862847046	0.0	3.3881641327068976	28.20184499673848	24.57122441500331	1.7696272954136032	23.50223906469891	31.85079064619965	1.7696272954136032	2.83703552486624	30.91113146917587	2.7092864724373884	23.282833763800014	3.058017946616901	2	missed	0.0
355.79414740018524	7.256627899827663	nogo_reward	0.2467918000183999	355.8181994000913	358.103867799975	360.65558289992623	2.2856683998836616	356.8226632999722	359.6353042998819	361.6587235999757	1.2812045000027865	1.0202786000443211	1.4161036999432781	n/a	1.0	n/a	1	0	114	3	nogo_reward	1	0	1	0	1	0	0	n/a	n/a	0	0.2467918000183999	1.0	821.5159505000338	1177.334149900125	1178.338613800006	1179.6198183000088	1181.1512547999157	1182.17153339996	n/a	n/a	1183.1746741000095	1184.5907777999528	2020-01-03 17:44:12.936172	1.71039124222681	0.0692240643480431	0.0	0.0692240643480431	1.71039124222681	0.0	-1.71039124222681	0.0692240643480431	0.0	1.71039124222681	0.0	-0.0692240643480431	-10.697750045739307	-4.7989907043670454	1.7696272954136032	-5.867976054671447	-7.048804396278137	1.7696272954136032	-0.6203526721887008	-7.988463573301918	2.7092864724373884	-6.087381355570341	3.058017946616901	2	missed	0.0
363.08749930001795	5.932745200116187	go_punish	0.7329845998901874	363.11155129992403	364.5686699000653	367.0997126000002	1.457118600141257	364.1145740998911	366.09415220003575	368.11259680008516	0.45409580017417284	1.0055603999644518	0.9316996999550611	n/a	1.0	n/a	1	0	115	2	go_punish	1	0	-1	1	1	1	0	n/a	n/a	0	0.7329845998901874	1.0	821.5159505000338	1184.6275017999578	1185.630524599925	1186.084620400099	1187.6101027000695	1188.615663100034	n/a	n/a	1189.628547300119	1190.560247000074	2020-01-03 17:44:12.936172	-1.08053283813702	-8.28867748902414	-8.17907815449235	-8.43317848130149	-9.25961099262937	-8.17907815449235	1.08053283813702	-8.28867748902414	-8.17907815449235	-9.25961099262937	-8.17907815449235	8.28867748902414	-13.488674126103138	-13.15689225773923	-6.409450859078747	-14.37037860032098	-18.018806631134318	-6.409450859078747	7.737548881183482	-18.958465808158095	-5.469791682054962	-14.445282908942524	-5.121060207875449	2	missed	0.0
369.05815870012157	6.3799399000124595	go_punish	0.5991275000851601	369.08221070002764	370.9955511998851	373.5325784999877	1.9133404998574406	370.0851481000427	372.5126350000503	374.5476259998977	0.9104030998423696	1.0199434999374262	0.9145246001423857	n/a	1.0	n/a	1	0	116	2	go_punish	1	0	-1	1	1	1	0	n/a	n/a	0	0.5991275000851601	1.0	821.5159505000338	1190.5981612000614	1191.6010986000765	1192.5115016999189	1194.028585500084	1195.0485290000215	n/a	n/a	1196.0635764999315	1196.978101100074	2020-01-03 17:44:12.936172	5.07839443466504	-3.59671524825215	-8.17907815449235	-3.67538324377887	-3.10068371982731	-8.17907815449235	-5.07839443466504	-3.59671524825215	-8.17907815449235	-3.10068371982731	-8.17907815449235	3.59671524825215	-7.329746853301077	-8.464930016967239	-6.409450859078747	-9.612583362798361	-11.859879358332257	-6.409450859078747	3.0455866404114924	-12.799538535356039	-5.469791682054962	-9.753320668170534	-5.121060207875449	2	missed	0.0
375.4774309999775	5.998236100189388	nogo_reward	0.2828510000836104	375.5014829998836	377.1897688000463	379.73095729993656	1.6882858001627028	376.50325539987534	378.7211970000062	380.7373267998919	0.6865134001709521	1.009760299930349	0.7623923001810908	n/a	1.0	n/a	1	0	117	3	nogo_reward	1	0	1	0	1	0	0	n/a	n/a	0	0.2828510000836104	1.0	821.5159505000338	1197.0174334999174	1198.0192058999091	1198.70571930008	1200.23714750004	1201.2469077999704	n/a	n/a	1202.2532772999257	1203.0156696001068	2020-01-03 17:44:12.936172	1.6719310220855	0.0400739232743027	0.0	0.0400739232743027	1.6719310220855	0.0	-1.6719310220855	0.0400739232743027	0.0	1.6719310220855	0.0	-0.0400739232743027	-10.736210265880617	-4.828140845440786	1.7696272954136032	-5.897126195745187	-7.087264616419446	1.7696272954136032	-0.5912025311149605	-8.026923793443228	2.7092864724373884	-6.116531496644082	3.058017946616901	2	missed	0.0
381.51303969998844	5.861025199992582	nogo_reward	0.0207789000123739	381.5370916998945	382.90489019989036	385.4296627999281	1.3677984999958426	382.5458941000977	384.420456700027	386.4351695999503	0.35899609979264824	1.009206099901121	0.9629472999367863	n/a	1.0	n/a	1	0	118	3	nogo_reward	1	0	1	0	1	0	0	n/a	n/a	0	0.0207789000123739	1.0	821.5159505000338	1203.0530421999283	1204.0618446001315	1204.4208406999242	1205.9364072000608	1206.945613299962	n/a	n/a	1207.951120099984	1208.914067399921	2020-01-03 17:44:12.936172	1.65033138229906	0.0236931438178697	0.0	0.0236931438178697	1.65033138229906	0.0	-1.65033138229906	0.0236931438178697	0.0	1.65033138229906	0.0	-0.0236931438178697	-10.757809905667058	-4.84452162489722	1.7696272954136032	-5.913506975201621	-7.108864256205887	1.7696272954136032	-0.5748217516585274	-8.048523433229668	2.7092864724373884	-6.132912276100515	3.058017946616901	2	missed	0.0
387.41755600017495	7.515715099871159	nogo_punish	1.0	387.44160800008103	389.97171379998326	392.49669359996915	2.5301057999022305	388.44973880006	391.47701309993863	393.5099684998859	1.521974999923259	1.0196805000305176	1.447354600066319	n/a	1.0	n/a	1	0	119	1	nogo_punish	1	-1	0	0	0	1	0	n/a	n/a	0	1.0	1.0	821.5159505000338	1208.9575585001148	1209.9656893000938	1211.487664300017	1212.9929635999724	1214.012644100003	n/a	n/a	1215.0259189999197	1216.473273599986	2020-01-03 17:44:12.936172	4.83252229321326	-6.89901051822405	-0.64326356869998	-0.647028586441375	-5.47578586191324	-0.64326356869998	-4.83252229321326	-0.64326356869998	-6.89901051822405	-0.64326356869998	-5.47578586191324	0.64326356869998	-7.575618994752857	-11.767225286939139	1.126363726713623	-6.584228705460865	-14.234981500418186	1.126363726713623	0.09213496085932227	-10.342118384228709	-2.766499389475851	-6.799868988618364	-3.840992571607149	2	missed	0.0
394.9688252999913	7.3897183001972735	go_reward	0.1757219999562949	394.9928772998974	397.6189133999869	400.1525689000264	2.62603610008955	396.00323890009895	399.134533100063	401.1499322000891	1.615674499887973	1.0180357999633998	1.2326634000055492	n/a	1.0	n/a	1	0	120	4	go_reward	1	1	0	1	1	1	0	n/a	n/a	1	0.1757219999562949	1.0	821.5159505000338	1216.5088277999312	1217.5191894001327	1219.1348639000207	1220.6504836000968	1221.6685194000602	n/a	n/a	1222.665882700123	1223.8985461001284	2020-01-03 17:44:12.936172	42.9977933343452	31.2424075257912	0.0	31.2424075257912	42.9977933343452	0.0	-42.9977933343452	31.2424075257912	0.0	42.9977933343452	0.0	1.5851957906340957	30.58965204637908	26.374192757076113	1.7696272954136032	25.30520740677171	34.23859769584025	1.7696272954136032	1.034067182793438	33.29893851881647	2.7092864724373884	25.085802105872816	3.058017946616901	2	missed	0.0
