onset	duration	trial_type	response_time	cueOnset	targetOnset	fbOnset	cueRT	firstfixOnset	secondfixOnset	waitOnset	firstfixdur	secondfixdur	waitdur	nback_fbOnset	nback_response_time	nback_targetOnset	block	wm	trial	cue	cond	is_common	outcome_go	outcome_nogo	key_correct	key_pressed	is_correct	key_correct_nback	key_pressed_nback	is_correct_nback	outcome	rt	rt_nback	time_scan	time_onset	time_isi1	time_circle	time_isi2	time_feedback	time_same	time_correct	time_iti	time_done	timestamp_scan	DV	Qgo	Qnogo	SV	Wgo	Wnogo	mDV	Qchosen	Qunchosen	Wchosen	Wunchosen	PE	DVC	QgoC	QnogoC	SVC	WgoC	WnogoC	PEC	WchosenC	WunchosenC	QchosenC	QunchosenC	run	outcome_nback	nback_targetResp
0.0	7.936328899999808	go_reward	1.0	0.01019399999995585	1.3065083999999842	3.8425539999998364	1.2963144000000284	1.026108099999874	2.8222366999998485	6.8947150999997575	0.2804003000001103	1.0203172999999879	1.051807800000006	5.874375699999746	1.0	4.865951199999927	2	1	61	4	go_reward	1	1	0	1	0	0	0	n/a	0.0	0	1.0	1.0	2273.9453505	2273.9555445	2274.9714586	2275.2518589	2276.7675872	2277.7879045	2278.8113017	2279.8197262	2280.8400656	2281.8918734	2020-06-10 13:49:55.943099	-11.0466028842049	8.58613490014062	0.0	8.58613490014062	11.0466028842049	0.0	11.0466028842049	0.0	8.58613490014062	0.0	11.0466028842049	0.0	-13.63773337483262	7.689072756960579	-0.2861972911354985	6.999945551937849	9.431940093628546	-0.2861972911354985	-0.4225428662310149	-2.2459952861697854	11.391738088662834	-1.8171093609953486	9.219984826820431	4	missed	0.0
7.964069300000119	7.923139799999717	go_reward	0.3981001000001924	7.974263300000075	9.520229199999903	12.066724499999964	1.5459658999998283	8.975739099999828	11.046550000000025	15.12342609999996	0.5444901000000755	1.0201744999999391	0.7739769999998316	14.113489200000004	0.5624025999995865	13.080816299999697	2	1	62	4	go_reward	1	1	0	1	1	1	0	0.0	1.0	1	0.3981001000001924	0.5624025999995865	2273.9453505	2281.9196138	2282.9210896	2283.4655797	2284.9919005	2286.012075	2287.0261668	2288.0588397	2289.0687766	2289.8427536	2020-06-10 13:49:55.943099	10.6467249063489	8.58613490014062	0.0	6.91836032662371	10.6467249063489	0.0	-10.6467249063489	8.58613490014062	0.0	10.6467249063489	0.0	1.24072337133663	8.05559441572118	7.689072756960579	-0.2861972911354985	5.3321709784209395	9.032062115772547	-0.2861972911354985	0.818180505105615	8.400729620179115	0.34513520445793433	6.769025539145271	0.6338499266798113	4	correct	1.0
15.920917299999928	8.236880400000246	nogo_punish	1.0	15.931111299999884	17.69190320000007	20.22096220000003	1.7607919000001857	16.927507800000058	19.200910699999895	23.27345729999979	0.7643954000000122	1.020051500000136	0.8945344000003388	22.260973799999647	0.352897099999609	21.238433600000008	2	1	63	1	nogo_punish	1	-1	0	0	0	1	0	0.0	1.0	0	1.0	0.352897099999609	2273.9453505	2289.8764618	2290.8728583	2291.6372537	2293.1462612	2294.1663127	2295.1837841	2296.2063243	2297.2188078	2298.1133422000003	2020-06-10 13:49:55.943099	3.02650206674973	-4.10481603444794	-1.29455405349687	-3.24143027117694	-4.32105612024659	-1.29455405349687	-3.02650206674973	-1.29455405349687	-4.10481603444794	-1.29455405349687	-4.32105612024659	1.29455405349687	0.43537157612200916	-5.00187817762798	-1.5807513446323687	-4.8276196193797105	-5.935718910822944	-1.5807513446323687	0.8720111872658551	-3.540549339666655	-3.975920915788656	-3.1116634144922184	-3.470966107768129	4	correct	1.0
24.186853400000018	8.684509100000014	go_reward	0.0127359000002797	24.197047399999974	26.037605099999837	28.589963500000067	1.840557699999863	25.195043700000042	27.5721067999998	31.645374100000026	0.842561399999795	1.0178567000002658	1.2361823999999615	30.632285199999842	0.6821077999998124	29.60427350000009	2	1	64	4	go_reward	1	1	0	1	1	1	1	1.0	1.0	1	0.0127359000002797	0.6821077999998124	2273.9453505	2298.1423979	2299.1403942	2299.9829556	2301.5174573	2302.535314	2303.549624	2304.5776357	2305.5907246	2306.826907	2020-06-10 13:49:55.943099	10.9952207538305	8.79744103342987	0.0	7.48546762141392	10.9952207538305	0.0	-10.9952207538305	8.79744103342987	0.0	10.9952207538305	0.0	1.0294172380473796	8.404090263202779	7.900378890249829	-0.2861972911354985	5.8992782732111495	9.380557963254146	-0.2861972911354985	0.6068743718163647	8.749225467660715	0.34513520445793433	6.980331672434521	0.6338499266798113	4	correct	1.0
32.901198399999885	9.402566900000238	nogo_punish	1.0	32.91139239999984	35.68099499999971	38.20962759999975	2.769602599999871	33.91673639999999	37.190191799999866	41.26407930000005	1.764258599999721	1.0194357999998829	1.0498800000000301	40.24877149999975	0.3810157000002618	39.22720589999972	2	1	65	1	nogo_punish	1	-1	0	0	0	1	1	1.0	1.0	0	1.0	0.3810157000002618	2273.9453505	2306.8567429	2307.8620869	2309.6263455	2311.1355423	2312.1549781	2313.1725564	2314.194122	2315.2094298	2316.2593098	2020-06-10 13:49:55.943099	3.13096591461253	-4.10481603444794	-1.05117852476998	-2.62702830759818	-4.1821444393825	-1.05117852476998	-3.13096591461253	-1.05117852476998	-4.10481603444794	-1.05117852476998	-4.1821444393825	1.05117852476998	0.5398354239848091	-5.00187817762798	-1.3373758159054785	-4.213217655800951	-5.796807229958854	-1.3373758159054785	0.6286356585389652	-3.2971738109397655	-3.837009234924566	-2.8682878857653287	-3.470966107768129	4	correct	1.0
42.352223500000036	8.459303099999943	go_punish	1.0	42.36241749999999	43.83142679999992	46.37261199999966	1.4690092999999251	43.36506409999993	45.349054199999955	49.4228092999997	0.4663626999999906	1.0235577999997076	1.3989113000002362	48.409186599999884	0.513776400000097	47.38045329999977	2	1	66	2	go_punish	1	0	-1	1	0	0	0	0.0	1.0	-1	1.0	0.513776400000097	2273.9453505	2316.307768	2317.3104146	2317.7767773	2319.2944047	2320.3179625	2321.3258038	2322.3545371	2323.3681598	2324.7670711	2020-06-10 13:49:55.943099	-0.973113572608607	-2.46817054338314	-3.96900292345248	-4.63655060962716	-2.99588935084388	-3.96900292345248	0.973113572608607	-3.96900292345248	-2.46817054338314	-3.96900292345248	-2.99588935084388	-3.5886193404568805	-3.5642440632363277	-3.3652326865631803	-4.255200214587979	-6.222739957829931	-4.610552141420234	-4.255200214587979	-4.011162206687896	-6.214998209622266	-2.650754146385946	-5.786112284447828	-1.8343206167033288	4	correct	1.0
50.843092499999784	8.596270000000004	go_reward	0.3382069000003866	50.85328649999974	52.62998629999993	55.18642129999989	1.7766998000001877	51.84973869999976	54.163362100000086	58.23784499999965	0.7802476000001661	1.0230591999998069	1.2117115000000922	57.23069859999987	0.3946969000003264	56.20053299999972	2	1	67	4	go_reward	1	1	0	1	1	1	0	0.0	1.0	1	0.3382069000003866	0.3946969000003264	2273.9453505	2324.798637	2325.7950892	2326.5753368	2328.1087126	2329.1317718	2330.1458835	2331.1760491	2332.1831955	2333.394907	2020-06-10 13:49:55.943099	11.2722140943393	8.96844641468553	0.0	7.92948653972341	11.2722140943393	0.0	-11.2722140943393	8.96844641468553	0.0	11.2722140943393	0.0	0.8584118567917187	8.68108360371158	8.07138427150549	-0.2861972911354985	6.343297191520639	9.657551303762947	-0.2861972911354985	0.43586899056070383	9.026218808169515	0.34513520445793433	7.151337053690182	0.6338499266798113	4	correct	1.0
59.50134810000009	8.881006699999944	go_punish	1.0	59.51154210000004	61.29505590000008	63.828385700000126	1.783513800000037	60.51611869999988	62.80512420000014	66.89891369999987	0.7789372000002004	1.0232614999999896	1.4936351000001196	65.87742230000003	0.4330165000001216	64.84217439999975	2	1	68	2	go_punish	1	0	-1	1	0	0	1	1.0	1.0	-1	1.0	0.4330165000001216	2273.9453505	2333.4568926	2334.4614692	2335.2404064	2336.7504747000003	2337.7737362000003	2338.7875249	2339.8227728	2340.8442642	2342.3378993	2020-06-10 13:49:55.943099	-1.47317916950709	-2.46817054338314	-4.57662408796721	-5.13252056526255	-3.10344491846012	-4.57662408796721	1.47317916950709	-4.57662408796721	-2.46817054338314	-4.57662408796721	-3.10344491846012	-2.98099817594215	-4.0643096601348105	-3.3652326865631803	-4.862821379102709	-6.718709913465321	-4.718107709036474	-4.862821379102709	-3.403541042173165	-6.822619374136996	-2.758309714002186	-6.393733448962559	-1.8343206167033288	4	correct	1.0
68.41026620000002	9.547128199999861	go_reward	0.1622305999999298	68.42046019999998	70.89491719999978	73.4402814	2.474456999999802	69.42791979999993	72.42255380000006	76.48092439999982	1.4669973999998547	1.0177275999999438	1.4866640000000189	75.47009369999978	0.4918554999999287	74.45450140000003	2	1	69	4	go_reward	1	1	0	1	1	1	1	0.0	0.0	1	0.1622305999999298	0.4918554999999287	2273.9453505	2342.3658107	2343.3732703	2344.8402677	2346.3679043	2347.3856319	2348.3998519	2349.4154442	2350.4262749	2351.9129389	2020-06-10 13:49:55.943099	11.4940023382745	9.10764553022704	0.0	8.27981481540823	11.4940023382745	0.0	-11.4940023382745	9.10764553022704	0.0	11.4940023382745	0.0	0.7192127412502085	8.902871847646779	8.210583387047	-0.2861972911354985	6.693625467205459	9.879339547698146	-0.2861972911354985	0.2966698750191936	9.248007052104715	0.34513520445793433	7.290536169231692	0.6338499266798113	4	wrong	1.0
78.00771589999977	8.741964600000301	nogo_reward	1.0	78.01790989999972	79.70752909999965	82.24293140000009	1.6896191999999246	79.03771159999997	81.22507459999997	85.29939100000001	0.6698174999996809	1.0178568000001178	1.4604835000000094	84.28636629999983	0.7050140000001193	83.25712350000003	2	1	70	3	nogo_reward	1	0	1	0	0	1	0	0.0	1.0	1	1.0	0.7050140000001193	2273.9453505	2351.9632604	2352.9830621	2353.6528796	2355.1704251	2356.1882819	2357.202474	2358.2317168	2359.2447415	2360.705225	2020-06-10 13:49:55.943099	4.24423776730828	1.86618541607132	8.58712377011316	8.62127088071653	4.34288600280488	8.58712377011316	-4.24423776730828	8.58712377011316	1.86618541607132	8.58712377011316	4.34288600280488	1.2397345013640884	1.6531072766805592	0.9691232728912799	8.300926478977662	7.035081532513759	2.728223212228526	8.300926478977662	0.8171916351330735	6.3411284839433755	4.688021207262814	6.770014409117812	2.5000353427511315	4	correct	1.0
86.7933407999999	9.028770500000064	go_punish	0.2988808999998582	86.80353479999985	89.29432489999999	91.84941179999987	2.4907901000001402	87.8201669	90.82874129999982	94.90178269999979	1.4741579999999885	1.020670500000051	0.9305226000001312	93.88822649999975	0.5275182999998833	92.8595636	2	1	71	2	go_punish	1	0	-1	1	1	1	0	0.0	1.0	0	0.2988808999998582	0.5275182999998833	2273.9453505	2360.7488853	2361.7655174	2363.2396754	2364.7740918	2365.7947623	2366.8049141	2367.833577	2368.8471332	2369.7776558	2020-06-10 13:49:55.943099	1.880379712886	-2.46817054338314	-5.07029646159312	-5.53491352763455	-3.18991674870711	-5.07029646159312	-1.880379712886	-2.46817054338314	-5.07029646159312	-3.18991674870711	-5.07029646159312	2.46817054338314	-0.7107507777417208	-3.3652326865631803	-5.3564937527286185	-7.1211028758373205	-4.804579539283464	-5.3564937527286185	2.045627677152125	-5.435912034876895	-4.725161257135186	-4.285279904378489	-4.436446534913308	4	correct	1.0
95.86997339999971	8.177346800000123	go_punish	0.3922879000001558	95.88016739999966	97.53635889999987	100.09308669999973	1.6561915000002045	96.88949209999964	99.06923370000004	103.1429134	0.6468668000002253	1.02385299999969	0.9146007999997892	102.12817929999983	0.5473912999996173	101.10768869999993	2	1	72	2	go_punish	0	-1	0	1	1	1	0	0.0	1.0	-1	0.3922879000001558	0.5473912999996173	2273.9453505	2369.8255179	2370.8348426	2371.4817094	2373.0145842	2374.0384372	2375.0530392	2376.0735298	2377.0882639	2378.0028647	2020-06-10 13:49:55.943099	2.6017515326109	-1.98906117982577	-5.07029646159312	-4.46986537319553	-2.46854492898222	-5.07029646159312	-2.6017515326109	-1.98906117982577	-5.07029646159312	-2.46854492898222	-5.07029646159312	-5.568561084083591	0.010621041983179147	-2.88612332300581	-5.3564937527286185	-6.056054721398301	-4.083207719558574	-5.3564937527286185	-5.9911039503146055	-4.714540215152006	-4.725161257135186	-3.8061705408211184	-4.436446534913308	4	correct	1.0
104.09433540000009	9.587814699999853	go_punish	0.2294830000000729	104.10452940000005	107.06957379999994	109.61517849999973	2.965044399999897	105.10886919999984	108.5943656999998	112.66796639999984	1.9607046000000992	1.0208127999999306	1.0243777000000591	111.6608382999998	0.6084177000002455	110.63159259999975	2	1	73	2	go_punish	1	0	-1	1	1	1	1	0.0	0.0	0	0.2294830000000729	0.6084177000002455	2273.9453505	2378.0498799	2379.0542197	2381.0149243	2382.5397162	2383.560529	2384.5769431	2385.6061888	2386.6133169	2387.6376946	2020-06-10 13:49:55.943099	1.46216170916435	-3.00527289749084	-5.07029646159312	-5.02361037371762	-3.60813475242876	-5.07029646159312	-1.46216170916435	-3.00527289749084	-5.07029646159312	-3.60813475242876	-5.07029646159312	3.00527289749084	-1.1289687814633709	-3.9023350406708803	-5.3564937527286185	-6.609799721920391	-5.222797543005114	-5.3564937527286185	2.582730031259825	-5.854130038598545	-4.725161257135186	-4.822382258486188	-4.436446534913308	4	wrong	1.0
113.72507519999999	8.684959199999867	nogo_reward	1.0	113.73526919999995	115.47543809999979	118.00881440000012	1.7401688999998441	114.74354790000007	116.99286389999997	121.06548049999992	0.7318901999997252	1.0159505000001445	1.354747899999893	120.05185819999997	0.389164300000175	119.02286580000009	2	1	74	3	nogo_reward	1	0	1	0	0	1	0	0.0	1.0	1	1.0	0.389164300000175	2273.9453505	2387.6806197	2388.6888984	2389.4207886	2390.9382144	2391.9541649000003	2392.9682163	2393.9972087	2395.010831	2396.3655789	2020-06-10 13:49:55.943099	4.3909678132364	1.86618541607132	8.77514916744774	8.81015437849993	4.38418135421134	8.77514916744774	-4.3909678132364	8.77514916744774	1.86618541607132	8.77514916744774	4.38418135421134	1.0517091040295092	1.799837322608679	0.9691232728912799	8.48895187631224	7.22396503029716	2.7695185636349864	8.48895187631224	0.6291662377984943	6.529153881277955	4.729316558669274	6.958039806452391	2.5000353427511315	4	correct	1.0
122.45207900000014	8.50031029999991	go_punish	0.3464112999999997	122.4622730000001	124.02650339999991	126.58343879999984	1.5642303999998148	123.46646789999977	125.55961100000013	129.61052109999991	0.56003550000014	1.023827799999708	1.3520622000000913	128.60436449999997	0.394864299999881	127.59117650000007	2	1	75	2	go_punish	0	-1	0	1	1	1	1	1.0	1.0	-1	0.3464112999999997	0.394864299999881	2273.9453505	2396.4076235	2397.4118184	2397.9718539	2399.5049615000003	2400.5287893	2401.536527	2402.549715	2403.5558716	2404.9079338	2020-06-10 13:49:55.943099	2.26027459393052	-2.42192105991058	-5.07029646159312	-4.07279184404958	-2.8100218676626	-5.07029646159312	-2.26027459393052	-2.42192105991058	-5.07029646159312	-2.8100218676626	-5.07029646159312	-5.135701203998781	-0.3308558966972006	-3.31898320309062	-5.3564937527286185	-5.658981192252351	-4.424684658238954	-5.3564937527286185	-5.5582440702297955	-5.056017153832386	-4.725161257135186	-4.239030420905928	-4.436446534913308	4	correct	1.0
130.9834675000002	8.55886769999961	go_reward	0.4366221999998743	130.99366150000014	132.81833189999998	135.37081790000002	1.8246703999998317	131.99841289999995	134.35127319999992	138.41935329999978	0.8199190000000272	1.0195447000000968	1.1331758999999693	137.4101866000001	0.4021248999997624	136.38878179999983	2	1	76	4	go_reward	0	0	1	1	1	1	0	0.0	1.0	0	0.4366221999998743	0.4021248999997624	2273.9453505	2404.9390120000003	2405.9437634	2406.7636824	2408.2966237	2409.3161684	2410.3341323	2411.3555371	2412.3647038	2413.4978797	2020-06-10 13:49:55.943099	11.6727918060127	9.2215743696986	0.0	8.55818402935606	11.6727918060127	0.0	-11.6727918060127	9.2215743696986	0.0	11.6727918060127	0.0	-9.2215743696986	9.081661315384979	8.324512226518559	-0.2861972911354985	6.971994681153289	10.058129015436347	-0.2861972911354985	-9.644117235929613	9.426796519842915	0.34513520445793433	7.404465008703251	0.6338499266798113	4	correct	1.0
139.57665439999982	8.49339080000027	nogo_punish	1.0	139.58684839999978	141.5704069999997	144.10260019999987	1.983558599999924	140.60353069999974	143.0793478999999	147.15759039999966	0.9668762999999672	1.0232522999999674	0.9226488000003883	146.14641630000006	0.1767954000001736	145.11718999999994	2	1	77	1	nogo_punish	0	0	-1	0	0	1	0	0.0	1.0	-1	1.0	0.1767954000001736	2273.9453505	2413.5321989	2414.5488812	2415.5157575	2417.0246984	2418.0479507	2419.0625405	2420.0917668	2421.1029409	2422.0255897	2020-06-10 13:49:55.943099	3.21554792140827	-4.10481603444794	-0.857918009413745	-2.14094049368659	-4.07346593082201	-0.857918009413745	-3.21554792140827	-0.857918009413745	-4.10481603444794	-0.857918009413745	-4.07346593082201	-6.699704254495615	0.6244174307805492	-5.00187817762798	-1.1441153005492435	-3.7271298418893606	-5.688128721398364	-1.1441153005492435	-7.12224712072663	-3.1039132955835305	-3.728330726364076	-2.6750273704090937	-3.470966107768129	4	correct	1.0
148.10202849999996	8.27762759999996	go_reward	0.412340999999742	148.11222249999992	149.61447439999984	152.15420959999983	1.5022518999999193	149.11568910000005	151.1308412999997	155.18370240000013	0.4987852999997813	1.0233683000001292	1.2061476999997467	154.17709530000002	0.3809740000001511	153.16301320000002	2	1	78	4	go_reward	1	1	0	1	1	1	1	1.0	1.0	1	0.412340999999742	0.3809740000001511	2273.9453505	2422.057573	2423.0610396	2423.5598249	2425.0761918	2426.0995601	2427.1083637	2428.1224458	2429.1290529000003	2430.3352006	2020-06-10 13:49:55.943099	9.49066768235086	7.43621970549045	0.0	6.90175047000399	9.49066768235086	0.0	-9.49066768235086	7.43621970549045	0.0	9.49066768235086	0.0	2.390638565986799	6.899537191723139	6.53915756231041	-0.2861972911354985	5.3155611218012195	7.876004891774507	-0.2861972911354985	1.968095699755784	7.244672396181075	0.34513520445793433	5.619110344495102	0.6338499266798113	4	correct	1.0
156.42099740000003	8.927801400000135	nogo_punish	1.0	156.4311914	158.76174089999995	161.29778769999984	2.330549499999961	157.43391239999983	160.2783104	164.35029269999995	1.3278285000001233	1.019477299999835	1.0087001000001692	163.33703289999994	0.5617364999998244	162.31512229999998	2	1	79	1	nogo_punish	1	-1	0	0	0	1	1	0.0	0.0	0	1.0	0.5617364999998244	2273.9453505	2430.3765419	2431.3792629	2432.7070914	2434.2236609	2435.2431382	2436.2604728	2437.2823834	2438.2956432	2439.3043433000003	2020-06-10 13:49:55.943099	2.20318435542213	-4.10481603444794	-2.09682879988845	-3.14713137325157	-4.30001315531058	-2.09682879988845	-2.20318435542213	-2.09682879988845	-4.10481603444794	-2.09682879988845	-4.30001315531058	2.09682879988845	-0.3879461352055906	-5.00187817762798	-2.3830260910239485	-4.733320721454341	-5.914675945886934	-2.3830260910239485	1.6742859336574352	-4.3428240860582354	-3.954877950852646	-3.9139381608837986	-3.470966107768129	4	wrong	1.0
165.3924176999999	7.95079399999986	go_punish	0.344500500000322	165.40261169999985	166.96983580000006	169.52381460000015	1.5672241000002032	166.41008789999978	168.50338060000013	172.57764999999972	0.559747900000275	1.020434000000023	0.7757556999999906	171.56214529999988	0.4006816000000981	170.54185419999976	2	1	80	2	go_punish	1	0	-1	1	1	1	0	0.0	1.0	0	0.344500500000322	0.4006816000000981	2273.9453505	2439.3479622	2440.3554384	2440.9151863	2442.4487311000003	2443.4691651000003	2444.4872047	2445.5074958	2446.5230005	2447.2987562	2020-06-10 13:49:55.943099	1.18180293438607	-3.3563408288879	-5.07029646159312	-4.7134135223579	-3.88849352720705	-5.07029646159312	-1.18180293438607	-3.3563408288879	-5.07029646159312	-3.88849352720705	-5.07029646159312	3.3563408288879	-1.4093275562416507	-4.25340297206794	-5.3564937527286185	-6.299602870560671	-5.503156317783404	-5.3564937527286185	2.933797962656885	-6.134488813376835	-4.725161257135186	-5.173450189883249	-4.436446534913308	4	correct	1.0
173.3742229999998	8.49412510000002	go_reward	0.3719218000001092	173.38441699999976	174.86294859999998	177.4195593999998	1.478531600000224	174.39706269999988	176.3965589999998	180.48419939999985	0.465885900000103	1.0230004000000008	1.3943426999999247	179.47006770000007	0.925353399999949	178.44250399999964	2	1	81	4	go_reward	1	1	0	1	1	1	0	0.0	1.0	1	0.3719218000001092	0.925353399999949	2273.9453505	2447.3297675	2448.3424132	2448.8082991	2450.3419095	2451.3649099	2452.3878545	2453.4154182	2454.4295499	2455.8238926	2020-06-10 13:49:55.943099	10.1037064377338	7.90980160695246	0.0	7.47702560037136	10.1037064377338	0.0	-10.1037064377338	7.90980160695246	0.0	10.1037064377338	0.0	1.9170566645247895	7.512575947106079	7.012739463772419	-0.2861972911354985	5.890836252168589	8.489043647157446	-0.2861972911354985	1.4945137982937746	7.857711151564015	0.34513520445793433	6.092692245957111	0.6338499266798113	4	correct	1.0
181.91498120000006	8.630084899999929	nogo_punish	1.0	181.9251752	183.76492549999966	186.30189089999976	1.8397502999996505	182.9237834999999	185.28259290000005	189.34391890000006	0.8411419999997634	1.0192979999997078	1.2113411999998789	188.33511109999972	0.3838911999996526	187.31387019999966	2	1	82	1	nogo_punish	1	-1	0	0	0	1	0	0.0	1.0	0	1.0	0.3838911999996526	2273.9453505	2455.8705257	2456.869134	2457.710276	2459.2279434	2460.2472414	2461.2592207	2462.2804616	2463.2892694	2464.5006106	2020-06-10 13:49:55.943099	2.47736276921331	-4.10481603444794	-1.68819141679667	-2.55235741211223	-4.16555418600999	-1.68819141679667	-2.47736276921331	-1.68819141679667	-4.10481603444794	-1.68819141679667	-4.16555418600999	1.68819141679667	-0.11376772141441105	-5.00187817762798	-1.9743887079321687	-4.138546760315	-5.780216976586344	-1.9743887079321687	1.2656485505656552	-3.9341867029664552	-3.8204189815520557	-3.5053007777920184	-3.470966107768129	4	correct	1.0
190.58983499999977	9.77023250000002	nogo_reward	1.0	190.60002899999972	193.33318439999994	195.86987099999988	2.7331554000002143	191.60620729999982	194.8504911	198.92433919999985	1.7269771000001128	1.0193798999998762	1.4459222999998929	197.91088069999978	0.2733044999999947	196.88755850000007	2	1	83	3	nogo_reward	0	1	0	0	0	1	0	0.0	1.0	0	1.0	0.2733044999999947	2273.9453505	2464.5453795	2465.5515578	2467.2785349	2468.7958416	2469.8152215	2470.832909	2471.8562312	2472.8696897	2474.315612	2020-06-10 13:49:55.943099	4.51373435917885	1.86618541607132	8.93180096974504	8.96635935275296	4.41806661056619	8.93180096974504	-4.51373435917885	8.93180096974504	1.86618541607132	8.93180096974504	4.41806661056619	-8.93180096974504	1.9226038685511289	0.9691232728912799	8.645603678609541	7.380170004550189	2.8034038199898363	8.645603678609541	-9.354343835976056	6.685805683575255	4.763201815024124	7.114691608749692	2.5000353427511315	4	correct	1.0
200.39520059999995	9.90862990000005	nogo_punish	1.0	200.4053945999999	203.25756539999975	205.77938919999997	2.85217079999984	201.42144340000004	204.76691789999995	208.8373219	1.8361219999997047	1.0124713000000156	1.4767025999999532	207.8203712999998	0.0659620000001268	206.79579749999994	2	1	84	1	nogo_punish	1	-1	0	0	0	1	1	0.0	0.0	0	1.0	0.0659620000001268	2273.9453505	2474.3507451	2475.3667939	2477.2029159	2478.7122684	2479.7247397	2480.741148	2481.7657218	2482.7826724	2484.259375	2020-06-10 13:49:55.943099	2.69306040001351	-4.10481603444794	-1.36730054409812	-2.08170430283622	-4.06036094411162	-1.36730054409812	-2.69306040001351	-1.36730054409812	-4.10481603444794	-1.36730054409812	-4.06036094411162	1.36730054409812	0.10192990938578905	-5.00187817762798	-1.6534978352336185	-3.66789365103899	-5.675023734687974	-1.6534978352336185	0.9447576778671052	-3.6132958302679055	-3.715225739653686	-3.1844099050934687	-3.470966107768129	4	wrong	1.0
210.33738619999986	8.157756500000232	nogo_punish	1.0	210.3475801999998	211.91290479999998	214.44367749999992	1.5653246000001673	211.35211609999988	213.42278369999985	217.48806609999974	0.5607887000001028	1.0208938000000671	1.0172706000003018	216.47460739999997	0.4260562000004029	215.46175589999984	2	1	85	1	nogo_punish	1	-1	0	0	0	1	0	1.0	0.0	0	1.0	0.4260562000004029	2273.9453505	2484.2929307	2485.2974666	2485.8582553	2487.3681342	2488.389028	2489.4071064	2490.4199579	2491.4334166	2492.4506872	2020-06-10 13:49:55.943099	2.86389415254834	-4.10481603444794	-1.11355134529	-1.70679234317409	-3.97744549783834	-1.11355134529	-2.86389415254834	-1.11355134529	-4.10481603444794	-1.11355134529	-3.97744549783834	1.11355134529	0.27276366192061907	-5.00187817762798	-1.3997486364254987	-3.2929816913768604	-5.5921082884146935	-1.3997486364254987	0.6910084790589852	-3.3595466314597857	-3.6323102933804057	-2.930660706285349	-3.470966107768129	4	wrong	1.0
218.5437354999999	8.830151000000114	go_punish	0.2842619000002742	218.55392949999987	220.90857039999992	223.4556763999999	2.3546409000000494	219.5575549	222.44174079999993	226.5159017000001	1.3510154999999031	1.013935599999968	0.868178799999896	225.50216729999966	0.2988620000000992	224.47396179999987	2	1	86	2	go_punish	1	0	-1	1	1	1	0	0.0	1.0	0	0.2842619000002742	0.2988620000000992	2273.9453505	2492.49928	2493.5029054	2494.8539209	2496.3870913	2497.4010269	2498.4193123	2499.4475178	2500.4612522	2501.329431	2020-06-10 13:49:55.943099	2.02892069645654	-2.70831981556816	-5.07029646159312	-3.82913391461188	-3.04137576513658	-5.07029646159312	-2.02892069645654	-2.70831981556816	-5.07029646159312	-3.04137576513658	-5.07029646159312	2.70831981556816	-0.562209794171181	-3.6053819587482003	-5.3564937527286185	-5.415323262814651	-4.656038555712934	-5.3564937527286185	2.285776949337145	-5.287371051306366	-4.725161257135186	-4.525429176563509	-4.436446534913308	4	correct	1.0
227.4045388999998	8.85915920000025	nogo_punish	1.0	227.41473289999976	229.6918437999998	232.22881830000006	2.277110900000025	228.41930969999976	231.20932099999982	235.28087370000003	1.2725341000000299	1.0194973000002392	0.9930183999999826	234.26757339999995	0.4530727000001207	233.2466301999998	2	1	87	1	nogo_punish	1	-1	0	0	0	1	1	0.0	0.0	0	1.0	0.4530727000001207	2273.9453505	2501.3600834	2502.3646602	2503.6371943	2505.1546715	2506.1741688	2507.1919807	2508.2129239	2509.2262242	2510.2192426	2020-06-10 13:49:55.943099	3.00004073603341	-4.10481603444794	-0.911599270250493	-1.40630807627472	-3.9116400062839	-0.911599270250493	-3.00004073603341	-0.911599270250493	-4.10481603444794	-0.911599270250493	-3.9116400062839	0.911599270250493	0.4089102454056892	-5.00187817762798	-1.1977965613859916	-2.9924974244774907	-5.526302796860254	-1.1977965613859916	0.48905640401947814	-3.1575945564202783	-3.5665048018259657	-2.7287086312458415	-3.470966107768129	4	wrong	1.0
236.30207400000018	8.465990499999862	nogo_punish	1.0	236.31226800000013	238.23254039999983	240.7618195	1.9202723999997033	237.31848139999965	239.7423730999999	243.8167411999998	0.9140590000001794	1.0194464000001062	0.961517300000196	242.80839339999966	0.4945483000001331	241.7800972	2	1	88	1	nogo_punish	1	-1	0	0	0	1	0	1.0	0.0	0	1.0	0.4945483000001331	2273.9453505	2510.2576185000003	2511.2638319	2512.1778909	2513.6877236	2514.70717	2515.7254477	2516.7537439	2517.7620917	2518.723609	2020-06-10 13:49:55.943099	3.1091747210175	-4.10481603444794	-0.749906765976124	-1.1640975590211	-3.85908148699362	-0.749906765976124	-3.1091747210175	-0.749906765976124	-4.10481603444794	-0.749906765976124	-3.85908148699362	0.749906765976124	0.518044230389779	-5.00187817762798	-1.0361040571116225	-2.7502869072238703	-5.473744277569974	-1.0361040571116225	0.32736389974510915	-2.9959020521459094	-3.5139462825356853	-2.5670161269714726	-3.470966107768129	4	wrong	1.0
244.81437460000006	7.867326399999911	nogo_reward	1.0	244.82456860000002	246.15580210000007	248.69100290000006	1.331233500000053	245.8291264999998	247.67236309999998	251.74559299999964	0.3266756000002715	1.0186398000000736	0.9463020000002871	250.73238989999982	0.4078911000001426	249.70382759999984	2	1	89	3	nogo_reward	1	0	1	0	0	1	0	0.0	1.0	1	1.0	0.4078911000001426	2273.9453505	2518.7699191	2519.774477	2520.1011526	2521.6177136	2522.6363534	2523.6491781	2524.6777404	2525.6909435	2526.6372455	2020-06-10 13:49:55.943099	3.18577908361066	1.86618541607132	7.183698297781	7.21697985382751	3.99791921417034	7.183698297781	-3.18577908361066	7.183698297781	1.86618541607132	7.183698297781	3.99791921417034	2.6431599736962488	0.594648592982939	0.9691232728912799	6.897501006645502	5.63079050562474	2.3832564235939864	6.897501006645502	2.220617107465234	4.937703011611215	4.343054418628275	5.366588936785652	2.5000353427511315	4	correct	1.0
252.71598210000002	9.303037700000004	nogo_punish	1.0	252.72617609999998	255.4889788999999	258.0289048999998	2.7628027999999176	253.72890069999994	257.00522539999974	261.06709439999986	1.7600781999999526	1.0236795000000711	0.9621194000001196	260.0460272	1.0	259.03632930000003	2	1	90	1	nogo_punish	0	0	-1	0	0	1	1	n/a	0.0	-1	1.0	1.0	2273.9453505	2526.6715266	2527.6742512	2529.4343294	2530.9505759	2531.9742554	2532.9816798	2533.9913777	2535.0124449	2535.9745643	2020-06-10 13:49:55.943099	3.19713183517066	-4.10481603444794	-0.619722894757198	-0.967815062935943	-3.81685472992785	-0.619722894757198	-3.19713183517066	-0.619722894757198	-4.10481603444794	-0.619722894757198	-3.81685472992785	-6.937899369152163	0.6060013445429391	-5.00187817762798	-0.9059201858926965	-2.5540044111387132	-5.431517520504204	-0.9059201858926965	-7.360442235383178	-2.8657181809269834	-3.471719525469916	-2.4368322557525466	-3.470966107768129	4	missed	0.0
262.0628790999999	8.666983399999936	go_punish	1.0	262.0730730999999	264.0586192999999	266.5940089999999	1.9855462000000443	263.0803814000001	265.57466320000003	269.63810030000013	0.97823789999984	1.0193457999998827	1.1019561999996768	268.63034749999997	0.909117900000183	267.60823170000003	2	1	91	2	go_punish	1	0	-1	1	0	0	0	0.0	1.0	-1	1.0	0.909117900000183	2273.9453505	2536.0184236	2537.0257319	2538.0039698	2539.5200137	2540.5393595	2541.5535822	2542.575698	2543.5834508000003	2544.685407	2020-06-10 13:49:55.943099	-2.69545064711262	-2.19798093296085	-5.07029646159312	-3.12777813561619	-2.3748458144805	-5.07029646159312	2.69545064711262	-5.07029646159312	-2.19798093296085	-5.07029646159312	-2.3748458144805	-2.4873258023162403	-5.286581137740341	-3.0950430761408905	-5.3564937527286185	-4.71396748381896	-3.989508605056854	-5.3564937527286185	-2.9098686685472552	-7.3162917477629055	-2.0297106100225655	-6.887405822588469	-1.564131006281039	4	correct	1.0
270.7768027000002	8.704091799999787	go_punish	0.4924040999999306	270.78699670000015	272.6331246	275.1947537000001	1.8461278999998285	271.79119219999984	274.1743932999998	278.25363400000015	0.8419324000001325	1.0203604000002997	1.2374544999997852	277.24096139999983	0.5109699999998156	276.21162609999965	2	1	92	2	go_punish	1	0	-1	1	1	1	0	0.0	1.0	0	0.4924040999999306	0.5109699999998156	2273.9453505	2544.7323472000003	2545.7365427	2546.5784751	2548.1197438	2549.1401042	2550.1569766	2551.1863119	2552.1989845000003	2553.436439	2020-06-10 13:49:55.943099	2.90981143047672	-2.19798093296085	-5.47344344087399	-3.96122031825703	-2.56363201039727	-5.47344344087399	-2.90981143047672	-2.19798093296085	-5.47344344087399	-2.56363201039727	-5.47344344087399	2.19798093296085	0.31868093984899915	-3.0950430761408905	-5.759640732009489	-5.5474096664598	-4.178294800973624	-5.759640732009489	1.7754380667298353	-4.809627296567055	-5.128308236416056	-4.015090293956199	-4.839593514194179	4	correct	1.0
279.5240506	8.719897599999967	go_punish	0.4721849000002294	279.53424459999997	281.38339069999984	283.9136524999999	1.8491460999998708	280.54212289999987	282.9010948	286.9594791999998	0.8412677999999687	1.0125576999998884	1.2946630000001278	285.9549735999999	0.4315563000000111	284.93291069999987	2	1	93	2	go_punish	1	0	-1	1	1	1	1	1.0	1.0	0	0.4721849000002294	0.4315563000000111	2273.9453505	2553.4795951	2554.4874734	2555.3287412	2556.8464453	2557.859003	2558.8782612	2559.9003241	2560.9048297	2562.1994927	2020-06-10 13:49:55.943099	3.47907297948601	-1.7933769992282	-5.47344344087399	-3.22703497392563	-1.99437046138798	-5.47344344087399	-3.47907297948601	-1.7933769992282	-5.47344344087399	-1.99437046138798	-5.47344344087399	1.7933769992282	0.8879424888582892	-2.6904391424082403	-5.759640732009489	-4.8132243221284	-3.609033251964334	-5.759640732009489	1.3708341329971852	-4.240365747557766	-5.128308236416056	-3.6104863602235486	-4.839593514194179	4	correct	1.0
288.2787215999997	8.055681800000002	nogo_punish	1.0	288.28891559999965	289.79343329999983	292.3336939999999	1.5045177000001786	289.2851584	291.3103593000001	295.3826881	0.508274899999833	1.0233346999998503	0.961909299999661	294.3698184	0.283570999999938	293.3478709000001	2	1	94	1	nogo_punish	0	0	-1	0	0	1	0	0.0	1.0	-1	1.0	0.283570999999938	2273.9453505	2562.2342661	2563.2305089	2563.7387838	2565.2557098	2566.2790445	2567.2932214	2568.3151689	2569.3280386	2570.2899479	2020-06-10 13:49:55.943099	2.18731063581163	-4.10481603444794	-1.90762722753218	-2.20122307451519	-4.0949378633438	-1.90762722753218	-2.18731063581163	-1.90762722753218	-4.10481603444794	-1.90762722753218	-4.0949378633438	-5.649995036377181	-0.40381985481609073	-5.00187817762798	-2.1938245186676784	-3.787412422717961	-5.709600653920154	-2.1938245186676784	-6.072537902608196	-4.153622513701965	-3.7498026588858657	-3.7247365885275285	-3.470966107768129	4	correct	1.0
296.3814662	7.925209099999847	nogo_reward	1.0	296.39166019999993	297.83061670000006	300.36404170000014	1.4389565000001312	297.3952988000001	299.34118409999974	303.40790190000007	0.4353178999999727	1.0228576000004068	0.9089673999997103	302.39437469999984	0.3401040000003377	301.3723710999998	2	1	95	3	nogo_reward	1	0	1	0	0	1	0	0.0	1.0	1	1.0	0.3401040000003377	2273.9453505	2570.3370107	2571.3406493	2571.7759672	2573.2865346	2574.3093922000003	2575.3177216	2576.3397252	2577.3532524	2578.2622198	2020-06-10 13:49:55.943099	3.57005066672771	1.86618541607132	7.68968578574307	7.7211904730718	4.11963511901537	7.68968578574307	-3.57005066672771	7.68968578574307	1.86618541607132	7.68968578574307	4.11963511901537	2.1371724857341796	0.9789201760999893	0.9691232728912799	7.403488494607571	6.13500112486903	2.504972328439016	7.403488494607571	1.7146296195031647	5.443690499573284	4.464770323473304	5.872576424747721	2.5000353427511315	4	correct	1.0
304.35599890000003	7.689337699999669	nogo_reward	1.0	304.3661929	305.724827	308.2657012999998	1.3586341000000175	305.3678093999997	307.2425382000001	311.2968817000001	0.35701760000029026	1.0231630999996923	0.7586488999995709	310.28365940000003	1.0	309.2747694999998	2	1	96	3	nogo_reward	1	0	1	0	0	1	0	n/a	0.0	1	1.0	1.0	2273.9453505	2578.3115434	2579.3131599	2579.6701775	2581.1878887000003	2582.2110518	2583.22012	2584.2290099	2585.2422322	2586.0008811	2020-06-10 13:49:55.943099	3.87325963648379	1.86618541607132	8.08699702996699	8.11645229181401	4.21373739348321	8.08699702996699	-3.87325963648379	8.08699702996699	1.86618541607132	8.08699702996699	4.21373739348321	1.7398612415102583	1.2821291458560693	0.9691232728912799	7.8007997388314925	6.530262943611239	2.599074602906856	7.8007997388314925	1.3173183752792434	5.8410017437972055	4.558872597941144	6.269887668971642	2.5000353427511315	4	missed	0.0
312.08055349999995	8.834037300000091	nogo_punish	1.0	312.0907474999999	314.13365909999993	316.65557709999985	2.042911600000025	313.0950336000001	315.6358059999998	319.69630670000015	1.0386254999998528	1.0197711000000709	1.2284780999998475	318.69694519999985	0.8100661999997101	317.6733215999998	2	1	97	1	nogo_punish	1	-1	0	0	0	1	0	0.0	1.0	0	1.0	0.8100661999997101	2273.9453505	2586.036098	2587.0403841	2588.0790096	2589.5811565	2590.6009276	2591.6186721	2592.6422957	2593.6416572000003	2594.8701353	2020-06-10 13:49:55.943099	1.38240661091592	-4.10481603444794	-2.93052202569923	-3.1790031031833	-4.31292863661515	-2.93052202569923	-1.38240661091592	-2.93052202569923	-4.10481603444794	-2.93052202569923	-4.31292863661515	2.93052202569923	-1.2087238797118007	-5.00187817762798	-3.2167193168347286	-4.765192451386071	-5.927591427191504	-3.2167193168347286	2.5079791594682153	-5.1765173118690155	-3.967793432157216	-4.747631386694579	-3.470966107768129	4	correct	1.0
320.9449368999999	8.940826399999878	go_reward	0.3106120000002192	320.95513089999986	323.3947736	325.9456746999999	2.4396427000001495	321.97456950000014	324.9219353999997	329.0105632	1.4202040999998644	1.0237393000002157	0.8853940999997576	327.98886749999974	0.3990960000000996	326.9603222999999	2	1	98	4	go_reward	1	1	0	1	1	1	0	0.0	1.0	1	0.3106120000002192	0.3990960000000996	2273.9453505	2594.9004814	2595.9199200000003	2597.3401241	2598.8672859	2599.8910252	2600.9056728	2601.934218	2602.9559137	2603.8413078	2020-06-10 13:49:55.943099	10.5805022002223	8.27896521285619	0.0	7.92686417501548	10.5805022002223	0.0	-10.5805022002223	8.27896521285619	0.0	10.5805022002223	0.0	1.5478930586210584	7.989371709594579	7.3819030696761505	-0.2861972911354985	6.340674826812709	8.965839409645946	-0.2861972911354985	1.1253501923900435	8.334506914052515	0.34513520445793433	6.461855851860842	0.6338499266798113	4	correct	1.0
329.9194155	9.502115599999797	nogo_punish	1.0	329.92960949999997	332.46012440000004	334.9846938999999	2.530514900000071	330.9468124	333.97730269999965	338.0381520000001	1.5133120000000417	1.0073912000002565	1.393573099999685	337.0305921999998	0.4216864999998506	336.0037027999997	2	1	99	1	nogo_punish	1	-1	0	0	0	1	1	0.0	0.0	0	1.0	0.4216864999998506	2273.9453505	2603.87496	2604.8921629	2606.4054749	2607.9226532	2608.9300444	2609.9490533	2610.9759427	2611.9835025	2613.3770756	2020-06-10 13:49:55.943099	1.81788864625759	-4.10481603444794	-2.35498981050082	-2.56597725616079	-4.17287845675841	-2.35498981050082	-1.81788864625759	-2.35498981050082	-4.10481603444794	-2.35498981050082	-4.17287845675841	2.35498981050082	-0.7732418443701308	-5.00187817762798	-2.6411871016363184	-4.15216660436356	-5.787541247334763	-2.6411871016363184	1.9324469442698051	-4.600985096670605	-3.8277432523004755	-4.172099171496169	-3.470966107768129	4	wrong	1.0
339.4748018999999	9.001170600000023	nogo_reward	1.0	339.48499589999983	342.0739900999997	344.6088015	2.5889941999998882	340.4988003999997	343.5912217	347.64912730000015	1.57518970000001	1.0175798000000214	0.8370391999997082	346.6360755999999	0.5054887999999664	345.62295270000004	2	1	100	3	nogo_reward	1	0	1	0	0	1	0	0.0	1.0	1	1.0	0.5054887999999664	2273.9453505	2613.4303464	2614.4441509	2616.0193406	2617.5365722	2618.554152	2619.5683032	2620.5814261	2621.5944778000003	2622.431517	2020-06-10 13:49:55.943099	4.11434724474936	1.86618541607132	8.40149172879081	8.42878003091303	4.28714448404145	8.40149172879081	-4.11434724474936	8.40149172879081	1.86618541607132	8.40149172879081	4.28714448404145	1.4253665426864384	1.523216754121639	0.9691232728912799	8.115294437655312	6.842590682710259	2.6724816934650963	8.115294437655312	1.0028236764554235	6.1554964426210255	4.632279688499384	6.584382367795462	2.5000353427511315	4	correct	1.0
348.52389589999984	8.305688100000225	go_punish	0.3784506000001784	348.5340898999998	349.87288179999996	352.4202617000001	1.3387919000001602	349.5314524999999	351.3999856999999	355.4876300000001	0.34142930000007254	1.0202760000001945	1.3521479999999428	354.47429490000013	0.5938752000001841	353.4372536999999	2	1	101	2	go_punish	1	0	-1	1	1	1	0	0.0	1.0	0	0.3784506000001784	0.5938752000001841	2273.9453505	2622.4794404	2623.476803	2623.8182323	2625.3453362	2626.3656122	2627.3826042	2628.4196454000003	2629.4329805	2630.7851285	2020-06-10 13:49:55.943099	3.93132643318407	-1.47060866800196	-5.47344344087399	-2.64327836422233	-1.54211700768992	-5.47344344087399	-3.93132643318407	-1.47060866800196	-5.47344344087399	-1.54211700768992	-5.47344344087399	1.47060866800196	1.340195942556349	-2.367670811182	-5.759640732009489	-4.229467712425101	-3.1567797982662738	-5.759640732009489	1.0480658017709452	-3.7881122938597054	-5.128308236416056	-3.2877180289973085	-4.839593514194179	4	correct	1.0
356.8780806	8.54473229999985	nogo_reward	1.0	356.88827459999993	358.4511494999997	360.9805376999998	1.5628748999997697	357.89099529999976	359.96115699999973	364.02498309999964	0.5601541999999426	1.019380700000056	1.4080238000001373	363.01144989999966	0.4890374999999949	361.99827779999987	2	1	102	3	nogo_reward	0	1	0	0	0	1	1	1.0	1.0	0	1.0	0.4890374999999949	2273.9453505	2630.8336251	2631.8363458	2632.3965	2633.9065075	2634.9258882	2635.9436283	2636.9568004	2637.9703336	2639.3783574	2020-06-10 13:49:55.943099	4.30740035401805	1.86618541607132	8.65227387390324	8.67738150910676	4.34487351988519	8.65227387390324	-4.30740035401805	8.65227387390324	1.86618541607132	8.65227387390324	4.34487351988519	-8.65227387390324	1.716269863390329	0.9691232728912799	8.366076582767741	7.09119216090399	2.730210729308836	8.366076582767741	-9.074816740134256	6.406278587733455	4.690008724343124	6.835164512907892	2.5000353427511315	4	correct	1.0
365.4699399000001	9.026209599999675	nogo_reward	1.0	365.48013390000006	367.52333329999965	370.05664039999965	2.043199399999594	366.4841161999998	369.0400998	373.11268659999996	1.0392170999998598	1.0165405999996437	1.393656899999769	372.09953229999974	0.5494754000001194	371.07079269999986	2	1	103	3	nogo_reward	1	0	1	0	0	1	0	1.0	0.0	1	1.0	0.5494754000001194	2273.9453505	2639.4254844	2640.4294667	2641.4686838	2642.9854503	2644.0019909	2645.0161432	2646.0448828	2647.0580371	2648.451694	2020-06-10 13:49:55.943099	3.03199937855833	1.86618541607132	6.9745362941823	6.99751730042109	3.94253691562397	6.9745362941823	-3.03199937855833	6.9745362941823	1.86618541607132	6.9745362941823	3.94253691562397	2.852321977294949	0.4408688879306091	0.9691232728912799	6.688339003046802	5.411327952218319	2.3278741250476163	6.688339003046802	2.429779111063934	4.728541008012515	4.287672120081904	5.157426933186952	2.5000353427511315	4	wrong	1.0
374.5448554999998	9.00558060000003	nogo_reward	1.0	374.55504949999977	376.77478410000003	379.3033593	2.2197346000002653	375.5572465	378.2910901	382.36452039999995	1.2175376000000142	1.0122691999999915	1.1961096999998517	381.35165289999986	0.4307564999999158	380.32250829999975	2	1	104	3	nogo_reward	0	1	0	0	0	1	1	1.0	1.0	0	1.0	0.4307564999999158	2273.9453505	2648.5004	2649.502597	2650.7201346	2652.2364406	2653.2487098	2654.2678588	2655.2970034	2656.3098709	2657.5059806	2020-06-10 13:49:55.943099	3.45568795985305	1.86618541607132	7.53331496527985	7.5542658054082	4.0776270054268	7.53331496527985	-3.45568795985305	7.53331496527985	1.86618541607132	7.53331496527985	4.0776270054268	-7.53331496527985	0.8645574692253293	0.9691232728912799	7.247117674144351	5.968076457205429	2.4629642148504463	7.247117674144351	-7.955857831510865	5.287319679110064	4.422762209884734	5.716205604284501	2.5000353427511315	4	correct	1.0
383.5814838000001	8.426764999999705	go_reward	0.4943299999999908	383.59167780000007	384.9559181999998	387.49875040000006	1.3642403999997441	384.59825039999987	386.4811276999999	390.5571163999998	0.3576677999999447	1.0176227000001745	1.4613263999999617	389.542426	0.6300087999998141	388.52414629999976	2	1	105	4	go_reward	1	1	0	1	1	1	0	0.0	1.0	1	0.4943299999999908	0.6300087999998141	2273.9453505	2657.5370283	2658.5436009	2658.9012687	2660.4264782	2661.4441009	2662.4694968	2663.4877765	2664.5024669	2665.9637933	2020-06-10 13:49:55.943099	10.9543403583294	8.56903164927001	0.0	8.28127539440683	10.9543403583294	0.0	-10.9543403583294	8.56903164927001	0.0	10.9543403583294	0.0	1.25782662220724	8.363209867701679	7.671969506089969	-0.2861972911354985	6.695086046204059	9.339677567753046	-0.2861972911354985	0.8352837559762252	8.708345072159615	0.34513520445793433	6.751922288274661	0.6338499266798113	4	correct	1.0
392.0415221999997	8.289839200000188	nogo_punish	1.0	392.05171619999965	393.47387609999987	396.00344829999995	1.4221599000002243	393.0540412999999	394.98334590000013	399.06249230000003	0.4198347999999896	1.0201023999998142	1.279063099999803	398.0495920999997	0.5024754000000939	397.0205136999998	2	1	106	1	nogo_punish	1	-1	0	0	0	1	0	0.0	1.0	0	1.0	0.5024754000000939	2273.9453505	2665.9970667	2666.9993918	2667.4192266	2668.9286964000003	2669.9487988	2670.9658642	2671.9949426	2673.0078428	2674.2869059	2020-06-10 13:49:55.943099	2.15995383288963	-4.10481603444794	-1.90410102870579	-2.08381315804996	-4.06405486159541	-1.90410102870579	-2.15995383288963	-1.90410102870579	-4.10481603444794	-1.90410102870579	-4.06405486159541	1.90410102870579	-0.4311766577380909	-5.00187817762798	-2.1902983198412884	-3.6700025062527306	-5.6787176521717635	-2.1902983198412884	1.4815581624747751	-4.150096314875576	-3.7189196571374756	-3.7212103897011386	-3.470966107768129	4	correct	1.0
400.36086720000003	8.699009899999965	nogo_punish	1.0	400.3710612	402.07019969999965	404.6137054999999	1.6991384999996626	401.38381579999987	403.5876856	407.67148989999987	0.6863838999997824	1.0260198999999375	1.3985812000000806	406.65733199999977	0.6890792999997757	405.6292014999999	2	1	107	1	nogo_punish	0	0	-1	0	0	1	0	0.0	1.0	-1	1.0	0.6890792999997757	2273.9453505	2674.3164117	2675.3291663	2676.0155502	2677.5330361	2678.559056	2679.574552	2680.6026825	2681.6168404	2683.0154216	2020-06-10 13:49:55.943099	2.43048078817507	-4.10481603444794	-1.54833133026573	-1.70186305282169	-3.9788121184408	-1.54833133026573	-2.43048078817507	-1.54833133026573	-4.10481603444794	-1.54833133026573	-3.9788121184408	-6.00929093364363	-0.16064970245265098	-5.00187817762798	-1.8345286214012284	-3.2880524010244603	-5.593474909017154	-1.8345286214012284	-6.431833799874645	-3.7943266164355154	-3.6336769139828657	-3.3654406912610786	-3.470966107768129	4	correct	1.0
409.1134197000001	9.109776299999794	nogo_reward	1.0	409.1236137000001	411.83397860000014	414.37357299999985	2.7103649000000587	410.1324497999999	413.3504947000001	417.43208749999985	1.7015288000002329	1.0230782999997245	0.8013025000000198	416.41759439999987	0.5280778000001192	415.3960582999998	2	1	108	3	nogo_reward	1	0	1	0	0	1	0	0.0	1.0	1	1.0	0.5280778000001192	2273.9453505	2683.0689642	2684.0778003	2685.7793291000003	2687.2958452000003	2688.3189235	2689.3414088	2690.3629449	2691.377438	2692.1787405	2020-06-10 13:49:55.943099	2.35752544780576	1.86618541607132	6.09126936648853	6.11031127908953	3.73374391868276	6.09126936648853	-2.35752544780576	6.09126936648853	1.86618541607132	6.09126936648853	3.73374391868276	3.7355889049887194	-0.23360504282196093	0.9691232728912799	5.805072075353031	4.52412193088676	2.1190811281064064	5.805072075353031	3.3130460387577045	3.8452740803187444	4.078879123140695	4.274160005493181	2.5000353427511315	4	correct	1.0
418.27660749999995	9.722522600000048	go_punish	0.0925450999998247	418.2868014999999	420.91256599999997	423.46460750000006	2.6257645000000593	419.29406229999995	422.44434139999976	426.5167415000001	1.6185037000000193	1.020266100000299	1.4925825999998779	425.50337409999975	0.535957199999757	424.4811233999999	2	1	109	2	go_punish	1	0	-1	1	1	1	0	0.0	1.0	0	0.0925450999998247	0.535957199999757	2273.9453505	2692.232152	2693.2394128	2694.8579165	2696.3896919	2697.409958	2698.4264739	2699.4487246	2700.462092	2701.9546746	2020-06-10 13:49:55.943099	4.29286449364172	-1.21163363990039	-5.47344344087399	-2.17614925655016	-1.18057894723226	-5.47344344087399	-4.29286449364172	-1.21163363990039	-5.47344344087399	-1.18057894723226	-5.47344344087399	1.21163363990039	1.7017340030139994	-2.1086957830804303	-5.759640732009489	-3.76233860475293	-2.795241737808614	-5.759640732009489	0.7890907736693751	-3.4265742334020457	-5.128308236416056	-3.0287430008957386	-4.839593514194179	4	correct	1.0
428.06002039999976	8.44596219999994	go_punish	0.5380113000001074	428.0702143999997	429.45907450000004	432.00827009999966	1.3888601000003291	429.0702695	430.9847491999999	435.0388524	0.3888050000000476	1.0235208999997667	1.4773241999996571	434.0305346	0.4258678999999574	433.01727619999974	2	1	110	2	go_punish	0	-1	0	1	1	1	0	0.0	1.0	-1	0.5380113000001074	0.4258678999999574	2273.9453505	2702.0155649	2703.01562	2703.404425	2704.9300997	2705.9536206	2706.9626267	2707.9758851	2708.9842029	2710.4615271	2020-06-10 13:49:55.943099	4.58355892310705	-1.00271797780866	-5.47344344087399	-1.80012395783336	-0.889884517766942	-5.47344344087399	-4.58355892310705	-1.00271797780866	-5.47344344087399	-0.889884517766942	-5.47344344087399	-6.554904286100701	1.9924284324793295	-1.8997801209887002	-5.759640732009489	-3.3863133060361306	-2.504547308343296	-5.759640732009489	-6.977447152331716	-3.1358798039367275	-5.128308236416056	-2.8198273388040085	-4.839593514194179	4	correct	1.0
436.54955040000004	9.347023499999978	go_punish	0.4857477999998991	436.5597444	439.3302862999999	441.87628080000013	2.7705418999998983	437.5672255999998	440.85581189999994	444.92955359999996	1.7630607000000964	1.0204689000001963	0.9772143000000142	443.9215890999999	0.5616823000000295	442.89338799999996	2	1	111	2	go_punish	1	0	-1	1	1	1	1	0.0	0.0	0	0.4857477999998991	0.5616823000000295	2273.9453505	2710.5050949	2711.5125761	2713.2756368	2714.8011624	2715.8216313000003	2716.8387385	2717.8669396	2718.8749041	2719.8521184	2020-06-10 13:49:55.943099	3.11309036182321	-2.22659748099818	-5.47344344087399	-2.88902791195357	-2.36035307905078	-5.47344344087399	-3.11309036182321	-2.22659748099818	-5.47344344087399	-2.36035307905078	-5.47344344087399	2.22659748099818	0.5219598711954894	-3.12365962417822	-5.759640732009489	-4.475217260156341	-3.975015869627134	-5.759640732009489	1.804054614767165	-4.6063483652205655	-5.128308236416056	-4.0437068419935285	-4.839593514194179	4	wrong	1.0
445.92548179999994	8.550772300000062	nogo_punish	1.0	445.9356757999999	447.9383899999998	450.46751110000014	2.0027141999999003	446.9403695000001	449.44888949999995	453.52756640000007	0.9980204999997113	1.0186216000001878	0.9588816999998926	452.5144339999997	0.0883688999997502	451.4815143999999	2	1	112	1	nogo_punish	0	0	-1	0	0	1	0	0.0	1.0	-1	1.0	0.0883688999997502	2273.9453505	2719.8810263	2720.88572	2721.8837405	2723.39424	2724.4128616000003	2725.4268649	2726.4597845	2727.4729169	2728.4317986	2020-06-10 13:49:55.943099	1.56471770915827	-4.10481603444794	-2.65902632837401	-2.79056869010066	-4.22374403753228	-2.65902632837401	-1.56471770915827	-2.65902632837401	-4.10481603444794	-2.65902632837401	-4.22374403753228	-4.898595935535351	-1.0264127814694508	-5.00187817762798	-2.9452236195095085	-4.37675803830343	-5.838406828108634	-2.9452236195095085	-5.321138801766366	-4.905021614543795	-3.8786088330743462	-4.476135689369359	-3.470966107768129	4	correct	1.0
454.5380596	9.276738600000044	go_reward	0.0270079000001715	454.54825359999995	456.98295629999984	459.53189680000014	2.434702699999889	455.5630464000001	458.5082594999999	462.58244030000014	1.419909899999766	1.0236373000002459	1.242551899999853	461.5688399999999	0.7038698000001204	460.5391491999999	2	1	113	4	go_reward	1	1	0	1	1	1	0	0.0	1.0	1	0.0270079000001715	0.7038698000001204	2273.9453505	2728.4936041	2729.5083969	2730.9283068	2732.45361	2733.4772473000003	2734.4844997	2735.5141905	2736.5277908000003	2737.7703427	2020-06-10 13:49:55.943099	11.2496311804446	8.79862129789762	0.0	8.56244520044621	11.2496311804446	0.0	-11.2496311804446	8.79862129789762	0.0	11.2496311804446	0.0	1.028236973579629	8.65850068981688	7.90155915471758	-0.2861972911354985	6.976255852243439	9.634968389868247	-0.2861972911354985	0.6056941073486142	9.003635894274815	0.34513520445793433	6.981511936902272	0.6338499266798113	4	correct	1.0
463.8478445999999	7.714544200000091	go_reward	0.5178406999998515	463.8580385999999	465.2183565	467.7795741	1.3603179000001546	464.8605419999999	466.7588584	470.8127178999998	0.3578145000001314	1.0207156999999825	0.7598649000001387	469.81263899999976	0.8845840999997563	468.7903143999997	2	1	114	4	go_reward	0	0	1	1	1	1	0	0.0	1.0	0	0.5178406999998515	0.8845840999997563	2273.9453505	2737.8033891	2738.8058925	2739.163707	2740.7042089	2741.7249246	2742.7356649	2743.7579895	2744.7580684	2745.5179333	2020-06-10 13:49:55.943099	11.4844812228098	8.98157905966245	0.0	8.78694887641787	11.4844812228098	0.0	-11.4844812228098	8.98157905966245	0.0	11.4844812228098	0.0	-8.98157905966245	8.893350732182078	8.084516916482409	-0.2861972911354985	7.2007595282151	9.869818432233446	-0.2861972911354985	-9.404121925893463	9.238485936640014	0.34513520445793433	7.164469698667101	0.6338499266798113	4	correct	1.0
471.6131409999998	9.028819600000134	nogo_reward	1.0	471.62333499999977	473.8084537999998	476.3426298999998	2.1851188000000548	472.63945799999965	475.3261054999998	479.3989167999998	1.1689958000001752	1.0165243999999802	1.253237800000079	478.3845514999998	0.7751259000001482	477.3565942	2	1	115	3	nogo_reward	1	0	1	0	0	1	0	0.0	1.0	1	1.0	0.7751259000001482	2273.9453505	2745.5686855	2746.5848085	2747.7538043	2749.271456	2750.2879804	2751.3019447	2752.329902	2753.3442673	2754.5975051	2020-06-10 13:49:55.943099	2.91843050457895	1.86618541607132	6.83182603228327	6.849092851099	3.91339552770432	6.83182603228327	-2.91843050457895	6.83182603228327	1.86618541607132	6.83182603228327	3.91339552770432	2.9950322391939794	0.3273000139512292	0.9691232728912799	6.545628741147771	5.262903502896229	2.2987327371279664	6.545628741147771	2.5724893729629645	4.585830746113484	4.258530732162255	5.014716671287921	2.5000353427511315	4	correct	1.0
480.6757468999999	9.320314300000064	nogo_punish	1.0	480.6859408999999	483.2186326000001	485.73469780000005	2.532691700000214	481.68771800000013	484.72092410000005	488.7942843000001	1.53091459999996	1.0137737000000016	1.2119708999998693	487.7809656999998	0.5001948999997694	486.7525897999999	2	1	116	1	nogo_punish	1	-1	0	0	0	1	0	0.0	1.0	0	1.0	0.5001948999997694	2273.9453505	2754.6312914	2755.6330685000003	2757.1639831	2758.6662746	2759.6800483	2760.6979403	2761.7263162	2762.7396348	2763.9516057	2020-06-10 13:49:55.943099	0.874195720013469	-4.10481603444794	-3.54180129598487	-3.65481488122083	-4.41599701599834	-3.54180129598487	-0.874195720013469	-3.54180129598487	-4.10481603444794	-3.54180129598487	-4.41599701599834	3.54180129598487	-1.7169347706142517	-5.00187817762798	-3.8279985871203683	-5.2410042294236	-6.030659806574694	-3.8279985871203683	3.119258429753855	-5.787796582154655	-4.070861811540406	-5.3589106569802185	-3.470966107768129	4	correct	1.0
490.0269936999998	9.197633600000245	nogo_punish	1.0	490.0371876999998	492.48629489999985	495.02278039999965	2.4491072000000713	491.05020339999965	494.00259389999974	498.0765925999999	1.4360915000002024	1.0201864999999088	1.1582287000001088	497.06295869999985	0.3262011000001621	496.0346881999999	2	1	117	1	nogo_punish	1	-1	0	0	0	1	0	0.0	1.0	0	1.0	0.3262011000001621	2273.9453505	2763.9825382	2764.9955539	2766.4316454	2767.9479444	2768.9681309	2769.9800387	2771.0083092	2772.0219431	2773.1801718	2020-06-10 13:49:55.943099	1.40102945979952	-4.10481603444794	-2.85479793640793	-2.95215050552872	-4.25582739620745	-2.85479793640793	-1.40102945979952	-2.85479793640793	-4.10481603444794	-2.85479793640793	-4.25582739620745	2.85479793640793	-1.1901010308282007	-5.00187817762798	-3.1409952275434283	-4.5383398537314905	-5.870490186783804	-3.1409952275434283	2.432255070176915	-5.100793222577716	-3.910692191749516	-4.671907297403278	-3.470966107768129	4	correct	1.0
499.2540669	8.90811530000019	nogo_punish	1.0	499.26426089999995	501.16888949999975	503.7053538	1.9046285999997963	500.2704681	502.6861073	506.75628529999994	0.8984213999997337	1.0192465000000084	1.4160909000001993	505.74521219999997	0.5133872000001247	504.72336080000014	2	1	118	1	nogo_punish	1	-1	0	0	0	1	1	1.0	1.0	0	1.0	0.5133872000001247	2273.9453505	2773.2096114	2774.2158186	2775.11424	2776.6314578	2777.6507043	2778.6687113000003	2779.6905627	2780.7016358	2782.1177267000003	2020-06-10 13:49:55.943099	1.81645491783936	-4.10481603444794	-2.31472042950037	-2.39879668261891	-4.13117534733973	-2.31472042950037	-1.81645491783936	-2.31472042950037	-4.10481603444794	-2.31472042950037	-4.13117534733973	2.31472042950037	-0.7746755727883607	-5.00187817762798	-2.6009177206358682	-3.9849860308216805	-5.745838137916084	-2.6009177206358682	1.892177563269355	-4.560715715670155	-3.786040142881796	-4.131829790495718	-3.470966107768129	4	correct	1.0
508.20658809999986	8.275210100000095	go_punish	1.0	508.2167820999998	509.55039229999966	512.0833186	1.333610199999839	509.2233719999999	511.0597908	515.1451577999997	0.3270202999997309	1.0235278000000108	1.3468344000002617	514.1370668	0.6824865999997201	513.0973500999999	2	1	119	2	go_punish	1	0	-1	1	0	0	0	0.0	1.0	-1	1.0	0.6824865999997201	2273.9453505	2782.1621326	2783.1687225	2783.4957428	2785.0051413	2786.0286691	2787.0427006	2788.0824173	2789.0905083	2790.4373427	2020-06-10 13:49:55.943099	-3.65520752276454	-1.80392024076294	-5.47344344087399	-2.3567130841966	-1.81823591810945	-5.47344344087399	3.65520752276454	-5.47344344087399	-1.80392024076294	-5.47344344087399	-1.81823591810945	-2.08417882303537	-6.246338013392261	-2.7009823839429803	-5.759640732009489	-3.9429024323993707	-3.432898708685804	-5.759640732009489	-2.506721689266385	-7.719438727043776	-1.4731007136515157	-7.290552801869339	-1.1700703140831288	4	correct	1.0
516.5281656000002	8.580923399999847	go_reward	0.3742044000000533	516.5383596000001	518.1916167999998	520.7377925000001	1.6532571999996435	517.5375212999998	519.7247767999997	523.7981529999997	0.6540955000000395	1.0130157000003237	1.3211300000002666	522.7850930999998	0.4936922000001686	521.7561086999999	2	1	120	4	go_reward	0	0	1	1	1	1	0	0.0	1.0	0	0.3742044000000533	0.4936922000001686	2273.9453505	2790.4837101000003	2791.4828718	2792.1369673	2793.6701273	2794.683143	2795.7014592	2796.7304436	2797.7435035	2799.0646335	2020-06-10 13:49:55.943099	9.34530239336562	7.24922042260702	0.0	7.08820606438711	9.34530239336562	0.0	-9.34530239336562	7.24922042260702	0.0	9.34530239336562	0.0	-7.24922042260702	6.754171902737898	6.3521582794269795	-0.2861972911354985	5.50201671618434	7.730639602789266	-0.2861972911354985	-7.671763288838035	7.099307107195834	0.34513520445793433	5.432111061611671	0.6338499266798113	4	correct	1.0
