onset	duration	trial_type	response_time	cueOnset	targetOnset	fbOnset	cueRT	firstfixOnset	secondfixOnset	waitOnset	firstfixdur	secondfixdur	waitdur	nback_fbOnset	nback_response_time	nback_targetOnset	block	wm	trial	cue	cond	is_common	outcome_go	outcome_nogo	key_correct	key_pressed	is_correct	key_correct_nback	key_pressed_nback	is_correct_nback	outcome	rt	rt_nback	time_scan	time_onset	time_isi1	time_circle	time_isi2	time_feedback	time_same	time_correct	time_iti	time_done	timestamp_scan	DV	Qgo	Qnogo	SV	Wgo	Wnogo	mDV	Qchosen	Qunchosen	Wchosen	Wunchosen	PE	DVC	QgoC	QnogoC	SVC	WgoC	WnogoC	PEC	WchosenC	WunchosenC	QchosenC	QunchosenC	run	outcome_nback	nback_targetResp
0.0	8.624830600000223	nogo_punish	1.0	0.0491948999995202	1.7833533999994415	4.3191489999996975	1.7341584999999213	1.0649270999995224	3.2986138999997365	7.357501199999433	0.7184262999999191	1.020535099999961	1.3165243000003102	6.352381699999341	1.0	5.343613099999402	2	1	1	1	nogo_punish	1	-1	0	0	0	1	0	n/a	0.0	0	1.0	1.0	1605.2963167000005	1605.3455116	1606.3612438	1607.0796701	1608.5949306000002	1609.6154657000002	1610.6399298	1611.6486983999998	1612.6538179	1613.9703422000002	2020-06-10 13:38:47.291026	-0.48811592678929	0.0	0.0	0.0	0.48811592678929	0.0	0.48811592678929	0.0	0.0	0.0	0.48811592678929	0.0	-3.0792464174170107	-0.8970621431800402	-0.2861972911354985	-1.5861893482027705	-1.1265468637870637	-0.2861972911354985	-0.4225428662310149	-2.2459952861697854	0.8332511312472244	-1.8171093609953486	0.6338499266798113	3	missed	0.0
8.703209499999957	9.402456300000267	go_punish	0.4159988000001249	8.752404399999477	11.28629369999976	13.84998239999959	2.5338893000002827	9.761582599999429	12.829526499999474	16.9016617999996	1.5247111000003315	1.0204559000001154	1.2531989000001431	15.892652499999485	0.6335990999996284	14.859666099999458	2	1	2	2	go_punish	1	0	-1	1	1	1	0	0.0	1.0	0	0.4159988000001249	0.6335990999996284	1605.2963167000005	1614.0487211	1615.0578993	1616.5826104000002	1618.1258432	1619.1462991	1620.1559828	1621.1889692	1622.1979785	1623.4511774000002	2020-06-10 13:38:47.291026	0.48811592678929	0.0	0.0	0.0	0.48811592678929	0.0	-0.48811592678929	0.0	0.0	0.48811592678929	0.0	0.0	-2.103014563838431	-0.8970621431800402	-0.2861972911354985	-1.5861893482027705	-1.1265468637870637	-0.2861972911354985	-0.4225428662310149	-1.7578793593804953	0.34513520445793433	-1.8171093609953486	0.6338499266798113	3	correct	1.0
18.13548270000001	8.924149299999954	nogo_punish	0.304425600000286	18.18467759999953	20.234865499999614	22.77000019999946	2.0501879000000827	19.18934499999955	21.75193189999959	25.835370299999568	1.045520500000066	1.018068299999868	1.2734565999999177	24.8238924999996	0.6577935999998772	23.784564899999623	2	1	3	1	nogo_punish	1	-1	0	0	1	0	1	0.0	0.0	-1	0.304425600000286	0.6577935999998772	1605.2963167000005	1623.4809943	1624.4856617	1625.5311822	1627.0482486	1628.0663169	1629.0808816	1630.1202092	1631.131687	1632.4051436	2020-06-10 13:38:47.291026	0.48811592678929	0.0	0.0	0.0	0.48811592678929	0.0	-0.48811592678929	0.0	0.0	0.48811592678929	0.0	-7.55762226390936	-2.103014563838431	-0.8970621431800402	-0.2861972911354985	-1.5861893482027705	-1.1265468637870637	-0.2861972911354985	-7.980165130140375	-1.7578793593804953	0.34513520445793433	-1.8171093609953486	0.6338499266798113	3	wrong	1.0
27.102975699999888	9.326647900000125	nogo_punish	0.5155334000000948	27.15217059999941	29.573681299999407	32.130927199999405	2.421510699999999	28.15457559999959	31.106996399999616	35.187565499999664	1.4191056999998182	1.023930799999789	1.2912529999998696	34.17342919999942	0.7456225999999333	33.13785969999958	2	1	4	1	nogo_punish	1	-1	0	0	1	0	0	1.0	0.0	-1	0.5155334000000948	0.7456225999999333	1605.2963167000005	1632.4484873	1633.4508923	1634.869998	1636.4033131	1637.4272439	1638.4341764	1639.4697459	1640.4838822000002	1641.7751352	2020-06-10 13:38:47.291026	-1.2173510678788	-1.3932699623379	0.0	-1.3932699623379	-1.2173510678788	0.0	1.2173510678788	-1.3932699623379	0.0	-1.2173510678788	0.0	-6.16435230157146	-3.8084815585065206	-2.29033210551794	-0.2861972911354985	-2.9794593105406704	-2.832013858455154	-0.2861972911354985	-6.586895167802475	-3.4633463540485856	0.34513520445793433	-3.2103793233332487	0.6338499266798113	3	wrong	1.0
36.47850890000018	9.199673599999642	go_punish	0.4725309999998899	36.5277037999997	38.69272489999935	41.222089099999494	2.165021099999649	37.52994979999971	40.20949199999973	44.26571249999961	1.1627750999996351	1.0125970999997662	1.4616648999997324	43.246684599999526	1.0	42.2382640999997	2	1	5	2	go_punish	1	0	-1	1	1	1	0	n/a	0.0	-1	0.4725309999998899	1.0	1605.2963167000005	1641.8240205000002	1642.8262665000002	1643.9890415999998	1645.5058087000002	1646.5184058	1647.5345808000002	1648.5430013	1649.5620292	1651.0236940999998	2020-06-10 13:38:47.291026	0.48811592678929	0.0	0.0	0.0	0.48811592678929	0.0	-0.48811592678929	0.0	0.0	0.48811592678929	0.0	0.0	-2.103014563838431	-0.8970621431800402	-0.2861972911354985	-1.5861893482027705	-1.1265468637870637	-0.2861972911354985	-0.4225428662310149	-1.7578793593804953	0.34513520445793433	-1.8171093609953486	0.6338499266798113	3	missed	0.0
45.724820400000226	8.923424899999873	go_punish	1.0	45.774015299999746	47.78446519999943	50.30632149999951	2.010449899999685	46.77844329999948	49.287182999999686	53.3452821999997	1.0060218999999506	1.0191384999998263	1.3521579999999176	52.33796940000002	0.7714796999998725	51.3240452	2	1	6	2	go_punish	0	-1	0	1	0	0	0	0.0	1.0	0	1.0	0.7714796999998725	1605.2963167000005	1651.0703320000002	1652.07476	1653.0807819	1654.5834997000002	1655.6026382	1656.6203619000005	1657.6342861000005	1658.6415989000002	1659.9937569	2020-06-10 13:38:47.291026	1.2173510678788	-1.3932699623379	0.0	-1.3932699623379	-1.2173510678788	0.0	-1.2173510678788	0.0	-1.3932699623379	0.0	-1.2173510678788	0.0	-1.3737794227489208	-2.29033210551794	-0.2861972911354985	-2.9794593105406704	-2.832013858455154	-0.2861972911354985	-0.4225428662310149	-2.2459952861697854	-0.8722158634208657	-1.8171093609953486	-0.7594200356580886	3	correct	1.0
54.710052500000074	8.646339299999909	go_reward	0.267951499999981	54.759247399999595	56.978300299999546	59.531408999999485	2.2190528999999515	55.76212199999941	58.51434689999974	62.575415799999746	1.2161783000001378	1.0170620999997482	0.8301708999997572	61.562096099999735	0.5683113000000048	60.548930199999404	2	1	7	4	go_reward	1	1	0	1	1	1	0	0.0	1.0	1	0.267951499999981	0.5683113000000048	1605.2963167000005	1660.0555641	1661.0584387	1662.274617	1663.8106636000002	1664.8277257	1665.8452469	1666.8584128000002	1667.8717325000002	1668.7019034	2020-06-10 13:38:47.291026	0.48811592678929	0.0	0.0	0.0	0.48811592678929	0.0	-0.48811592678929	0.0	0.0	0.48811592678929	0.0	9.82685827147725	-2.103014563838431	-0.8970621431800402	-0.2861972911354985	-1.5861893482027705	-1.1265468637870637	-0.2861972911354985	9.404315405246233	-1.7578793593804953	0.34513520445793433	-1.8171093609953486	0.6338499266798113	3	correct	1.0
63.44142779999993	8.887756900000113	nogo_reward	0.3368854999998802	63.49062269999945	65.41930759999946	67.95255479999946	1.9286849000000075	64.49966869999957	66.93642289999957	70.99378379999962	0.9196388999998817	1.0161318999998912	1.3845957999999428	69.9801460999995	0.7540358999999626	68.9672210999995	2	1	8	3	nogo_reward	0	1	0	0	1	0	0	0.0	1.0	1	0.3368854999998802	0.7540358999999626	1605.2963167000005	1668.7869394	1669.7959854	1670.7156243	1672.2327396	1673.2488715	1674.2635378	1675.2764628	1676.2901005	1677.6746963	2020-06-10 13:38:47.291026	0.48811592678929	0.0	0.0	0.0	0.48811592678929	0.0	-0.48811592678929	0.0	0.0	0.48811592678929	0.0	9.82685827147725	-2.103014563838431	-0.8970621431800402	-0.2861972911354985	-1.5861893482027705	-1.1265468637870637	-0.2861972911354985	9.404315405246233	-1.7578793593804953	0.34513520445793433	-1.8171093609953486	0.6338499266798113	3	correct	1.0
72.37430909999989	9.215484900000092	nogo_reward	0.2829602000001614	72.42350399999941	75.00813179999955	77.56074349999949	2.584627800000135	73.43856369999935	76.53977619999955	80.59897030000002	1.5695681000001969	1.0209672999999384	1.0400185999994846	79.5810322999996	1.0	78.57210689999943	2	1	9	3	nogo_reward	1	0	1	0	1	0	0	n/a	0.0	1	0.2829602000001614	1.0	1605.2963167000005	1677.7198207	1678.7348803999998	1680.3044485	1681.8360929	1682.8570602	1683.8684236	1684.877349	1685.8952870000005	1686.9353056	2020-06-10 13:38:47.291026	2.8152710406599	1.87908070680616	0.0	1.87908070680616	2.8152710406599	0.0	-2.8152710406599	1.87908070680616	0.0	2.8152710406599	0.0	-1.87908070680616	0.22414055003217914	0.9820185636261197	-0.2861972911354985	0.29289135860338944	1.2006082500835462	-0.2861972911354985	-2.301623573037175	0.5692757544901146	0.34513520445793433	0.06197134581081132	0.6338499266798113	3	missed	0.0
81.6175909000001	8.283119200000101	nogo_punish	0.5601510000001326	81.66678579999962	83.1340233999997	85.6899079999996	1.4672376000000895	82.6742740999996	84.66621369999962	88.7374135999994	0.45974930000011227	1.0236942999999883	1.2124914000003173	87.73141919999966	0.7935007000000951	86.70367109999961	2	1	10	1	nogo_punish	1	-1	0	0	1	0	0	1.0	0.0	-1	0.5601510000001326	0.7935007000000951	1605.2963167000005	1686.9631025	1687.9705908	1688.4303401000002	1689.9625304	1690.9862247	1691.9999878	1693.0277359000002	1694.0337303	1695.2462217000002	2020-06-10 13:38:47.291026	-2.57163987691792	-2.50186481051664	0.0	-2.50186481051664	-2.57163987691792	0.0	2.57163987691792	-2.50186481051664	0.0	-2.57163987691792	0.0	-5.0557574533927205	-5.16277036754564	-3.39892695369668	-0.2861972911354985	-4.088054158719411	-4.186302667494274	-0.2861972911354985	-5.478300319623735	-4.817635163087705	0.34513520445793433	-4.3189741715119885	0.6338499266798113	3	wrong	1.0
89.95135090000008	8.799478099999988	nogo_reward	1.0	90.0005457999996	92.43974419999972	94.97319049999942	2.439198400000123	91.00917359999971	93.94924179999975	98.01616699999954	1.43057060000001	1.0239486999996643	0.7838569000000462	97.0192254999995	0.9786582000001544	95.99656289999962	2	1	11	3	nogo_reward	1	0	1	0	0	1	1	1.0	1.0	1	1.0	0.9786582000001544	1605.2963167000005	1695.2968625	1696.3054903000002	1697.7360609000002	1699.2455585000002	1700.2695072	1701.2928796	1702.3155422	1703.3124837	1704.0963406	2020-06-10 13:38:47.291026	-4.6477213274707	3.36205950007777	0.0	3.36205950007777	4.6477213274707	0.0	4.6477213274707	0.0	3.36205950007777	0.0	4.6477213274707	9.82685827147725	-7.238851818098421	2.46499735689773	-0.2861972911354985	1.7758701518749997	3.0330585368943463	-0.2861972911354985	9.404315405246233	-2.2459952861697854	4.992856531928634	-1.8171093609953486	3.9959094267575814	3	correct	1.0
98.8008296000005	9.62296259999971	nogo_reward	0.933857099999841	98.85002450000002	101.39724519999959	103.9465633999996	2.5472206999995706	99.85261969999942	102.92979649999961	107.00118549999956	1.5446255000001656	1.0167668999999933	1.4718016000001626	105.99336169999947	0.5346322000000328	104.9604706999994	2	1	12	3	nogo_reward	0	1	0	0	1	0	0	0.0	1.0	1	0.933857099999841	0.5346322000000328	1605.2963167000005	1704.1463412000005	1705.1489364	1706.6935619	1708.2261132	1709.2428801	1710.2567874	1711.2896784	1712.2975022	1713.7693038000002	2020-06-10 13:38:47.291026	3.04321537443294	3.36205950007777	1.87908070680616	4.5402184905814	4.92229608123909	1.87908070680616	-3.04321537443294	3.36205950007777	1.87908070680616	4.92229608123909	1.87908070680616	6.4647987713994794	0.4520848838052194	2.46499735689773	1.5928834156706615	2.954029142378629	3.3076332906627366	1.5928834156706615	6.042255905168465	2.676300795069305	2.2242159112640945	1.5449501390824216	2.512930633485971	3	correct	1.0
108.45153620000019	8.63609120000001	nogo_punish	1.0	108.50073109999971	110.78714119999972	113.3186985999996	2.286410100000012	109.50858299999959	112.30488359999958	116.37838429999942	1.278558200000134	1.0138150000000223	0.7584380000002966	115.36576999999943	0.4216156000002229	114.3364667999997	2	1	13	1	nogo_punish	1	-1	0	0	0	1	0	1.0	0.0	0	1.0	0.4216156000002229	1605.2963167000005	1713.7970478000002	1714.8048997	1716.0834579000002	1717.6012003	1718.6150153	1719.6327835000002	1720.6620867	1721.674701	1722.4331390000002	2020-06-10 13:38:47.291026	3.65416199131538	-3.38963245220178	0.0	-3.38963245220178	-3.65416199131538	0.0	-3.65416199131538	0.0	-3.38963245220178	0.0	-3.65416199131538	0.0	1.0630315006876594	-4.28669459538182	-0.2861972911354985	-4.9758218004045505	-5.268824781891734	-0.2861972911354985	-0.4225428662310149	-2.2459952861697854	-3.309026786857446	-1.8171093609953486	-2.755782525521969	3	wrong	1.0
117.13219750000007	9.356633299999885	nogo_reward	0.5745714999998199	117.1813923999996	120.00951139999961	122.5619951999995	2.828119000000015	118.18122409999955	121.54091769999945	125.62269829999946	1.8282873000000563	1.0210775000000467	0.9153274000000238	124.6095209	0.5005568999999923	123.5814733999996	2	1	14	3	nogo_reward	1	0	1	0	1	0	1	0.0	0.0	0	0.5745714999998199	0.5005568999999923	1605.2963167000005	1722.4777091	1723.4775408	1725.3058281	1726.8372344	1727.8583119	1728.8777901	1729.9058376000005	1730.919015	1731.8343424	2020-06-10 13:38:47.291026	4.43856198704344	4.5402184905814	1.87908070680616	5.48197804487176	6.31764269384959	1.87908070680616	-4.43856198704344	4.5402184905814	1.87908070680616	6.31764269384959	1.87908070680616	-4.5402184905814	1.847431496415719	3.6431563474013595	1.5928834156706615	3.8957886966689896	4.702979903273237	1.5928834156706615	-4.962761356812415	4.071647407679805	2.2242159112640945	2.7231091295860512	2.512930633485971	3	wrong	1.0
126.53011339999989	8.928300100000115	go_punish	0.520390099999986	126.57930829999941	128.4416566999996	130.9777795	1.8623484000002009	127.58920289999946	129.95823189999942	134.03039259999946	0.8524538000001485	1.0195476000005783	1.4772158000000672	133.01906680000002	0.8443898000000445	131.99564519999944	2	1	15	2	go_punish	1	0	-1	1	1	1	0	0.0	1.0	0	0.520390099999986	0.8443898000000445	1605.2963167000005	1731.875625	1732.8855196	1733.7379734	1735.2545486	1736.2740962000005	1737.2919619	1738.3153835000005	1739.3267093	1740.8039251	2020-06-10 13:38:47.291026	-1.15084799640899	-1.3932699623379	0.0	-1.10859484817874	-1.15084799640899	0.0	1.15084799640899	-1.3932699623379	0.0	-1.15084799640899	0.0	1.3932699623379	-3.741978487036711	-2.29033210551794	-0.2861972911354985	-2.6947841963815105	-2.7655107869853435	-0.2861972911354985	0.970727096106885	-3.396843282578775	0.34513520445793433	-3.2103793233332487	0.6338499266798113	3	correct	1.0
135.5058461000001	8.293530399999781	go_punish	0.53184390000024	135.55504099999962	137.24465719999966	139.78472109999962	1.6896162000000459	136.5585582999995	138.77039100000002	142.8443774999996	0.6860989000001609	1.0143300999995972	1.004193899999791	141.83118669999953	0.6825698000002376	140.80245639999953	2	1	16	2	go_punish	1	0	-1	1	1	1	0	1.0	0.0	0	0.53184390000024	0.6825698000002376	1605.2963167000005	1740.8513577	1741.854875	1742.5409739000002	1744.0667077000005	1745.0810378	1746.0987731	1747.1275034	1748.1406942	1749.1448881	2020-06-10 13:38:47.291026	-0.815233394101776	-1.10859484817874	0.0	-0.887767641685134	-0.815233394101776	0.0	0.815233394101776	-1.10859484817874	0.0	-0.815233394101776	0.0	1.10859484817874	-3.4063638847294966	-2.00565699135878	-0.2861972911354985	-2.4739569898879044	-2.42989618467813	-0.2861972911354985	0.6860519819477251	-3.0612286802715616	0.34513520445793433	-2.9257042091740884	0.6338499266798113	3	wrong	1.0
143.83202060000008	7.835311199999751	nogo_punish	1.0	143.8812154999996	145.2399252999994	147.78204179999943	1.358709799999815	144.8975002999996	146.75847569999974	150.8168673999994	0.342424999999821	1.023566099999698	0.8996592999999393	149.79921530000001	1.0	148.79041099999972	2	1	17	1	nogo_punish	0	0	-1	0	0	1	0	n/a	0.0	-1	1.0	1.0	1605.2963167000005	1749.1775322	1750.193817	1750.536242	1752.0547924000002	1753.0783585	1754.0867277000002	1755.0955320000005	1756.1131841	1757.0128433999998	2020-06-10 13:38:47.291026	3.49737029390182	-3.38963245220178	0.0	-2.71154607211003	-3.49737029390182	0.0	-3.49737029390182	0.0	-3.38963245220178	0.0	-3.49737029390182	-7.55762226390936	0.906239803274099	-4.28669459538182	-0.2861972911354985	-4.297735420312801	-5.112033084478174	-0.2861972911354985	-7.980165130140375	-2.2459952861697854	-3.1522350894438853	-1.8171093609953486	-2.755782525521969	3	missed	0.0
151.69837240000015	9.299394299999676	go_reward	0.2980431000000862	151.74756729999967	154.52587279999943	157.06752369999936	2.7783054999997603	152.75189729999943	156.04958179999971	160.1319621999994	1.773975500000006	1.0179418999996415	0.9149993999999424	159.11863009999956	0.5499878000000535	158.0809372999995	2	1	18	4	go_reward	1	1	0	1	1	1	0	0.0	1.0	1	0.2980431000000862	0.5499878000000535	1605.2963167000005	1757.0438840000002	1758.048214	1759.8221895	1761.3458985000002	1762.3638403999998	1763.377254	1764.4149468	1765.4282789	1766.3432782999998	2020-06-10 13:38:47.291026	2.8152710406599	1.87908070680616	0.0	1.87908070680616	2.8152710406599	0.0	-2.8152710406599	1.87908070680616	0.0	2.8152710406599	0.0	7.947777564671089	0.22414055003217914	0.9820185636261197	-0.2861972911354985	0.29289135860338944	1.2006082500835462	-0.2861972911354985	7.525234698440074	0.5692757544901146	0.34513520445793433	0.06197134581081132	0.6338499266798113	3	correct	1.0
161.0457644999999	8.529957200000126	go_punish	0.6928157999996074	161.09495939999942	162.76814839999975	165.31679749999944	1.6731890000003204	162.0980657999994	164.29312709999954	168.3807127	0.6700826000003417	1.0236703999999008	1.2442038999995475	167.3529472999994	0.8945912999997745	166.33026709999945	2	1	19	2	go_punish	0	-1	0	1	1	1	0	0.0	1.0	-1	0.6928157999996074	0.8945912999997745	1605.2963167000005	1766.3912761	1767.3943825	1768.0644651000002	1769.5894438	1770.6131142	1771.6265838	1772.649264	1773.6770294000005	1774.9212333	2020-06-10 13:38:47.291026	-0.555057049812472	-0.887767641685134	0.0	-0.715183582246161	-0.555057049812472	0.0	0.555057049812472	-0.887767641685134	0.0	-0.555057049812472	0.0	-6.669854622224227	-3.146187540440193	-1.7848297848651742	-0.2861972911354985	-2.3013729304489314	-2.169719840388826	-0.2861972911354985	-7.092397488455242	-2.8010523359822574	0.34513520445793433	-2.7048770026804827	0.6338499266798113	3	correct	1.0
169.6060507000002	8.362578199999689	go_reward	0.33735119999983	169.65524559999972	171.22056849999967	173.75047079999945	1.5653228999999556	170.66025209999975	172.7325175999997	176.8064151999995	0.5603163999999197	1.017953199999738	1.2114085999999133	175.7928961999994	0.5131002999996781	174.76380509999967	2	1	20	4	go_reward	1	1	0	1	1	1	1	1.0	1.0	1	0.33735119999983	0.5131002999996781	1605.2963167000005	1774.9515623000002	1775.9565688000002	1776.5168852000002	1778.0288343000002	1779.0467875	1780.0601218000002	1781.0892129	1782.1027319	1783.3141405	2020-06-10 13:38:47.291026	4.6477213274707	3.36205950007777	0.0	3.36205950007777	4.6477213274707	0.0	-4.6477213274707	3.36205950007777	0.0	4.6477213274707	0.0	6.4647987713994794	2.0565908368429793	2.46499735689773	-0.2861972911354985	1.7758701518749997	3.0330585368943463	-0.2861972911354985	6.042255905168465	2.4017260413009147	0.34513520445793433	1.5449501390824216	0.6338499266798113	3	correct	1.0
177.9989547	8.987055099999907	go_reward	0.2434988999998495	178.04814959999953	180.40438969999946	182.9610613999996	2.3562400999999227	179.04754619999972	181.9374530999994	186.01104989999953	1.3568434999997407	1.0236083000002054	1.0241547999999057	184.99770579999972	0.376605500000096	183.9692854	2	1	21	4	go_reward	1	1	0	1	1	1	0	1.0	0.0	1	0.2434988999998495	0.376605500000096	1605.2963167000005	1783.3444663	1784.3438629000002	1785.7007064	1787.2337698	1788.2573781	1789.2656021000005	1790.2940225000002	1791.3073666	1792.3315214	2020-06-10 13:38:47.291026	6.10045507174272	4.5402184905814	0.0	4.5402184905814	6.10045507174272	0.0	-6.10045507174272	4.5402184905814	0.0	6.10045507174272	0.0	5.286639780895849	3.5093245811149996	3.6431563474013595	-0.2861972911354985	2.954029142378629	4.485792281166367	-0.2861972911354985	4.8640969146648345	3.854459785572935	0.34513520445793433	2.7231091295860512	0.6338499266798113	3	wrong	1.0
187.0360318999999	8.357635300000084	go_punish	1.0	187.08522679999942	188.4529046999994	190.99098499999968	1.3676778999999897	188.1020813	189.97075939999945	194.02810449999947	0.35082339999939904	1.0202256000002308	1.41475760000003	193.01791119999962	1.0	192.0087767	2	1	22	2	go_punish	0	-1	0	1	0	0	0	n/a	0.0	0	1.0	1.0	1605.2963167000005	1792.3815435	1793.3983980000005	1793.7492214	1795.2670761	1796.2873017000002	1797.3050934000005	1798.3142279	1799.3244212	1800.7391788	2020-06-10 13:38:47.291026	2.05730927687165	-2.10845354458406	0.0	-1.97264043358861	-2.05730927687165	0.0	-2.05730927687165	0.0	-2.10845354458406	0.0	-2.05730927687165	0.0	-0.5338212137560707	-3.0055156877641003	-0.2861972911354985	-3.5588297817913803	-3.671972067448004	-0.2861972911354985	-0.4225428662310149	-2.2459952861697854	-1.7121740724137158	-1.8171093609953486	-1.4746036179042488	3	missed	0.0
195.42502369999988	8.270893600000136	go_reward	0.4884254000003238	195.4742185999994	196.89841269999943	199.4535002999994	1.4241941000000224	196.47822179999957	198.4374917999994	202.5093092999996	0.42019089999985226	1.016008499999998	1.2358028999999533	201.49635309999962	0.4170764000000417	200.4677720999996	2	1	23	4	go_reward	1	1	0	1	1	1	1	1.0	1.0	1	0.4884254000003238	0.4170764000000417	1605.2963167000005	1800.7705353	1801.7745385	1802.1947294	1803.7338085	1804.749817	1805.7640888	1806.7926698	1807.805626	1809.0414289	2020-06-10 13:38:47.291026	7.25940224813995	5.48197804487176	0.0	5.48197804487176	7.25940224813995	0.0	-7.25940224813995	5.48197804487176	0.0	7.25940224813995	0.0	4.344880226605489	4.66827175751223	4.58491590169172	-0.2861972911354985	3.8957886966689896	5.644739457563596	-0.2861972911354985	3.922337360374474	5.013406961970165	0.34513520445793433	3.6648686838764117	0.6338499266798113	3	correct	1.0
203.74453590000007	8.267549299999928	nogo_reward	0.8129094000000805	203.7937307999996	205.55606619999958	208.1089829999994	1.7623353999999836	204.79227989999958	207.08813119999945	211.1618486999996	0.7637862999999925	1.0208517999999458	0.8994313999999122	210.1484068999996	0.4465009000000464	209.12038979999943	2	1	24	3	nogo_reward	1	0	1	0	1	0	0	0.0	1.0	0	0.8129094000000805	0.4465009000000464	1605.2963167000005	1809.0900475	1810.0885966	1810.8523829	1812.3844479	1813.4052997	1814.4167065	1815.4447236	1816.4581654	1817.3575968	2020-06-10 13:38:47.291026	3.22603697747599	3.6028973380656	1.87908070680616	4.36001372100615	5.10511768428214	1.87908070680616	-3.22603697747599	3.6028973380656	1.87908070680616	5.10511768428214	1.87908070680616	-3.6028973380656	0.6349064868482692	2.7058351948855597	1.5928834156706615	2.7738243728033796	3.4904548937057864	1.5928834156706615	-4.025440204296615	2.859122398112355	2.2242159112640945	1.7857879770702514	2.512930633485971	3	correct	1.0
212.03754290000006	9.74430869999992	go_reward	0.237166100000195	212.08673779999958	214.8236201999996	217.37608519999958	2.736882400000013	213.09696639999947	216.3510431999996	220.43835089999948	1.726653800000122	1.025041999999985	1.3926956000000246	219.42476429999942	0.5628420999996706	218.38988769999946	2	1	25	4	go_reward	1	1	0	1	1	1	1	0.0	0.0	1	0.237166100000195	0.5628420999996706	1605.2963167000005	1817.3830545	1818.3932831	1820.1199369	1821.6473599	1822.6724019	1823.6862044	1824.721081	1825.7346676	1827.1273632	2020-06-10 13:38:47.291026	8.1893891810933	6.23909442781231	0.0	6.23909442781231	8.1893891810933	0.0	-8.1893891810933	6.23909442781231	0.0	8.1893891810933	0.0	3.5877638436649395	5.598258690465579	5.342032284632269	-0.2861972911354985	4.652905079609539	6.574726390516947	-0.2861972911354985	3.1652209774339246	5.943393894923515	0.34513520445793433	4.421985066816961	0.6338499266798113	3	wrong	1.0
221.8096677000001	8.664796899999828	nogo_punish	1.0	221.8588625999996	223.9128122999996	226.4340505999994	2.0539496999999756	222.85967469999946	225.4156531999995	229.4679861999996	1.0531376000001273	1.0183973999999125	1.055673299999853	228.46160799999961	0.4896297000000231	227.4480698999996	2	1	26	1	nogo_punish	0	0	-1	0	0	1	0	0.0	1.0	-1	1.0	0.4896297000000231	1605.2963167000005	1827.1551793	1828.1559914	1829.209129	1830.7119699	1831.7303673	1832.7443866	1833.7579247	1834.7643029	1835.8199762	2020-06-10 13:38:47.291026	2.29537802978041	-3.38963245220178	-1.3932699623379	-3.57559165751991	-3.68864799211832	-1.3932699623379	-2.29537802978041	-1.3932699623379	-3.38963245220178	-1.3932699623379	-3.68864799211832	-6.16435230157146	-0.29575246084731077	-4.28669459538182	-1.6794672534733985	-5.1617810057226805	-5.303310782694673	-1.6794672534733985	-6.586895167802475	-3.6392652485076855	-3.3435127876603854	-3.2103793233332487	-2.755782525521969	3	correct	1.0
230.5235095000005	8.412664299999506	nogo_reward	1.0	230.57270440000002	231.93248539999945	234.46560619999946	1.3597809999994297	231.5747454999996	233.44921829999953	237.50070919999962	0.35773989999984224	1.016387899999927	1.484659499999907	236.49298449999947	0.6606024000002435	235.47910589999947	2	1	27	3	nogo_reward	1	0	1	0	0	1	0	0.0	1.0	1	1.0	0.6606024000002435	1605.2963167000005	1835.8690211000005	1836.8710622	1837.2288021	1838.745535	1839.7619229	1840.7754226	1841.7893012	1842.7970259	1844.2816854	2020-06-10 13:38:47.291026	-2.28910403359528	2.87703492773454	1.87908070680616	3.48898415114846	4.16818474040144	1.87908070680616	2.28910403359528	1.87908070680616	2.87703492773454	1.87908070680616	4.16818474040144	7.947777564671089	-4.880234524223001	1.9799727845544997	1.5928834156706615	1.9027948029456894	2.553521949825086	1.5928834156706615	7.525234698440074	-0.3669145793636255	4.513319944859374	0.06197134581081132	3.510884854414351	3	correct	1.0
238.98228410000002	7.995153699999946	go_punish	1.0	239.03147899999954	240.50536649999958	243.04520079999952	1.4738875000000462	240.03808249999952	242.02191909999942	246.07991499999957	0.4672840000000633	1.0232817000000978	0.9467176999999083	245.07610859999954	0.9821775000000345	244.0537908999995	2	1	28	2	go_punish	1	0	-1	1	0	0	0	0.0	1.0	-1	1.0	0.9821775000000345	1605.2963167000005	1844.3277957	1845.3343992	1845.8016832	1847.3182358	1848.3415175	1849.3501076	1850.3724253	1851.3762317	1852.3229494	2020-06-10 13:38:47.291026	1.96679285463684	-2.10845354458406	0.0	-1.58040290169801	-1.96679285463684	0.0	-1.96679285463684	0.0	-2.10845354458406	0.0	-1.96679285463684	-7.55762226390936	-0.6243376359908808	-3.0055156877641003	-0.2861972911354985	-3.1665922499007806	-3.581455645213194	-0.2861972911354985	-7.980165130140375	-2.2459952861697854	-1.6216576501789057	-1.8171093609953486	-1.4746036179042488	3	correct	1.0
247.02607289999992	9.178130700000565	nogo_reward	0.2640400000000227	247.07526779999944	249.8415652999995	252.4032036999995	2.7662975000000642	248.07790849999947	251.38375189999942	255.47603249999952	1.7636568000000352	1.0194518000000699	0.7773660000004838	254.46016529999952	0.3763349999999263	253.4243596999995	2	1	29	3	nogo_reward	1	0	1	0	1	0	1	0.0	0.0	0	0.2640400000000227	0.3763349999999263	1605.2963167000005	1852.3715845	1853.3742252	1855.137882	1856.6800686	1857.6995204	1858.7206764	1859.756482	1860.7723492	1861.5497152000005	2020-06-10 13:38:47.291026	1.09103792399186	2.87703492773454	3.36205950007777	4.68702567716784	4.45309742406963	3.36205950007777	-1.09103792399186	2.87703492773454	3.36205950007777	4.45309742406963	3.36205950007777	-2.87703492773454	-1.5000925666358609	1.9799727845544997	3.075862208942272	3.1008363289650696	2.838434633493276	3.075862208942272	-3.299577793965555	2.2071021378998443	3.7071947045357048	1.0599255667391914	3.9959094267575814	3	wrong	1.0
256.23672669999996	7.764982400000008	nogo_punish	1.0	256.2859215999995	257.57403819999945	260.0695651999995	1.2881165999999666	257.29458389999945	259.0727112999996	263.12475809999955	0.2794542999999976	0.9968538999999055	0.9261458999999377	262.1091680999996	0.7337330000000293	261.0858733999994	2	1	30	1	nogo_punish	1	-1	0	0	0	1	0	0.0	1.0	0	1.0	0.7337330000000293	1605.2963167000005	1861.5822383	1862.5909006	1862.8703549	1864.369028	1865.3658819	1866.3821901	1867.4054848	1868.4210748	1869.3472207	2020-06-10 13:38:47.291026	1.33848394573142	-3.38963245220178	-2.50186481051664	-4.26822691753278	-3.84034875624806	-2.50186481051664	-1.33848394573142	-2.50186481051664	-3.38963245220178	-2.50186481051664	-3.84034875624806	2.50186481051664	-1.252646544896301	-4.28669459538182	-2.7880621016521383	-5.8544162657355505	-5.455011546824414	-2.7880621016521383	2.079321944285625	-4.747860096686425	-3.4952135517901253	-4.3189741715119885	-2.755782525521969	3	correct	1.0
264.0268229999999	7.843106499999976	go_reward	0.5290351000003284	264.07601789999944	265.5085881	268.0552533	1.432570200000555	265.0806478999996	267.0440609999996	271.1138523999996	0.4279402000004211	1.0111923000004026	0.8052719999998317	270.1003183999994	0.4718771000002562	269.06991179999955	2	1	31	4	go_reward	1	1	0	1	1	1	0	0.0	1.0	1	0.5290351000003284	0.4718771000002562	1605.2963167000005	1869.3723346	1870.3769646	1870.8049048000005	1872.3403777	1873.3515700000005	1874.3662285	1875.3966351	1876.4101691	1877.2154411	2020-06-10 13:38:47.291026	8.93973936449677	6.85104365122623	0.0	6.85104365122623	8.93973936449677	0.0	-8.93973936449677	6.85104365122623	0.0	8.93973936449677	0.0	2.975814620251019	6.348608873869049	5.95398150804619	-0.2861972911354985	5.264854303023459	7.325076573920416	-0.2861972911354985	2.5532717540200043	6.693744078326985	0.34513520445793433	5.0339342902308815	0.6338499266798113	3	correct	1.0
271.91945439999995	8.187033100000008	nogo_reward	0.750974000000042	271.96864929999947	273.3106193999995	275.87432059999946	1.341970100000026	272.9864348999995	274.8526998999996	278.942857	0.3241845000000012	1.0216206999998576	1.212825399999474	277.9206107	0.3483839000000444	276.89117319999946	2	1	32	3	nogo_reward	1	0	1	0	1	0	0	1.0	0.0	0	0.750974000000042	0.3483839000000444	1605.2963167000005	1877.264966	1878.2827516	1878.6069361	1880.1490166	1881.1706373	1882.1874899	1883.2169274000005	1884.2391737000005	1885.4519991	2020-06-10 13:38:47.291026	0.299190188836096	2.31082516064483	3.36205950007777	3.75493224738419	3.66124968891386	3.36205950007777	-0.299190188836096	2.31082516064483	3.36205950007777	3.66124968891386	3.36205950007777	-2.31082516064483	-2.291940301791625	1.4137630174647895	3.075862208942272	2.16874289918142	2.046586898337506	3.075862208942272	-2.7333680268758447	1.4152544027440745	3.7071947045357048	0.4937157996494812	3.9959094267575814	3	wrong	1.0
280.1504041999999	8.614901200000077	go_reward	0.3361746000000494	280.19959909999943	281.9874092999994	284.5209542999994	1.7878101999999672	281.2071277999994	283.5033397999996	287.5854633999995	0.780281500000001	1.0176144999998087	1.2290368999999828	286.5723418999994	0.6879272999999557	285.52857409999956	2	1	33	4	go_reward	1	1	0	1	1	1	1	0.0	0.0	1	0.3361746000000494	0.6879272999999557	1605.2963167000005	1885.4959158	1886.5034445	1887.283726	1888.7996565	1889.817271	1890.8248908	1891.8686586	1892.8817801	1894.110817	2020-06-10 13:38:47.291026	9.54827220458574	7.34816346094308	0.0	7.34816346094308	9.54827220458574	0.0	-9.54827220458574	7.34816346094308	0.0	9.54827220458574	0.0	2.4786948105341695	6.957141713958018	6.451101317763039	-0.2861972911354985	5.761974112740309	7.933609414009386	-0.2861972911354985	2.0561519443031546	7.302276918415954	0.34513520445793433	5.531054099947731	0.6338499266798113	3	wrong	1.0
288.8120163000001	8.921520899999905	go_punish	0.3116141000000425	288.8612111999996	291.2099737999995	293.7608018999995	2.3487625999998727	289.87335869999947	292.7425531999995	296.82541199999946	1.3366151000000173	1.0182486999999583	0.9573201000000608	295.8123398999994	0.3560853999997562	294.7834659999994	2	1	34	2	go_punish	0	-1	0	1	1	1	0	1.0	0.0	-1	0.3116141000000425	0.3560853999997562	1605.2963167000005	1894.1575279	1895.1696754	1896.5062905	1898.0388699	1899.0571186	1900.0797827	1901.1086566	1902.1217287	1903.0790488	2020-06-10 13:38:47.291026	-0.815830873826757	-2.10845354458406	-1.3932699623379	-2.66714755991751	-2.20910083616466	-1.3932699623379	0.815830873826757	-2.10845354458406	-1.3932699623379	-2.20910083616466	-1.3932699623379	-5.4491687193253	-3.406961364454478	-3.0055156877641003	-1.6794672534733985	-4.25333690812028	-3.8237636267410138	-1.6794672534733985	-5.871711585556315	-4.455096122334446	-1.0481347578799656	-3.9255629055794086	-0.7594200356580886	3	wrong	1.0
297.77417190000006	8.305276599999843	go_punish	0.4035041999995883	297.8233667999996	299.6311117	302.1761139	1.8077449000004435	298.8277577999995	301.15637399999946	305.2455701999995	0.8033539000005021	1.019739900000559	0.8830731999998989	304.2319671	0.6539081999999325	303.1946094	2	1	35	2	go_punish	1	0	-1	1	1	1	0	0.0	1.0	0	0.4035041999995883	0.6539081999999325	1605.2963167000005	1903.1196835	1904.1240745	1904.9274284000005	1906.4526907	1907.4724306000005	1908.4909261000005	1909.5282838000005	1910.5418869	1911.4249601	2020-06-10 13:38:47.291026	-1.97991194519908	-3.08123528176735	-1.3932699623379	-3.53449727441888	-3.37318190753698	-1.3932699623379	1.97991194519908	-3.08123528176735	-1.3932699623379	-3.37318190753698	-1.3932699623379	3.08123528176735	-4.571042435826801	-3.97829742494739	-1.6794672534733985	-5.12068662262165	-4.987844698113333	-1.6794672534733985	2.658692415536335	-5.619177193706765	-1.0481347578799656	-4.898344642762698	-0.7594200356580886	3	correct	1.0
306.12527	8.03273790000003	nogo_punish	1.0	306.1744648999995	307.7408027999995	310.2769012999995	1.5663379000000077	307.1800803999995	309.2574925999995	313.3394978999995	0.5607224000000315	1.0194086999999854	0.8677049000000352	312.3318835999994	0.6251471999999012	311.29539759999943	2	1	36	1	nogo_punish	1	-1	0	0	0	1	0	0.0	1.0	0	1.0	0.6251471999999012	1605.2963167000005	1911.4707816	1912.4763971	1913.0371195	1914.5538093	1915.573218	1916.5917143	1917.6282003	1918.6358146	1919.5035195	2020-06-10 13:38:47.291026	1.65295008517707	-3.38963245220178	-1.99636248986387	-3.43365097052833	-3.64931257504095	-1.99636248986387	-1.65295008517707	-1.99636248986387	-3.38963245220178	-1.99636248986387	-3.64931257504095	1.99636248986387	-0.9381804054506508	-4.28669459538182	-2.2825597809993687	-5.0198403187311005	-5.263975365617304	-2.2825597809993687	1.5738196236328552	-4.242357776033655	-3.304177370583016	-3.8134718508592185	-2.755782525521969	3	correct	1.0
314.20382610000047	8.656444599999531	nogo_reward	1.0	314.253021	315.9247633	318.4659918999996	1.6717423000000053	315.2686033999996	317.44294629999945	321.5005315999995	0.6561599000003753	1.0230456000001595	1.4089340000000448	320.48729199999957	0.7583207000002403	319.4742079999994	2	1	37	3	nogo_reward	1	0	1	0	0	1	0	0.0	1.0	1	1.0	0.7583207000002403	1605.2963167000005	1919.5493377000005	1920.5649201	1921.2210800000005	1922.739263	1923.7623086	1924.7705247	1925.7836087	1926.7968483	1928.2057823	2020-06-10 13:38:47.291026	0.319909537947853	1.86618541607132	3.36205950007777	3.02569879381664	3.04214996212992	3.36205950007777	-0.319909537947853	3.36205950007777	1.86618541607132	3.36205950007777	3.04214996212992	6.4647987713994794	-2.271220952679868	0.9691232728912799	3.075862208942272	1.4395094456138697	1.4274871715535662	3.075862208942272	6.042255905168465	1.1160642139079848	3.387285166587854	1.5449501390824216	2.5000353427511315	3	correct	1.0
322.8865925	9.262453699999924	go_reward	0.3776643999999578	322.9357873999995	325.4267484999996	327.9761930999996	2.4909611000000496	323.9447630999996	326.9596978999996	331.0328400999995	1.481985399999985	1.0164952000000085	1.1654009999999744	330.0205707999994	0.6466382999997222	328.9908015999995	2	1	38	4	go_reward	1	1	0	1	1	1	0	0.0	1.0	1	0.3776643999999578	0.6466382999997222	1605.2963167000005	1928.2321041	1929.2410798	1930.7230652	1932.2560146	1933.2725098	1934.2871183	1935.3168875	1936.3291568	1937.4945578	2020-06-10 13:38:47.291026	10.0441928101931	7.75393149898434	0.0	7.75393149898434	10.0441928101931	0.0	-10.0441928101931	7.75393149898434	0.0	10.0441928101931	0.0	2.0729267724929095	7.45306231956538	6.8568693558042995	-0.2861972911354985	6.167742150781569	8.429530019616747	-0.2861972911354985	1.6503839062618946	7.7981975240233155	0.34513520445793433	5.936822137988991	0.6338499266798113	3	correct	1.0
332.17716139999993	9.671470200000158	go_reward	0.3464926999999989	332.22635629999945	334.8599233	337.3848593999994	2.6335670000005393	333.24317739999947	336.3730171999996	340.4196336	1.6167459000005238	1.011842199999819	1.4781928999996126	339.4143243999995	0.8064720000002126	338.3939266999996	2	1	39	4	go_reward	1	1	0	1	1	1	0	0.0	1.0	1	0.3464926999999989	0.8064720000002126	1605.2963167000005	1937.522673	1938.5394941	1940.1562400000005	1941.6693339	1942.6811761	1943.6902434	1944.7106411	1945.7159503000005	1947.1941432	2020-06-10 13:38:47.291026	10.4502028499072	8.08663423112532	0.0	8.08663423112532	10.4502028499072	0.0	-10.4502028499072	8.08663423112532	0.0	10.4502028499072	0.0	1.7402240403519293	7.8590723592794784	7.18957208794528	-0.2861972911354985	6.500444882922549	8.835540059330846	-0.2861972911354985	1.3176811741209145	8.204207563737414	0.34513520445793433	6.269524870129971	0.6338499266798113	3	correct	1.0
341.8926411	8.379136400000107	nogo_reward	1.0	341.9418359999995	343.7217547999994	346.26170629999956	1.7799187999999049	342.9423720999996	345.2382752999995	349.3122201999995	0.7793826999998146	1.0234310000000733	1.0087522000001172	348.2986687999994	0.6534341999999924	347.2689624999996	2	1	40	3	nogo_reward	1	0	1	0	0	1	0	0.0	1.0	1	1.0	0.6534341999999924	1605.2963167000005	1947.2381527	1948.2386888	1949.0180715	1950.534592	1951.558023	1952.5652792	1953.5949855	1954.6085369	1955.6172891	2020-06-10 13:38:47.291026	1.18589452211701	1.86618541607132	4.5402184905814	4.33039754068522	3.35432396846438	4.5402184905814	-1.18589452211701	4.5402184905814	1.86618541607132	4.5402184905814	3.35432396846438	5.286639780895849	-1.4052359685107108	0.9691232728912799	4.254021199445901	2.744208192482449	1.7396611778880264	4.254021199445901	4.8640969146648345	2.2942232044116144	3.6994591729223147	2.7231091295860512	2.5000353427511315	3	correct	1.0
350.3001213	7.925082100000054	nogo_punish	1.0	350.3493161999995	351.745363	354.2739537999996	1.3960468000004767	351.3561807999995	353.2546699999996	357.3117250999994	0.38918220000050496	1.0192838000000393	0.9626732000001539	356.30565099999944	0.5217596000002231	355.2845529999995	2	1	41	1	nogo_punish	1	-1	0	0	0	1	0	0.0	1.0	0	1.0	0.5217596000002231	1605.2963167000005	1955.6456329	1956.6524975	1957.0416797000005	1958.5509867	1959.5702705	1960.5808697	1961.6019677	1962.6080418	1963.570715	2020-06-10 13:38:47.291026	1.89806432287094	-3.38963245220178	-1.6029512239313	-2.77831811500111	-3.50101554680224	-1.6029512239313	-1.89806432287094	-1.6029512239313	-3.38963245220178	-1.6029512239313	-3.50101554680224	1.6029512239313	-0.6930661677567809	-4.28669459538182	-1.8891485150667986	-4.36450746320388	-5.1156783373785935	-1.8891485150667986	1.180408357700285	-3.8489465101010856	-3.1558803423443056	-3.4200605849266488	-2.755782525521969	3	correct	1.0
358.2508619	9.032806499999879	go_reward	0.2925255000000106	358.30005679999954	360.2868625999995	362.83797469999945	1.9868057999999564	359.3051577999995	361.81997759999945	365.89271589999953	0.9817047999999886	1.0179971000000023	1.440147399999887	364.8796163999996	0.4812237000001005	363.8511191999994	2	1	42	4	go_reward	1	1	0	1	1	1	0	1.0	0.0	1	0.2925255000000106	0.4812237000001005	1605.2963167000005	1963.5963735	1964.6014745	1965.5831793	1967.1162943	1968.1342914	1969.1474359	1970.1759331	1971.1890326	1972.62918	2020-06-10 13:38:47.291026	10.7840572405179	8.36060093081493	0.0	8.36060093081493	10.7840572405179	0.0	-10.7840572405179	8.36060093081493	0.0	10.7840572405179	0.0	1.4662573406623185	8.192926749890178	7.46353878763489	-0.2861972911354985	6.77441158261216	9.169394449941546	-0.2861972911354985	1.0437144744313036	8.538061954348114	0.34513520445793433	6.543491569819582	0.6338499266798113	3	wrong	1.0
367.3149111000005	9.550333599999476	go_reward	0.2162201999999524	367.364106	370.1330236999995	372.6780235999995	2.7689176999995198	368.36953939999944	371.66053519999946	375.71843429999944	1.7634843000000728	1.0174884000000475	1.1960053000000244	374.7048049999996	0.3980458999999428	373.69225109999957	2	1	43	4	go_reward	1	1	0	1	1	1	0	1.0	0.0	1	0.2162201999999524	0.3980458999999428	1605.2963167000005	1972.6604227000005	1973.6658561	1975.4293404	1976.9568519	1977.9743403	1978.9885678	1980.0011217	1981.014751	1982.2107563	2020-06-10 13:38:47.291026	11.0597221024977	8.58712377011316	0.0	8.58712377011316	11.0597221024977	0.0	-11.0597221024977	8.58712377011316	0.0	11.0597221024977	0.0	1.2397345013640884	8.468591611869979	7.690061626933121	-0.2861972911354985	7.00093442191039	9.445059311921346	-0.2861972911354985	0.8171916351330735	8.813726816327915	0.34513520445793433	6.770014409117812	0.6338499266798113	3	wrong	1.0
376.90784869999993	9.62925590000009	go_punish	1.0	376.95704359999945	379.66015109999944	382.1968965999995	2.7031074999999873	377.9596437	381.1776798999995	385.2341795999996	1.7005073999994238	1.0192167000000154	1.3521198999999342	384.2208105999996	0.3803234000001794	383.2069494999996	2	1	44	2	go_punish	0	-1	0	1	0	0	0	0.0	1.0	0	1.0	0.3803234000001794	1605.2963167000005	1982.2533603	1983.2559604000005	1984.9564678	1986.4739966	1987.4932133	1988.5032662	1989.5171273	1990.5304963	1991.8826162	2020-06-10 13:38:47.291026	1.20675933189638	-2.46817054338314	-1.3932699623379	-2.83788064807644	-2.60002929423429	-1.3932699623379	-1.20675933189638	-1.3932699623379	-2.46817054338314	-1.3932699623379	-2.60002929423429	1.3932699623379	-1.3843711587313408	-3.3652326865631803	-1.6794672534733985	-4.4240699962792105	-4.214692084810643	-1.6794672534733985	0.970727096106885	-3.6392652485076855	-2.2548940897763554	-3.2103793233332487	-1.8343206167033288	3	correct	1.0
386.5854468	9.896727699999929	nogo_reward	1.0	386.6346416999995	389.5931206	392.1284661999996	2.9584789000005003	387.6320726999995	391.1094721999996	395.1777886999996	1.9610479000004943	1.0189940000000206	1.3535806999998385	394.1588449999995	0.8248321999999462	393.1364320999994	2	1	45	3	nogo_reward	1	0	1	0	0	1	0	0.0	1.0	1	1.0	0.8248321999999462	1605.2963167000005	1991.9309584	1992.9283894	1994.8894373000005	1996.4057889	1997.4247829	1998.4327488	1999.4551617	2000.4741054	2001.8276861	2020-06-10 13:38:47.291026	1.88477066265287	1.86618541607132	5.48197804487176	5.3581361921884	3.59720738221889	5.48197804487176	-1.88477066265287	5.48197804487176	1.86618541607132	5.48197804487176	3.59720738221889	4.344880226605489	-0.7063598279748509	0.9691232728912799	5.195780753736262	3.7719468439856296	1.9825445916425362	5.195780753736262	3.922337360374474	3.235982758701975	3.9423425866768245	3.6648686838764117	2.5000353427511315	3	correct	1.0
396.5312486999999	8.180680200000097	nogo_reward	1.0	396.5804435999994	398.4192465999995	400.95901599999956	1.838803000000098	397.5756855999996	399.9357443999995	404.00249249999956	0.8435609999999087	1.0232716000000437	0.7586312999999336	402.99712229999955	0.8691579000001184	401.97305639999945	2	1	46	3	nogo_reward	1	0	1	0	0	1	0	0.0	1.0	1	1.0	0.8691579000001184	1605.2963167000005	2001.8767603	2002.8720023	2003.7155633	2005.2320611	2006.2553327	2007.2693731	2008.293439	2009.2988092	2010.0574405	2020-06-10 13:38:47.291026	2.45143902666612	1.86618541607132	6.23909442781231	6.17338538245872	3.78765540114619	6.23909442781231	-2.45143902666612	6.23909442781231	1.86618541607132	6.23909442781231	3.78765540114619	3.5877638436649395	-0.1396914639616007	0.9691232728912799	5.952897136676811	4.58719603425595	2.1729926105698363	5.952897136676811	3.1652209774339246	3.9930991416425243	4.132790605604124	4.421985066816961	2.5000353427511315	3	correct	1.0
404.7378219	7.927193700000089	go_reward	0.7656932999998389	404.7870167999995	406.1226302999994	408.66883879999955	1.3356134999999085	405.79638359999944	407.64790039999957	411.7288456999995	0.32624669999995604	1.0209383999999773	0.9853648000000703	410.7151716999995	0.4995033999998668	409.68670219999944	2	1	47	4	go_reward	0	0	1	1	1	1	0	0.0	1.0	0	0.7656932999998389	0.4995033999998668	1605.2963167000005	2010.0833335	2011.0927003	2011.418947	2012.9442171	2013.9651555	2014.9830189	2016.0114884	2017.0251624	2018.0105272	2020-06-10 13:38:47.291026	11.2882429225805	8.77514916744774	0.0	8.77514916744774	11.2882429225805	0.0	-11.2882429225805	8.77514916744774	0.0	11.2882429225805	0.0	-8.77514916744774	8.697112431952778	7.8780870242677	-0.2861972911354985	7.188959819244969	9.673580132004146	-0.2861972911354985	-9.197692033678756	9.042247636410714	0.34513520445793433	6.958039806452391	0.6338499266798113	3	correct	1.0
412.7147364	8.807088300000487	go_punish	1.0	412.7639312999995	414.6078646999995	417.1486327999994	1.843933399999969	413.7664973999995	416.12497819999953	420.17683319999946	0.8413673000000017	1.0236545999998725	1.3941864000005353	419.1695132999996	0.6639356999999109	418.15704639999944	2	1	48	2	go_punish	1	0	-1	1	0	0	0	0.0	1.0	-1	1.0	0.6639356999999109	1605.2963167000005	2018.060248	2019.0628141	2019.9041814	2021.4212949	2022.4449495	2023.4533631	2024.46583	2025.4731499	2026.8673363000005	2020-06-10 13:38:47.291026	1.36748608778237	-2.46817054338314	-1.10859484817874	-2.29214449290169	-2.47608093596111	-1.10859484817874	-1.36748608778237	-1.10859484817874	-2.46817054338314	-1.10859484817874	-2.47608093596111	-6.449027415730621	-1.2236444028453508	-3.3652326865631803	-1.3947921393142386	-3.8783338411044603	-4.090743726537464	-1.3947921393142386	-6.8715702819616356	-3.354590134348525	-2.130945731503176	-2.9257042091740884	-1.8343206167033288	3	correct	1.0
421.55159720000006	8.247247399999878	nogo_punish	0.5441542999997182	421.6007920999996	423.1060135999994	425.65593789999957	1.5052214999998341	422.6061422999994	424.63858609999943	428.71448489999943	0.49987129999999524	1.0173518000001422	1.133554600000025	427.69964299999947	0.4921119000000544	426.66996999999947	2	1	49	1	nogo_punish	1	-1	0	0	1	0	0	0.0	1.0	-1	0.5441542999997182	0.4921119000000544	1605.2963167000005	2026.8971088	2027.902459	2028.4023303	2029.9349028	2030.9522546	2031.9662867	2032.9959597	2034.0108016	2035.1443562	2020-06-10 13:38:47.291026	-2.09047198867908	-3.38963245220178	-1.29455405349687	-2.26026057800928	-3.38502604217594	-1.29455405349687	2.09047198867908	-3.38963245220178	-1.29455405349687	-3.38502604217594	-1.29455405349687	-4.16798981170758	-4.6816024793068	-4.28669459538182	-1.5807513446323687	-3.846449926212051	-4.999688832752294	-1.5807513446323687	-4.590532677938595	-5.631021328345725	-0.9494188490389357	-5.206741813197128	-0.6607041268170587	3	correct	1.0
429.85117390000005	9.12232569999992	nogo_reward	1.0	429.90036879999957	432.33505999999943	434.8670247999994	2.434691199999861	430.9147828999994	433.8437792999996	437.90930699999944	1.4202771000000212	1.0232454999998026	1.1133875000000444	436.9016862999995	0.4220137000002069	435.88132609999957	2	1	50	3	nogo_reward	1	0	1	0	0	1	0	0.0	1.0	1	1.0	0.4220137000002069	1605.2963167000005	2035.1966855	2036.2110996	2037.6313767	2039.140096	2040.1633415	2041.1776428	2042.198003	2043.2056237	2044.3190112	2020-06-10 13:38:47.291026	2.91299040659945	1.86618541607132	6.85104365122623	6.82426459320833	3.93805324462678	6.85104365122623	-2.91299040659945	6.85104365122623	1.86618541607132	6.85104365122623	3.93805324462678	2.975814620251019	0.321859915971729	0.9691232728912799	6.564846360090732	5.238075245005559	2.3233904540504264	6.564846360090732	2.5532717540200043	4.605048365056445	4.283188449084714	5.0339342902308815	2.5000353427511315	3	correct	1.0
439.0015433000001	8.35463969999978	go_reward	0.4312434999997094	439.0507381999996	440.5558169999995	443.1061174999993	1.5050787999998647	440.05829739999945	442.0888457999995	446.1624505999996	0.49751960000003237	1.0172716999998102	1.242927299999792	445.14892069999974	0.6677715999999236	444.12028449999957	2	1	51	4	go_reward	1	1	0	1	1	1	0	0.0	1.0	1	0.4312434999997094	0.6677715999999236	1605.2963167000005	2044.3470549	2045.3546141	2045.8521337	2047.3851625	2048.4024342	2049.4166012	2050.4452374	2051.4587673	2052.7016946	2020-06-10 13:38:47.291026	9.15124506957148	7.05272026293889	0.0	7.05272026293889	9.15124506957148	0.0	-9.15124506957148	7.05272026293889	0.0	9.15124506957148	0.0	2.774138008538359	6.560114578943759	6.15565811975885	-0.2861972911354985	5.466530914736119	7.536582278995127	-0.2861972911354985	2.3515951423073442	6.905249783401695	0.34513520445793433	5.2356109019435415	0.6338499266798113	3	correct	1.0
447.38709419999986	8.439046599999983	go_reward	0.4838165000001027	447.4362890999994	448.7932128999994	451.34906329999944	1.3569238000000041	448.43619899999953	450.32602879999945	454.4135383999994	0.3570138999998562	1.0230344999999943	1.4617972999999438	453.40005089999954	0.4716645000003154	452.36323699999934	2	1	52	4	go_reward	1	1	0	1	1	1	0	0.0	1.0	1	0.4838165000001027	0.4716645000003154	1605.2963167000005	2052.7326058	2053.7325157	2054.0895296	2055.6223455	2056.64538	2057.6595537	2058.6963676	2059.7098551	2061.1716524	2020-06-10 13:38:47.291026	9.80475754583523	7.57980021131555	0.0	7.57980021131555	9.80475754583523	0.0	-9.80475754583523	7.57980021131555	0.0	9.80475754583523	0.0	2.2470580601616996	7.213627055207509	6.682738068135509	-0.2861972911354985	5.993610863112779	8.190094755258876	-0.2861972911354985	1.8245151939306847	7.5587622596654445	0.34513520445793433	5.762690850320201	0.6338499266798113	3	correct	1.0
455.87473690000024	8.212136299999656	go_punish	1.0	455.92393179999976	457.5905188999998	460.12373999999977	1.6665871000000152	456.92621879999956	459.1006503999995	463.1745083999997	0.6643001000002187	1.0230896000002758	0.9615596999997251	462.1662966999995	0.7447134999997616	461.1383466999994	2	1	53	2	go_punish	1	0	-1	1	0	0	0	0.0	1.0	-1	1.0	0.7447134999997616	1605.2963167000005	2061.2202485000003	2062.2225355	2062.8868356000003	2064.3969671	2065.4200567000003	2066.4346634	2067.4626134	2068.4708251	2069.4323848	2020-06-10 13:38:47.291026	0.410526248368455	-2.46817054338314	-2.28103760402304	-3.25491651932196	-2.69156385239149	-2.28103760402304	-0.410526248368455	-2.28103760402304	-2.46817054338314	-2.28103760402304	-2.69156385239149	-5.27658465988632	-2.1806042422592657	-3.3652326865631803	-2.5672348951585384	-4.84110586752473	-4.306226642967844	-2.5672348951585384	-5.699127526117335	-4.527032890192825	-2.346428647933556	-4.098146965018389	-1.8343206167033288	3	correct	1.0
464.1186480000001	8.95720799999981	go_reward	0.3334396000000197	464.16784289999964	466.1384892999997	468.67329019999966	1.9706464000000778	465.1715337999997	467.6575593999994	471.73158619999936	0.96695550000004	1.0157308000002558	1.393464700000095	470.7189337999996	0.3666699000000335	469.6815143999995	2	1	54	4	go_reward	1	1	0	1	1	1	1	1.0	1.0	1	0.3334396000000197	0.3666699000000335	1605.2963167000005	2069.4641596	2070.4678505	2071.434806	2072.9538761	2073.9696069	2074.9778311	2076.0152505	2077.0279029	2078.4213676	2020-06-10 13:38:47.291026	10.3175609091818	7.99450558851106	0.0	7.99450558851106	10.3175609091818	0.0	-10.3175609091818	7.99450558851106	0.0	10.3175609091818	0.0	1.8323526829661896	7.726430418554079	7.097443445331019	-0.2861972911354985	6.408316240308289	8.702898118605447	-0.2861972911354985	1.4098098167351747	8.071565623012015	0.34513520445793433	6.177396227515711	0.6338499266798113	3	correct	1.0
473.12481419999995	8.896526300000005	nogo_reward	1.0	473.17400909999947	475.0807126999996	477.62020189999953	1.906703600000128	474.1761812999996	476.5968626999995	480.6715663999996	0.9045313999999962	1.0233392000000094	1.3989689999998518	479.6585881999997	0.4879831000002923	478.6290352999997	2	1	55	3	nogo_reward	1	0	1	0	0	1	0	0.0	1.0	1	1.0	0.4879831000002923	1605.2963167000005	2078.4703258	2079.472498	2080.3770294	2081.8931794	2082.9165186	2083.925352	2084.9549049	2085.9678831	2087.3668521	2020-06-10 13:38:47.291026	3.29055820566879	1.86618541607132	7.34816346094308	7.3470405396258	4.05760525527428	7.34816346094308	-3.29055820566879	7.34816346094308	1.86618541607132	7.34816346094308	4.05760525527428	2.4786948105341695	0.699427715041069	0.9691232728912799	7.061966169807581	5.760851191423029	2.442942464697926	7.061966169807581	2.0561519443031546	5.102168174773294	4.402740459732214	5.531054099947731	2.5000353427511315	3	correct	1.0
482.0526629000001	8.640575500000068	go_reward	0.3605155000000195	482.1018577999996	483.9374652999993	486.48802429999955	1.8356074999996963	483.0983855999996	485.46264149999956	489.5464008999995	0.8390796999997292	1.0253827999999885	1.1960324000001492	488.53270029999953	0.1385071999998217	487.5104648999993	2	1	56	4	go_reward	1	1	0	1	1	1	1	1.0	1.0	1	0.3605155000000195	0.1385071999998217	1605.2963167000005	2087.3981745	2088.3947023	2089.233782	2090.7589582	2091.784341	2092.8067816	2093.829017	2094.8427176	2096.03875	2020-06-10 13:38:47.291026	10.7232505973131	8.32339646618026	0.0	8.32339646618026	10.7232505973131	0.0	-10.7232505973131	8.32339646618026	0.0	10.7232505973131	0.0	1.5034618052969897	8.13212010668538	7.426334323000219	-0.2861972911354985	6.737207117977489	9.108587806736747	-0.2861972911354985	1.0809189390659748	8.477255311143315	0.34513520445793433	6.506287105184911	0.6338499266798113	3	correct	1.0
490.73580820000006	9.038766499999838	nogo_reward	1.0	490.7850030999996	493.2644793999996	495.80514509999944	2.4794762999999875	491.79360479999946	494.7818483999997	498.86187409999934	1.4708746000001156	1.0232966999997188	0.9618955000000824	497.84272849999957	0.8360567000004266	496.8188756999996	2	1	57	3	nogo_reward	1	0	1	0	0	1	1	1.0	1.0	1	1.0	0.8360567000004266	1605.2963167000005	2096.0813198	2097.0899215	2098.5607961	2100.0781651	2101.1014618	2102.1151924	2103.1390452	2104.1581908	2105.1200863	2020-06-10 13:38:47.291026	3.60071132001466	1.86618541607132	7.75393149898434	7.76928719226873	4.15322017896968	7.75393149898434	-3.60071132001466	7.75393149898434	1.86618541607132	7.75393149898434	4.15322017896968	2.0729267724929095	1.0095808293869393	0.9691232728912799	7.467734207848841	6.183097844065959	2.5385573883933263	7.467734207848841	1.6503839062618946	5.507936212814554	4.498355383427614	5.936822137988991	2.5000353427511315	3	correct	1.0
499.8225902999998	8.16934700000047	go_punish	1.0	499.8717851999993	501.4348381999996	503.96031669999934	1.5630530000003091	500.8747543999996	502.9445135999997	507.0168308999994	0.5600838000000294	1.01580309999963	1.0243013000003884	506.0041649999996	0.4471445999997741	504.9747745999996	2	1	58	2	go_punish	1	0	-1	1	0	0	0	0.0	1.0	-1	1.0	0.4471445999997741	1605.2963167000005	2105.1681019	2106.1710711	2106.7311549	2108.2408303	2109.2566334	2110.2710913	2111.3004817	2112.3131476	2113.3374489000003	2020-06-10 13:38:47.291026	-0.355793007359715	-2.46817054338314	-3.2170483927628	-4.02173846834977	-2.86125538540309	-3.2170483927628	0.355793007359715	-3.2170483927628	-2.46817054338314	-3.2170483927628	-2.86125538540309	-4.34057387114656	-2.9469234979874357	-3.3652326865631803	-3.5032456838982986	-5.60792781655254	-4.475918175979444	-3.5032456838982986	-4.763116737377575	-5.463043678932586	-2.5161201809451557	-5.034157753758149	-1.8343206167033288	3	correct	1.0
508.0412925999999	8.64878490000001	nogo_reward	1.0	508.0904874999994	509.6614310999996	512.2020091999996	1.5709436000001915	509.1010068999997	511.1790098999993	515.2452450999997	0.5604241999999431	1.022999300000265	1.4940272999997433	514.2334937999997	0.3721885999998449	513.2087309999995	2	1	59	3	nogo_reward	1	0	1	0	0	1	1	1.0	1.0	1	1.0	0.3721885999998449	1605.2963167000005	2113.3868042	2114.3973236	2114.9577478	2116.4753266	2117.4983259	2118.5050477	2119.5298105	2120.5415618	2122.0355891	2020-06-10 13:38:47.291026	3.85650438238333	1.86618541607132	8.08663423112532	8.11213701365557	4.23012984874199	8.08663423112532	-3.85650438238333	8.08663423112532	1.86618541607132	8.08663423112532	4.23012984874199	1.7402240403519293	1.2653738917556092	0.9691232728912799	7.8004369399898215	6.525947665452799	2.6154670581656365	7.8004369399898215	1.3176811741209145	5.8406389449555345	4.575265053199924	6.269524870129971	2.5000353427511315	3	correct	1.0
516.7421770999999	8.504007100000308	nogo_reward	1.0	516.7913719999995	518.3461414999995	520.8855980999995	1.5547695000000203	517.8056120999997	519.8623663999995	523.9430307999994	0.5405293999997411	1.0232316999999966	1.352348300000358	522.9215588999994	0.6067963000000418	521.9001491999995	2	1	60	3	nogo_reward	1	0	1	0	0	1	0	0.0	1.0	1	1.0	0.6067963000000418	1605.2963167000005	2122.0876887	2123.1019288	2123.6424582	2125.1586831	2126.1819148	2127.1964659	2128.2178756	2129.2393475	2130.5916958000003	2020-06-10 13:38:47.291026	4.0682728604733	1.86618541607132	8.36060093081493	8.3919046516187	4.29232807034163	8.36060093081493	-4.0682728604733	8.36060093081493	1.86618541607132	8.36060093081493	4.29232807034163	1.4662573406623185	1.4771423698455792	0.9691232728912799	8.074403639679431	6.80571530341593	2.677665279765276	8.074403639679431	1.0437144744313036	6.114605644645145	4.637463274799564	6.543491569819582	2.5000353427511315	3	correct	1.0
