onset	duration	trial_type	response_time	cueOnset	targetOnset	fbOnset	cueRT	firstfixOnset	secondfixOnset	waitOnset	firstfixdur	secondfixdur	waitdur	nback_fbOnset	nback_response_time	nback_targetOnset	block	wm	trial	cue	cond	is_common	outcome_go	outcome_nogo	key_correct	key_pressed	is_correct	key_correct_nback	key_pressed_nback	is_correct_nback	outcome	rt	rt_nback	time_scan	time_onset	time_isi1	time_circle	time_isi2	time_feedback	time_same	time_correct	time_iti	time_done	timestamp_scan	DV	Qgo	Qnogo	SV	Wgo	Wnogo	mDV	Qchosen	Qunchosen	Wchosen	Wunchosen	PE	DVC	QgoC	QnogoC	SVC	WgoC	WnogoC	PEC	WchosenC	WunchosenC	QchosenC	QunchosenC	run	outcome_nback	nback_targetResp
0.0	8.785699000116324	go_reward	0.3174256000202149	0.023816300090402365	2.3609672000163755	4.905673000029992	2.337150899925973	1.0325780001003295	3.8796312999911606	7.967803200008348	1.328389199916046	1.0260417000388316	0.8417121001983787	6.953070400049796	0.9425910001154988	5.923770799999943	1	1	61	1	go_reward	1	1	0	1	1	1	0	0.0	1.0	1	0.3174256000202149	0.9425910001154988	997.1841978000012	997.2080141000916	998.2167758001016	999.5451650000176	1001.0638290999924	1002.0898708000312	1003.1079686000012	1004.137268200051	1005.1520010000096	1005.993713100208	2020-01-10 17:51:22.662719	8.70272972029005	7.05972957684912	0.0	7.05972957684912	8.70272972029005	0.0	-8.70272972029005	7.05972957684912	0.0	8.70272972029005	0.0	4.62987098649438	5.653249313706494	6.341047411615787	0.42861593725727604	5.71275263265237	8.255339500960408	0.42861593725727604	4.392653144988049	7.16860237596209	1.5153530622555929	5.410377075179678	1.359286273693383	2	correct	1.0
8.822215500054767	9.360597199993208	nogo_punish	1.0	8.84603180014517	11.561378300189972	14.085265400120761	2.7153465000448023	9.854798000072947	13.075306300073748	17.15066940011434	1.7065803001170252	1.0099591000470127	1.055959600024039	16.13745020003978	0.5795245000626892	15.102976000169178	1	1	62	4	nogo_punish	1	-1	0	0	0	1	0	0.0	1.0	0	1.0	0.5795245000626892	997.1841978000012	1006.0302296001464	1007.0389958000742	1008.7455761001912	1010.259504100075	1011.269463200122	1012.2871738001704	1013.321648000041	1014.3348672001156	1015.3908268001396	2020-01-10 17:51:22.662719	0.750582414340918	-2.10136412205927	-3.0853673176914	-3.57724222409678	-3.83594973203232	-3.0853673176914	-0.750582414340918	-3.0853673176914	-2.10136412205927	-3.0853673176914	-3.83594973203232	3.0853673176914	-2.2988979922426367	-2.8200462872926026	-2.656751380434124	-4.924219168293531	-4.283339951361961	-2.656751380434124	2.84814947618507	-4.61949466201936	-2.320596669776727	-4.734719819360842	-0.742077848365887	2	correct	1.0
18.217695599887406	9.472196400165558	nogo_punish	1.0	18.24151189997781	20.684587000170723	23.2191430001983	2.443075100192914	19.25516370008677	22.19984580017615	26.261585300089564	1.429423300083954	1.0192972000221516	1.4521230000538026	25.247015500208363	0.4051411999389529	24.228273000102376	1	1	63	4	nogo_punish	1	-1	0	0	0	1	0	0.0	1.0	0	1.0	0.4051411999389529	997.1841978000012	1015.425709699979	1016.439361500088	1017.868784800172	1019.3840436001774	1020.4033408001995	1021.4124708001036	1022.4312133002096	1023.4457831000908	1024.8979061001446	2020-01-10 17:51:22.662719	0.988753717684749	-2.10136412205927	-2.72850508296666	-3.17769407671673	-3.71725880065141	-2.72850508296666	-0.988753717684749	-2.72850508296666	-2.10136412205927	-2.72850508296666	-3.71725880065141	2.72850508296666	-2.060726688898806	-2.8200462872926026	-2.299889145709384	-4.52467102091348	-4.164649019981051	-2.299889145709384	2.4912872414603298	-4.262632427294619	-2.201905738395817	-4.377857584636102	-0.742077848365887	2	correct	1.0
27.72664740006428	8.07918359991163	nogo_punish	1.0	27.750463700154683	29.339098800206443	31.874466700013613	1.5886351000517607	28.768956799991315	30.85460200021032	34.92368160001922	0.5701420002151281	1.0198646998032928	0.9059657000470906	33.91056099999685	0.3751153999473899	32.891222700010644	1	1	64	4	nogo_punish	1	-1	0	0	0	1	1	1.0	1.0	0	1.0	0.3751153999473899	997.1841978000012	1024.934661500156	1025.9531545999926	1026.5232966002077	1028.0387998002116	1029.0586645000149	1030.075420500012	1031.094758799998	1032.1078794000205	1033.0138451000676	2020-01-10 17:51:22.662719	1.19148486658371	-2.10136412205927	-2.42153129530691	-2.83250228412639	-3.61301616189062	-2.42153129530691	-1.19148486658371	-2.42153129530691	-2.10136412205927	-2.42153129530691	-3.61301616189062	2.42153129530691	-1.857995539999845	-2.8200462872926026	-1.992915358049634	-4.179479228323141	-4.060406381220261	-1.992915358049634	2.1843134538005797	-3.955658639634869	-2.097663099635027	-4.070883796976352	-0.742077848365887	2	correct	1.0
35.84313039993856	9.093516600085422	nogo_reward	1.0	35.86694670002896	38.457753600086676	40.992916600079866	2.5908069000577143	36.88177100010205	39.96891760011192	44.04358880012285	1.575982599984627	1.0239989999679437	0.9168744999915361	43.03929210011836	0.5536801998969167	42.009729100158324	1	1	65	2	nogo_reward	1	0	1	0	0	1	0	0.0	1.0	1	1.0	0.5536801998969167	997.1841978000012	1033.0511445000302	1034.0659688001033	1035.641951400088	1037.1531154001132	1038.177114400081	1039.1939269001596	1040.2234899001196	1041.227786600124	1042.1446611001156	2020-01-10 17:51:22.662719	1.81055626214165	1.98863144649315	5.02856264474911	5.70511655767362	3.21800638260746	5.02856264474911	-1.81055626214165	5.02856264474911	1.98863144649315	5.02856264474911	3.21800638260746	6.66103791859439	-1.2389241444419048	1.2699492812598172	5.457178582006386	4.358139613476869	2.7706161632778183	5.457178582006386	6.42382007708806	3.4944353004211504	4.733359444863053	3.3792101430796677	3.3479177201865333	2	correct	1.0
44.972895300015466	8.111798200058047	nogo_punish	1.0	44.99671160010587	46.330425500171145	48.85873219999473	1.333713900065277	46.002457600086814	47.84569710004132	51.912032000021895	0.32796790008433163	1.013035099953413	1.19647780014202	50.901541600003725	0.4597491000313312	49.87868760013964	1	1	66	4	nogo_punish	1	-1	0	0	0	1	1	0.0	0.0	0	1.0	0.4597491000313312	997.1841978000012	1042.180909400107	1043.186655400088	1043.5146233001724	1045.0298949000426	1046.042929999996	1047.0628854001409	1048.085739400005	1049.0962298000231	1050.2927076001652	2020-01-10 17:51:22.662719	1.3647937491964	-2.10136412205927	-2.15637202544418	-2.53304589304654	-3.52116577464059	-2.15637202544418	-1.3647937491964	-2.15637202544418	-2.10136412205927	-2.15637202544418	-3.52116577464059	2.15637202544418	-1.6846866573871548	-2.8200462872926026	-1.7277560881869038	-3.8800228372432906	-3.9685559939702317	-1.7277560881869038	1.9191541839378494	-3.690499369772139	-2.0058127123849974	-3.8057245271136217	-0.742077848365887	2	wrong	1.0
53.11881099990558	8.556517200078815	go_reward	0.4597796001471579	53.14262729999598	54.61861070012685	57.174181699985525	1.4759834001308718	54.150235900189614	56.14967680000666	60.22432550019573	0.4683747999372372	1.024504899978865	1.4748189998790622	59.2094400001223	0.8493054998107255	58.188109999988114	1	1	67	1	go_reward	1	1	0	1	1	1	0	0.0	1.0	1	0.4597796001471579	0.8493054998107255	997.1841978000012	1050.3268250999972	1051.3344337001909	1051.802808500128	1053.333874600008	1054.3583794999868	1055.3723077999894	1056.3936378001235	1057.408523300197	1058.883342300076	2020-01-10 17:51:22.662719	9.12925054486295	7.38106473722988	0.0	7.38106473722988	9.12925054486295	0.0	-9.12925054486295	7.38106473722988	0.0	9.12925054486295	0.0	4.30853582611362	6.079770138279395	6.662382571996547	0.42861593725727604	6.034087793033129	8.681860325533309	0.42861593725727604	4.0713179846072896	7.5951232005349905	1.5153530622555929	5.731712235560438	1.359286273693383	2	correct	1.0
61.71655169990834	8.626052499981597	go_punish	1.0	61.74036799999874	63.80543270008627	66.3211135000455	2.0650647000875324	62.75000900006842	65.31044360017393	69.37325380020764	1.0554237000178546	1.0106698998715729	0.9931666997727007	68.36319130007166	0.5747823000419885	67.3337404001503	1	1	68	3	go_punish	1	0	-1	1	0	0	0	0.0	1.0	-1	1.0	0.5747823000419885	997.1841978000012	1058.9245658	1059.9342068000697	1060.9896305000875	1062.4946414001752	1063.5053113000467	1064.5179382001515	1065.547389100073	1066.5574516002089	1067.5506182999816	2020-01-10 17:51:22.662719	-3.45167849024364	0.0	-5.23358902077133	-3.67282339530188	-1.7819105305277	-5.23358902077133	3.45167849024364	-5.23358902077133	0.0	-5.23358902077133	-1.7819105305277	-8.21502704042727	-6.501158896827195	-0.7186821652333327	-4.804973083514054	-5.01980033949863	-2.2293007498573414	-4.804973083514054	-8.4522448819336	-6.7677163650992895	-0.26655746827210725	-6.882941522440772	1.359286273693383	2	correct	1.0
70.37589209992427	8.394109300104901	go_reward	0.5368474998977035	70.39970840001467	72.24556390009786	74.77250730013486	1.8458555000831893	71.40171160013404	73.76510630012478	77.83167960005801	0.843852299963828	1.007401000010077	0.9621381000615656	76.8131697999778	0.3918133000843227	75.77762170019548	1	1	69	1	go_reward	1	1	0	1	1	1	1	1.0	1.0	1	0.5368474998977035	0.3918133000843227	997.1841978000012	1067.583906200016	1068.5859094001353	1069.429761700099	1070.949304100126	1071.956705100136	1072.9618195001967	1073.997367599979	1075.0158774000593	1075.9780155001208	2020-01-10 17:51:22.662719	9.51819052815266	7.67356511167861	0.0	7.67356511167861	9.51819052815266	0.0	-9.51819052815266	7.67356511167861	0.0	9.51819052815266	0.0	4.01603545166489	6.468710121569105	6.954882946445277	0.42861593725727604	6.32658816748186	9.070800308823019	0.42861593725727604	3.7788176101585598	7.9840631838247	1.5153530622555929	6.024212610009168	1.359286273693383	2	correct	1.0
78.8065035000908	8.664895699825138	nogo_reward	1.0	78.8303198001812	80.69083139998827	83.22631970001373	1.8605115998070687	79.82244260003779	82.20588500006113	86.28323410009045	0.8683887999504805	1.0204346999526024	1.211981399915885	85.26208020001638	0.5301391999237239	84.23327630013216	1	1	70	2	nogo_reward	0	1	0	0	0	1	0	0.0	1.0	0	1.0	0.5301391999237239	997.1841978000012	1076.0145176001824	1077.006640400039	1077.8750291999895	1079.3900828000624	1080.410517500015	1081.4174741001334	1082.4462780000176	1083.4674319000917	1084.6794133000076	2020-01-10 17:51:22.662719	2.19364971440138	1.98863144649315	5.55722508918065	6.17400552192796	3.36357537477927	5.55722508918065	-2.19364971440138	5.55722508918065	1.98863144649315	5.55722508918065	3.36357537477927	-5.55722508918065	-0.8558306921821748	1.2699492812598172	5.985841026437926	4.827028577731209	2.9161851554496283	5.985841026437926	-5.794442930686981	4.023097744852691	4.878928437034863	3.907872587511208	3.3479177201865333	2	correct	1.0
87.50734200002614	8.819842499913648	nogo_punish	1.0	87.53115830011654	89.98956980020705	92.52730590011913	2.458411500090506	88.54607430007297	91.50479360017914	95.57526270020765	1.4434955001340768	1.02251229993999	0.7757380998225472	94.5604227001312	0.3834261000156402	93.54205490020092	1	1	71	4	nogo_punish	0	0	-1	0	0	1	0	0.0	1.0	-1	1.0	0.3834261000156402	997.1841978000012	1084.7153561001178	1085.7302721000742	1087.1737676002083	1088.6889914001804	1089.7115037001204	1090.7262527002022	1091.7446205001324	1092.759460500209	1093.5351986000314	2020-01-10 17:51:22.662719	1.51356486112765	-2.10136412205927	-1.92641843086059	-2.27224513384881	-3.43998329198824	-1.92641843086059	-1.51356486112765	-1.92641843086059	-2.10136412205927	-1.92641843086059	-3.43998329198824	-11.52219763033801	-1.5359155454559048	-2.8200462872926026	-1.497802493603314	-3.619222078045561	-3.8873735113178816	-1.497802493603314	-11.75941547184434	-3.4605457751885496	-1.9246302297326472	-3.575770932530032	-0.742077848365887	2	correct	1.0
96.36950940010126	8.329773699864745	go_punish	0.7737686999607831	96.39332570019167	98.16165370005172	100.70194720011193	1.7683279998600483	97.40183000010427	99.68155770003784	103.76062770001579	0.7598236999474466	1.0203895000740886	0.9624717000406235	102.74818430002767	0.4077982001472264	101.71854210016306	1	1	72	3	go_punish	1	0	-1	1	1	1	0	0.0	1.0	0	0.7737686999607831	0.4077982001472264	997.1841978000012	1093.577523500193	1094.5860278001055	1095.345851500053	1096.865755500039	1097.8861450001132	1098.9027399001643	1099.932382100029	1100.944825500017	1101.9072972000577	2020-01-10 17:51:22.662719	3.90191872670938	0.0	-5.98307194609936	-4.63265763217563	-2.08115321938999	-5.98307194609936	-3.90191872670938	0.0	-5.98307194609936	-2.08115321938999	-5.98307194609936	0.0	0.8524383201258252	-0.7186821652333327	-5.5544560088420845	-5.979634576372381	-2.5285434387196317	-5.5544560088420845	-0.23721784150633038	-3.61528056371795	-4.467718883843768	-1.6493525016694421	-4.623785672405978	2	correct	1.0
104.73538199998427	8.45533960009925	nogo_reward	1.0	104.75919830007467	106.50837150006566	109.02398660010647	1.7491731999909916	105.77383690001432	108.0206836001015	112.08074530004512	0.7345346000513473	1.003303000004962	1.1337926001287997	111.06769070005964	0.4082726999185979	110.03912040009152	1	1	73	2	nogo_reward	1	0	1	0	0	1	0	0.0	1.0	1	1.0	0.4082726999185979	997.1841978000012	1101.943396100076	1102.9580347000156	1103.692569300067	1105.2048814001027	1106.2081844001077	1107.2233182000928	1108.2518885000609	1109.2649431000464	1110.3987357001752	2020-01-10 17:51:22.662719	1.7905173298205	1.98863144649315	4.97422197717852	5.53774447217595	3.18370464735802	4.97422197717852	-1.7905173298205	4.97422197717852	1.98863144649315	4.97422197717852	3.18370464735802	6.71537858616498	-1.2589630767630549	1.2699492812598172	5.402837914435796	4.190767527979199	2.7363144280283787	5.402837914435796	6.478160744658649	3.4400946328505606	4.699057709613613	3.324869475509078	3.3479177201865333	2	correct	1.0
113.22572150011536	8.594383499817923	go_reward	1.0	113.24953780020576	115.04511090018775	117.58341370010737	1.7955730999819934	114.25609390018496	116.56232440005977	120.63174570002582	0.7890170000027865	1.0210893000476062	1.2121755999978632	119.61899140011508	0.2219988000579178	118.59939900017332	1	1	74	1	go_reward	1	1	0	1	0	0	0	0.0	1.0	0	1.0	0.2219988000579178	997.1841978000012	1110.433735600207	1111.4402917001862	1112.229308700189	1113.746522200061	1114.7676115001086	1115.7835968001746	1116.8031892001163	1117.815943500027	1119.028119100025	2020-01-10 17:51:22.662719	-9.87366823960899	7.94046045340731	0.0	7.94046045340731	9.87366823960899	0.0	9.87366823960899	0.0	7.94046045340731	0.0	9.87366823960899	0.0	-12.923148646192546	7.221778288173977	0.42861593725727604	6.593483509210559	9.42627802027935	0.42861593725727604	-0.23721784150633038	-1.5341273443279595	11.389021301864585	-1.6493525016694421	9.299746727100693	2	correct	1.0
121.86025879997749	8.906200600089505	go_punish	1.0	121.88407510006789	123.73935010004777	126.26639410015184	1.8552749999798834	122.89473310019787	125.24186860001635	129.2956497000995	0.8446169998499045	1.0245255001354963	1.494626000057906	128.29207990015846	1.0	127.28124130005006	1	1	75	3	go_punish	1	0	-1	1	0	0	0	n/a	0.0	-1	1.0	1.0	997.1841978000012	1119.0682729000691	1120.078930900199	1120.923547900049	1122.4260664000176	1123.450591900153	1124.4654391000513	1125.4762777001597	1126.4798475001007	1127.9744735001586	2020-01-10 17:51:22.662719	-4.05626105092908	0.0	-5.98307194609936	-4.11358209122291	-1.92681089517029	-5.98307194609936	4.05626105092908	-5.98307194609936	0.0	-5.98307194609936	-1.92681089517029	-7.465544115099239	-7.105741457512634	-0.7186821652333327	-5.5544560088420845	-5.460559035419661	-2.3742011144999315	-5.5544560088420845	-7.70276195660557	-7.51719929042732	-0.4114578329146972	-7.632424447768803	1.359286273693383	2	missed	0.0
130.80327780009236	8.536026499932632	nogo_punish	1.0	130.82709410018276	132.52793109999027	135.05486510018807	1.7008369998075068	131.84072460001323	134.03303380007844	138.1133299001957	0.6872064999770373	1.0218313001096249	1.2497906999196857	137.10110540012818	0.6514161999803036	136.07204330014054	1	1	76	4	nogo_punish	1	-1	0	0	0	1	0	0.0	1.0	0	1.0	0.6514161999803036	997.1841978000012	1128.011291900184	1129.0249224000145	1129.7121288999915	1131.2172316000797	1132.2390629001893	1133.2562411001418	1134.2853032001294	1135.297527700197	1136.5473184001166	2020-01-10 17:51:22.662719	0.703279512994786	-2.10136412205927	-3.08506218026695	-3.40308510983186	-3.78834169326174	-3.08506218026695	-0.703279512994786	-3.08506218026695	-2.10136412205927	-3.08506218026695	-3.78834169326174	3.08506218026695	-2.346200893588769	-2.8200462872926026	-2.656446243009674	-4.750062054028611	-4.2357319125913815	-2.656446243009674	2.84784433876062	-4.619189524594909	-2.272988631006147	-4.734414681936392	-0.742077848365887	2	correct	1.0
139.3742935999761	9.103094999911264	nogo_reward	1.0	139.39810990006652	142.18142829998385	144.70184620004136	2.7833183999173343	140.41402820008796	143.68735310016189	147.74217159999523	1.7674000998958945	1.0144930998794734	0.7590332999825478	146.7289438000879	0.5390924999956042	145.7153985002077	1	1	77	2	nogo_reward	1	0	1	0	0	1	0	0.0	1.0	1	1.0	0.5390924999956042	997.1841978000012	1136.5823077000678	1137.5982260000892	1139.365626099985	1140.8715509001631	1141.8860440000426	1142.899596300209	1143.9131416000891	1144.9263693999965	1145.685402699979	2020-01-10 17:51:22.662719	2.18736031841332	1.98863144649315	5.52358326518143	6.03951694464122	3.3362229467681	5.52358326518143	-2.18736031841332	5.52358326518143	1.98863144649315	5.52358326518143	3.3362229467681	6.16601729816207	-0.8621200881702347	1.2699492812598172	5.952199202438706	4.6925400004444695	2.8888327274384586	5.952199202438706	5.92879945665574	3.9894559208534703	4.8515760090236935	3.8742307635119877	3.3479177201865333	2	correct	1.0
148.51299920002918	7.725986999925226	nogo_punish	1.0	148.5368155001196	149.87161540007185	152.40642030001607	1.3347998999522588	149.54238080000493	151.38572970009398	155.45701980008732	0.3292346000669113	1.0206905999220908	0.80578269995749	154.44429690018285	0.6343241999857128	153.42518920009013	1	1	78	4	nogo_punish	1	-1	0	0	0	1	1	1.0	1.0	0	1.0	0.6343241999857128	997.1841978000012	1145.7210133001208	1146.7265786000062	1147.055813200073	1148.5699275000952	1149.5906181000173	1150.6093870000914	1151.628494700184	1152.6412176000886	1153.447000300046	2020-01-10 17:51:22.662719	0.939092013659243	-2.10136412205927	-2.73765492851194	-3.03056550489971	-3.67674694217118	-2.73765492851194	-0.939092013659243	-2.73765492851194	-2.10136412205927	-2.73765492851194	-3.67674694217118	2.73765492851194	-2.1103883929243117	-2.8200462872926026	-2.309038991254664	-4.377542449096461	-4.124137161500821	-2.309038991254664	2.5004370870056096	-4.271782272839899	-2.161393879915587	-4.387007430181382	-0.742077848365887	2	correct	1.0
156.27934970008198	8.359502799808979	go_punish	0.2722026000265032	156.30316600017238	157.86027860012825	160.41595350019645	1.5571125999558717	157.3027618001214	159.40520720020857	163.47557540005084	0.5575168000068516	1.0107462999878862	1.187093399930518	162.4626073001417	0.4203564999625087	161.43316320003908	1	1	79	3	go_punish	1	0	-1	1	1	1	0	0.0	1.0	0	0.2722026000265032	0.4203564999625087	997.1841978000012	1153.4873638001736	1154.4869596001226	1155.0444764001295	1156.5894050002098	1157.6001513001977	1158.6173610000403	1159.646805100143	1160.659773200052	1161.8468665999826	2020-01-10 17:51:22.662719	4.43369588254655	0.0	-6.64529959969299	-5.02383417294368	-2.21160371714644	-6.64529959969299	-4.43369588254655	0.0	-6.64529959969299	-2.21160371714644	-6.64529959969299	0.0	1.384215475962995	-0.7186821652333327	-6.216683662435714	-6.3708111171404305	-2.6589939364760817	-6.216683662435714	-0.23721784150633038	-3.7457310614744	-5.129946537437397	-1.6493525016694421	-5.2860133259996065	2	correct	1.0
164.67567880009267	9.704295599833358	nogo_punish	1.0	164.69949510018307	167.47826950019214	170.00383280008066	2.7787744000090697	165.71334800007764	168.99382710014459	173.0477984000462	1.7649215001144967	1.0100056999360731	1.3559922999702394	172.03361860010762	0.3326926999725401	171.02280560019415	1	1	80	4	nogo_punish	1	-1	0	0	0	1	1	0.0	0.0	0	1.0	0.3326926999725401	997.1841978000012	1161.8836929001843	1162.897545800079	1164.6624673001934	1166.1780249001458	1167.188030600082	1168.2070034001954	1169.2178164001089	1170.2319962000474	1171.5879885000177	2020-01-10 17:51:22.662719	1.14065885263843	-2.10136412205927	-2.43787427027916	-2.70805838424059	-3.57853312291759	-2.43787427027916	-1.14065885263843	-2.43787427027916	-2.10136412205927	-2.43787427027916	-3.57853312291759	2.43787427027916	-1.9088215539451248	-2.8200462872926026	-2.009258333021884	-4.055035328437341	-4.025923342247231	-2.009258333021884	2.2006564287728296	-3.9720016146071195	-2.063180060661997	-4.087226771948602	-0.742077848365887	2	wrong	1.0
174.422735699918	8.796294200001284	go_punish	0.3210851000621915	174.4465520000084	176.86641810019466	179.41096700006153	2.4198661001862547	175.44519390002813	178.40046630008135	182.46802440006275	1.4212242001665345	1.0105006999801844	0.7748217999469489	181.45530490018416	0.6281700001563877	180.42831990006368	1	1	81	3	go_punish	1	0	-1	1	1	1	1	1.0	1.0	0	0.3210851000621915	0.6281700001563877	997.1841978000012	1171.6307498000097	1172.6293917000294	1174.050615900196	1175.5846641000826	1176.5951648000628	1177.612517700065	1178.6395027001854	1179.652222200064	1180.427044000011	2020-01-10 17:51:22.662719	4.60070509288271	0.0	-6.64529959969299	-4.46213286258859	-2.04459450681028	-6.64529959969299	-4.60070509288271	0.0	-6.64529959969299	-2.04459450681028	-6.64529959969299	0.0	1.5512246862991552	-0.7186821652333327	-6.216683662435714	-5.809109806785341	-2.4919847261399215	-6.216683662435714	-0.23721784150633038	-3.5787218511382397	-5.129946537437397	-1.6493525016694421	-5.2860133259996065	2	correct	1.0
183.25426329998265	8.277826900128503	go_reward	0.2791242999956012	183.27807960007306	184.78324180003244	187.33912350004505	1.5051621999593863	184.28259610012162	186.31466780020844	190.39016980002646	0.5006456999108195	1.024455699836608	1.1657367001751027	189.38900570012618	0.7212934999261051	188.35407000011753	1	1	82	1	go_reward	1	1	0	1	1	1	0	0.0	1.0	1	0.2791242999956012	0.7212934999261051	997.1841978000012	1180.4622774000743	1181.4667939001229	1181.9674396000337	1183.4988656002097	1184.5233213000463	1185.5382678001188	1186.5732035001274	1187.5743676000277	1188.7401043002028	2020-01-10 17:51:22.662719	9.64330044723843	7.94046045340731	0.0	7.12819831948862	9.64330044723843	0.0	-9.64330044723843	7.94046045340731	0.0	9.64330044723843	0.0	3.7491401099361905	6.593820040654874	7.221778288173977	0.42861593725727604	5.781221375291869	9.195910227908788	0.42861593725727604	3.5119222684298603	8.10917310291047	1.5153530622555929	6.291107951737867	1.359286273693383	2	correct	1.0
191.5690864000934	8.985349499853328	nogo_reward	1.0	191.5929027001838	193.60655820020486	196.14876460004587	2.013655500021059	192.60672840010363	195.12339420011256	199.19314480014134	0.9998298001012245	1.0253703999333084	1.3851073998957872	198.19120220001776	0.7489473999012262	197.16152229998227	1	1	83	2	nogo_reward	1	0	1	0	0	1	0	0.0	1.0	1	1.0	0.7489473999012262	997.1841978000012	1188.777100500185	1189.7909262001049	1190.790756000206	1192.3075920001138	1193.332962400047	1194.3457200999835	1195.375400000019	1196.3773426001426	1197.7624500000384	2020-01-10 17:51:22.662719	2.53914918723226	1.98863144649315	6.01312834482254	6.48642278552299	3.47397915759028	6.01312834482254	-2.53914918723226	6.01312834482254	1.98863144649315	6.01312834482254	3.47397915759028	5.67647221852096	-0.5103312193512948	1.2699492812598172	6.441744282079816	5.139445841326239	3.0265889382606384	6.441744282079816	5.439254377014629	4.479001000494581	4.989332219845872	4.363775843153098	3.3479177201865333	2	correct	1.0
200.59018320008147	8.291175599908684	go_reward	0.3480579999741167	200.61399950017187	201.97735200007435	204.51343669998425	1.3633524999024758	201.6336817999835	203.49259770009655	207.55234330007795	0.34367020009085536	1.020838999887701	1.3528318000026047	206.53789140004653	0.2706331999506801	205.52190980012517	1	1	84	1	go_reward	0	0	1	1	1	1	1	1.0	1.0	0	0.3480579999741167	0.2706331999506801	997.1841978000012	1197.7981973001731	1198.8178795999847	1199.1615498000756	1200.6767955000978	1201.6976344999855	1202.7061076001264	1203.7220892000478	1204.7365411000792	1206.0893729000818	2020-01-10 17:51:22.662719	9.99501950803621	8.18454501186248	0.0	7.47596104517334	9.99501950803621	0.0	-9.99501950803621	8.18454501186248	0.0	9.99501950803621	0.0	-8.18454501186248	6.945539101452654	7.465862846629148	0.42861593725727604	6.128984100976589	9.547629288706569	0.42861593725727604	-8.421762853368811	8.46089216370825	1.5153530622555929	6.535192510193038	1.359286273693383	2	correct	1.0
208.91548549989227	9.910493400180712	go_reward	0.3169461002107709	208.93930179998267	211.7806601000483	214.31676340010006	2.8413583000656217	209.95128170005034	213.29578749998484	217.3627084000035	1.8293783999979496	1.0209759001152179	1.4870868001598865	216.35027729999285	0.3629398001357913	215.32058220007445	1	1	85	1	go_reward	1	1	0	1	1	1	0	0.0	1.0	1	0.3169461002107709	0.3629398001357913	997.1841978000012	1206.123499599984	1207.1354795000516	1208.9648579000495	1210.479985299986	1211.5009612001013	1212.5047800000757	1213.534475099994	1214.5469062000047	1216.0339930001646	2020-01-10 17:51:22.662719	8.94824426951506	7.35189910691879	0.0	6.7312080566221	8.94824426951506	0.0	-8.94824426951506	7.35189910691879	0.0	8.94824426951506	0.0	4.3377014564247105	5.898763862931505	6.633216941685457	0.42861593725727604	5.38423111242535	8.500854050185419	0.42861593725727604	4.10048361491838	7.4141169251871	1.5153530622555929	5.702546605249347	1.359286273693383	2	correct	1.0
218.86715549998905	8.491997000062838	go_punish	0.3538703001104295	218.89097180007946	220.45759910019126	222.99726630002226	1.5666273001118043	219.89424580009643	221.98469389998365	226.06116640008975	0.5633533000948319	1.0125724000386072	1.3218024000525475	225.0474714001174	0.4495109999552369	224.01501299999643	1	1	86	3	go_punish	1	0	-1	1	1	1	0	0.0	1.0	0	0.3538703001104295	0.4495109999552369	997.1841978000012	1216.0751696000807	1217.0784436000977	1217.6417969001925	1219.168891699985	1220.1814641000235	1221.1992107999977	1222.2316692001186	1223.245364200091	1224.5671666001435	2020-01-10 17:51:22.662719	4.74738283077885	0.0	-6.64529959969299	-3.97673281318899	-1.89791676891414	-6.64529959969299	-4.74738283077885	0.0	-6.64529959969299	-1.89791676891414	-6.64529959969299	0.0	1.6979024241952954	-0.7186821652333327	-6.216683662435714	-5.323709757385741	-2.3453069882437814	-6.216683662435714	-0.23721784150633038	-3.4320441132420996	-5.129946537437397	-1.6493525016694421	-5.2860133259996065	2	correct	1.0
227.39575410005625	9.152368099894602	nogo_reward	1.0	227.41957040014665	229.597250800114	232.12647880008433	2.1776803999673575	228.43390880012873	231.1021462001371	235.1789944001938	1.1633419999852777	1.024332599947229	1.3929440998474547	234.17588540003646	0.434336100006476	233.13922160002392	1	1	87	2	nogo_reward	1	0	1	0	0	1	0	0.0	1.0	1	1.0	0.434336100006476	997.1841978000012	1224.603768200148	1225.61810660013	1226.7814486001153	1228.2863440001383	1229.3106766000856	1230.3234194000252	1231.3600832000377	1232.363192200195	1233.7561363000425	2020-01-10 17:51:22.662719	2.85232150826523	1.98863144649315	6.45107033199695	6.88606108665319	3.59874882373173	6.45107033199695	-2.85232150826523	6.45107033199695	1.98863144649315	6.45107033199695	3.59874882373173	5.238530231346551	-0.197158898318325	1.2699492812598172	6.8796862692542256	5.539084142456439	3.1513586044020885	6.8796862692542256	5.00131238984022	4.91694298766899	5.114101885987322	4.801717830327507	3.3479177201865333	2	correct	1.0
236.59002289990883	8.060281299985945	go_punish	0.3911025000270456	236.61383919999923	238.12224140018213	240.65555730019685	1.5084022001828998	237.62247870001	239.64403750002373	243.71147870016273	0.4997627001721412	1.0115198001731187	0.9626417998224497	242.70097750006232	0.2635010001249611	241.67302280012507	1	1	88	3	go_punish	1	0	-1	1	1	1	1	1.0	1.0	0	0.3911025000270456	0.2635010001249611	997.1841978000012	1233.7980370000005	1234.8066765000112	1235.3064392001834	1236.828235300025	1237.839755100198	1238.8572206001263	1239.8851753000636	1240.895676500164	1241.8583182999864	2020-01-10 17:51:22.662719	4.8766171503136	0.0	-6.64529959969299	-3.55557302307314	-1.76868244937939	-6.64529959969299	-4.8766171503136	0.0	-6.64529959969299	-1.76868244937939	-6.64529959969299	0.0	1.8271367437300454	-0.7186821652333327	-6.216683662435714	-4.902549967269891	-2.2160726687090313	-6.216683662435714	-0.23721784150633038	-3.3028097937073495	-5.129946537437397	-1.6493525016694421	-5.2860133259996065	2	correct	1.0
244.69228389998887	9.4189146999272	go_punish	0.2418618998490274	244.71610020007927	247.69061590009358	250.22308100014914	2.974515700014308	245.7307351999915	249.22179970005516	253.2664630000944	1.959880700102076	1.0012813000939786	0.8685518999120632	252.25339560001146	0.4257800001651048	251.2397888000122	1	1	89	3	go_punish	1	0	-1	1	1	1	0	0.0	1.0	0	0.2418618998490274	0.4257800001651048	997.1841978000012	1241.9002980000805	1242.9149329999927	1244.8748137000948	1246.4059975000564	1247.4072788001504	1248.4239866000134	1249.4375934000127	1250.4506608000956	1251.3192127000077	2020-01-10 17:51:22.662719	4.99083168077579	0.0	-6.64529959969299	-3.18873885854037	-1.6544679189172	-6.64529959969299	-4.99083168077579	0.0	-6.64529959969299	-1.6544679189172	-6.64529959969299	0.0	1.9413512741922356	-0.7186821652333327	-6.216683662435714	-4.535715802737121	-2.1018581382468415	-6.216683662435714	-0.23721784150633038	-3.1885952632451593	-5.129946537437397	-1.6493525016694421	-5.2860133259996065	2	correct	1.0
254.14735549990985	8.407538900152076	go_reward	0.6948426000308245	254.17117180000025	255.54068680014427	258.09709700010706	1.3695150001440197	255.176635300042	257.07272820011724	261.1386238001286	0.3640515001022777	1.0243687999898157	1.4400869000237435	260.1332510001956	0.4904410999733954	259.1100746002047	1	1	90	1	go_reward	1	1	0	1	1	1	0	0.0	1.0	1	0.6948426000308245	0.4904410999733954	997.1841978000012	1251.3553696000015	1252.3608331000432	1252.7248846001455	1254.2569260001185	1255.2812948001083	1256.294272400206	1257.3174488001969	1258.3228216001298	1259.7629085001536	2020-01-10 17:51:22.662719	9.39925650744317	7.68139402844589	0.0	7.13556821644316	9.39925650744317	0.0	-9.39925650744317	7.68139402844589	0.0	9.39925650744317	0.0	4.00820653489761	6.349776100859614	6.962711863212557	0.42861593725727604	5.78859127224641	8.951866288113528	0.42861593725727604	3.77098869339128	7.86512916311521	1.5153530622555929	6.032041526776448	1.359286273693383	2	correct	1.0
262.595825199969	7.848258899990469	go_punish	0.4402989998925477	262.6196415000594	263.98422820004646	266.52776640001673	1.3645866999870577	263.6293533002025	265.50688740005705	269.5618470001499	0.35487489984393505	1.0208789999596775	0.9060533998999745	268.55640670005243	0.382307100109756	267.5442031000274	1	1	91	3	go_punish	1	0	-1	1	1	1	1	0.0	0.0	0	0.4402989998925477	0.382307100109756	997.1841978000012	1259.8038393000606	1260.8135511002038	1261.1684260000477	1262.6910852000583	1263.711964200018	1264.7284009000286	1265.7406045000537	1266.7460448001511	1267.6520982000511	2020-01-10 17:51:22.662719	5.09206829643898	0.0	-6.64529959969299	-2.86804174821571	-1.55323130325401	-6.64529959969299	-5.09206829643898	0.0	-6.64529959969299	-1.55323130325401	-6.64529959969299	0.0	2.0425878898554255	-0.7186821652333327	-6.216683662435714	-4.21501869241246	-2.0006215225836512	-6.216683662435714	-0.23721784150633038	-3.0873586475819694	-5.129946537437397	-1.6493525016694421	-5.2860133259996065	2	wrong	1.0
270.4809079999103	9.020324400160462	nogo_punish	1.0	270.5047243000007	273.03070210013504	275.5472970001864	2.525977800134342	271.51838570018265	274.5373268001712	278.6051136001478	1.5123163999523968	1.009970200015232	0.9199351000133902	277.5914432001299	0.5116922999732196	276.56592500000227	1	1	92	4	nogo_punish	1	-1	0	0	0	1	0	0.0	1.0	0	1.0	0.5116922999732196	997.1841978000012	1267.688922100002	1268.702583500184	1270.2148999001363	1271.7215246001724	1272.7314948001876	1273.7501228000035	1274.7756410001311	1275.789311400149	1276.7092465001624	2020-01-10 17:51:22.662719	1.31370060460264	-2.10136412205927	-2.17811431953446	-2.42769194865851	-3.4918149241371	-2.17811431953446	-1.31370060460264	-2.17811431953446	-2.10136412205927	-2.17811431953446	-3.4918149241371	2.17811431953446	-1.7357798019809147	-2.8200462872926026	-1.7494983822771841	-3.7746688928552605	-3.9392051434667414	-1.7494983822771841	1.9408964780281297	-3.71224166386242	-1.976461861881507	-3.8274668212039025	-0.742077848365887	2	correct	1.0
279.5365408998913	8.966607000213116	go_reward	0.2840979001484811	279.5603571999817	281.53647170006286	284.09138100012194	1.9761145000811666	280.56785710016254	283.0670458001549	287.1366471000946	0.9686145999003202	1.0243351999670267	1.3903171001002192	286.12340460019175	0.4643411000724882	285.0931953000835	1	1	93	1	go_reward	1	1	0	1	1	1	0	0.0	1.0	1	0.2840979001484811	0.4643411000724882	997.1841978000012	1276.744554999983	1277.7520549001638	1278.720669500064	1280.2512436001562	1281.2755788001232	1282.2773931000847	1283.307602400193	1284.3208449000958	1285.711162000196	2020-01-10 17:51:22.662719	9.80408266605895	7.97657132109095	0.0	7.4948041632822	9.80408266605895	0.0	-9.80408266605895	7.97657132109095	0.0	9.80408266605895	0.0	3.71302924225255	6.754602259475394	7.257889155857617	0.42861593725727604	6.147827219085449	9.356692446729308	0.42861593725727604	3.47581140074622	8.26995532173099	1.5153530622555929	6.327218819421508	1.359286273693383	2	correct	1.0
288.5460777999832	8.603164999978844	go_punish	0.3833490000106394	288.5698941000736	290.61221310007375	293.15299990004826	2.042319000000134	289.567337400047	292.13062820001494	296.2108291001058	1.0448757000267506	1.0223717000333181	0.9622299999466577	295.1966294001321	0.2442735999356955	294.1652503001968	1	1	94	3	go_punish	1	0	-1	1	1	1	0	0.0	1.0	0	0.3833490000106394	0.2442735999356955	997.1841978000012	1285.7540919000749	1286.7515352000482	1287.796410900075	1289.3148260000162	1290.3371977000495	1291.349448100198	1292.3808272001334	1293.395026900107	1294.3572569000537	2020-01-10 17:51:22.662719	5.18205374248129	0.0	-6.64529959969299	-2.58668806004723	-1.4632458572117	-6.64529959969299	-5.18205374248129	0.0	-6.64529959969299	-1.4632458572117	-6.64529959969299	0.0	2.132573335897735	-0.7186821652333327	-6.216683662435714	-3.9336650042439807	-1.9106360765413413	-6.216683662435714	-0.23721784150633038	-2.9973732015396592	-5.129946537437397	-1.6493525016694421	-5.2860133259996065	2	correct	1.0
297.18780130008224	9.436742399819195	go_punish	0.2876616998109966	297.21161760017264	299.57191650010634	302.11840280005697	2.360298899933696	298.22406340017926	301.09481010003935	305.1692831001707	1.3478530999270788	1.0235927000176162	1.479076899821166	304.15992740006175	0.6545074000023305	303.13199100014765	1	1	95	3	go_punish	0	-1	0	1	1	1	0	1.0	0.0	-1	0.2876616998109966	0.6545074000023305	997.1841978000012	1294.395815400174	1295.4082612001805	1296.7561143001076	1298.2790079000406	1299.3026006000582	1300.316188800149	1301.344125200063	1302.353480900172	1303.832557799993	2020-01-10 17:51:22.662719	5.26225357830053	0.0	-6.64529959969299	-2.33901687773953	-1.38304602139246	-6.64529959969299	-5.26225357830053	0.0	-6.64529959969299	-1.38304602139246	-6.64529959969299	-13.4486160611986	2.2127731717169756	-0.7186821652333327	-6.216683662435714	-3.6859938219362807	-1.8304362407221013	-6.216683662435714	-13.68583390270493	-2.9171733657204193	-5.129946537437397	-1.6493525016694421	-5.2860133259996065	2	wrong	1.0
306.66170850000333	8.253298100084066	nogo_reward	1.0	306.68552480009373	308.08924470003683	310.59294650005165	1.4037198999430984	307.69886750006106	309.592572600115	313.6486877000424	0.3903771999757737	1.000373899936676	1.2901352001354098	312.63619960006315	0.7472257998306304	311.60738200019125	1	1	96	2	nogo_reward	1	0	1	0	0	1	0	0.0	1.0	1	1.0	0.7472257998306304	997.1841978000012	1303.869722600095	1304.8830653000623	1305.273442500038	1306.7767704001162	1307.777144300053	1308.7915798001925	1309.8203974000644	1310.8328855000436	1312.123020700179	2020-01-10 17:51:22.662719	3.13222134607372	1.98863144649315	6.84427442842338	7.24477114364279	3.71205308234966	6.84427442842338	-3.13222134607372	6.84427442842338	1.98863144649315	6.84427442842338	3.71205308234966	4.84532613492012	0.08274093949016503	1.2699492812598172	7.272890365680656	5.897794199446039	3.2646628630200185	7.272890365680656	4.60810829341379	5.31014708409542	5.227406144605252	5.1949219267539375	3.3479177201865333	2	correct	1.0
314.9501771999056	8.428306700196117	nogo_reward	1.0	314.973993499996	316.76030540000636	319.296883100178	1.7863119000103325	315.97999180015165	318.27650140016306	322.3620919000822	0.7803135998547077	1.020381700014923	1.0402083001099527	321.34906240017165	0.4205795999150723	320.3119957000016	1	1	97	2	nogo_reward	0	1	0	0	0	1	0	0.0	1.0	0	1.0	0.4205795999150723	997.1841978000012	1312.1581912999973	1313.164189600153	1313.9445032000076	1315.4606992001643	1316.4810809001792	1317.4961935000028	1318.533260200173	1319.5462897000834	1320.5864980001934	2020-01-10 17:51:22.662719	3.38331043408649	1.98863144649315	7.19851093116108	7.5678712216866	3.81520049707459	7.19851093116108	-3.38331043408649	7.19851093116108	1.98863144649315	7.19851093116108	3.81520049707459	-7.19851093116108	0.33383002750293533	1.2699492812598172	7.627126868418356	6.220894277489849	3.3678102777449483	7.627126868418356	-7.435728772667411	5.664383586833121	5.330553559330182	5.549158429491638	3.3479177201865333	2	correct	1.0
323.41840240010026	8.920307899825502	go_punish	0.3800256999675184	323.44221870019067	325.35755220009	327.9087503000627	1.9153334998993614	324.45307760010485	326.8880422001238	330.9629111001267	0.9044745999851784	1.020708099938929	1.399615499889478	329.94464360014524	0.3560138000175357	328.9265848000067	1	1	98	3	go_punish	1	0	-1	1	1	1	0	0.0	1.0	0	0.3800256999675184	0.3560138000175357	997.1841978000012	1320.626416500192	1321.637275400106	1322.5417500000913	1324.072240000125	1325.092948100064	1326.110782600008	1327.1288414001465	1328.147108900128	1329.5467244000174	2020-01-10 17:51:22.662719	3.55476401626403	-1.35882709865742	-6.64529959969299	-3.47911839494396	-3.09053558342896	-6.64529959969299	-3.55476401626403	-1.35882709865742	-6.64529959969299	-3.09053558342896	-6.64529959969299	1.35882709865742	0.5052836096804754	-2.077509263890753	-6.216683662435714	-4.826095339140711	-3.5379258027586014	-6.216683662435714	1.1216092571510896	-4.624662927756919	-5.129946537437397	-3.008179600326862	-5.2860133259996065	2	correct	1.0
332.3755487001034	9.146995899965987	nogo_reward	1.0	332.3993650001938	334.87538120010856	337.3926729999947	2.4760161999147385	333.41342770005565	336.37981170020055	340.44397959997866	1.461953500052914	1.0128612997941673	1.1023813001811504	339.4349225000477	0.4428079999051988	338.4158032000995	1	1	99	2	nogo_reward	1	0	1	0	0	1	1	1.0	1.0	1	1.0	0.4428079999051988	997.1841978000012	1329.583562800195	1330.597625500057	1332.0595790001098	1333.5640095002018	1334.576870799996	1335.6000010001007	1336.619120300049	1337.62817739998	1338.730558700161	2020-01-10 17:51:22.662719	2.86486219906687	1.98863144649315	6.46230894878031	6.80350056639798	3.59744674971344	6.46230894878031	-2.86486219906687	6.46230894878031	1.98863144649315	6.46230894878031	3.59744674971344	5.227291614563191	-0.18461820751668467	1.2699492812598172	6.890924886037586	5.456523622201229	3.1500565303837984	6.890924886037586	4.99007377305686	4.92818160445235	5.112799811969033	4.812956447110867	3.3479177201865333	2	correct	1.0
341.5593177000991	8.95681979996175	nogo_reward	1.0	341.5831340001895	343.5615075000095	346.08096260018635	1.9783734998200089	342.58897819998685	345.06648860010307	349.1364579000509	0.9725293000226429	1.0144740000832826	1.4034959001003244	348.12311060004856	0.5155556001700461	347.095055800164	1	1	100	2	nogo_reward	1	0	1	0	0	1	0	0.0	1.0	1	1.0	0.5155556001700461	997.1841978000012	1338.7673318001907	1339.773175999988	1340.7457053000107	1342.2506864001043	1343.2651604001876	1344.2792536001652	1345.3073084000498	1346.3206557000522	1347.7241516001525	2020-01-10 17:51:22.662719	3.16052992086552	1.98863144649315	6.87656476077906	7.1922181056584	3.71603483991354	6.87656476077906	-3.16052992086552	6.87656476077906	1.98863144649315	6.87656476077906	3.71603483991354	4.81303580256444	0.11104951428196541	1.2699492812598172	7.305180698036336	5.845241161461649	3.2686446205838986	7.305180698036336	4.575817961058109	5.342437416451101	5.231387902169133	5.227212259109618	3.3479177201865333	2	correct	1.0
350.5516150998882	8.288225200027227	go_reward	0.6011278000660241	350.5754313999786	352.247516500065	354.79412159998867	1.6720851000864059	351.59174910001445	353.76792280003417	357.8391043001319	0.6557674000505358	1.0261987999545	1.0245522998739034	356.82633070019085	0.4020162001252174	355.7975813001393	1	1	101	1	go_reward	1	1	0	1	1	1	0	0.0	1.0	1	0.6011278000660241	0.4020162001252174	997.1841978000012	1347.7596291999798	1348.7759469000157	1349.4317143000662	1350.9521206000354	1351.97831939999	1352.9817791001406	1354.010528500192	1355.0233021001332	1356.047854400007	2020-01-10 17:51:22.662719	10.1688283381027	8.24207855888444	0.0	7.81536181689463	10.1688283381027	0.0	-10.1688283381027	8.24207855888444	0.0	10.1688283381027	0.0	3.44752200445906	7.119347931519144	7.523396393651107	0.42861593725727604	6.46838487269788	9.721438118773058	0.42861593725727604	3.21030416295273	8.63470099377474	1.5153530622555929	6.592726057214998	1.359286273693383	2	correct	1.0
358.88032880006347	8.341393199982122	go_punish	0.237737099872902	358.90414510015387	360.4428437000605	362.98372700018797	1.5386985999066383	359.90603640000325	361.96378180012096	366.0331473001278	0.5368073000572622	1.0199452000670135	1.2123910000082105	365.0146087000611	0.4151794000063091	364.00239430018667	1	1	102	3	go_punish	1	0	-1	1	1	1	0	0.0	1.0	0	0.237737099872902	0.4151794000063091	997.1841978000012	1356.088342900155	1357.0902342000045	1357.6270415000618	1359.1479796001222	1360.1679248001892	1361.186592100188	1362.1988065000623	1363.217345100129	1364.4297361001372	2020-01-10 17:51:22.662719	3.83907599205094	-1.18632385747104	-6.64529959969299	-3.11285536636652	-2.80622360764206	-6.64529959969299	-3.83907599205094	-1.18632385747104	-6.64529959969299	-2.80622360764206	-6.64529959969299	1.18632385747104	0.7895955854673851	-1.9050060227043728	-6.216683662435714	-4.459832310563271	-3.2536138269717014	-6.216683662435714	0.9491060159647096	-4.340350951970019	-5.129946537437397	-2.835676359140482	-5.2860133259996065	2	correct	1.0
367.25895330007177	7.76924159983173	nogo_reward	1.0	367.28276960016217	368.5765623000915	371.09299869998347	1.2937926999293268	368.29631480015803	370.0712457001208	374.15229370002646	0.2802474999334663	1.021752999862656	0.8997174999674371	373.13980870018725	0.6712875999510288	372.11034950008604	1	1	103	2	nogo_reward	0	1	0	0	0	1	0	0.0	1.0	0	1.0	0.6712875999510288	997.1841978000012	1364.4669674001634	1365.4805126001593	1365.7607601000927	1367.255443500122	1368.2771964999847	1369.2945473000873	1370.3240065001885	1371.3364915000277	1372.2362089999951	2020-01-10 17:51:22.662719	3.42318644212657	1.98863144649315	7.24650252677586	7.53895515997415	3.82331608464929	7.24650252677586	-3.42318644212657	7.24650252677586	1.98863144649315	7.24650252677586	3.82331608464929	-7.24650252677586	0.37370603554301507	1.2699492812598172	7.675118464033136	6.191978215777399	3.3759258653196484	7.675118464033136	-7.4837203682821904	5.7123751824479	5.338669146904882	5.5971500251064175	3.3479177201865333	2	correct	1.0
375.06215759995405	9.08478239993542	nogo_punish	1.0	375.08597390004445	377.3732435000128	379.9003356001339	2.28726959996834	376.0927174000534	378.88937130011607	382.9431769000365	1.2805260999593884	1.010964300017804	1.2275793999433517	381.93666700017627	0.3407902000471949	380.90973900002416	1	1	104	4	nogo_punish	1	-1	0	0	0	1	0	0.0	1.0	0	1.0	0.3407902000471949	997.1841978000012	1372.2701717000457	1373.2769152000546	1374.557441300014	1376.0735691001173	1377.0845334001351	1378.0939368000254	1379.1208648001775	1380.1273747000378	1381.3549540999811	2020-01-10 17:51:22.662719	1.46287205349628	-2.10136412205927	-1.95213735679474	-2.18299645223235	-3.41500941029101	-1.95213735679474	-1.46287205349628	-1.95213735679474	-2.10136412205927	-1.95213735679474	-3.41500941029101	1.95213735679474	-1.5866083530872748	-2.8200462872926026	-1.523521419537464	-3.5299733964291007	-3.8623996296206515	-1.523521419537464	1.7149195152884096	-3.4862647011226997	-1.8996563480354172	-3.6014898584641823	-0.742077848365887	2	correct	1.0
384.18517749989394	8.39912770013325	nogo_reward	1.0	384.20899379998434	385.68051220010955	388.2007005000486	1.4715184001252055	385.2104790001175	387.1757363001815	391.25547500001255	0.47003319999203086	1.0249641998670995	1.3526465001050383	390.24144740006875	0.565825599944219	389.2176930999848	1	1	105	2	nogo_reward	1	0	1	0	0	1	1	1.0	1.0	1	1.0	0.565825599944219	997.1841978000012	1381.3931915999856	1382.3946768001188	1382.8647100001108	1384.3599341001827	1385.3848983000498	1386.401890899986	1387.42564520007	1388.4396728000138	1389.7923193001188	2020-01-10 17:51:22.662719	2.91306063959014	1.98863144649315	6.52182777771965	6.79316228380382	3.60876713812951	6.52182777771965	-2.91306063959014	6.52182777771965	1.98863144649315	6.52182777771965	3.60876713812951	5.167772785623851	-0.13641976699341463	1.2699492812598172	6.950443714976926	5.446185339607069	3.1613769187998684	6.950443714976926	4.93055494411752	4.98770043339169	5.124120200385103	4.872475276050207	3.3479177201865333	2	correct	1.0
392.6258334999437	9.495422400068719	go_punish	0.183881500037387	392.6496498000341	395.14154150011007	397.69867650000367	2.4918917000759393	393.65896760020394	396.6784871001727	400.7299991000908	1.4825738999061286	1.020189399830997	1.4150731000120231	399.7257191000971	0.1558425000403076	398.70779250003386	1	1	106	3	go_punish	0	-1	0	1	1	1	0	0.0	1.0	-1	0.183881500037387	0.1558425000403076	997.1841978000012	1389.8338476000354	1390.8431654002052	1392.3257393001113	1393.862684900174	1394.882874300005	1395.891990300035	1396.9099169000983	1397.914196900092	1399.329270000104	2020-01-10 17:51:22.662719	4.08432427961029	-1.03989482069254	-6.64529959969299	-2.79427551465869	-2.56097532008271	-6.64529959969299	-4.08432427961029	-1.03989482069254	-6.64529959969299	-2.56097532008271	-6.64529959969299	-12.40872124050606	1.0348438730267353	-1.7585769859258726	-6.216683662435714	-4.1412524588554405	-3.0083655394123516	-6.216683662435714	-12.64593908201239	-4.095102664410669	-5.129946537437397	-2.6892473223619824	-5.2860133259996065	2	correct	1.0
402.15489690005745	8.886121199932177	go_reward	0.0068644999992102	402.17871320014785	404.01388360001135	406.55707960017014	1.8351703998635003	403.17117610014964	405.5363117000087	409.59713380015444	0.8427074998617172	1.0207679001614451	1.4677005999255925	408.5941461001056	0.3395660000387579	407.56398109998565	1	1	107	1	go_reward	0	0	1	1	1	1	0	0.0	1.0	0	0.0068644999992102	0.3395660000387579	997.1841978000012	1399.362911000149	1400.3553739001509	1401.1980814000126	1402.72050950001	1403.7412774001714	1404.748178899987	1405.7783439001068	1406.7813316001557	1408.2490322000813	2020-01-10 17:51:22.662719	10.4986157366476	8.48179448048709	0.0	8.10258338470628	10.4986157366476	0.0	-10.4986157366476	8.48179448048709	0.0	10.4986157366476	0.0	-8.48179448048709	7.4491353300640455	7.763112315253758	0.42861593725727604	6.7556064405095295	10.05122551731796	0.42861593725727604	-8.719012321993421	8.964488392319641	1.5153530622555929	6.8324419788176485	1.359286273693383	2	correct	1.0
411.07803380000394	9.485243200091645	nogo_reward	1.0	411.10185010009434	413.6557589001021	416.18391210003745	2.5539088000077754	412.1168421001638	415.1703074001706	419.2330712000838	1.5389167999383062	1.0136046998668462	1.3540221001021564	418.23162580002065	0.5279483001213521	417.2026116000487	1	1	108	2	nogo_reward	1	0	1	0	0	1	0	0.0	1.0	1	1.0	0.5279483001213521	997.1841978000012	1408.2860479000956	1409.301039900165	1410.8399567001034	1412.3545052001718	1413.3681099000387	1414.38680940005	1415.415823600022	1416.417269000085	1417.7712911001872	2020-01-10 17:51:22.662719	3.21454356090385	1.98863144649315	6.94435246261508	7.1964287636864	3.72980890171123	6.94435246261508	-3.21454356090385	6.94435246261508	1.98863144649315	6.94435246261508	3.72980890171123	4.74524810072842	0.16506315432029517	1.2699492812598172	7.372968399872356	5.84945181948965	3.2824186823815884	7.372968399872356	4.50803025922209	5.41022511828712	5.245161963966822	5.2949999609456375	3.3479177201865333	2	correct	1.0
420.60270670009766	8.25570649979636	nogo_reward	1.0	420.62652300018806	422.28786940011184	424.8239155001937	1.6613463999237865	421.6317390000912	423.80323200020905	427.87310179998155	0.6561304000206292	1.0206834999846706	1.009127700002864	426.8606477000284	0.3748340001329779	425.8308222000486	1	1	109	2	nogo_reward	0	1	0	0	0	1	0	0.0	1.0	0	1.0	0.3748340001329779	997.1841978000012	1417.8107208001893	1418.8159368000925	1419.472067200113	1420.9874298002103	1422.008113300195	1423.0150200000498	1424.0448455000296	1425.0572995999828	1426.0664272999857	2020-01-10 17:51:22.662719	3.4810794721028	1.98863144649315	7.32001578672109	7.55449881033035	3.83893631461829	7.32001578672109	-3.4810794721028	7.32001578672109	1.98863144649315	7.32001578672109	3.83893631461829	-7.32001578672109	0.43159906551924543	1.2699492812598172	7.748631723978366	6.207521866133599	3.3915460952886485	7.748631723978366	-7.55723362822742	5.78588844239313	5.354289376873883	5.670663285051647	3.3479177201865333	2	correct	1.0
428.89910380006756	7.90148609993048	go_punish	0.5801136000081897	428.92292010015797	430.35051320004266	432.9028708001132	1.4275930998846889	429.92401060019586	431.8829716001636	435.9357710001058	0.42650259984679906	1.0198991999495775	0.8886351999826729	434.93217010004435	0.5833617001771927	433.9113180001731	1	1	110	3	go_punish	1	0	-1	1	1	1	0	0.0	1.0	0	0.5801136000081897	0.5833617001771927	997.1841978000012	1426.1071179001592	1427.108208400197	1427.534711000044	1429.0671694001649	1430.0870686001144	1431.0955158001743	1432.1163679000456	1433.119968800107	1434.0086040000897	2020-01-10 17:51:22.662719	2.51764204711662	-2.27386736324565	-6.64529959969299	-3.87486413529532	-4.12765755257638	-6.64529959969299	-2.51764204711662	-2.27386736324565	-6.64529959969299	-4.12765755257638	-6.64529959969299	2.27386736324565	-0.5318383594669349	-2.9925495284789827	-6.216683662435714	-5.221841079492071	-4.575047771906021	-6.216683662435714	2.03664952173932	-5.66178489690434	-5.129946537437397	-3.923219864915092	-5.2860133259996065	2	correct	1.0
436.84102519997384	9.728342199930921	go_punish	0.6760095001664013	436.86484150006424	439.60679950006295	442.1439501000567	2.7419579999987036	437.8764618001877	441.13204030017357	445.1873223001602	1.7303376998752356	1.0119097998831421	1.4058613998349756	444.17326420010056	0.5004245000891387	443.1542514001484	1	1	111	3	go_punish	1	0	-1	1	1	1	0	0.0	1.0	0	0.6760095001664013	0.5004245000891387	997.1841978000012	1434.0490393000655	1435.060659600189	1436.7909973000642	1438.3162381001748	1439.328147900058	1440.3384492001496	1441.3574620001018	1442.3715201001614	1443.7773814999964	2020-01-10 17:51:22.662719	2.92259599925617	-1.99444577745678	-6.64529959969299	-3.45841044130649	-3.72270360043682	-6.64529959969299	-2.92259599925617	-1.99444577745678	-6.64529959969299	-3.72270360043682	-6.64529959969299	1.99444577745678	-0.1268844073273847	-2.7131279426901127	-6.216683662435714	-4.8053873855032405	-4.170093819766461	-6.216683662435714	1.7572279359504497	-5.256830944764779	-5.129946537437397	-3.643798279126222	-5.2860133259996065	2	correct	1.0
446.6055286999325	9.026064800098538	nogo_reward	1.0	446.6293450000229	448.85696170013387	451.3766824000048	2.227616700110957	447.6363129999953	450.36189300008107	454.4216599999926	1.220648700138554	1.0147893999237567	1.2337498001288623	453.4183912000152	0.702169300056994	452.3814612000714	1	1	112	2	nogo_reward	1	0	1	0	0	1	0	0.0	1.0	1	1.0	0.702169300056994	997.1841978000012	1443.8135428000242	1444.8205107999966	1446.041159500135	1447.5460908000823	1448.560880200006	1449.5656590000726	1450.6025890000165	1451.6058577999938	1452.8396076001227	2020-01-10 17:51:22.662719	2.97334105544297	1.98863144649315	6.59908332682174	6.8174667700734	3.62574227137877	6.59908332682174	-2.97334105544297	6.59908332682174	1.98863144649315	6.59908332682174	3.62574227137877	5.090517236521761	-0.07613935114058501	1.2699492812598172	7.027699264079016	5.4704898258766494	3.1783520520491284	7.027699264079016	4.85329939501543	5.06495598249378	5.141095333634363	4.949730825152297	3.3479177201865333	2	correct	1.0
455.6667573000303	8.036729800049216	go_reward	0.1925397000741213	455.69057360012073	457.3639852001796	459.90846660011437	1.6734116000588983	456.695928600151	458.89464309997845	462.9682393001857	0.668056600028649	1.0138235001359135	0.7590640999842435	461.9529326001647	0.6588930999860168	460.92376490007166	1	1	113	1	go_reward	1	1	0	1	1	1	0	0.0	1.0	1	0.1925397000741213	0.6588930999860168	997.1841978000012	1452.874771400122	1453.8801264001522	1454.5481830001809	1456.0788408999797	1457.0926644001156	1458.107962700073	1459.137130400166	1460.152437100187	1460.9115012001712	2020-01-10 17:51:22.662719	9.42954590685917	7.64262941711124	0.0	7.30457603343545	9.42954590685917	0.0	-9.42954590685917	7.64262941711124	0.0	9.42954590685917	0.0	4.04697114623226	6.380065500275615	6.923947251877907	0.42861593725727604	5.957599089238699	8.982155687529529	0.42861593725727604	3.80975330472593	7.89541856253121	1.5153530622555929	5.993276915441798	1.359286273693383	2	correct	1.0
463.7404436999931	9.454164300113916	nogo_punish	1.0	463.7642600000835	466.3978652001823	468.92820710013586	2.6336052000988275	464.7782052999827	467.9136558000463	471.97501670010377	1.619659900199622	1.014551300089579	1.243407600093633	470.963050500024	0.5384045999962837	469.94130140007485	1	1	114	4	nogo_punish	0	0	-1	0	0	1	0	0.0	1.0	-1	1.0	0.5384045999962837	997.1841978000012	1460.9484578000847	1461.962403099984	1463.5820630001836	1465.0978536000475	1466.112404900137	1467.125499200076	1468.1472483000252	1469.159214500105	1470.4026221001986	2020-01-10 17:51:22.662719	1.59197916620858	-2.10136412205927	-1.75480295584658	-1.96862850575552	-3.34678212205516	-1.75480295584658	-1.59197916620858	-1.75480295584658	-2.10136412205927	-1.75480295584658	-3.34678212205516	-11.69381310535202	-1.4575012403749747	-2.8200462872926026	-1.326187018589304	-3.3156054499522707	-3.7941723413848014	-1.326187018589304	-11.93103094685835	-3.2889303001745396	-1.831429059799567	-3.404155457516022	-0.742077848365887	2	correct	1.0
473.2311575000639	8.726579200010974	nogo_reward	1.0	473.2549738001543	475.16514000017185	477.6808386000338	1.9101662000175565	474.259115200024	476.67301969998505	480.7145293999928	0.9060248001478612	1.0078189000487328	1.2670236001724788	479.7113367000128	0.5206085999961942	478.6880881001706	1	1	115	2	nogo_reward	1	0	1	0	0	1	0	0.0	1.0	1	1.0	0.5206085999961942	997.1841978000012	1470.4391716001555	1471.4433130000252	1472.349337800173	1473.8572174999863	1474.865036400035	1475.8722859001718	1476.895534500014	1477.898727199994	1479.1657508001665	2020-01-10 17:51:22.662719	3.27606488395898	1.98863144649315	7.02380685028574	7.22743365286283	3.74774196632677	7.02380685028574	-3.27606488395898	7.02380685028574	1.98863144649315	7.02380685028574	3.74774196632677	4.66579371305776	0.2265844773754253	1.2699492812598172	7.452422787543016	5.880456708666079	3.3003517469971286	7.452422787543016	4.42857587155143	5.48967950595778	5.263095028582363	5.374454348616298	3.3479177201865333	2	correct	1.0
481.9995498000643	7.943843299988657	go_punish	0.4209620000328868	482.0233661001547	483.39171880017955	485.93220380018454	1.3683527000248432	483.03288880013827	484.91450630011957	488.9777496000751	0.3588300000412801	1.017697500064969	0.989459800068289	487.9673748000058	0.1175722000189125	486.95123580004986	1	1	116	3	go_punish	1	0	-1	1	1	1	0	0.0	1.0	0	0.4209620000328868	0.1175722000189125	997.1841978000012	1479.207563900156	1480.2170866001395	1480.5759166001808	1482.0987041001208	1483.1164016001858	1484.135433600051	1485.151572600007	1486.1619474000763	1487.1514072001446	2020-01-10 17:51:22.662719	3.27163517144118	-1.75607824261278	-6.64529959969299	-3.09730311159547	-3.37366442825181	-6.64529959969299	-3.27163517144118	-1.75607824261278	-6.64529959969299	-3.37366442825181	-6.64529959969299	1.75607824261278	0.22215476485762542	-2.4747604078461127	-6.216683662435714	-4.444280055792221	-3.8210546475814513	-6.216683662435714	1.5188604011064495	-4.9077917725797695	-5.129946537437397	-3.405430744282222	-5.2860133259996065	2	correct	1.0
489.9789324000011	8.284920299891155	go_reward	0.2143310999963432	490.0027487000915	491.4582915001082	493.99988500005554	1.4555428000167012	491.0164405000395	492.9831794002092	497.0442411000839	0.44185100006870925	1.0167055998463184	1.2434278998987338	496.0300515000707	0.4558564000762999	495.0136993001214	1	1	117	1	go_reward	1	1	0	1	1	1	0	0.0	1.0	1	0.2143310999963432	0.4558564000762999	997.1841978000012	1487.1869465000927	1488.2006383000407	1488.6424893001094	1490.1673772002105	1491.1840828000568	1492.1978971001226	1493.214249300072	1494.2284389000852	1495.471866799984	2020-01-10 17:51:22.662719	9.85830484663617	7.96408980873313	0.0	7.66182967611701	9.85830484663617	0.0	-9.85830484663617	7.96408980873313	0.0	9.85830484663617	0.0	3.7255107546103705	6.808824440052614	7.245407643499797	0.42861593725727604	6.31485273192026	9.410914627306529	0.42861593725727604	3.4882929131040403	8.32417750230821	1.5153530622555929	6.314737307063687	1.359286273693383	2	correct	1.0
498.2990969000383	8.861337299924344	nogo_punish	1.0	498.3229132001287	500.150620400207	502.6722600001375	1.8277072000782937	499.33226580009784	501.661187800113	505.71649310016085	0.81835460010916	1.0110722000245005	1.467757399892207	504.71315359999414	0.2703871999401599	503.69123840006057	1	1	118	4	nogo_punish	1	-1	0	0	0	1	0	0.0	1.0	0	1.0	0.2703871999401599	997.1841978000012	1495.50711100013	1496.516463600099	1497.3348182002082	1498.8453856001142	1499.8564578001387	1500.8754362000618	1501.8973513999954	1502.900690900162	1504.3684483000543	2020-01-10 17:51:22.662719	0.76564629131532	-2.10136412205927	-2.9406823206626	-3.13898134227778	-3.70632861197792	-2.9406823206626	-0.76564629131532	-2.9406823206626	-2.10136412205927	-2.9406823206626	-3.70632861197792	2.9406823206626	-2.2838341152682347	-2.8200462872926026	-2.512066383405324	-4.485958286474531	-4.153718831307561	-2.512066383405324	2.7034644791562696	-4.474809664990559	-2.190975549722327	-4.590034822332042	-0.742077848365887	2	correct	1.0
507.1973961999173	8.066228900104534	go_reward	1.0	507.2212125000077	508.78759360010724	511.30819620005775	1.5663811000995338	508.2250885001848	510.2976850999984	514.346354600042	0.5625050999224186	1.0105111000593752	0.9410868000702521	513.33789100009	0.5993145999964327	512.3254369001367	1	1	119	1	go_reward	1	1	0	1	0	0	1	0.0	0.0	0	1.0	0.5993145999964327	997.1841978000012	1504.405410300009	1505.409286300186	1505.9717914001085	1507.4818828999996	1508.492394000059	1509.509634700138	1510.5220888000913	1511.5305524000432	1512.4716392001135	2020-01-10 17:51:22.662719	-10.2412099477741	8.25020273415326	0.0	7.97918329381081	10.2412099477741	0.0	10.2412099477741	0.0	8.25020273415326	0.0	10.2412099477741	0.0	-13.290690354357656	7.531520568919928	0.42861593725727604	6.6322063496140595	9.79381972844446	0.42861593725727604	-0.23721784150633038	-1.5341273443279595	11.756563010029694	-1.6493525016694421	9.609489007846644	2	wrong	1.0
515.3011648999526	9.36876010010019	go_reward	0.1915198001079261	515.324981200043	518.09285240015	520.6173202001956	2.767871200107038	516.3286477001383	519.6151213999837	523.6693363999947	1.76420470001176	1.0021988002119997	1.024404900148511	522.6561608000192	0.6259261998347938	521.6337605000007	1	1	120	1	go_reward	1	1	0	1	1	1	0	0.0	1.0	1	0.1915198001079261	0.6259261998347938	997.1841978000012	1512.5091790000442	1513.5128455001395	1515.2770502001513	1516.799319199985	1517.801518000197	1518.817958300002	1519.8403586000204	1520.853534199996	1521.8779391001444	2020-01-10 17:51:22.662719	10.0169143984197	8.25020273415326	0.0	7.20598142997748	10.0169143984197	0.0	-10.0169143984197	8.25020273415326	0.0	10.0169143984197	0.0	3.4393978291902396	6.967433991836145	7.531520568919928	0.42861593725727604	5.859004485780729	9.56952417909006	0.42861593725727604	3.2021799876839094	8.482787054091741	1.5153530622555929	6.600850232483818	1.359286273693383	2	correct	1.0
