onset	duration	trial_type	response_time	cueOnset	targetOnset	fbOnset	cueRT	firstfixOnset	secondfixOnset	waitOnset	firstfixdur	secondfixdur	waitdur	nback_fbOnset	nback_response_time	nback_targetOnset	block	wm	trial	cue	cond	is_common	outcome_go	outcome_nogo	key_correct	key_pressed	is_correct	key_correct_nback	key_pressed_nback	is_correct_nback	outcome	rt	rt_nback	time_scan	time_onset	time_isi1	time_circle	time_isi2	time_feedback	time_same	time_correct	time_iti	time_done	timestamp_scan	DV	Qgo	Qnogo	SV	Wgo	Wnogo	mDV	Qchosen	Qunchosen	Wchosen	Wunchosen	PE	DVC	QgoC	QnogoC	SVC	WgoC	WnogoC	PEC	WchosenC	WunchosenC	QchosenC	QunchosenC	run	outcome_nback	nback_targetResp
0.0	8.963735199999007	go_punish	1.0	0.06038600020121976	2.033827400067878	4.573015399975702	1.9734413998666582	1.0729453000240028	3.5475983000360998	7.607418600004223	0.9608821000438752	1.0254170999396024	1.416702600196004	6.602370999986363	1.0	5.592539800098223	1	1	1	3	go_punish	1	0	-1	1	0	0	0	n/a	0.0	-1	1.0	1.0	403.9008384000044	403.9612244002056	404.9737837000284	405.93466580007225	407.4484367000405	408.4738537999801	409.4933782001026	410.50320939999074	411.5082570000086	412.9249596002046	2020-01-10 17:41:29.377585	0.553526717788337	0.0	0.0	0.0	-0.553526717788337	0.0	-0.553526717788337	0.0	0.0	0.0	-0.553526717788337	-13.4486160611986	-2.495953688795218	-0.7186821652333327	0.42861593725727604	-1.3469769441967507	-1.0009169371179782	0.42861593725727604	-13.68583390270493	-1.5341273443279595	0.9618263444672559	-1.6493525016694421	1.359286273693383	1	missed	0.0
9.005051799816954	9.418569199973717	go_punish	1.0	9.065437800018174	11.909660000121278	14.44708230020484	2.844222200103104	10.072283900110108	13.426104200072643	17.496428500162494	1.83737610001117	1.0209781001321971	0.9875784998293966	16.49733070004737	0.7915981998667121	15.462784999981636	1	1	2	3	go_punish	0	-1	0	1	0	0	0	1.0	0.0	0	1.0	0.7915981998667121	403.9008384000044	412.96627620002255	413.9731223001145	415.81049840012565	417.326942600077	418.3479207002092	419.363623399986	420.39816910005175	421.39726690016687	422.38484539999627	2020-01-10 17:41:29.377585	-0.384975451315074	0.0	-1.35882709865742	-1.35882709865742	-0.973851647342348	-1.35882709865742	0.384975451315074	-1.35882709865742	0.0	-1.35882709865742	-0.973851647342348	1.35882709865742	-3.434455857898629	-0.7186821652333327	-0.930211161400144	-2.7058040428541705	-1.4212418666719893	-0.930211161400144	1.1216092571510896	-2.8929544429853795	0.5415014149132449	-3.008179600326862	1.359286273693383	1	wrong	1.0
18.46993139991531	9.4867505999282	nogo_punish	0.7307222001254559	18.53031740011653	21.308595000067783	23.8679593000561	2.7782775999512523	19.536549900192824	22.844848300097567	26.90471620019531	1.7720450998749584	1.0231109999585328	1.1123517998494208	25.8970610001125	1.0	24.887510300148335	1	1	3	4	nogo_punish	1	-1	0	0	1	0	0	n/a	0.0	0	0.7307222001254559	1.0	403.9008384000044	422.4311558001209	423.4373883001972	425.20943340007216	426.74568670010194	427.7687977000605	428.7883487001527	429.7978994001169	430.8055546001997	431.9179064000491	2020-01-10 17:41:29.377585	-0.553526717788337	0.0	0.0	0.0	-0.553526717788337	0.0	0.553526717788337	0.0	0.0	-0.553526717788337	0.0	-13.4486160611986	-3.6030071243718917	-0.7186821652333327	0.42861593725727604	-1.3469769441967507	-1.0009169371179782	0.42861593725727604	-13.68583390270493	-2.0876540621162967	1.5153530622555929	-1.6493525016694421	1.359286273693383	1	missed	0.0
28.000408499967193	8.569769299821985	nogo_reward	0.5816297000274062	28.060794500168413	30.115823300089744	32.65675810002733	2.055028799921331	29.069224700098914	31.64585540001292	35.71515070018364	1.0465985999908298	1.0109027000144124	0.9154130998067558	34.70398970018141	0.7900638999417424	33.67332680011174	1	1	4	2	nogo_reward	1	0	1	0	1	0	0	0.0	1.0	0	0.5816297000274062	0.7900638999417424	403.9008384000044	431.9616329001728	432.9700631001033	434.0166617000941	435.5466938000173	436.5575965000317	437.5741652001161	438.6048281001858	439.615989100188	440.5314021999948	2020-01-10 17:41:29.377585	-0.553526717788337	0.0	0.0	0.0	-0.553526717788337	0.0	0.553526717788337	0.0	0.0	-0.553526717788337	0.0	0.0	-3.6030071243718917	-0.7186821652333327	0.42861593725727604	-1.3469769441967507	-1.0009169371179782	0.42861593725727604	-0.23721784150633038	-2.0876540621162967	1.5153530622555929	-1.6493525016694421	1.359286273693383	1	correct	1.0
36.60957949981088	8.692726999986917	go_punish	1.0	36.6699655000121	39.00556279998284	41.526023400016186	2.3355972999707433	37.676792100071964	40.51040080003452	44.55755630019132	1.3287706999108764	1.0156225999816684	0.8051361998076914	43.539293100126145	1.0	42.52985300007282	1	1	5	3	go_punish	1	0	-1	1	0	0	0	n/a	0.0	-1	1.0	1.0	403.9008384000044	440.5708039000165	441.57763050007634	442.9064011999872	444.4112392000389	445.42686180002056	446.4306914000772	447.4401315001305	448.4583947001957	449.2635309000034	2020-01-10 17:41:29.377585	-0.260089103787876	0.0	-1.18632385747104	-1.18632385747104	-0.926234753683164	-1.18632385747104	0.260089103787876	-1.18632385747104	0.0	-1.18632385747104	-0.926234753683164	-12.26229220372756	-3.3095695103714307	-0.7186821652333327	-0.757707920213764	-2.5333008016677905	-1.3736249730128054	-0.757707920213764	-12.49951004523389	-2.7204512017989995	0.5891183085724289	-2.835676359140482	1.359286273693383	1	missed	0.0
45.33786569978099	8.436606500065011	nogo_punish	1.0	45.39825169998221	46.88539350009529	49.416048299986926	1.4871418001130792	46.41336320014682	48.40261540003132	52.45123280002741	0.47203029994847157	1.0134328999556033	1.3836254000198096	51.45165310008457	0.8782713001128286	50.428129600128216	1	1	6	4	nogo_punish	0	0	-1	0	0	1	0	0.0	1.0	-1	1.0	0.8782713001128286	403.9008384000044	449.2990900999866	450.3142016001512	450.78623190009966	452.3034538000357	453.3168866999913	454.3289680001326	455.35249150008895	456.3520712000318	457.7356966000516	2020-01-10 17:41:29.377585	0.553526717788337	0.0	0.0	0.0	-0.553526717788337	0.0	-0.553526717788337	0.0	0.0	0.0	-0.553526717788337	-13.4486160611986	-2.495953688795218	-0.7186821652333327	0.42861593725727604	-1.3469769441967507	-1.0009169371179782	0.42861593725727604	-13.68583390270493	-1.5341273443279595	0.9618263444672559	-1.6493525016694421	1.359286273693383	1	correct	1.0
53.80783049995074	8.226251499960142	nogo_punish	0.6269749999046326	53.86821650015196	55.30743260006426	57.83657220005995	1.4392160999123007	54.86966189998208	56.82689630007371	60.88507860014221	0.4377707000821829	1.0096758999862345	1.2093893999698935	59.88021220010711	0.9508240998256952	58.85960409999831	1	1	7	4	nogo_punish	0	0	-1	0	1	0	0	1.0	0.0	0	0.6269749999046326	0.9508240998256952	403.9008384000044	457.76905490015633	458.77050029998645	459.20827100006863	460.7277347000781	461.7374106000643	462.7604425000027	463.7810506001115	464.7859170001466	465.9953064001165	2020-01-10 17:41:29.377585	0.384975451315074	0.0	-1.35882709865742	-1.35882709865742	-0.973851647342348	-1.35882709865742	-0.384975451315074	0.0	-1.35882709865742	-0.973851647342348	-1.35882709865742	0.0	-2.6645049552684807	-0.7186821652333327	-0.930211161400144	-2.7058040428541705	-1.4212418666719893	-0.930211161400144	-0.23721784150633038	-2.5079789916703072	0.15652596359817283	-1.6493525016694421	0.0004591750359630442	1	wrong	1.0
62.06796369981009	8.410738500068021	nogo_punish	0.6361566998530179	62.12834970001131	63.976098900195325	66.52770570013683	1.847749200184012	63.13241209997801	65.50702940020716	69.5770062000957	0.8436868002173128	1.0206762999296757	0.9620819999836385	68.56480920012115	0.4956618000287562	67.53476770012645	1	1	8	4	nogo_punish	0	0	-1	0	1	0	1	1.0	1.0	0	0.6361566998530179	0.4956618000287562	403.9008384000044	466.0291881000157	467.0332504999824	467.8769373001997	469.40786780021153	470.4285441001412	471.4356061001308	472.4656476001255	473.47784460010007	474.4399266000837	2020-01-10 17:41:29.377585	0.432592344974258	0.0	-1.35882709865742	-1.18632385747104	-0.926234753683164	-1.35882709865742	-0.432592344974258	0.0	-1.35882709865742	-0.926234753683164	-1.35882709865742	0.0	-2.6168880616092967	-0.7186821652333327	-0.930211161400144	-2.5333008016677905	-1.3736249730128054	-0.930211161400144	-0.23721784150633038	-2.4603620980111236	0.15652596359817283	-1.6493525016694421	0.0004591750359630442	1	correct	1.0
70.51428359979758	8.184414800023603	nogo_punish	0.7884788000956178	70.5746695999988	72.15487800003035	74.69841490010731	1.5802084000315517	71.58605640009051	73.67517670011154	77.73423790000385	0.568821599939838	1.0232381999957738	1.0248465000185547	76.7351012001746	0.8796777001116425	75.71169120003475	1	1	9	4	nogo_punish	1	-1	0	0	1	0	1	1.0	1.0	-1	0.7884788000956178	0.8796777001116425	403.9008384000044	474.4755080000032	475.4868948000949	476.0557164000347	477.5760151001159	478.5992533001117	479.6125296000391	480.635939600179	481.6350763000082	482.6599228000268	2020-01-10 17:41:29.377585	0.473775760723213	0.0	-1.35882709865742	-1.03989482069254	-0.885051337934209	-1.35882709865742	-0.473775760723213	0.0	-1.35882709865742	-0.885051337934209	-1.35882709865742	-13.4486160611986	-2.5757046458603416	-0.7186821652333327	-0.930211161400144	-2.3868717648892908	-1.3324415572638504	-0.930211161400144	-13.68583390270493	-2.4191786822621686	0.15652596359817283	-1.6493525016694421	0.0004591750359630442	1	correct	1.0
78.7382960999384	8.455323499860185	go_punish	0.643825100036338	78.79868210013962	80.13862009998411	82.68546000006614	1.3399379998444942	79.80992890009662	81.67498950008309	85.7436989000999	0.3286911998874871	1.0104704999830574	1.5103066998998997	84.72944000014115	0.889695999911055	83.70676420000387	1	1	10	3	go_punish	1	0	-1	1	1	1	0	0.0	1.0	0	0.643825100036338	0.889695999911055	403.9008384000044	482.699520500144	483.710767300101	484.0394584999885	485.57582790008746	486.5862984000705	487.60760260000825	488.6302784001455	489.6445373001043	491.1548440000042	2020-01-10 17:41:29.377585	1.09334565186174	0.0	-2.39872191934997	-2.39872191934997	-1.30537626748822	-2.39872191934997	-1.09334565186174	0.0	-2.39872191934997	-1.30537626748822	-2.39872191934997	0.0	-1.9561347547218149	-0.7186821652333327	-1.970105982092694	-3.7456988635467208	-1.7527664868178614	-1.970105982092694	-0.23721784150633038	-2.8395036118161796	-0.8833688570943772	-1.6493525016694421	-1.039435645656587	1	correct	1.0
87.23671159986401	9.348874300019816	go_reward	1.0	87.29709760006523	90.03106090007356	92.54009740008041	2.7339633000083268	88.30582060012972	91.52967910002923	95.59015310020192	1.7252402999438345	1.0104183000511853	1.0558187998831272	94.57168460008694	0.8235567999072373	93.54796009999706	1	1	11	1	go_reward	1	1	0	1	0	0	0	1.0	0.0	0	1.0	0.8235567999072373	403.9008384000044	491.1979360000696	492.2066590001341	493.93189930007793	495.4305175000336	496.4409358000848	497.44879850000143	498.4725230000913	499.4909915002063	500.5468103000894	2020-01-10 17:41:29.377585	0.553526717788337	0.0	0.0	0.0	-0.553526717788337	0.0	-0.553526717788337	0.0	0.0	0.0	-0.553526717788337	0.0	-2.495953688795218	-0.7186821652333327	0.42861593725727604	-1.3469769441967507	-1.0009169371179782	0.42861593725727604	-0.23721784150633038	-1.5341273443279595	0.9618263444672559	-1.6493525016694421	1.359286273693383	1	wrong	1.0
96.61857649986632	8.978485699975806	go_reward	0.2159428000450134	96.67896250006754	98.8443252001889	101.39888280001475	2.1653627001213636	97.67220660019672	100.3844785999973	104.42984930006793	1.1721185999921886	1.0144042000174522	1.227598899975419	103.41513149999088	1.0	102.40447800001135	1	1	12	1	go_reward	1	1	0	1	1	1	0	n/a	0.0	0	0.2159428000450134	1.0	403.9008384000044	500.5798009000719	501.5730450002011	502.7451636001933	504.28531700000167	505.2997212000191	506.3053164000157	507.31596989999525	508.3306877000723	509.5582866000477	2020-01-10 17:41:29.377585	-0.553526717788337	0.0	0.0	0.0	-0.553526717788337	0.0	0.553526717788337	0.0	0.0	-0.553526717788337	0.0	11.6896005633435	-3.6030071243718917	-0.7186821652333327	0.42861593725727604	-1.3469769441967507	-1.0009169371179782	0.42861593725727604	11.45238272183717	-2.0876540621162967	1.5153530622555929	-1.6493525016694421	1.359286273693383	1	missed	0.0
105.63555749994697	7.916892800014466	go_punish	0.8691799999214709	105.69594350014819	107.07822880009195	109.62377860001294	1.38228529994376	106.71377430018043	108.59866560017696	112.64944310020661	0.3644544999115169	1.025112999835983	0.9633931999560446	111.64912510011351	1.0	110.63947560009552	1	1	13	3	go_punish	0	-1	0	1	1	1	0	n/a	0.0	0	0.8691799999214709	1.0	403.9008384000044	509.59678190015256	510.6146127001848	510.9790672000963	512.4995040001813	513.5246170000173	514.5403140000999	515.5499635001179	516.550281500211	517.513674700167	2020-01-10 17:41:29.377585	1.17671128754051	0.0	-2.39872191934997	-2.10136412205927	-1.22201063180945	-2.39872191934997	-1.17671128754051	0.0	-2.39872191934997	-1.22201063180945	-2.39872191934997	-13.4486160611986	-1.8727691190430449	-0.7186821652333327	-1.970105982092694	-3.4483410662560208	-1.6694008511390912	-1.970105982092694	-13.68583390270493	-2.7561379761374094	-0.8833688570943772	-1.6493525016694421	-1.039435645656587	1	missed	0.0
113.58857929985965	9.470503600081429	nogo_reward	0.331399800023064	113.64896530006087	116.09196360013453	118.63359890016733	2.4429983000736684	114.6541540001054	117.61281300010165	121.6823815000244	1.4378096000291407	1.0207859000656754	1.437087400117889	120.67308169999166	0.8073557999450713	119.65107270004233	1	1	14	2	nogo_reward	1	0	1	0	1	0	0	0.0	1.0	0	0.331399800023064	0.8073557999450713	403.9008384000044	517.5498037000652	518.5549924001098	519.9928020001389	521.513651400106	522.5344373001717	523.5519111000467	524.573920099996	525.5832199000288	527.0203073001467	2020-01-10 17:41:29.377585	-0.553526717788337	0.0	0.0	0.0	-0.553526717788337	0.0	0.553526717788337	0.0	0.0	-0.553526717788337	0.0	0.0	-3.6030071243718917	-0.7186821652333327	0.42861593725727604	-1.3469769441967507	-1.0009169371179782	0.42861593725727604	-0.23721784150633038	-2.0876540621162967	1.5153530622555929	-1.6493525016694421	1.359286273693383	1	correct	1.0
123.0994249999057	8.711823899997398	go_punish	1.0	123.15981100010691	124.9534553000704	127.4834518001881	1.7936442999634892	124.17036560014827	126.46802690019837	130.52761970018042	0.7830896999221295	1.015424899989739	1.3440151999238878	129.51447660010314	0.7082189000211656	128.49630200001417	1	1	15	3	go_punish	1	0	-1	1	0	0	1	0.0	0.0	-1	1.0	0.7082189000211656	403.9008384000044	527.0606494001113	528.0712040001526	528.8542937000748	530.3688653002027	531.3842902001925	532.3971404000185	533.4153150001075	534.4284581001848	535.7724733001087	2020-01-10 17:41:29.377585	-1.24903432761901	0.0	-2.39872191934997	-1.84801674067829	-1.14968759173095	-2.39872191934997	1.24903432761901	-2.39872191934997	0.0	-2.39872191934997	-1.14968759173095	-11.049894141848629	-4.2985147342025645	-0.7186821652333327	-1.970105982092694	-3.1949936848750404	-1.5970778110605912	-1.970105982092694	-11.28711198335496	-3.9328492636779293	0.36566547052464293	-4.048074421019412	1.359286273693383	1	wrong	1.0
131.84760639979498	9.133307700045407	nogo_punish	1.0	131.9079923999962	134.50513610010972	137.03553850017494	2.59714370011352	132.92745080008177	136.02074300008832	140.0948226000183	1.5776853000279516	1.0147955000866205	0.9464775000233203	139.0759678999894	0.9238624998833984	138.0536535000429	1	1	16	4	nogo_punish	1	-1	0	0	0	1	0	0.0	1.0	0	1.0	0.9238624998833984	403.9008384000044	535.8088308000006	536.8282892000861	538.4059745001141	539.9215814000927	540.9363769001793	541.9544919000473	542.9768062999938	543.9956610000227	544.942138500046	2020-01-10 17:41:29.377585	1.26962752546864	-1.35882709865742	-1.35882709865742	-2.27386736324565	-2.62845462412606	-1.35882709865742	-1.26962752546864	-1.35882709865742	-1.35882709865742	-1.35882709865742	-2.62845462412606	1.35882709865742	-1.7798528811149148	-2.077509263890753	-0.930211161400144	-3.620844307442401	-3.0758448434557013	-0.930211161400144	1.1216092571510896	-2.8929544429853795	-1.113101561870467	-3.008179600326862	0.0004591750359630442	1	correct	1.0
141.02063949988218	8.45085579995066	go_punish	1.0	141.0810255000834	143.07368939998565	145.60288670007145	1.9926638999022543	142.08734900015412	144.5883697001264	148.64844210003508	0.9863403998315334	1.0145169999450445	0.8834391999989748	147.6352170000319	0.7615485000424087	146.61588230007334	1	1	17	3	go_punish	1	0	-1	1	0	0	1	0.0	0.0	-1	1.0	0.7615485000424087	403.9008384000044	544.9818639000878	545.9881874001585	546.97452779999	548.4892081001308	549.5037251000758	550.5167207000777	551.5360554000363	552.5492805000395	553.4327197000384	2020-01-10 17:41:29.377585	-1.95314319923238	0.0	-3.46019122071669	-2.99005078516589	-1.50704802148431	-3.46019122071669	1.95314319923238	-3.46019122071669	0.0	-3.46019122071669	-1.50704802148431	-9.98842484048191	-5.002623605815935	-0.7186821652333327	-3.031575283459414	-4.3370277293626405	-1.9544382408139513	-3.031575283459414	-10.22564268198824	-4.994318565044649	0.008305040771282801	-5.109543722386132	1.359286273693383	1	wrong	1.0
149.5032286997884	9.376818699995056	go_reward	0.2890015000011772	149.5636146999896	151.8594961999916	154.41770049999474	2.2958815000019968	150.573720100103	153.39269080013042	157.4470441001468	1.2857760998886079	1.025009699864313	1.4933892998378724	156.4440268001054	0.613154900027439	155.43115469999617	1	1	18	1	go_reward	1	1	0	1	1	1	0	0.0	1.0	1	0.2890015000011772	0.613154900027439	403.9008384000044	553.464453099994	554.4745585001074	555.760334599996	557.2935292001348	558.3185388999991	559.3319931000005	560.3448652001098	561.3478825001512	562.841271799989	2020-01-10 17:41:29.377585	-0.553526717788337	0.0	0.0	0.0	-0.553526717788337	0.0	0.553526717788337	0.0	0.0	-0.553526717788337	0.0	11.6896005633435	-3.6030071243718917	-0.7186821652333327	0.42861593725727604	-1.3469769441967507	-1.0009169371179782	0.42861593725727604	11.45238272183717	-2.0876540621162967	1.5153530622555929	-1.6493525016694421	1.359286273693383	1	correct	1.0
158.91346239997068	8.395488000009209	go_reward	0.62007230008021	158.9738484001719	160.5363890000154	163.0894390000031	1.5625405998434871	159.9757646999788	162.07443980011163	166.13538950006483	0.5606243000365794	1.014999199891463	1.2339469001162797	165.12193680019124	0.6794270998798311	164.1040529001039	1	1	19	1	go_reward	1	1	0	1	1	1	0	1.0	0.0	1	0.62007230008021	0.6794270998798311	403.9008384000044	562.8746868001763	563.8766030999832	564.4372274000198	565.975278200116	566.9902774000075	568.0048913001083	569.0227752001956	570.0362279000692	571.2701748001855	2020-01-10 17:41:29.377585	0.814694444098296	1.05634669237385	0.0	1.05634669237385	0.814694444098296	0.0	-0.814694444098296	1.05634669237385	0.0	0.814694444098296	0.0	10.63325387096965	-2.234785962485259	0.3376645271405173	0.42861593725727604	-0.2906302518229007	0.3673042247686546	0.42861593725727604	10.39603602946332	-0.7194329002296636	1.5153530622555929	-0.5930058092955921	1.359286273693383	1	wrong	1.0
167.35029139998363	9.53017309983261	go_punish	0.7796905001159757	167.41067740018485	169.9596808000934	172.50282200006774	2.5490033999085426	168.41980520007206	171.49085750011733	175.5412230000366	1.5398756000213325	1.011964499950409	1.399627499980852	174.53360540000727	0.756254700012505	173.51921250019228	1	1	20	3	go_punish	1	0	-1	1	1	1	0	0.0	1.0	0	0.7796905001159757	0.756254700012505	403.9008384000044	571.3115158001892	572.3206436000764	573.8605192000978	575.3916959001217	576.4036604000721	577.4200509001967	578.4344438000116	579.442061400041	580.8416889000218	2020-01-10 17:41:29.377585	2.56841426057637	0.0	-4.39316769680675	-3.99008386561312	-1.82475343623038	-4.39316769680675	-2.56841426057637	0.0	-4.39316769680675	-1.82475343623038	-4.39316769680675	0.0	-0.4810661460071848	-0.7186821652333327	-3.964551759549474	-5.337060809809871	-2.2721436555600216	-3.964551759549474	-0.23721784150633038	-3.35888078055834	-2.8778146345511573	-1.6493525016694421	-3.033881423113367	1	correct	1.0
176.9150619998108	8.846319300122559	nogo_punish	1.0	176.97544800001202	178.83204290014697	181.37036360008648	1.8565949001349509	177.98660200019373	180.34684240003122	184.42186590004718	0.8454408999532461	1.0235212000552565	1.3999014000874013	183.4104858001229	0.6355017998721451	182.3808184000664	1	1	21	4	nogo_punish	0	0	-1	0	0	1	0	0.0	1.0	-1	1.0	0.6355017998721451	403.9008384000044	580.8762864000164	581.8874404001981	582.7328813001513	584.2476808000356	585.2712020000909	586.2816568000708	587.3113242001273	588.3227043000516	589.722605700139	2020-01-10 17:41:29.377585	1.36337424866629	-1.35882709865742	-1.18632385747104	-1.99444577745678	-2.54969810613733	-1.18632385747104	-1.36337424866629	-1.18632385747104	-1.35882709865742	-1.18632385747104	-2.54969810613733	-12.26229220372756	-1.6861061579172647	-2.077509263890753	-0.757707920213764	-3.341422721653531	-2.9970883254669713	-0.757707920213764	-12.49951004523389	-2.7204512017989995	-1.034345043881737	-2.835676359140482	0.0004591750359630442	1	correct	1.0
185.79713029996486	8.438885599840432	go_reward	0.4894886999391019	185.85751630016608	187.29898640001198	189.8457375001163	1.4414700998459011	186.8725578000304	188.82186909997841	192.88132380018948	0.4264285999815911	1.0238684001378715	1.4150780998170376	191.88185580004944	0.8914809999987483	190.85893780016346	1	1	22	1	go_reward	1	1	0	1	1	1	0	1.0	0.0	1	0.4894886999391019	0.8914809999987483	403.9008384000044	589.7583547001705	590.7733962000348	591.1998248000164	592.7227074999828	593.7465759001207	594.7597762001678	595.7826942000538	596.7821622001939	598.1972403000109	2020-01-10 17:41:29.377585	2.02633937345746	1.98863144649315	0.0	1.98863144649315	2.02633937345746	0.0	-2.02633937345746	1.98863144649315	0.0	2.02633937345746	0.0	9.70096911685035	-1.0231410331260946	1.2699492812598172	0.42861593725727604	0.6416545022963993	1.5789491541278189	0.42861593725727604	9.46375127534402	0.4922120291295007	1.5153530622555929	0.3392789448237079	1.359286273693383	1	wrong	1.0
194.26962639996776	9.225784400012344	nogo_punish	1.0	194.33001240016898	196.81460250006063	199.3339587000665	2.4845900998916477	195.33749280008493	198.32222230010672	202.35789790004497	1.4771096999756992	1.0117363999597728	1.1978989001363516	201.36264020018285	1.0	200.3537622999866	1	1	23	4	nogo_punish	1	-1	0	0	0	1	1	n/a	0.0	0	1.0	1.0	403.9008384000044	598.2308508001734	599.2383312000893	600.715440900065	602.2230607001111	603.2347971000709	604.254600699991	605.2634786001872	606.2587363000493	607.4566352001857	2020-01-10 17:41:29.377585	0.502901942811349	-1.35882709865742	-2.39872191934997	-3.1149053412702	-2.90162386216131	-2.39872191934997	-0.502901942811349	-2.39872191934997	-1.35882709865742	-2.39872191934997	-2.90162386216131	2.39872191934997	-2.5465784637722058	-2.077509263890753	-1.970105982092694	-4.461882285466951	-3.3490140814909517	-1.970105982092694	2.16150407784364	-3.9328492636779293	-1.3862707999057173	-4.048074421019412	0.0004591750359630442	1	missed	0.0
203.53056459990324	9.503457200014964	go_reward	0.3567125999834388	203.59095060010446	206.21579920011578	208.77718970016582	2.624848600011319	204.60659340000717	207.752843100112	211.8134898000863	1.6092058001086116	1.024346600053832	1.2809180000331253	210.81250490015378	0.8690798999741673	209.79141680011531	1	1	24	1	go_reward	1	1	0	1	1	1	1	0.0	0.0	1	0.3567125999834388	0.8690798999741673	403.9008384000044	607.4917890001088	608.5074318000115	610.1166376001202	611.6536815001164	612.6780281001702	613.6922552001197	614.7133433001582	615.7143282000907	616.9952462001238	2020-01-10 17:41:29.377585	3.10342168766276	2.81475548006239	0.0	2.81475548006239	3.10342168766276	0.0	-3.10342168766276	2.81475548006239	0.0	3.10342168766276	0.0	8.87484508328111	0.05394128107920526	2.0960733148290576	0.42861593725727604	1.4677785358656394	2.6560314683331185	0.42861593725727604	8.63762724177478	1.5692943433348006	1.5153530622555929	1.165402978392948	1.359286273693383	1	wrong	1.0
213.0709534999914	9.741485599894077	nogo_reward	1.0	213.1313395001926	216.1051326000598	218.62365330010658	2.97379309986718	214.13630750007002	217.60947360005235	221.6684419000522	1.9688250999897718	1.0141797000542283	1.2043832000344992	220.66533530014573	0.5942402998916805	219.6372786001303	1	1	25	2	nogo_reward	1	0	1	0	0	1	0	1.0	0.0	1	1.0	0.5942402998916805	403.9008384000044	617.032177900197	618.0371459000744	620.0059710000642	621.5103120000567	622.524491700111	623.5381170001347	624.5661737001501	625.5692803000566	626.7736635000911	2020-01-10 17:41:29.377585	0.553526717788337	0.0	0.0	0.0	-0.553526717788337	0.0	-0.553526717788337	0.0	0.0	0.0	-0.553526717788337	11.6896005633435	-2.495953688795218	-0.7186821652333327	0.42861593725727604	-1.3469769441967507	-1.0009169371179782	0.42861593725727604	11.45238272183717	-1.5341273443279595	0.9618263444672559	-1.6493525016694421	1.359286273693383	1	wrong	1.0
222.85164239979343	9.549770400160924	go_punish	1.0	222.91202839999465	225.6896742000245	228.21836140006786	2.777645800029859	223.92409580014652	227.19326180010108	231.25233250018215	1.7655783998779953	1.0250995999667794	1.2094662999734282	230.242962300079	1.0	229.2333059001249	1	1	26	3	go_punish	1	0	-1	1	0	0	0	n/a	0.0	-1	1.0	1.0	403.9008384000044	626.812866799999	627.8249342001509	629.5905126000289	631.0941002001055	632.1191998000722	633.1341443001293	634.1438007000834	635.1531709001865	636.36263720016	2020-01-10 17:41:29.377585	-2.70541839983167	0.0	-4.39316769680675	-3.51042683619736	-1.68774929697508	-4.39316769680675	2.70541839983167	-4.39316769680675	0.0	-4.39316769680675	-1.68774929697508	-9.05544836439185	-5.754898806415225	-0.7186821652333327	-3.964551759549474	-4.857403780394111	-2.1351395163047213	-3.964551759549474	-9.29266620589818	-5.92729504113471	-0.17239623471948717	-6.0425201984761925	1.359286273693383	1	missed	0.0
232.4381429997738	8.201932000229135	nogo_reward	0.6450290000066161	232.498528999975	234.1845156999771	236.73627990018582	1.685986700002104	233.5126648000442	235.7153769000434	239.76987290009862	0.671850899932906	1.0209030001424253	0.9305881001055241	238.75544119998818	1.0	237.74516910011886	1	1	27	2	nogo_reward	1	0	1	0	1	0	1	n/a	0.0	1	0.6450290000066161	1.0	403.9008384000044	636.3993673999794	637.4135032000486	638.0853540999815	639.6162153000478	640.6371183001902	641.6460075001232	642.6562795999926	643.670711300103	644.6012994002085	2020-01-10 17:41:29.377585	-1.29799894064941	0.0	1.05634669237385	1.05634669237385	-0.241652248275557	1.05634669237385	1.29799894064941	0.0	1.05634669237385	-0.241652248275557	1.05634669237385	0.0	-4.347479347232965	-0.7186821652333327	1.484962629631126	-0.2906302518229007	-0.6890424676051984	1.484962629631126	-0.23721784150633038	-1.7757795926035165	2.571699754629443	-1.6493525016694421	2.415632966067233	1	missed	0.0
240.6784663998987	8.495433199917898	nogo_punish	0.5555887001100928	240.73885240009992	242.3939488001634	244.94006839999935	1.655096400063485	241.74654190009466	243.9309461000376	247.9909034001176	0.647406900068745	1.0091222999617457	1.2433821999002248	246.98778280010453	0.587046799948439	245.9595411000774	1	1	28	4	nogo_punish	0	0	-1	0	1	0	0	0.0	1.0	0	0.5555887001100928	0.587046799948439	403.9008384000044	644.6396908001043	645.647380300099	646.2947872001678	647.831784500042	648.8409068000037	649.8603795000818	650.8886212001089	651.891741800122	653.1351240000222	2020-01-10 17:41:29.377585	-0.693031107604067	-1.35882709865742	-2.10136412205927	-2.73817511155818	-2.79439522966333	-2.10136412205927	0.693031107604067	-1.35882709865742	-2.10136412205927	-2.79439522966333	-2.10136412205927	1.35882709865742	-3.7425115141876217	-2.077509263890753	-1.672748184801994	-4.08515205575493	-3.2417854489929714	-1.672748184801994	1.1216092571510896	-4.32852257399129	-0.5860110598036772	-3.008179600326862	-0.742077848365887	1	correct	1.0
249.20989779988298	9.073901300085708	nogo_punish	0.5495584001764655	249.2702838000842	251.71292429999454	254.274327200139	2.4426404999103397	250.28514870000078	253.24993390007882	257.3182016999927	1.4277755999937654	1.0243933000601828	1.0259834001772106	256.3167249001563	0.5013182000257075	255.28717680019332	1	1	29	4	nogo_punish	1	-1	0	0	1	0	0	0.0	1.0	-1	0.5495584001764655	0.5013182000257075	403.9008384000044	653.1711222000886	654.1859871000051	655.6137626999989	657.1507723000832	658.1751656001434	659.1880152001977	660.2175633001607	661.2190400999971	662.2450235001743	2020-01-10 17:41:29.377585	-0.427216754273097	-1.18632385747104	-2.10136412205927	-2.41604147679183	-2.52858087633236	-2.10136412205927	0.427216754273097	-1.18632385747104	-2.10136412205927	-2.52858087633236	-2.10136412205927	-12.26229220372756	-3.4766971608566517	-1.9050060227043728	-1.672748184801994	-3.7630184209885806	-2.9759710956620014	-1.672748184801994	-12.49951004523389	-4.062708220660319	-0.5860110598036772	-2.835676359140482	-0.742077848365887	1	correct	1.0
258.31837019999506	8.649905900005251	nogo_punish	0.5385110999923199	258.3787562001963	260.436055000173	262.97433130000724	2.0572987999767065	259.3982530999929	261.96222470002255	266.01969610014936	1.0378019001800567	1.0121065999846905	1.008966000052169	265.00658050016506	0.7728734000120312	263.9946628999897	1	1	30	4	nogo_punish	0	0	-1	0	1	0	1	0.0	0.0	0	0.5385110999923199	0.7728734000120312	403.9008384000044	662.2795946002007	663.2990914999973	664.3368934001774	665.8630631000269	666.8751697000116	667.8955012999941	668.9074189001694	669.9205345001537	670.9295005002059	2020-01-10 17:41:29.377585	-1.97846079246146	-2.39872191934997	-2.10136412205927	-3.49824421592216	-4.07982491452073	-2.10136412205927	1.97846079246146	-2.39872191934997	-2.10136412205927	-4.07982491452073	-2.10136412205927	2.39872191934997	-5.0279411990450145	-3.1174040845833026	-1.672748184801994	-4.845221160118911	-4.527215133850371	-1.672748184801994	2.16150407784364	-5.613952258848689	-0.5860110598036772	-4.048074421019412	-0.742077848365887	1	wrong	1.0
267.00862399977626	8.334638900123537	go_punish	1.0	267.0690099999775	268.47907030000357	271.01381650008267	1.410060300026089	268.08659130008897	269.9926042000298	274.05076780007226	0.39247899991460145	1.0212123000528663	1.3528811000287533	273.0416512000375	0.868601200170815	272.018946700031	1	1	31	3	go_punish	1	0	-1	1	0	0	0	0.0	1.0	-1	1.0	0.868601200170815	403.9008384000044	670.9698483999819	671.9874297000933	672.379908700008	673.8934426000342	674.914654900087	675.9197851000354	676.9424896000419	677.9516062000766	679.3044873001054	2020-01-10 17:41:29.377585	-3.22750484483204	0.0	-5.21626946332947	-4.45876660419338	-1.98876461849743	-5.21626946332947	3.22750484483204	-5.21626946332947	0.0	-5.21626946332947	-1.98876461849743	-8.232346597869128	-6.276985251415595	-0.7186821652333327	-4.787653526072194	-5.80574354839013	-2.4361548378270714	-4.787653526072194	-8.469564439375459	-6.75039680765743	-0.47341155624183706	-6.865621964998913	1.359286273693383	1	correct	1.0
275.3768484999891	9.487966999877244	go_reward	0.5166124000679702	275.4372345001903	277.8568798000925	280.41344270017004	2.419645299902186	276.4295681000222	279.38829420018016	283.4471899999772	1.4273117000702769	1.0251484999898821	1.4780115000903606	282.4419966000133	0.7110232000704855	281.41948030004284	1	1	32	1	go_reward	1	1	0	1	1	1	0	0.0	1.0	1	0.5166124000679702	0.7110232000704855	403.9008384000044	679.3380729001947	680.3304065000266	681.7577182000969	683.2891326001845	684.3142811001744	685.3203187000472	686.3428350000177	687.3480283999816	688.8260399000719	2020-01-10 17:41:29.377585	4.06432604884813	3.54959786416013	0.0	3.54959786416013	4.06432604884813	0.0	-4.06432604884813	3.54959786416013	0.0	4.06432604884813	0.0	8.14000269918337	1.0148456422645755	2.8309156989267974	0.42861593725727604	2.2026209199633793	3.616935829518489	0.42861593725727604	7.902784857677039	2.5301987045201706	1.5153530622555929	1.9002453624906879	1.359286273693383	1	correct	1.0
284.90495889983134	8.120198599994183	go_punish	0.5699845000635833	284.96534490003256	286.734589900123	289.2913248999976	1.76924500009045	285.9689085001592	288.27056340011774	292.3363834000193	0.7656813999637961	1.0207614998798817	0.7491601000074297	291.3316457001493	0.8298456999473274	290.30760160018696	1	1	33	3	go_punish	1	0	-1	1	1	1	1	0.0	0.0	0	0.5699845000635833	0.8298456999473274	403.9008384000044	688.8661833000369	689.8697469001636	690.6354283001274	692.1714018001221	693.192163300002	694.2084400001913	695.2324841001537	696.2372218000237	696.9863819000311	2020-01-10 17:41:29.377585	3.68780182890857	0.0	-5.9450189508939	-5.29230518827384	-2.25721712198533	-5.9450189508939	-3.68780182890857	0.0	-5.9450189508939	-2.25721712198533	-5.9450189508939	0.0	0.6383214223250153	-0.7186821652333327	-5.516403013636624	-6.639282132470591	-2.7046073413149716	-5.516403013636624	-0.23721784150633038	-3.79134446631329	-4.429665888638307	-1.6493525016694421	-4.585732677200516	1	wrong	1.0
293.06090799998486	8.340384699869901	nogo_punish	1.0	293.1212940001861	294.62711930018855	297.16486640018417	1.5058253000024706	294.1269791000523	296.1422300001141	300.21841580001643	0.5001402001362294	1.0226364000700414	1.2432629000395536	299.206089100102	0.79988730000332	298.1766495001503	1	1	34	4	nogo_punish	1	-1	0	0	0	1	0	0.0	1.0	0	1.0	0.79988730000332	403.9008384000044	697.0221324001905	698.0278175000567	698.5279577001929	700.0430684001185	701.0657048001885	702.0774879001547	703.1069275001064	704.1192542000208	705.3625171000604	2020-01-10 17:41:29.377585	1.56210438637112	-2.10136412205927	-2.10136412205927	-3.08722407841356	-3.66346850843039	-2.10136412205927	-1.56210438637112	-2.10136412205927	-2.10136412205927	-2.10136412205927	-3.66346850843039	2.10136412205927	-1.4873760202124349	-2.8200462872926026	-1.672748184801994	-4.434201022610311	-4.110858727760031	-1.672748184801994	1.8641462805529396	-3.6354914663872293	-2.1481154461747973	-3.750716623728712	-0.742077848365887	1	correct	1.0
301.4347605998627	8.119218500098214	nogo_punish	1.0	301.49514660006395	302.78800330008386	305.3025653001387	1.292856700019911	302.5058153001592	304.29673660011036	308.36509730014956	0.28218799992464483	1.00582870002836	1.2492678000126034	307.3469410000835	0.3785983000416308	306.3199800001458	1	1	35	4	nogo_punish	1	-1	0	0	0	1	0	0.0	1.0	0	1.0	0.3785983000416308	403.9008384000044	705.3959850000683	706.4066537001636	706.6888417000882	708.1975750001147	709.2034037001431	710.2208184001502	711.2477794000879	712.2659357001539	713.5152035001665	2020-01-10 17:41:29.377585	1.71153466801319	-2.10136412205927	-1.84801674067829	-2.73432784701828	-3.55955140869148	-1.84801674067829	-1.71153466801319	-1.84801674067829	-2.10136412205927	-1.84801674067829	-3.55955140869148	1.84801674067829	-1.3379457385703648	-2.8200462872926026	-1.419400803421014	-4.081304791215031	-4.006941628021122	-1.419400803421014	1.6107988991719595	-3.3821440850062494	-2.0441983464358873	-3.497369242347732	-0.742077848365887	1	correct	1.0
309.59003669978114	9.173181400168687	nogo_reward	1.0	309.65042269998236	311.87917329999624	314.4084511001129	2.228750600013882	310.65594370011246	313.3852352001705	317.43794109998277	1.2232295998837799	1.0232158999424428	1.3856630001682788	316.4323381001596	1.0	315.4231722000987	1	1	36	2	nogo_reward	1	0	1	0	0	1	0	n/a	0.0	1	1.0	1.0	403.9008384000044	713.5512610999867	714.5567821001168	715.7800117000006	717.2860736001749	718.3092895001173	719.3240106001031	720.333176500164	721.3387794999871	722.7244425001554	2020-01-10 17:41:29.377585	-0.037707926964303	1.05634669237385	1.05634669237385	1.98863144649315	1.09405461933816	1.05634669237385	0.037707926964303	1.05634669237385	1.05634669237385	1.05634669237385	1.09405461933816	10.63325387096965	-3.0871883335478576	0.3376645271405173	1.484962629631126	0.6416545022963993	0.6466644000085187	1.484962629631126	10.39603602946332	-0.47778065195410946	2.609407681593753	-0.5930058092955921	2.415632966067233	1	missed	0.0
318.79651419981377	9.596279500052333	go_reward	0.3561305000912398	318.856900200015	321.38247540011076	323.94906130013993	2.5255752000957727	319.8552720001899	322.92580980015924	326.99257560004486	1.527203399920836	1.023251499980688	1.460604100022465	325.98627150012186	0.9626291000749916	324.96387960016733	1	1	37	1	go_reward	1	1	0	1	1	1	0	0.0	1.0	1	0.3561305000912398	0.9626291000749916	403.9008384000044	722.7577386000194	723.7561104001943	725.2833138001151	726.8266482001636	727.8498997001443	728.8647180001717	729.8871099001262	730.8934140000492	732.3540181000717	2020-01-10 17:41:29.377585	4.92448443552147	4.20559061029086	0.0	4.20559061029086	4.92448443552147	0.0	-4.92448443552147	4.20559061029086	0.0	4.92448443552147	0.0	7.484009953052641	1.8750040289379153	3.486908445057527	0.42861593725727604	2.858613666094109	4.477094216191829	0.42861593725727604	7.24679211154631	3.3903570911935104	1.5153530622555929	2.556238108621417	1.359286273693383	1	correct	1.0
328.4249235999304	8.721663699951023	go_reward	0.5433086000848562	328.48530960013164	330.1442698000465	332.66982070007367	1.6589601999148726	329.4886982000899	331.66914600017486	335.7298224000261	0.6555715999566019	1.0006746998988092	1.4771509000565857	334.7176519001369	0.4946594999637455	333.6869187999983	1	1	38	1	go_reward	0	0	1	1	1	1	0	0.0	1.0	0	0.5433086000848562	0.4946594999637455	403.9008384000044	732.386148000136	733.3895366000943	734.0451082000509	735.5699844001792	736.570659100078	737.5877572000027	738.6184903001413	739.6306608000305	741.107811700087	2020-01-10 17:41:29.377585	5.6969136685672	4.79317363591632	0.0	4.79317363591632	5.6969136685672	0.0	-5.6969136685672	4.79317363591632	0.0	5.6969136685672	0.0	-4.79317363591632	2.6474332619836454	4.074491470682987	0.42861593725727604	3.446196691719569	5.249523449237559	0.42861593725727604	-5.030391477422651	4.16278632423924	1.5153530622555929	3.1438211342468776	1.359286273693383	1	correct	1.0
337.1845484999939	7.6925254999659956	go_reward	0.4415194999892264	337.24493450019514	338.5759604000487	341.1165354000405	1.3310258998535573	338.2478591999971	340.09134260006255	344.1628752001562	0.3281012000516057	1.0251927999779582	0.7745848000049591	343.1491205000785	0.4908965998329222	342.12560899998067	1	1	39	1	go_reward	1	1	0	1	1	1	1	1.0	1.0	1	0.4415194999892264	0.4908965998329222	403.9008384000044	741.1457729001995	742.1486976000015	742.4767988000531	743.9921810000669	745.0173738000449	746.026447399985	747.0499589000829	748.0637136001606	748.8382984001655	2020-01-10 17:41:29.377585	5.02442378385563	4.26480994781601	0.0	4.26480994781601	5.02442378385563	0.0	-5.02442378385563	4.26480994781601	0.0	5.02442378385563	0.0	7.42479061552749	1.974943377272075	3.5461277825826776	0.42861593725727604	2.9178330036192595	4.577033564525989	0.42861593725727604	7.1875727740211595	3.49029643952767	1.5153530622555929	2.615457446146568	1.359286273693383	1	correct	1.0
344.915361699881	8.240374699933454	nogo_reward	1.0	344.9757477000822	346.79785980004823	349.3264313000255	1.8221120999660343	345.98536780010915	348.30354370013816	352.3742144000717	0.812491999939084	1.0228875998873264	0.8419079999439418	351.3706037001685	0.4712804001756012	350.3412969000638	1	1	40	2	nogo_reward	1	0	1	0	0	1	0	0.0	1.0	1	1.0	0.4712804001756012	403.9008384000044	748.8765861000866	749.8862062001135	750.6986982000526	752.2043821001425	753.2272697000299	754.2421353000682	755.2714421001729	756.2750528000761	757.11696080002	2020-01-10 17:41:29.377585	0.643618546518937	1.05634669237385	1.98863144649315	2.81475548006239	1.34501289997422	1.98863144649315	-0.643618546518937	1.98863144649315	1.05634669237385	1.98863144649315	1.34501289997422	9.70096911685035	-2.4058618600646176	0.3376645271405173	2.4172473837504262	1.4677785358656394	0.8976226806445786	2.4172473837504262	9.46375127534402	0.45450410216519055	2.860365962229813	0.3392789448237079	2.415632966067233	1	correct	1.0
353.1968700999859	9.31409899983555	go_punish	0.3455942999571562	353.25725610018713	355.6279370000121	358.1680958999787	2.370680899824947	354.26816940004943	357.1581563001965	361.2119429002051	1.3597675999626517	1.0099395997822285	1.3594121998175979	360.199077700032	0.7551181002054363	359.18548560002824	1	1	41	3	go_punish	1	0	-1	1	1	1	0	0.0	1.0	0	0.3455942999571562	0.7551181002054363	403.9008384000044	757.1580945001915	758.1690078000538	759.5287754000165	761.0589947002009	762.0689342999831	763.0863240000326	764.0999161000364	765.1127813002095	766.4721935000271	2020-01-10 17:41:29.377585	3.86800182801402	0.0	-5.9450189508939	-4.6689423191178	-2.07701712287987	-5.9450189508939	-3.86800182801402	0.0	-5.9450189508939	-2.07701712287987	-5.9450189508939	0.0	0.8185214214304652	-0.7186821652333327	-5.516403013636624	-6.015919263314551	-2.5244073422095115	-5.516403013636624	-0.23721784150633038	-3.6111444672078292	-4.429665888638307	-1.6493525016694421	-4.585732677200516	1	correct	1.0
362.54532539984206	8.292866599978879	go_reward	0.4197408000472933	362.6057114000433	364.5268668001518	367.0790305000265	1.921155400108546	363.6124866001774	366.06512620020663	370.13949800003326	0.9143801999744028	1.013904299819842	0.7590799999888986	369.12771610007627	0.6472604000009596	368.0982425000985	1	1	42	1	go_reward	1	1	0	1	1	1	0	0.0	1.0	1	0.4197408000472933	0.6472604000009596	403.9008384000044	766.5065498000477	767.5133250001818	768.4277052001562	769.965964600211	770.9798689000309	771.9990809001029	773.0285545000806	774.0403364000376	774.7994164000265	2020-01-10 17:41:29.377585	5.80942394480804	4.86472370176178	0.0	4.86472370176178	5.80942394480804	0.0	-5.80942394480804	4.86472370176178	0.0	5.80942394480804	0.0	6.82487686158172	2.759943538224485	4.146041536528447	0.42861593725727604	3.517746757565029	5.3620337254783985	0.42861593725727604	6.58765902007539	4.27529660048008	1.5153530622555929	3.2153712000923376	1.359286273693383	1	correct	1.0
370.8748059999197	9.468502699863166	nogo_reward	1.0	370.93519200012094	373.6958294000943	376.2239707000554	2.760637399973348	371.93874580017297	375.2006877001841	379.2699682000094	1.757083599921316	1.0232829998712987	1.1337264999747276	378.2615132001229	0.9063662001863122	377.238114300184	1	1	43	2	nogo_reward	1	0	1	0	0	1	0	0.0	1.0	1	1.0	0.9063662001863122	403.9008384000044	774.8360304001253	775.8395842001773	777.5966678000987	779.1015261001885	780.1248091000598	781.1389527001884	782.1623516001273	783.1708066000137	784.3045330999885	2020-01-10 17:41:29.377585	1.24368060300054	1.05634669237385	2.81475548006239	3.54959786416013	1.57107487706185	2.81475548006239	-1.24368060300054	2.81475548006239	1.05634669237385	2.81475548006239	1.57107487706185	8.87484508328111	-1.8057998035830147	0.3376645271405173	3.243371417319666	2.2026209199633793	1.1236846577322086	3.243371417319666	8.63762724177478	1.2806281357344307	3.086427939317443	1.165402978392948	2.415632966067233	1	correct	1.0
380.3798956999089	9.148053199984133	nogo_reward	1.0	380.4402817001101	383.16573030012665	385.7059233000037	2.7254486000165343	381.45239180000505	384.68294410011737	388.72802410018636	1.7133385001216084	1.022979199886322	0.8603107999078929	387.7308426999953	1.0	386.72150880005216	1	1	44	2	nogo_reward	1	0	1	0	0	1	0	n/a	0.0	1	1.0	1.0	403.9008384000044	784.3411201001145	785.3532302000094	787.066568700131	788.5837825001217	789.6067617000081	790.6223472000565	791.6316810999997	792.6288625001907	793.4891733000986	2020-01-10 17:41:29.377585	1.77435734655566	1.05634669237385	3.54959786416013	4.20559061029086	1.77524051760447	3.54959786416013	-1.77435734655566	3.54959786416013	1.05634669237385	3.54959786416013	1.77524051760447	8.14000269918337	-1.2751230600278949	0.3376645271405173	3.978213801417406	2.858613666094109	1.3278502982748288	3.978213801417406	7.902784857677039	2.0154705198321707	3.290593579860063	1.9002453624906879	2.415632966067233	1	missed	0.0
389.5631237998604	8.346771700074896	nogo_punish	1.0	389.62350980006164	391.34767310018657	393.8735001001042	1.7241633001249284	390.63938160007825	392.8600818000269	396.92983430018654	0.7082915001083165	1.0134183000773191	1.0404471999499947	395.91807000013074	0.6386162000708282	394.88900670013396	1	1	45	4	nogo_punish	0	0	-1	0	0	1	0	0.0	1.0	-1	1.0	0.6386162000708282	403.9008384000044	793.524348200066	794.5402200000826	795.248511500191	796.7609202000313	797.7743385001086	798.7898451001383	799.8189084001351	800.8306727001909	801.8711199001409	2020-01-10 17:41:29.377585	1.83727807529504	-2.10136412205927	-1.63122368650846	-2.43007517696094	-3.4685017618035	-1.63122368650846	-1.83727807529504	-1.63122368650846	-2.10136412205927	-1.63122368650846	-3.4685017618035	-11.81739237469014	-1.2122023312885148	-2.8200462872926026	-1.202607749251184	-3.777052121157691	-3.9158919811331416	-1.202607749251184	-12.05461021619647	-3.1653510308364194	-1.9531486995479073	-3.280576188177902	-0.742077848365887	1	correct	1.0
397.9442232998553	8.94474170007743	nogo_punish	1.0	398.00460930005653	399.9176354000811	402.4341711001471	1.913026100024581	399.0110836999957	401.4228790001944	405.4721853001975	0.9065517000854015	1.0112920999526978	1.4771656999364495	404.47101460001437	0.5336054000072181	403.4420010000468	1	1	46	4	nogo_punish	1	-1	0	0	0	1	0	0.0	1.0	0	1.0	0.5336054000072181	403.9008384000044	801.9054477000609	802.9119221000001	803.8184738000855	805.3237174001988	806.3350095001515	807.3428394000512	808.3718530000187	809.3730237002019	810.8501894001383	2020-01-10 17:41:29.377585	1.00503605081893	-2.10136412205927	-2.80376000814208	-3.52554168303806	-3.80879605896102	-2.80376000814208	-1.00503605081893	-2.80376000814208	-2.10136412205927	-2.80376000814208	-3.80879605896102	2.80376000814208	-2.044444355764625	-2.8200462872926026	-2.375144070884804	-4.872518627234811	-4.256186278290661	-2.375144070884804	2.5665421666357497	-4.337887352470039	-2.2934429967054273	-4.453112509811522	-0.742077848365887	1	correct	1.0
406.92278719996096	7.835423199925572	go_reward	0.4220634999219328	406.9831732001622	408.32256090012385	410.8852959000506	1.3393876999616623	407.9904056000524	409.86062160017906	413.9189252001234	0.332155300071463	1.024674299871549	0.8996711999643594	412.917486099992	0.4950498000252992	411.89754210016696	1	1	47	1	go_reward	1	1	0	1	1	1	0	0.0	1.0	1	0.4220634999219328	0.4950498000252992	403.9008384000044	810.8840116001666	811.8912440000568	812.2233993001282	813.7614600001834	814.786134300055	815.7983805001713	816.8183244999964	817.8197636001278	818.7194348000921	2020-01-10 17:41:29.377585	6.51313172118285	5.40096557121568	0.0	5.40096557121568	6.51313172118285	0.0	-6.51313172118285	5.40096557121568	0.0	6.51313172118285	0.0	6.28863499212782	3.463651314599295	4.682283405982347	0.42861593725727604	4.05398862701893	6.065741501853209	0.42861593725727604	6.051417150621489	4.97900437685489	1.5153530622555929	3.751613069546238	1.359286273693383	1	correct	1.0
414.79187509999605	8.522830999922007	go_reward	0.6471696000080556	414.85226110019727	416.32244000001816	418.8682060001884	1.470178899820894	415.8536320000422	417.8533077000175	421.9173053000123	0.46880799997597933	1.0148983001708984	1.4577868001069874	420.90493810013874	0.605059300083667	419.88357400009414	1	1	48	1	go_reward	1	1	0	1	1	1	0	0.0	1.0	1	0.6471696000080556	0.605059300083667	403.9008384000044	818.7530995002016	819.7544704000466	820.2232784000225	821.7541461000219	822.7690444001928	823.7844124000985	824.8057765001431	825.8181437000167	827.2759305001236	2020-01-10 17:41:29.377585	7.14606863968588	5.88199776090141	0.0	5.88199776090141	7.14606863968588	0.0	-7.14606863968588	5.88199776090141	0.0	7.14606863968588	0.0	5.807602802442091	4.096588233102326	5.1633155956680765	0.42861593725727604	4.535020816704659	6.698678420356239	0.42861593725727604	5.57038496093576	5.61194129535792	1.5153530622555929	4.232645259231967	1.359286273693383	1	correct	1.0
423.35565629997285	8.377414299873635	go_punish	1.0	423.41604230017407	424.9966280001682	427.5308794002049	1.580585699994117	424.42740360018803	426.5112269001548	430.5814957001713	0.5692243999801576	1.0196525000501424	1.2119608998764306	429.5687132000458	0.514441599836573	428.53904080018407	1	1	49	3	go_punish	0	-1	0	1	0	0	0	0.0	1.0	0	1.0	0.514441599836573	403.9008384000044	827.3168807001784	828.3282420001924	828.8974664001726	830.4120653001592	831.4317178002093	832.4398792001884	833.4695516000502	834.4823341001756	835.6942950000521	2020-01-10 17:41:29.377585	-4.02531528897982	0.0	-5.9450189508939	-4.13392730027531	-1.91970366191407	-5.9450189508939	4.02531528897982	-5.9450189508939	0.0	-5.9450189508939	-1.91970366191407	5.9450189508939	-7.074795695563374	-0.7186821652333327	-5.516403013636624	-5.480904244472061	-2.3670938812437115	-5.516403013636624	5.707801109387569	-7.4791462952218595	-0.4043505996584771	-7.594371452563342	1.359286273693383	1	correct	1.0
431.7665020998101	8.049582700012252	go_reward	0.3762058999855071	431.82688810001133	433.40136240003636	435.95871090004226	1.574474300025031	432.8344567001332	434.93428639997734	438.9881417001598	0.5669056999031454	1.0244245000649244	0.8883290998637676	437.9932999000885	0.8033013001549989	436.9723820001819	1	1	50	1	go_reward	1	1	0	1	1	1	1	0.0	0.0	1	0.3762058999855071	0.8033013001549989	403.9008384000044	835.7277265000157	836.7352951001376	837.3022008000407	838.8351247999817	839.8595493000466	840.8732204001863	841.8941383000929	842.8889801001642	843.777309200028	2020-01-10 17:41:29.377585	7.71712820672682	6.31493940224462	0.0	6.31493940224462	7.71712820672682	0.0	-7.71712820672682	6.31493940224462	0.0	7.71712820672682	0.0	5.374661161098881	4.667647800143266	5.596257237011287	0.42861593725727604	4.967962458047869	7.269737987397179	0.42861593725727604	5.13744331959255	6.183000862398861	1.5153530622555929	4.665586900575177	1.359286273693383	1	wrong	1.0
439.85172049980605	8.255693200044334	nogo_punish	1.0	439.91210650000727	441.27616810007027	443.79322750004945	1.3640616000629961	440.9282456000802	442.7828343000729	446.8526074001566	0.34792249999009073	1.0103931999765337	1.3151922998949885	445.8397921000142	0.747425900073722	444.810086300131	1	1	51	4	nogo_punish	1	-1	0	0	0	1	0	0.0	1.0	0	1.0	0.747425900073722	403.9008384000044	843.8129449000116	844.8290840000845	845.1770065000746	846.6836727000773	847.6940659000538	848.7109247001354	849.7406305000186	850.753445800161	852.068638100056	2020-01-10 17:41:29.377585	1.2200862059634	-2.10136412205927	-2.47053201550482	-3.1242021110644	-3.69061822146822	-2.47053201550482	-1.2200862059634	-2.47053201550482	-2.10136412205927	-2.47053201550482	-3.69061822146822	2.47053201550482	-1.829394200620155	-2.8200462872926026	-2.041916078247544	-4.471179055261151	-4.1380084407978615	-2.041916078247544	2.23331417399849	-4.00465935983278	-2.175265159212627	-4.119884517174262	-0.742077848365887	1	correct	1.0
448.14395239995787	8.781886999960989	nogo_reward	0.9588485001586378	448.2043384001591	450.0547386000399	452.60442720004363	1.8504001998808235	449.20886850007815	451.592281700112	455.64316390012397	0.8458700999617577	1.0121454999316484	1.3430614999961108	454.6321868000087	1.0	453.62131209997466	1	1	52	2	nogo_reward	1	0	1	0	1	0	0	n/a	0.0	1	0.9588485001586378	1.0	403.9008384000044	852.1051768001635	853.1097069000825	853.9555770000443	855.4931201001164	856.505265600048	857.522150499979	858.5330252000131	859.5440023001283	860.8870638001245	2020-01-10 17:41:29.377585	-2.24550388526612	1.05634669237385	4.20559061029086	4.79317363591632	1.96008672502474	4.20559061029086	2.24550388526612	1.05634669237385	4.20559061029086	1.96008672502474	4.20559061029086	-1.05634669237385	-5.294984291849675	0.3376645271405173	4.6342065475481355	3.446196691719569	1.5126965056950987	4.6342065475481355	-1.2935645338801804	0.4259593806967805	5.720943672546452	-0.5930058092955921	5.564876883984242	1	missed	0.0
456.96266369987273	9.47148899990134	nogo_reward	1.0	457.02304970007395	459.50313369999645	462.03750890004454	2.480083999922499	458.0280192000792	461.0180230000988	465.0866976000835	1.4751144999172539	1.019485899945721	1.4078410998918116	464.0765964000021	0.8625473999418318	463.0540881999769	1	1	53	2	nogo_reward	0	1	0	0	0	1	0	0.0	1.0	0	1.0	0.8625473999418318	403.9008384000044	860.9238881000783	861.9288576000836	863.4039721000008	864.9188614001032	865.9383473000489	866.9549265999813	867.9774348000064	868.9875360000879	870.3953770999797	2020-01-10 17:41:29.377585	1.14547085824531	1.98863144649315	4.20559061029086	5.32115664018987	3.06011975204555	4.20559061029086	-1.14547085824531	4.20559061029086	1.98863144649315	4.20559061029086	3.06011975204555	-4.20559061029086	-1.9040095483382449	1.2699492812598172	4.6342065475481355	3.9741796959931195	2.6127295327159086	4.6342065475481355	-4.44280845179719	2.6714632659629	4.575472814301143	2.556238108621417	3.3479177201865333	1	correct	1.0
466.4721649999264	8.098546199966222	nogo_reward	1.0	466.5325510001276	468.08656030008575	470.60209060017957	1.5540092999581248	467.53570030001	469.59001530008396	473.64409970003186	0.5508600000757724	1.0120753000956029	0.9869975000619888	472.6403825001326	0.8187842001207173	471.6158718001098	1	1	54	2	nogo_reward	1	0	1	0	0	1	1	1.0	1.0	1	1.0	0.8187842001207173	403.9008384000044	870.433389400132	871.4365387000144	871.9873987000901	873.4908537000883	874.5029290001839	875.5167102001142	876.541220900137	877.5449381000362	878.5319356000982	2020-01-10 17:41:29.377585	0.836009548275968	1.98863144649315	3.73682694354247	4.74066176350722	2.9008173952665	3.73682694354247	-0.836009548275968	3.73682694354247	1.98863144649315	3.73682694354247	2.9008173952665	7.952773619801031	-2.213470858307587	1.2699492812598172	4.165442880799747	3.3936848193104696	2.4534271759368584	4.165442880799747	7.7155557782947	2.202699599214511	4.416170457522092	2.087474441873028	3.3479177201865333	1	correct	1.0
474.6069349998142	8.068502700189129	nogo_reward	1.0	474.6673210000154	476.18290280015214	478.7111102000345	1.5155818001367152	475.68198450002825	477.6975418000948	481.76723330002284	0.5009183001238853	1.013568399939686	0.9685904001817107	480.75482200016273	0.479627100052312	479.7250209001359	1	1	55	2	nogo_reward	1	0	1	0	0	1	1	1.0	1.0	1	1.0	0.479627100052312	403.9008384000044	878.5681594000198	879.5828229000326	880.0837412001565	881.5983802000992	882.6119486000389	883.6258593001403	884.6556604001671	885.6680717000272	886.6366621002089	2020-01-10 17:41:29.377585	1.31647618421405	1.98863144649315	4.38887188607057	5.29480485066562	3.07239570185652	4.38887188607057	-1.31647618421405	4.38887188607057	1.98863144649315	4.38887188607057	3.07239570185652	7.3007286772729305	-1.7330042223695048	1.2699492812598172	4.817487823327846	3.947827906468869	2.6250054825268783	4.817487823327846	7.0635108357666	2.85474454174261	4.587748764112113	2.7395193844011274	3.3479177201865333	1	correct	1.0
482.7087667998857	8.538000399945304	go_reward	0.3349989999551326	482.76915280008694	484.78565560001886	487.3400419000537	2.0165027999319136	483.7796543000732	486.31658610003075	490.3917076999788	1.0060012999456376	1.02345580002293	0.9154455000534654	489.3799682001118	0.5897326001431793	488.3599935001694	1	1	56	1	go_reward	1	1	0	1	1	1	0	0.0	1.0	1	0.3349989999551326	0.5897326001431793	403.9008384000044	886.6699912000913	887.6804927000776	888.6864940000232	890.2174245000351	891.240880300058	892.2608319001738	893.2808066001162	894.2925460999832	895.2079916000366	2020-01-10 17:41:29.377585	8.23386557677471	6.70581103229819	0.0	6.70581103229819	8.23386557677471	0.0	-8.23386557677471	6.70581103229819	0.0	8.23386557677471	0.0	4.983789531045311	5.184385170191154	5.987128867064857	0.42861593725727604	5.358834088101439	7.7864753574450685	0.42861593725727604	4.74657168953898	6.69973823244675	1.5153530622555929	5.056458530628747	1.359286273693383	1	correct	1.0
491.2830699998885	8.040561199886724	nogo_reward	1.0	491.3434560000897	493.04218430002226	495.57351250015205	1.6987282999325544	492.3495659001638	494.553956600139	498.61677980003884	0.6926183998584747	1.0195559000130743	0.767237399937585	497.6124889000784	0.5459936000406742	496.5916856001132	1	1	57	2	nogo_reward	0	1	0	0	0	1	1	1.0	1.0	0	1.0	0.5459936000406742	403.9008384000044	895.2442944000941	896.2504043001682	896.9430227000266	898.4547950001433	899.4743509001564	900.4925240001176	901.5133273000828	902.5176182000432	903.2848555999808	2020-01-10 17:41:29.377585	1.74307840058263	1.98863144649315	4.97088442231184	5.7907161114299	3.22780602172921	4.97088442231184	-1.74307840058263	4.97088442231184	1.98863144649315	4.97088442231184	3.22780602172921	-4.97088442231184	-1.3064020060009247	1.2699492812598172	5.399500359569116	4.443739167233149	2.7804158023995686	5.399500359569116	-5.20810226381817	3.43675707798388	4.7431590839848035	3.321531920642397	3.3479177201865333	1	correct	1.0
499.36038709990686	8.580027600051721	nogo_punish	1.0	499.4207731001081	501.27848840015946	503.79469400015665	1.8577153000513817	500.4251009	502.78404090018006	506.84171790001	0.8533875001594424	1.0106530999765937	1.159082800149804	505.83900580019684	0.4274443998001516	504.82023439998744	1	1	58	4	nogo_punish	1	-1	0	0	0	1	0	0.0	1.0	0	1.0	0.4274443998001516	403.9008384000044	903.3216115001125	904.3259393000044	905.1793268001638	906.6848793001844	907.695532400161	908.7210727999918	909.7398442002012	910.7425563000144	911.9016391001642	2020-01-10 17:41:29.377585	1.40214073283989	-2.10136412205927	-2.18489924094773	-2.77820607706194	-3.58703997378763	-2.18489924094773	-1.40214073283989	-2.18489924094773	-2.10136412205927	-2.18489924094773	-3.58703997378763	2.18489924094773	-1.6473396737436647	-2.8200462872926026	-1.756283303690454	-4.125183021258691	-4.034430193117271	-1.756283303690454	1.9476813994413995	-3.7190265852756896	-2.071686911532037	-3.8342517426171723	-0.742077848365887	1	correct	1.0
507.97471179999405	8.216911099851131	nogo_punish	1.0	508.0350978001953	509.38852270017384	511.92878870014107	1.3534248999785632	509.0299039999956	510.90142050012963	514.9776038001291	0.3586187001782264	1.0273682000114377	1.2744050999172032	513.9662588001229	0.5675586999859661	512.9451143001206	1	1	59	4	nogo_punish	0	0	-1	0	0	1	0	0.0	1.0	-1	1.0	0.5675586999859661	403.9008384000044	911.9359362001996	912.9307424	913.2893611001782	914.802258900134	915.8296271001454	916.845952700125	917.8670972001272	918.8784422001336	920.1528473000508	2020-01-10 17:41:29.377585	1.5569293550471	-2.10136412205927	-1.93903231215963	-2.47869830142376	-3.49596166720673	-1.93903231215963	-1.5569293550471	-1.93903231215963	-2.10136412205927	-1.93903231215963	-3.49596166720673	-11.509583749038969	-1.4925510515364548	-2.8200462872926026	-1.510416374902354	-3.8256752456205105	-3.9433518865363717	-1.510416374902354	-11.7468015905453	-3.4731596564875895	-1.9806086049511373	-3.588384813829072	-0.742077848365887	1	correct	1.0
516.2275002999231	8.306780999992043	nogo_reward	1.0	516.2878863001245	518.0771576000843	520.6057541000191	1.789271299959978	517.3026301001664	519.5819554000627	523.6309357001446	0.7745274999178946	1.0237986999563873	0.9637315999717657	522.6298240001781	0.4418428000062704	521.6088390999939	1	1	60	2	nogo_reward	1	0	1	0	0	1	0	0.0	1.0	1	1.0	0.4418428000062704	403.9008384000044	920.1887247001288	921.2034685001709	921.9779960000888	923.4827938000672	924.5065925000235	925.5096774999984	926.5306624001825	927.531774100149	928.4955057001208	2020-01-10 17:41:29.377585	1.37885108339578	1.98863144649315	4.43590052831333	5.17974307190377	3.05704944491755	4.43590052831333	-1.37885108339578	4.43590052831333	1.98863144649315	4.43590052831333	3.05704944491755	7.25370003503017	-1.6706293231877747	1.2699492812598172	4.864516465570606	3.8327661277070195	2.6096592255879085	4.864516465570606	7.0164821935238395	2.9017731839853704	4.572402507173143	2.786548026643888	3.3479177201865333	1	correct	1.0
