onset	duration	trial_type	response_time	cueOnset	targetOnset	fbOnset	cueRT	firstfixOnset	secondfixOnset	waitOnset	firstfixdur	secondfixdur	waitdur	nback_fbOnset	nback_response_time	nback_targetOnset	block	wm	trial	cue	cond	is_common	outcome_go	outcome_nogo	key_correct	key_pressed	is_correct	key_correct_nback	key_pressed_nback	is_correct_nback	outcome	rt	rt_nback	time_scan	time_onset	time_isi1	time_circle	time_isi2	time_feedback	time_same	time_correct	time_iti	time_done	timestamp_scan	DV	Qgo	Qnogo	SV	Wgo	Wnogo	mDV	Qchosen	Qunchosen	Wchosen	Wunchosen	PE	DVC	QgoC	QnogoC	SVC	WgoC	WnogoC	PEC	WchosenC	WunchosenC	QchosenC	QunchosenC	run	outcome_nback	nback_targetResp
0.0	9.460339999990538	nogo_punish	1.0	0.02485059999139594	2.342729600029543	4.884030800021264	2.317879000038147	1.0440394000031574	3.8589365999794154	7.993759099976387	1.2986902000263854	1.025094200041849	1.4914315000055467	6.982499199977383	0.3503348999656737	5.911408099985465	2	1	61	1	nogo_punish	1	-1	0	0	0	1	0	0.0	1.0	0	1.0	0.3503348999656737	2033.9854156000076	2034.010266199999	2035.0294550000108	2036.3281452000372	2037.844352199987	2038.869446400029	2039.896823699993	2040.967914799985	2041.979174699984	2043.4706061999896	2020-02-21 16:46:25.534691	3.26426571610101	-4.14178103657143	-0.507233901121134	-0.605393241009528	-3.77149961722214	-0.507233901121134	-3.26426571610101	-0.507233901121134	-4.14178103657143	-0.507233901121134	-3.77149961722214	0.507233901121134	-3.387304978236229	-4.5152540585269225	-0.5958152590998256	-3.83104825703413	-5.333075346601189	-0.5958152590998256	0.4559200329437893	-4.658097791968624	-1.270792813732399	-3.9783212262206	-1.1327480914061634	4	correct	1.0
9.537825500010285	8.278334000031691	nogo_reward	1.0	9.562676100001681	10.865693000028386	13.398591900011297	1.3030169000267051	10.574244600021984	12.377933299984079	16.48359040002083	0.29144840000640215	1.0206586000272182	1.3574197000125423	15.460092200024292	0.3378363000229001	14.417413000017177	2	1	62	3	nogo_reward	1	0	1	0	0	1	1	0.0	0.0	1	1.0	0.3378363000229001	2033.9854156000076	2043.5480917000093	2044.5596602000296	2044.851108600036	2046.3633488999917	2047.384007500019	2048.402828600025	2049.445507800032	2050.4690060000285	2051.826425700041	2020-02-21 16:46:25.534691	3.57305130063076	2.31700462585282	9.97924244022883	8.48719368136133	6.40619113959807	9.97924244022883	-3.57305130063076	9.97924244022883	2.31700462585282	9.97924244022883	6.40619113959807	4.548313320996469	-3.078519393706479	1.9435316038973278	9.890661082250139	5.261538665336728	4.844615410219021	9.890661082250139	4.496999452819124	5.82837854938134	8.906897943087811	6.508155115129364	5.326037571018087	4	wrong	1.0
17.8514157999889	8.434354800032452	go_reward	1.0	17.876266399980295	19.261382900003582	21.806239199999027	1.3851165000232868	18.886728300014283	20.771811800019123	24.89049289998343	0.37465459998929873	1.0344273999799043	1.4201283000293188	23.875666400010005	0.3314008999732323	22.825996700033784	2	1	63	4	go_reward	1	1	0	1	0	0	0	0.0	1.0	0	1.0	0.3314008999732323	2033.9854156000076	2051.861681999988	2052.872143900022	2053.246798500011	2054.7572274000267	2055.7916548000067	2056.8114123000414	2057.8610820000176	2058.875908499991	2060.2960368000204	2020-02-21 16:46:25.534691	-16.0027692258326	13.533319525535	3.74244416263713	13.6162623765533	19.7452133884697	3.74244416263713	16.0027692258326	3.74244416263713	13.533319525535	3.74244416263713	19.7452133884697	-3.74244416263713	-22.65433992016984	13.159846503579507	3.6538628046584383	10.390607360528698	18.183637659090653	3.6538628046584383	-3.7937580308144745	-0.4084197282103603	22.245920191959442	0.27135683753766404	16.542352470700266	4	correct	1.0
26.375953999988724	9.37706810003101	go_punish	0.2423005999880843	26.40080459998012	28.75949149997882	31.342362200026173	2.358686899998702	27.418606100021634	30.31609380000714	34.42766759998608	1.3408853999571875	1.0262684000190347	1.3502051000250503	33.4189168000014	0.564923900004942	32.36343040002953	2	1	64	2	go_punish	0	-1	0	1	1	1	0	0.0	1.0	-1	0.2423005999880843	0.564923900004942	2033.9854156000076	2060.3862201999877	2061.4040217000293	2062.7449070999864	2064.3015094000148	2065.327777800034	2066.348846000037	2067.404332400009	2068.4130831999937	2069.7632883000188	2020-02-21 16:46:25.534691	8.13520088540611	-1.57788663082449	-10.2806206410561	-2.90969801742135	-2.14541975564999	-10.2806206410561	-8.13520088540611	-1.57788663082449	-10.2806206410561	-2.14541975564999	-10.2806206410561	-14.356724821721809	1.4836301910688716	-1.9513596527799824	-10.369201999034791	-6.135353033445952	-3.7069954850290388	-10.369201999034791	-14.408038689899154	-6.29628364649748	-7.779913837566358	-5.048973955923956	-7.271587695890833	4	correct	1.0
35.79304310004227	8.38913729996375	nogo_punish	1.0	35.817893700033665	37.15772489999631	39.66879959998164	1.3398311999626458	36.831150299985666	38.6585773000254	42.75297490000935	0.32657460001064464	1.01022229995624	1.4540560999880654	41.736517900018725	0.3588668000302277	40.687488000024814	2	1	65	1	nogo_punish	1	-1	0	0	0	1	0	0.0	1.0	0	1.0	0.3588668000302277	2033.9854156000076	2069.8033093000413	2070.8165658999933	2071.143140500004	2072.643992900033	2073.6542151999893	2074.6729036000324	2075.7219335000264	2076.738390500017	2078.192446600005	2020-02-21 16:46:25.534691	3.32911455199816	-4.14178103657143	-0.382488904252514	-0.457961153517642	-3.71160345625067	-0.382488904252514	-3.32911455199816	-0.382488904252514	-4.14178103657143	-0.382488904252514	-3.71160345625067	0.382488904252514	-3.3224561423390786	-4.5152540585269225	-0.4710702622312055	-3.683616169542244	-5.2731791856297185	-0.4710702622312055	0.3311750360751693	-4.533352795100004	-1.2108966527609288	-3.85357622935198	-1.1327480914061634	4	correct	1.0
44.228505600010976	9.30047720001312	nogo_punish	1.0	44.25335620000237	46.70152659999417	49.211730199982185	2.4481703999917954	45.261200700013205	48.19841270003258	52.29916460002937	1.4403258999809623	1.0133174999496077	1.2546687999861206	51.28199619997736	0.2860857999767177	50.23721960000671	2	1	66	1	nogo_punish	1	-1	0	0	0	1	0	0.0	1.0	0	1.0	0.2860857999767177	2033.9854156000076	2078.23877180001	2079.246616300021	2080.686942200002	2082.18382830004	2083.19714579999	2084.2226352000143	2085.267411799985	2086.284580200037	2087.539249000023	2020-02-21 16:46:25.534691	3.37713740529881	-4.14178103657143	-0.289475891522528	-0.347665886356247	-3.66661329682134	-0.289475891522528	-3.37713740529881	-0.289475891522528	-4.14178103657143	-0.289475891522528	-3.66661329682134	0.289475891522528	-3.274433289038429	-4.5152540585269225	-0.37805724950121955	-3.5733209023808494	-5.228189026200388	-0.37805724950121955	0.23816202334518335	-4.440339782370018	-1.1659064933315988	-3.760563216621994	-1.1327480914061634	4	correct	1.0
53.5672510000295	9.269780299975537	go_reward	0.2504775999695994	53.5921016000209	56.19709919998445	58.80645939998817	2.6049975999635535	54.60819840000454	57.775777600006904	61.894390799978055	1.5889007999799105	1.0306817999812665	0.9674911000183783	60.878827399981446	0.3121898000244982	59.83618560002628	2	1	67	4	go_reward	1	1	0	1	1	1	0	0.0	1.0	1	0.2504775999695994	0.3121898000244982	2033.9854156000076	2087.5775172000285	2088.593614000012	2090.182514799992	2091.7611932000145	2092.791874999996	2093.821601200034	2094.864242999989	2095.8798063999857	2096.847297500004	2020-02-21 16:46:25.534691	15.5869238624792	13.533319525535	2.73538719094342	10.090743246273	18.3223110534226	2.73538719094342	-15.5869238624792	13.533319525535	2.73538719094342	18.3223110534226	2.73538719094342	0.9942362356903001	8.935353168141962	13.159846503579507	2.6468058329647284	6.865088230248398	16.76073532404355	2.6468058329647284	0.9429223675129554	14.17144716257511	5.236093994433161	10.062232200435533	5.744420136108687	4	correct	1.0
62.88017280003987	8.532234699989203	nogo_punish	1.0	62.90502340003127	64.62782659998607	67.16537750000111	1.7228031999547966	63.92013839998958	66.13791330001527	70.27456510002935	0.7076881999964826	1.0274641999858432	1.1626929999911226	69.25011660001451	0.2859767000190913	68.1906282000125	2	1	68	1	nogo_punish	0	0	-1	0	0	1	1	1.0	1.0	-1	1.0	0.2859767000190913	2033.9854156000076	2096.890439000039	2097.905553999997	2098.6132421999937	2100.123328900023	2101.1507931000087	2102.17604380002	2103.235532200022	2104.259980700037	2105.422673700028	2020-02-21 16:46:25.534691	3.41285599057817	-4.14178103657143	-0.219841071465906	-0.264826299022812	-3.63269706204408	-0.219841071465906	-3.41285599057817	-0.219841071465906	-4.14178103657143	-0.219841071465906	-3.63269706204408	-15.714770381080394	-3.2387147037590687	-4.5152540585269225	-0.3084224294445976	-3.4904813150474143	-5.194272791423129	-0.3084224294445976	-15.766084249257739	-4.370704962313396	-1.1319902585543389	-3.6909283965653716	-1.1327480914061634	4	correct	1.0
71.49141750001581	8.512032200000249	nogo_reward	1.0	71.51626810000721	73.19930089998502	75.73210249998351	1.6830327999778092	72.53636899997923	74.70912990003103	78.82106490002457	0.6629319000057876	1.0229725999524817	1.207235399982892	77.8001936000071	0.3405197999672964	76.75996360002296	2	1	69	3	nogo_reward	1	0	1	0	0	1	0	0.0	1.0	1	1.0	0.3405197999672964	2033.9854156000076	2105.501683700015	2106.521784599987	2107.1847164999926	2108.6945455000387	2109.717518099991	2110.7453792000306	2111.7856092000147	2112.806480500032	2114.013715900015	2020-02-21 16:46:25.534691	4.05930297695019	2.31700462585282	11.0869164892317	10.006560998889	7.02761351228152	11.0869164892317	-4.05930297695019	11.0869164892317	2.31700462585282	11.0869164892317	7.02761351228152	3.4406392719936	-2.592267717387049	1.9435316038973278	10.998335131253008	6.7809059828643985	5.466037782902472	10.998335131253008	3.3893254038162555	6.936052598384209	9.52832031577126	7.615829164132233	5.326037571018087	4	correct	1.0
80.05294960003812	8.97275959997205	nogo_punish	1.0	80.07780020002951	82.02891900000418	84.55986530001951	1.9511187999746653	81.0996506999943	83.53466910001612	87.64747500000499	0.9292683000098805	1.0251962000033927	1.4030847999965772	86.63838369998825	0.3435952999861911	85.59281340002758	2	1	70	1	nogo_punish	1	-1	0	0	0	1	1	1.0	1.0	0	1.0	0.3435952999861911	2033.9854156000076	2114.063215800037	2115.085066300002	2116.014334600012	2117.5200847000237	2118.545280900027	2119.578229000035	2120.623799299996	2121.6328906000126	2123.035975400009	2020-02-21 16:46:25.534691	0.932768922205803	-4.14178103657143	-4.30928933831218	-4.34415604414476	-5.24205826051798	-4.30928933831218	-0.932768922205803	-4.30928933831218	-4.14178103657143	-4.30928933831218	-5.24205826051798	4.30928933831218	-5.718801772131436	-4.5152540585269225	-4.397870696290871	-7.5698110601693624	-6.803633989897028	-4.397870696290871	4.257975470134835	-8.460153229159669	-2.7413514570282387	-7.780376663411646	-1.1327480914061634	4	correct	1.0
89.08241130004171	8.100430799997412	nogo_punish	1.0	89.10726190003311	90.46427290001861	92.99336600000947	1.357010999985505	90.11285769997653	91.97339220001618	96.07363749999763	0.3514152000420836	1.019973799993295	1.1340552000328898	95.05641900002934	0.3716105999774299	94.02293179999083	2	1	71	1	nogo_punish	0	0	-1	0	0	1	0	0.0	1.0	-1	1.0	0.3716105999774299	2033.9854156000076	2123.0926775000407	2124.098273299984	2124.4496885000262	2125.958807800024	2126.978781600017	2128.0083473999985	2129.041834600037	2130.0590531000053	2131.193108300038	2020-02-21 16:46:25.534691	1.63975735949626	-4.14178103657143	-3.14840346791732	-3.17549498547544	-4.78816082741358	-3.14840346791732	-1.63975735949626	-3.14840346791732	-4.14178103657143	-3.14840346791732	-4.78816082741358	-12.78620798462898	-5.011813334840979	-4.5152540585269225	-3.2369848258960117	-6.401150001500042	-6.349736556792628	-3.2369848258960117	-12.837521852806326	-7.29926735876481	-2.287454023923839	-6.6194907930167854	-1.1327480914061634	4	correct	1.0
97.23677680001128	8.14793620002456	go_reward	0.3013932000030763	97.26162740000268	98.77694900002075	101.37438280001493	1.5153216000180691	98.26786319998814	100.34074309997936	104.46491709997622	0.509085800032608	1.0336397000355646	0.9446465000510216	103.4455960000048	0.2825660000089556	102.40477050002642	2	1	72	4	go_reward	1	1	0	1	1	1	0	0.0	1.0	1	0.3013932000030763	0.2825660000089556	2033.9854156000076	2131.2470430000103	2132.2532787999958	2132.7623646000284	2134.326158699987	2135.3597984000226	2136.390186100034	2137.4310116000124	2138.450332699984	2139.394979200035	2020-02-21 16:46:25.534691	16.2903051452042	13.7692629771606	2.73538719094342	11.2611876978923	19.0256923361476	2.73538719094342	-16.2903051452042	13.7692629771606	2.73538719094342	19.0256923361476	2.73538719094342	0.7582927840646985	9.638734450866963	13.395789955205109	2.6468058329647284	8.035532681867698	17.464116606768552	2.6468058329647284	0.7069789158873538	14.87482844530011	5.236093994433161	10.298175652061134	5.744420136108687	4	correct	1.0
105.45347509998874	8.605039700050384	nogo_reward	1.0	105.47832569998013	107.45858360000443	109.98471390001919	1.9802579000242986	106.49162789998786	108.955976099998	113.0760854000107	0.9669557000165696	1.0287378000211902	1.0072800000198185	112.06385839998234	0.2821689000120386	111.02623860002473	2	1	73	3	nogo_reward	1	0	1	0	0	1	0	0.0	1.0	1	1.0	0.2821689000120386	2033.9854156000076	2139.4637412999878	2140.4770434999955	2141.443999200012	2142.9413917000056	2143.970129500027	2145.0116542000324	2146.04927399999	2147.0615010000183	2148.068781000038	2020-02-21 16:46:25.534691	4.42568442296981	2.31700462585282	11.9148558792521	11.1279626640269	7.48917145628231	11.9148558792521	-4.42568442296981	11.9148558792521	2.31700462585282	11.9148558792521	7.48917145628231	2.6126998819731995	-2.225886271367429	1.9435316038973278	11.826274521273408	7.902307648002298	5.927595726903261	11.826274521273408	2.561386013795855	7.76399198840461	9.989878259772052	8.443768554152633	5.326037571018087	4	correct	1.0
114.13061650004238	9.362762299948372	nogo_reward	1.0	114.15546710003377	117.00959329999728	119.5388996999825	2.8541261999635026	115.17094019998308	118.51704910001695	122.62725979997754	1.8386531000141986	1.0218505999655463	0.8909696000046097	121.61161620001053	0.2832377000013366	120.56415900000115	2	1	74	3	nogo_reward	0	1	0	0	0	1	0	0.0	1.0	0	1.0	0.2832377000013366	2033.9854156000076	2148.1408827000414	2149.1563557999907	2150.995008900005	2152.5024647000246	2153.52431529999	2154.549574600009	2155.597031800018	2156.612675399985	2157.50364499999	2020-02-21 16:46:25.534691	4.70279320640373	2.31700462585282	12.536450085789	11.9602279152643	7.8336568793853	12.536450085789	-4.70279320640373	12.536450085789	2.31700462585282	12.536450085789	7.8336568793853	-12.536450085789	-1.9487774879335085	1.9435316038973278	12.447868727810308	8.734572899239698	6.272081150006251	12.447868727810308	-12.587763953966345	8.38558619494151	10.334363682875042	9.065362760689533	5.326037571018087	4	correct	1.0
123.5759085000027	8.609674300008464	nogo_reward	1.0	123.6007590999941	125.46451890002913	127.99693459999958	1.8637598000350408	124.61815059999913	126.97193469997706	131.10262279998256	0.846368300030008	1.0249999000225216	1.1078106000200023	130.08082490001084	0.2729230999830179	129.03548249998107	2	1	75	3	nogo_reward	1	0	1	0	0	1	1	1.0	1.0	1	1.0	0.2729230999830179	2033.9854156000076	2157.5861747000017	2158.6035662000068	2159.4499345000368	2160.9573502999847	2161.982350200007	2163.0208980999887	2164.0662405000185	2165.08803839999	2166.19584900001	2020-02-21 16:46:25.534691	2.68425718484822	2.31700462585282	9.26259952908149	8.83857838655318	6.57834234423327	9.26259952908149	-2.68425718484822	9.26259952908149	2.31700462585282	9.26259952908149	6.57834234423327	5.26495623214381	-3.967313509489019	1.9435316038973278	9.174018171102798	5.612923370528579	5.016766614854221	9.174018171102798	5.213642363966465	5.111735638233999	9.07904914772301	5.791512203982023	5.326037571018087	4	correct	1.0
132.22729489998892	8.877495800028555	go_reward	0.2430332999792881	132.25214549998032	134.4892940000284	137.07498069998087	2.237148500048079	133.26517239998816	136.04719670000463	140.1661152000304	1.2241216000402346	1.0277839999762364	0.9635260999784805	139.14268170000264	0.3133874000050127	138.09940170001914	2	1	76	4	go_reward	1	1	0	1	1	1	0	0.0	1.0	1	0.2430332999792881	0.3133874000050127	2033.9854156000076	2166.237561099988	2167.250587999996	2168.474709600036	2170.0326123000123	2171.0603962999885	2172.0848173000268	2173.1280973000103	2174.151530800038	2175.1150569000165	2020-02-21 16:46:25.534691	16.8094095077571	13.947174839361	2.73538719094342	12.1077997210168	19.5447966987006	2.73538719094342	-16.8094095077571	13.947174839361	2.73538719094342	19.5447966987006	2.73538719094342	0.5803809218642986	10.157838813419861	13.573701817405508	2.6468058329647284	8.882144704992198	17.983220969321554	2.6468058329647284	0.529067053686954	15.393932807853112	5.236093994433161	10.476087514261534	5.744420136108687	4	correct	1.0
141.1863417000277	8.860049200011417	nogo_reward	1.0	141.2111923000191	143.22009060002142	145.75599119998492	2.008898300002329	142.22513279999816	144.73054249997926	148.82960529997922	0.9949578000232577	1.0254487000056542	1.241636200051289	147.81670690001897	0.283697199949529	146.77550759998826	2	1	77	3	nogo_reward	1	0	1	0	0	1	1	1.0	1.0	1	1.0	0.283697199949529	2033.9854156000076	2175.1966079000267	2176.210548400006	2177.205506200029	2178.715958099987	2179.7414067999925	2180.760923199996	2181.8021225000266	2182.815020899987	2184.056657100038	2020-02-21 16:46:25.534691	3.45265490721486	2.31700462585282	10.624262676254	10.3108347650727	7.17160776903911	10.624262676254	-3.45265490721486	10.624262676254	2.31700462585282	10.624262676254	7.17160776903911	3.903293084971299	-3.198915787122379	1.9435316038973278	10.535681318275309	7.085179749048098	5.6100320396600605	10.535681318275309	3.8519792167939544	6.47339878540651	9.672314572528851	7.153175351154534	5.326037571018087	4	correct	1.0
150.12037290004082	8.601122599968221	nogo_reward	1.0	150.14522350003222	151.7109280999864	154.25756340002386	1.5657045999541879	151.15745549998223	153.22489459998883	157.34380000003125	0.5534726000041701	1.032668800035026	1.4025460999691859	156.33368709997717	0.2812929999781772	155.28897699998902	2	1	78	3	nogo_reward	1	0	1	0	0	1	0	0.0	1.0	1	1.0	0.2812929999781772	2033.9854156000076	2184.13063910004	2185.14287109999	2185.696343699994	2187.2103101999965	2188.2429790000315	2189.2743925999966	2190.319102699985	2191.329215600039	2192.731761700008	2020-02-21 16:46:25.534691	4.00897376723846	2.31700462585282	11.616614185354	11.383968820975	7.60764041811559	11.616614185354	-4.00897376723846	11.616614185354	2.31700462585282	11.616614185354	7.60764041811559	2.9109415758712984	-2.6425969270987784	1.9435316038973278	11.52803282737531	8.158313804950398	6.046064688736541	11.52803282737531	2.859627707693954	7.465750294506511	10.108347221605332	8.145526860254535	5.326037571018087	4	correct	1.0
158.78394370002206	8.533088399970438	go_punish	0.2406758000142872	158.80879430001346	160.61377230001358	163.1926495999794	1.8049780000001192	159.82249420002313	162.1632114999809	166.28221570001892	0.7912780999904498	1.029438099998515	1.0596669999649748	165.26675900001987	0.3549428000114858	164.22351580002555	2	1	79	2	go_punish	1	0	-1	1	1	1	0	0.0	1.0	0	0.2406758000142872	0.3549428000114858	2033.9854156000076	2192.794209900021	2193.8079098000308	2194.599187900021	2196.1486270999885	2197.178065199987	2198.208931400033	2199.2521746000275	2200.2676313000266	2201.3272982999915	2020-02-21 16:46:25.534691	3.04533597938369	-5.32427450202953	-10.2806206410561	-6.32783398011387	-7.2352846616724	-10.2806206410561	-3.04533597938369	-5.32427450202953	-10.2806206410561	-7.2352846616724	-10.2806206410561	5.32427450202953	-3.606234714953549	-5.697747523985022	-10.369201999034791	-9.553488996138473	-8.796860391051448	-10.369201999034791	5.272960633852185	-11.38614855251989	-7.779913837566358	-8.795361827128996	-7.271587695890833	4	correct	1.0
167.36003250000113	8.677637499989487	go_reward	0.3087095000082627	167.38488309999252	168.9738419000057	171.55650720000244	1.588958800013188	168.3958564000202	170.53566970000952	174.6544967999796	0.5779854999855161	1.020837499992922	1.408023800002411	173.63191050000046	0.247110900003463	172.58730760001322	2	1	80	4	go_reward	0	0	1	1	1	1	0	0.0	1.0	0	0.3087095000082627	0.247110900003463	2033.9854156000076	2201.3702987	2202.381272000028	2202.9592575000133	2204.521085300017	2205.54192280001	2206.572723200021	2207.617326100008	2208.639912399987	2210.0479361999896	2020-02-21 16:46:25.534691	17.1947929306748	14.081870895342	2.73538719094342	12.7248965863808	19.9301801216182	2.73538719094342	-17.1947929306748	14.081870895342	2.73538719094342	19.9301801216182	2.73538719094342	-14.081870895342	10.543222236337563	13.708397873386508	2.6468058329647284	9.499241570356197	18.368604392239153	2.6468058329647284	-14.133184763519345	15.77931623077071	5.236093994433161	10.610783570242534	5.744420136108687	4	correct	1.0
176.12906649999786	8.408778699988034	go_punish	0.296564300020691	176.15391709998926	177.58904789999337	180.19032520003316	1.4351308000041172	177.16773620003346	179.16597550001438	183.28513799997722	0.42131169995991513	1.0243497000187745	1.2775578000000678	182.27257010003063	0.3174695000052452	181.21753760002298	2	1	81	2	go_punish	1	0	-1	1	1	1	1	1.0	1.0	0	0.296564300020691	0.3174695000052452	2033.9854156000076	2210.139332699997	2211.153151800041	2211.574463500001	2213.151391100022	2214.175740800041	2215.2029532000306	2216.2579857000383	2217.270553599985	2218.548111399985	2020-02-21 16:46:25.534691	5.11139626891332	-3.91009084323885	-10.2806206410561	-4.66925941718285	-5.16922437214278	-10.2806206410561	-5.11139626891332	-3.91009084323885	-10.2806206410561	-5.16922437214278	-10.2806206410561	3.91009084323885	-1.5401744254239187	-4.283563865194342	-10.369201999034791	-7.894914433207452	-6.7308001015218295	-10.369201999034791	3.8587769750615055	-9.320088262990271	-7.779913837566358	-7.381178168338316	-7.271587695890833	4	correct	1.0
184.6176346000284	9.779837000009593	go_punish	0.2474655999685637	184.6424852000198	187.27259810001055	189.85299490002194	2.6301128999907633	185.64860250003335	188.829797299986	192.93577470001742	1.6239955999772064	1.0231976000359282	1.486547500011966	191.92078059999017	0.3323361999937333	190.8742094999759	2	1	82	2	go_punish	1	0	-1	1	1	1	0	0.0	1.0	0	0.2474655999685637	0.3323361999937333	2033.9854156000076	2218.6279008000274	2219.634018100041	2221.258013700018	2222.8152128999936	2223.8384105000296	2224.8596250999835	2225.906196199998	2226.921190300025	2228.407737800037	2020-02-21 16:46:25.534691	6.61085652557744	-2.88780929590697	-10.2806206410561	-3.46421694822874	-3.66976411547866	-10.2806206410561	-6.61085652557744	-2.88780929590697	-10.2806206410561	-3.66976411547866	-10.2806206410561	2.88780929590697	-0.0407141687597985	-3.261282317862462	-10.369201999034791	-6.689871964253342	-5.231339844857709	-10.369201999034791	2.8364954277296253	-7.82062800632615	-7.779913837566358	-6.358896621006435	-7.271587695890833	4	correct	1.0
194.4367479000357	7.799205399991479	go_reward	0.2606138999690301	194.4615985000271	195.81695120001655	198.41772979998473	1.355352699989453	195.48395590000996	197.3934003000029	201.4953783000235	0.33299530000658706	1.0243294999818318	0.7654255999950692	200.48079810000468	0.3348851000191644	199.43363490002207	2	1	83	4	go_reward	0	0	1	1	1	1	0	0.0	1.0	0	0.2606138999690301	0.3348851000191644	2033.9854156000076	2228.4470141000347	2229.4693715000176	2229.802366800024	2231.3788159000105	2232.4031453999924	2233.4190505000297	2234.4662137000123	2235.480793900031	2236.246219500026	2020-02-21 16:46:25.534691	12.2264182471708	10.4417890224234	2.73538719094342	9.43532643729873	14.9618054381142	2.73538719094342	-12.2264182471708	10.4417890224234	2.73538719094342	14.9618054381142	2.73538719094342	-10.4417890224234	5.574847552833561	10.068316000467908	2.6468058329647284	6.209671421274129	13.40022970873515	2.6468058329647284	-10.493102890600746	10.810941547266708	5.236093994433161	6.970701697323934	5.744420136108687	4	correct	1.0
202.27871460001916	9.663061500003096	go_reward	0.2360562999965623	202.30356520001055	205.30535630002828	207.92575380002359	3.0017911000177264	203.3260714000205	206.89120870002057	211.00968239997724	1.9792849000077695	1.0345451000030152	0.9569443000364117	209.98852090002015	0.2905542999505996	208.94658320001304	2	1	84	4	go_reward	1	1	0	1	1	1	0	0.0	1.0	1	0.2360562999965623	0.2905542999505996	2033.9854156000076	2236.288980800018	2237.311487000028	2239.290771900036	2240.876624300028	2241.911169400031	2242.9319988000207	2243.973936500028	2244.995097999985	2245.9520423000213	2020-02-21 16:46:25.534691	8.59204858887534	7.78446721132389	2.73538719094342	7.03432451901907	11.3274357798188	2.73538719094342	-8.59204858887534	7.78446721132389	2.73538719094342	11.3274357798188	2.73538719094342	6.743088549901409	1.940477894538101	7.410994189368398	2.6468058329647284	3.808669502994468	9.76586005043975	2.6468058329647284	6.691774681724064	7.176571888971309	5.236093994433161	4.313379886224425	5.744420136108687	4	correct	1.0
212.01537570002256	8.523900499974843	nogo_reward	1.0	212.04022630001396	213.73533569998085	216.2633007999973	1.6951093999668956	213.0555406999772	215.24626270000567	219.3557243000248	0.6797950000036508	1.0170380999916233	1.208402499963995	218.34630089998223	0.364064400026109	217.2896041999918	2	1	85	3	nogo_reward	1	0	1	0	0	1	0	0.0	1.0	1	1.0	0.364064400026109	2033.9854156000076	2246.0256419000216	2247.040956299985	2247.7207512999885	2249.2316783000133	2250.248716400005	2251.2750197999994	2252.33171649999	2253.3411399000324	2254.5495423999964	2020-02-21 16:46:25.534691	4.41504617556006	2.31700462585282	12.3451173560822	12.1717642432387	7.93007118052215	12.3451173560822	-4.41504617556006	12.3451173560822	2.31700462585282	12.3451173560822	7.93007118052215	2.182438405143099	-2.2365245187771787	1.9435316038973278	12.256535998103509	8.946109227214098	6.368495451143101	12.256535998103509	2.1311245369657543	8.19425346523471	10.430777984011891	8.874030030982734	5.326037571018087	4	correct	1.0
220.58134309999878	9.770628200029023	nogo_punish	1.0	220.60619369999017	223.38833659997886	225.92800020001619	2.782142899988685	221.61869680002542	224.90076819999354	229.0200453000141	1.7696397999534383	1.02723200002265	1.3567766000051051	228.00844150001626	0.5015392000204884	226.9628344000082	2	1	86	1	nogo_punish	1	-1	0	0	0	1	0	0.0	1.0	0	1.0	0.5015392000204884	2033.9854156000076	2254.591609299998	2255.604112400033	2257.3737521999865	2258.886183800001	2259.913415800024	2260.948250000016	2261.993857100024	2263.0054609000217	2264.362237500027	2020-02-21 16:46:25.534691	-0.361763000203044	-4.14178103657143	-6.45578487659176	-6.47688582975003	-6.09402187638871	-6.45578487659176	0.361763000203044	-6.45578487659176	-4.14178103657143	-6.45578487659176	-6.09402187638871	6.45578487659176	-7.013333694540282	-4.5152540585269225	-6.544366234570451	-9.702540845774632	-7.655597605767758	-6.544366234570451	6.404471008414415	-10.60664876743925	-3.5933150728989687	-9.926872201691225	-1.1327480914061634	4	correct	1.0
230.42256680002902	8.16060619999189	nogo_reward	1.0	230.4474174000204	232.04519999999297	234.59393630002137	1.597782599972561	231.46534649998625	233.55922150000674	237.6846096999941	0.5798535000067204	1.0347148000146262	0.923413900018204	236.66866740002274	0.3265250000404194	235.62415709998436	2	1	87	3	nogo_reward	1	0	1	0	0	1	1	1.0	1.0	1	1.0	0.3265250000404194	2033.9854156000076	2264.432833000028	2265.450762099994	2266.0306156000006	2267.5446371000144	2268.579351900029	2269.609572699992	2270.6540830000304	2271.6700253000017	2272.59343920002	2020-02-21 16:46:25.534691	4.71359114592112	2.31700462585282	12.8833943559652	12.7537542014559	8.16980321004413	12.8833943559652	-4.71359114592112	12.8833943559652	2.31700462585282	12.8833943559652	8.16980321004413	1.6441614052600997	-1.937979548416119	1.9435316038973278	12.794812997986508	9.528099185431298	6.6082274806650805	12.794812997986508	1.592847537082755	8.732530465117708	10.670510013533871	9.412307030865733	5.326037571018087	4	correct	1.0
238.655450700026	9.267321499995433	nogo_reward	1.0	238.6803013000174	241.41242310003122	243.95883980003396	2.7321218000138288	239.68767820001744	242.92364160000557	247.04756500001508	1.724744900013775	1.0351982000283897	0.9000577999977395	246.03713240002958	0.2524340999661945	244.98905249999348	2	1	88	3	nogo_reward	1	0	1	0	0	1	0	0.0	1.0	1	1.0	0.2524340999661945	2033.9854156000076	2272.665716900025	2273.673093800025	2275.397838700039	2276.909057200013	2277.9442554000416	2278.974468100001	2280.022548000037	2281.0329806000227	2281.9330384000205	2020-02-21 16:46:25.534691	4.93449555575132	2.31700462585282	13.2834269015927	13.186147356326	8.34893134584138	13.2834269015927	-4.93449555575132	13.2834269015927	2.31700462585282	13.2834269015927	8.34893134584138	1.2441288596325997	-1.717075138585919	1.9435316038973278	13.194845543614008	9.960492340301398	6.787355616462332	13.194845543614008	1.192814991455255	9.132563010745208	10.849638149331122	9.812339576493233	5.326037571018087	4	correct	1.0
247.9884532000292	8.758913800003938	nogo_reward	1.0	248.0133038000206	250.39713649998816	252.93546960002254	2.38383269996757	249.0287716999885	251.90716499998211	256.0107719000082	1.3683647999996538	1.0283046000404283	0.7614457000163384	255.00061919999985	0.4952815000433475	253.9552419999966	2	1	89	3	nogo_reward	1	0	1	0	0	1	1	0.0	0.0	1	1.0	0.4952815000433475	2033.9854156000076	2281.998719400028	2283.014187299996	2284.382552099996	2285.8925805999897	2286.92088520003	2287.940657600004	2288.9860348000075	2289.996187500016	2290.757633200032	2020-02-21 16:46:25.534691	5.09889862511337	2.31700462585282	13.582281353604	13.5090508441393	8.48338272849061	13.582281353604	-5.09889862511337	13.582281353604	2.31700462585282	13.582281353604	8.48338272849061	0.9452744076212998	-1.5526720692238687	1.9435316038973278	13.493699995625308	10.283395828114697	6.921806999111562	13.493699995625308	0.8939605394439551	9.43141746275651	10.984089531980352	10.111194028504533	5.326037571018087	4	wrong	1.0
256.8061408000067	8.351747200009413	nogo_punish	1.0	256.8309913999981	258.77176069997927	261.31391349999444	1.9407692999811843	257.83967230003304	260.2861260999923	264.39729579997925	0.9320883999462239	1.0277874000021257	0.7854428000282496	263.3782110000027	0.397316700022202	262.33310460002417	2	1	90	1	nogo_punish	1	-1	0	0	0	1	0	0.0	1.0	0	1.0	0.397316700022202	2033.9854156000076	2290.8164070000057	2291.8250879000407	2292.757176299987	2294.2715417	2295.299329100002	2296.318520200032	2297.3636266000103	2298.382711399987	2299.168154200015	2020-02-21 16:46:25.534691	0.689046733427666	-4.14178103657143	-4.73037924180175	-4.74685269451626	-5.41942597522941	-4.73037924180175	-0.689046733427666	-4.73037924180175	-4.14178103657143	-4.73037924180175	-5.41942597522941	4.73037924180175	-5.962523960909573	-4.5152540585269225	-4.818960599780442	-7.972507710540862	-6.981001704608458	-4.818960599780442	4.679065373624406	-8.88124313264924	-2.9187191717396685	-8.201466566901216	-1.1327480914061634	4	correct	1.0
265.2010956000304	9.63643359998241	nogo_punish	1.0	265.2259462000218	268.01169060001826	270.53457780001895	2.7857443999964744	266.2379542000124	269.5110494000253	273.6211230999904	1.7737364000058733	1.0235283999936655	1.2412567000137642	272.61248830001546	0.267296600039117	271.56364599999483	2	1	91	1	nogo_punish	1	-1	0	0	0	1	0	0.0	1.0	0	1.0	0.267296600039117	2033.9854156000076	2299.2113618000294	2300.22336980002	2301.997106200026	2303.496465000033	2304.5199934000266	2305.5490616000025	2306.597903900023	2307.606538699998	2308.847795400012	2020-02-21 16:46:25.534691	1.44301661274124	-4.14178103657143	-3.48585424367013	-3.49874418220886	-4.92887085641137	-3.48585424367013	-1.44301661274124	-3.48585424367013	-4.14178103657143	-3.48585424367013	-4.92887085641137	3.48585424367013	-5.208554081595999	-4.5152540585269225	-3.5744356016488217	-6.724399198233462	-6.490446585790419	-3.5744356016488217	3.4345403754927855	-7.63671813451762	-2.428164052921629	-6.9569415687695955	-1.1327480914061634	4	correct	1.0
274.8855607000296	8.881749899999704	go_reward	0.3828264000476338	274.910411300021	276.64899560000026	279.2385007999835	1.7385842999792658	275.9181764000093	278.2157851000086	282.31966779998015	0.7308191999909468	1.022715699974924	1.4724934000405483	281.3036882000158	0.3522648999933153	280.26096069999016	2	1	92	4	go_reward	1	1	0	1	1	1	0	0.0	1.0	1	0.3828264000476338	0.3522648999933153	2033.9854156000076	2308.8958269000286	2309.903592000017	2310.634411200008	2312.201200700016	2313.223916399991	2314.246376299998	2315.2891038000234	2316.305083399988	2317.7775768000283	2020-02-21 16:46:25.534691	11.1726489228699	9.57429953358799	2.73538719094342	9.01268382552201	13.9080361138133	2.73538719094342	-11.1726489228699	9.57429953358799	2.73538719094342	13.9080361138133	2.73538719094342	4.9532562276373096	4.521078228532661	9.200826511632497	2.6468058329647284	5.787028809497409	12.34646038443425	2.6468058329647284	4.901942359459965	9.75717222296581	5.236093994433161	6.103212208488523	5.744420136108687	4	correct	1.0
283.84648740000557	9.684788700018544	go_punish	0.2431106999865733	283.87133799999697	286.3664883000308	288.9768979999933	2.495150300033856	284.8807600000289	287.94515189999925	292.0762415999777	1.485728300001938	1.0317460999940522	1.4798851000377908	291.0542967999934	0.2357341999886557	290.00975850003283	2	1	93	2	go_punish	1	0	-1	1	1	1	0	0.0	1.0	0	0.2431106999865733	0.2357341999886557	2033.9854156000076	2317.8567536000046	2318.8661756000365	2320.3519039000385	2321.930567500007	2322.962313600001	2323.9951741000405	2325.039712400001	2326.0616571999853	2327.541542300023	2020-02-21 16:46:25.534691	7.70607931617076	-2.14385591765985	-10.2806206410561	-2.58302470378633	-2.57454132488534	-10.2806206410561	-7.70607931617076	-2.14385591765985	-10.2806206410561	-2.57454132488534	-10.2806206410561	2.14385591765985	1.054508621833521	-2.5173289396153424	-10.369201999034791	-5.808679719810932	-4.136117054264389	-10.369201999034791	2.0925420494825056	-6.72540521573283	-7.779913837566358	-5.614943242759316	-7.271587695890833	4	correct	1.0
293.5891649000114	8.503567799984012	nogo_punish	1.0	293.6140155000028	295.1050796000052	297.63928800000554	1.4910641000024043	294.6272583000243	296.6181228000203	300.7236972000094	0.4778212999808602	1.021165199985262	1.3938860999774079	299.7083556000141	0.2609345999662764	298.66037340002345	2	1	94	1	nogo_punish	1	-1	0	0	0	1	0	0.0	1.0	0	1.0	0.2609345999662764	2033.9854156000076	2327.5994311000104	2328.612673900032	2329.090495200013	2330.603538400028	2331.624703600013	2332.645789000031	2333.6937712000217	2334.709112800017	2336.1029988999944	2020-02-21 16:46:25.534691	1.98790235004385	-4.14178103657143	-2.58215124871585	-2.59225942156973	-4.5700535987597	-2.58215124871585	-1.98790235004385	-2.58215124871585	-4.14178103657143	-2.58215124871585	-4.5700535987597	2.58215124871585	-4.663668344293389	-4.5152540585269225	-2.6707326066945414	-5.817914437594332	-6.131629328138748	-2.6707326066945414	2.530837380538505	-6.73301513956334	-2.069346795269959	-6.053238573815316	-1.1327480914061634	4	correct	1.0
302.16545610001776	8.877441600023303	go_punish	0.2925424999557435	302.19030670000916	304.0488938000051	306.6591068999844	1.8585870999959297	303.2076912000191	305.6245518000212	309.741777100018	0.8412025999859907	1.0345550999631996	1.3259712000144646	308.73030739999354	0.2969583999947645	307.6825642000183	2	1	95	2	go_punish	1	0	-1	1	1	1	1	1.0	1.0	0	0.2925424999557435	0.2969583999947645	2033.9854156000076	2336.175722300017	2337.1931068000267	2338.0343094000127	2339.609967400029	2340.644522499992	2341.667979800026	2342.715723000001	2343.7271927000256	2345.05316390004	2020-02-21 16:46:25.534691	8.51068058779304	-1.59916912191114	-10.2806206410561	-1.93488130024308	-1.76994005326306	-10.2806206410561	-8.51068058779304	-1.59916912191114	-10.2806206410561	-1.76994005326306	-10.2806206410561	1.59916912191114	1.859109893455801	-1.9726421438666322	-10.369201999034791	-5.160536316267683	-3.331515782642109	-10.369201999034791	1.5478552537337953	-5.92080394411055	-7.779913837566358	-5.070256447010606	-7.271587695890833	4	correct	1.0
311.11231039999984	9.194398700026795	go_punish	0.275927800044883	311.13716099999124	313.6424595999995	316.29383009998105	2.5052986000082456	312.15505659999303	315.27047829999333	319.36524010001426	1.4874030000064522	1.0233517999877222	0.9663196000037715	318.35158299998125	0.2799410999868996	317.315611400001	2	1	96	2	go_punish	1	0	-1	1	1	1	0	0.0	1.0	0	0.275927800044883	0.2799410999868996	2033.9854156000076	2345.122576599999	2346.1404722000007	2347.627875200007	2349.255893900001	2350.2792456999887	2351.3010270000086	2352.336998599989	2353.350655700022	2354.3169753000257	2020-02-21 16:46:25.534691	9.10490995275617	-1.19817079828039	-10.2806206410561	-1.45560635884154	-1.17571068829992	-10.2806206410561	-9.10490995275617	-1.19817079828039	-10.2806206410561	-1.17571068829992	-10.2806206410561	1.19817079828039	2.4533392584189313	-1.5716438202358822	-10.369201999034791	-4.681261374866143	-2.737286417678969	-10.369201999034791	1.1468569301030453	-5.32657457914741	-7.779913837566358	-4.669258123379856	-7.271587695890833	4	correct	1.0
320.3585988000268	8.42754949996015	go_reward	0.3002564000198617	320.3834494000182	322.08026160002896	324.68145159998653	1.6968122000107542	321.40264859999274	323.6635785999822	327.7532407999968	0.6776130000362173	1.0178730000043288	1.0577580999815837	326.7378859000162	0.2827076999819837	325.6961823999884	2	1	97	4	go_reward	1	1	0	1	1	1	0	0.0	1.0	1	0.3002564000198617	0.2827076999819837	2033.9854156000076	2354.368865000026	2355.3880642000004	2356.0656772000366	2357.64899419999	2358.666867199994	2359.681597999996	2360.723301500024	2361.7386564000044	2362.796414499986	2020-02-21 16:46:25.534691	13.0420536652263	10.866472794089	2.73538719094342	10.4442526396587	15.7774408561697	2.73538719094342	-13.0420536652263	10.866472794089	2.73538719094342	15.7774408561697	2.73538719094342	3.6610829671362985	6.390482970889061	10.492999772133508	2.6468058329647284	7.218597623634098	14.215865126790652	2.6468058329647284	3.609769098958954	11.626576965322212	5.236093994433161	7.395385468989534	5.744420136108687	4	correct	1.0
328.84492760000285	8.323702000023331	nogo_punish	1.0	328.86977819999424	330.2802172999943	332.8268047000163	1.410439100000076	329.8849196999802	331.80057560000546	335.90762960002735	0.39529760001414616	1.0262291000108235	1.2858505999902263	334.88734210003145	0.2611923000076785	333.8485848000271	2	1	98	1	nogo_punish	1	-1	0	0	0	1	0	0.0	1.0	0	1.0	0.2611923000076785	2033.9854156000076	2362.855193800002	2363.870335299988	2364.265632900002	2365.785991200013	2366.812220300024	2367.8340004000347	2368.872757700039	2369.893045200035	2371.178895800025	2020-02-21 16:46:25.534691	2.38424458946874	-4.14178103657143	-1.92194601887403	-1.92988973908134	-4.30619060834276	-1.92194601887403	-2.38424458946874	-1.92194601887403	-4.14178103657143	-1.92194601887403	-4.30619060834276	1.92194601887403	-4.2673261048684985	-4.5152540585269225	-2.0105273768527216	-5.155544755105942	-5.867766337721809	-2.0105273768527216	1.8706321506966854	-6.072809909721521	-1.805483804853019	-5.393033343973496	-1.1327480914061634	4	correct	1.0
337.2444890000047	8.918970300000638	go_punish	0.3208991000428796	337.2693395999961	339.07356869999717	341.65543179999736	1.8042291000010664	338.28521659999365	340.6244651000013	344.72312069998566	0.7883521000035216	1.0309666999960427	1.465189200011082	343.7109815999863	0.4125774000422098	342.67189639998855	2	1	99	2	go_punish	1	0	-1	1	1	1	0	0.0	1.0	0	0.3208991000428796	0.4125774000422098	2033.9854156000076	2371.2547552000037	2372.2706322000013	2373.058984300005	2374.609880700009	2375.640847400005	2376.657311999996	2377.696397199994	2378.7085362999933	2380.1737255000044	2020-02-21 16:46:25.534691	9.54591556242809	-0.901454334277473	-10.2806206410561	-1.09945863178019	-0.734705078628011	-10.2806206410561	-9.54591556242809	-0.901454334277473	-10.2806206410561	-0.734705078628011	-10.2806206410561	0.901454334277473	2.894344868090852	-1.2749273562329653	-10.369201999034791	-4.325113647804792	-2.29628080800706	-10.369201999034791	0.8501404661001284	-4.885568969475501	-7.779913837566358	-4.372541659376939	-7.271587695890833	4	correct	1.0
346.2345457000192	8.426516100007575	go_punish	0.5243676999816671	346.2593963000106	348.1007358999925	350.69992129999423	1.8413395999818931	347.2811154000226	349.6755388000163	353.77715829998465	0.8196204999699148	1.0243824999779463	0.9087541000335477	352.76524759997824	0.2957060000044293	351.7197791999786	2	1	100	2	go_punish	1	0	-1	1	1	1	0	0.0	1.0	0	0.5243676999816671	0.2957060000044293	2033.9854156000076	2380.2448119000182	2381.26653100003	2382.0861515	2383.660954400024	2384.685336900002	2385.705194799986	2386.750663199986	2387.7625738999923	2388.671328000026	2020-02-21 16:46:25.534691	9.87469179868714	-0.680865490274656	-10.2806206410561	-0.833597498702999	-0.405928842368961	-10.2806206410561	-9.87469179868714	-0.680865490274656	-10.2806206410561	-0.405928842368961	-10.2806206410561	0.680865490274656	3.223121104349901	-1.0543385122301483	-10.369201999034791	-4.059252514727602	-1.9675045717480097	-10.369201999034791	0.6295516220973114	-4.556792733216451	-7.779913837566358	-4.151952815374122	-7.271587695890833	4	correct	1.0
354.7293226000038	9.03551710001193	go_punish	0.3095290000201203	354.7541731999952	357.1958843999894	359.7776224000261	2.441711199994188	355.7587953000327	358.7558290000304	362.85754880000536	1.4370890999566655	1.0217933999956585	0.9321415000017623	361.84345819998975	0.314203499990981	360.7993377000091	2	1	101	2	go_punish	1	0	-1	1	1	1	1	0.0	0.0	0	0.3095290000201203	0.314203499990981	2033.9854156000076	2388.739588800003	2389.7442109000403	2391.181299999997	2392.741244600038	2393.7630380000337	2394.7847533000167	2395.8288737999974	2396.842964400013	2397.7751059000148	2020-02-21 16:46:25.534691	10.1208388228277	-0.516151148351361	-10.2806206410561	-0.634287810943043	-0.159781818228354	-10.2806206410561	-10.1208388228277	-0.516151148351361	-10.2806206410561	-0.159781818228354	-10.2806206410561	0.516151148351361	3.4692681284904614	-0.8896241703068533	-10.369201999034791	-3.8599428269676452	-1.7213575476074026	-10.369201999034791	0.4648372801740163	-4.310645709075844	-7.779913837566358	-3.9872384734508266	-7.271587695890833	4	wrong	1.0
363.8335292999982	9.054275700007565	nogo_reward	1.0	363.8583798999896	365.89265629998386	368.4216956000307	2.034276399994269	364.87639310001373	367.39158260001545	371.5209617000071	1.0162631999701262	1.0301130000152625	1.3916938999900594	370.49316479999084	0.4582462999969721	369.4512811999882	2	1	102	3	nogo_reward	1	0	1	0	0	1	0	0.0	1.0	1	1.0	0.4582462999969721	2033.9854156000076	2397.843795499997	2398.8618087000214	2399.8780718999915	2401.376998200023	2402.4071112000383	2403.436696799996	2404.4785803999985	2405.5063773000147	2406.898071200005	2020-02-21 16:46:25.534691	5.22189626332455	2.31700462585282	13.8066180127873	13.7513244314762	8.58472174946273	13.8066180127873	-5.22189626332455	13.8066180127873	2.31700462585282	13.8066180127873	8.58472174946273	0.7209377484379988	-1.429674431012689	1.9435316038973278	13.718036654808609	10.525669415451599	7.023146020083681	13.718036654808609	0.6696238802606542	9.655754121939811	11.085428552952472	10.335530687687834	5.326037571018087	4	correct	1.0
372.95923420001054	8.742277899989858	go_punish	0.3529972999822348	372.98408480000194	375.05906519998075	377.64490230003116	2.074980399978813	373.9996806000124	376.6255160000294	380.73543790000235	1.0593845999683253	1.01938630000177	0.9909247999894433	379.71178539999505	0.3140684000100009	378.67741900001397	2	1	103	2	go_punish	1	0	-1	1	1	1	1	1.0	1.0	0	0.3529972999822348	0.3140684000100009	2033.9854156000076	2406.9695004000096	2407.98509620002	2409.0444807999884	2410.610931600037	2411.630317900039	2412.6628346000216	2413.6972010000027	2414.72085350001	2415.7117782999994	2020-02-21 16:46:25.534691	10.3058574351882	-0.392651113913153	-10.2806206410561	-0.484271638284261	0.0252367941321103	-10.2806206410561	-10.3058574351882	-0.392651113913153	-10.2806206410561	0.0252367941321103	-10.2806206410561	0.392651113913153	3.654286740850961	-0.7661241358686453	-10.369201999034791	-3.7099266543088634	-1.5363389352469383	-10.369201999034791	0.3413372457358083	-4.12562709671538	-7.779913837566358	-3.863738439012619	-7.271587695890833	4	correct	1.0
381.8036197000183	8.961283000011463	nogo_reward	0.3009778000414371	381.8284703000097	383.721317599993	386.32289539999306	1.8928472999832593	382.85143290000246	385.2983055000075	389.3996750999934	0.8698846999905072	1.0245898999855854	1.3900782000278014	388.38719590002415	0.3254672000184655	387.34203980001644	2	1	104	3	nogo_reward	0	1	0	0	1	0	1	1.0	1.0	1	0.3009778000414371	0.3254672000184655	2033.9854156000076	2415.8138859000173	2416.83684850001	2417.7067332000006	2419.283721100015	2420.3083110000007	2421.327455400024	2422.372611500032	2423.385090700001	2424.775168900029	2020-02-21 16:46:25.534691	-5.31436035378358	2.31700462585282	13.9757596761392	13.9338898790192	8.66139932235564	13.9757596761392	5.31436035378358	2.31700462585282	13.9757596761392	8.66139932235564	13.9757596761392	12.21055113537248	-11.965931048120819	1.9435316038973278	13.887178318160508	10.708234862994598	7.099823592976591	13.887178318160508	12.159237267195135	4.51053543150815	16.47646647962894	-1.1540826992466457	16.984792621304468	4	correct	1.0
390.8279317000415	8.436940699990373	go_punish	0.2825881000026129	390.8527823000329	392.7292750999911	395.32135390001326	1.8764927999582142	391.86845349997725	394.2924831000271	398.4116128000312	0.8608216000138782	1.02887079998618	0.8781101999920793	397.3952017999834	0.3219477999955416	396.33686149999244	2	1	105	2	go_punish	0	-1	0	1	1	1	1	1.0	1.0	-1	0.2825881000026129	0.3219477999955416	2033.9854156000076	2424.8381979000405	2425.853869099985	2426.7146906999988	2428.2778987000347	2429.306769500021	2430.3222771	2431.380617399991	2432.397028400039	2433.275138600031	2020-02-21 16:46:25.534691	10.4454510382056	-0.299693004855389	-10.2806206410561	-0.370931121290237	0.164830397149499	-10.2806206410561	-10.4454510382056	-0.299693004855389	-10.2806206410561	0.164830397149499	-10.2806206410561	-15.63491844769091	3.793880343868362	-0.6731660268108812	-10.369201999034791	-3.5965861373148393	-1.3967453322295498	-10.369201999034791	-15.686232315868256	-3.9860334936979913	-7.779913837566358	-3.770780329954855	-7.271587695890833	4	correct	1.0
399.3071927000419	8.701006199989934	go_reward	0.2564975999994203	399.3320433000333	401.1340000000198	403.7369272999929	1.8019566999864765	400.3530657999802	402.7007445999768	406.81129669997586	0.78093420003961	1.0361827000160702	1.2217528000473976	405.7981078000155	0.4461283999844454	404.75476919999323	2	1	106	4	go_reward	1	1	0	1	1	1	0	0.0	1.0	1	0.2564975999994203	0.4461283999844454	2033.9854156000076	2433.317458900041	2434.338481399988	2435.1194156000274	2436.6861601999844	2437.7223429000005	2438.740184800001	2439.783523400023	2440.7967122999835	2442.018465100031	2020-02-21 16:46:25.534691	14.4060527784431	11.8064449989347	2.73538719094342	11.4877910665175	17.1414399693865	2.73538719094342	-14.4060527784431	11.8064449989347	2.73538719094342	17.1414399693865	2.73538719094342	2.7211107622906	7.75448208410586	11.432971976979207	2.6468058329647284	8.262136050492899	15.579864240007451	2.6468058329647284	2.6697968941132553	12.99057607853901	5.236093994433161	8.335357673835233	5.744420136108687	4	correct	1.0
408.06293170002755	9.209640299959574	go_reward	0.2822098000324331	408.08778230001894	410.84320110001113	413.43385069997726	2.755418799992185	409.09975019999524	412.4055365999809	416.5228775999856	1.7434509000158869	1.0283140999963507	0.7745449999929406	415.5055262999956	0.317762800026685	414.4658084000109	2	1	107	4	go_reward	1	1	0	1	1	1	0	0.0	1.0	1	0.2822098000324331	0.317762800026685	2033.9854156000076	2442.0731979000266	2443.085165800003	2444.8286167000188	2446.3909521999885	2447.419266299985	2448.4512240000186	2449.4909419000032	2450.508293199993	2451.282838199986	2020-02-21 16:46:25.534691	15.4076873793023	12.4948257188881	2.73538719094342	12.2534612177059	18.1430745702457	2.73538719094342	-15.4076873793023	12.4948257188881	2.73538719094342	18.1430745702457	2.73538719094342	2.0327300423371994	8.756116684965061	12.121352696932608	2.6468058329647284	9.027806201681297	16.581498840866654	2.6468058329647284	1.9814161741598548	13.992210679398212	5.236093994433161	9.023738393788634	5.744420136108687	4	correct	1.0
417.36120280000614	8.40628320001997	nogo_reward	1.0	417.38605339999754	418.89080049999734	421.4352766000086	1.504747099999804	418.4021158000103	420.40156239998737	424.53740099997935	0.4886846999870613	1.0337142000212225	1.2549356000381522	423.5168798000084	0.4527143000159412	422.45504199998663	2	1	108	3	nogo_reward	1	0	1	0	0	1	0	0.0	1.0	1	1.0	0.4527143000159412	2033.9854156000076	2451.371469000005	2452.387531400018	2452.876216100005	2454.386977999995	2455.420692200016	2456.4404575999943	2457.502295400016	2458.522816599987	2459.777752200025	2020-02-21 16:46:25.534691	2.10142488074786	5.47171241817693	13.9757596761392	14.0720155992117	11.8743347953914	13.9757596761392	-2.10142488074786	13.9757596761392	5.47171241817693	13.9757596761392	11.8743347953914	0.5517960850860995	-4.550145813589379	5.098239396221437	13.887178318160508	10.846360583187098	10.312759066012351	13.887178318160508	0.5004822169087548	9.824895785291709	14.375041598881142	10.504672351039734	8.480745363342196	4	correct	1.0
425.81063270004233	7.906476699979976	go_reward	1.0	425.83548330003373	427.3088255000182	429.8429004999923	1.4733421999844722	426.8554400000137	428.8244149999807	432.9332342999985	0.45338550000451505	1.018485500011593	0.8087257000152022	431.91191429999867	0.5456574999843724	430.87178410001775	2	1	109	4	go_reward	1	1	0	1	0	0	1	1.0	1.0	0	1.0	0.5456574999843724	2033.9854156000076	2459.8208989000414	2460.8408556000213	2461.294241100026	2462.8098305999883	2463.8283161	2464.8571997000254	2465.8973299000063	2466.918649900006	2467.7273756000213	2020-02-21 16:46:25.534691	-16.1474773630549	13.0020059413776	2.73538719094342	12.8185599384884	18.8828645539983	2.73538719094342	16.1474773630549	2.73538719094342	13.0020059413776	2.73538719094342	18.8828645539983	-2.73538719094342	-22.799048057392138	12.628532919422108	2.6468058329647284	9.592904922463799	17.321288824619252	2.6468058329647284	-2.7867010591207646	-1.4154766999040702	21.38357135748804	-0.7357001341560458	16.011038886542867	4	correct	1.0
433.802361500042	8.027890499972273	nogo_reward	1.0	433.8272121000334	435.2126411999923	437.7523085999999	1.3854290999588557	434.84110780002015	436.72135130001675	440.83437019999815	0.3715333999721224	1.030957299983129	1.020732400007546	439.8161726000251	0.313448500004597	438.7711840000118	2	1	110	3	nogo_reward	1	0	1	0	0	1	1	1.0	1.0	1	1.0	0.313448500004597	2033.9854156000076	2467.812627700041	2468.826523400028	2469.1980568	2470.7067669000244	2471.7377242000075	2472.7565996000194	2473.8015882000327	2474.819785800006	2475.8405182000133	2020-02-21 16:46:25.534691	2.1851046479129	5.47171241817693	14.1038069044432	14.1769113276258	11.9187022565303	14.1038069044432	-2.1851046479129	14.1038069044432	5.47171241817693	14.1038069044432	11.9187022565303	0.4237488567820993	-4.466466046424339	5.098239396221437	14.015225546464508	10.951256311601199	10.357126527151252	14.015225546464508	0.3724349886047546	9.95294301359571	14.419409060020042	10.632719579343734	8.480745363342196	4	correct	1.0
441.8861164000118	9.892707900027744	nogo_punish	1.0	441.9109670000032	444.72277609998105	447.2558795000075	2.811809099977836	442.92681360000256	446.2292392000088	450.3469595999925	1.7959624999784864	1.0266402999986894	1.4567153000384678	449.33393060002686	0.549200099951122	448.2894903999984	2	1	111	1	nogo_punish	0	0	-1	0	0	1	0	0.0	1.0	-1	1.0	0.549200099951122	2033.9854156000076	2475.896382600011	2476.91222920001	2478.7081916999887	2480.2146548000164	2481.241295100015	2482.274906000006	2483.3193462000345	2484.3323752	2485.7890905000386	2020-02-21 16:46:25.534691	2.67424416716876	-4.14178103657143	-1.43695248516678	-1.44320824822621	-4.11119665233553	-1.43695248516678	-2.67424416716876	-1.43695248516678	-4.14178103657143	-1.43695248516678	-4.11119665233553	-14.49765896737952	-3.977326527168479	-4.5152540585269225	-1.5255338431454717	-4.668863264250812	-5.672772381714578	-1.5255338431454717	-14.548972835556865	-5.5878163760142705	-1.610489848845789	-4.908039810266246	-1.1327480914061634	4	correct	1.0
451.8375107999891	8.520578199997544	nogo_punish	1.0	451.8623613999805	453.4154212999854	455.95132490002993	1.5530599000048824	452.8834502000243	454.92340079997643	459.0260630000264	0.5319710999610834	1.0279241000534967	1.3568765999516472	458.0090910000142	0.5375674999668263	456.97018960001856	2	1	112	1	nogo_punish	1	-1	0	0	0	1	0	0.0	1.0	0	1.0	0.5375674999668263	2033.9854156000076	2485.847776999988	2486.868865800032	2487.400836899993	2488.908816399984	2489.9367405000376	2490.955605200026	2491.994506600022	2493.011478600034	2494.3683551999857	2020-02-21 16:46:25.534691	0.380823336637774	-4.14178103657143	-5.22063045831918	-5.22556695566161	-5.60145379495696	-5.22063045831918	-0.380823336637774	-5.22063045831918	-4.14178103657143	-5.22063045831918	-5.60145379495696	5.22063045831918	-6.270747357699465	-4.5152540585269225	-5.309211816297871	-8.451221971686213	-7.163029524336009	-5.309211816297871	5.169316590141835	-9.371494349166671	-3.100746991467219	-8.691717783418646	-1.1327480914061634	4	correct	1.0
460.44484050001483	8.756208900013007	nogo_reward	1.0	460.46969110000623	462.54155800002604	465.0831346000193	2.0718669000198133	461.4870553999788	464.05368399998383	468.19930919999	1.0545026000472717	1.0294506000354886	1.0265908000292256	467.17486199998507	0.4798223000252619	466.12170269998046	2	1	113	3	nogo_reward	1	0	1	0	0	1	0	1.0	0.0	1	1.0	0.4798223000252619	2033.9854156000076	2494.455106700014	2495.4724709999864	2496.5269736000337	2498.0390995999915	2499.068550200027	2500.107118299988	2501.1602775999927	2502.1847247999976	2503.211315600027	2020-02-21 16:46:25.534691	2.24849559562651	5.47171241817693	14.2011127414709	14.2568520230129	11.9526171458444	14.2011127414709	-2.24849559562651	14.2011127414709	5.47171241817693	14.2011127414709	11.9526171458444	0.3264430197543984	-4.403075098710729	5.098239396221437	14.11253138349221	11.031197006988299	10.39104141646535	14.11253138349221	0.2751291515770537	10.050248850623412	14.453323949334141	10.730025416371435	8.480745363342196	4	wrong	1.0
469.2883704000269	8.804129199997988	go_punish	0.2777610999764874	469.3132210000183	471.5052354999932	474.1010975000097	2.1920144999749027	470.32198740000536	473.0832726000224	477.19631000002823	1.1832480999878499	1.0178248999873176	0.921040199988056	476.1820980000191	0.2959716999903321	475.13564619998147	2	1	114	2	go_punish	1	0	-1	1	1	1	0	0.0	1.0	0	0.2777610999764874	0.2959716999903321	2033.9854156000076	2503.298636600026	2504.307403000013	2505.490651100001	2507.06868820003	2508.0865131000173	2509.121061799989	2510.1675136000267	2511.181725600036	2512.102765800024	2020-02-21 16:46:25.534691	4.77434878208784	-4.37124756170287	-10.2806206410561	-4.42677469270611	-5.50627185896825	-10.2806206410561	-4.77434878208784	-4.37124756170287	-10.2806206410561	-5.50627185896825	-10.2806206410561	4.37124756170287	-1.8772219122493992	-4.744720583658363	-10.369201999034791	-7.652429708730713	-7.067847588347298	-10.369201999034791	4.319933693525526	-9.65713574981574	-7.779913837566358	-7.842334886802336	-7.271587695890833	4	correct	1.0
478.16340550000314	9.446357599983457	go_punish	0.2486180000123568	478.18825609999453	480.73888409999176	483.31194789998676	2.550627999997232	479.2001170000292	482.2971699000334	486.400618000014	1.5387670999625698	1.0147779999533668	1.233995699963998	485.38679590000515	0.391927900025621	484.33476040000073	2	1	115	2	go_punish	1	0	-1	1	1	1	0	0.0	1.0	0	0.2486180000123568	0.391927900025621	2033.9854156000076	2512.173671700002	2513.185532600037	2514.7242996999994	2516.282585500041	2517.2973634999944	2518.3201760000084	2519.372211500013	2520.3860336000216	2521.6200292999856	2020-02-21 16:46:25.534691	6.41048846718543	-3.19659593863371	-10.2806206410561	-3.23998056023186	-3.87013217387067	-10.2806206410561	-6.41048846718543	-3.19659593863371	-10.2806206410561	-3.87013217387067	-10.2806206410561	3.19659593863371	-0.24108222715180894	-3.5700689605892024	-10.369201999034791	-6.465635576256462	-5.431707903249719	-10.369201999034791	3.1452820704563655	-8.02099606471816	-7.779913837566358	-6.667683263733176	-7.271587695890833	4	correct	1.0
487.6878180000349	8.070662199985236	nogo_reward	1.0	487.7126686000263	489.3008812000046	491.83381899999245	1.5882125999783057	488.73033579997696	490.81085720000533	494.93037110002456	0.5705454000276404	1.0229617999871152	0.8529596999869682	493.9122987000153	0.4890159999486059	492.8625977999766	2	1	116	3	nogo_reward	0	1	0	0	0	1	0	0.0	1.0	0	1.0	0.4890159999486059	2033.9854156000076	2521.698084200034	2522.7157513999846	2523.286296800012	2524.796272800013	2525.8192346	2526.848013399984	2527.897714300023	2528.915786700032	2529.768746400019	2020-02-21 16:46:25.534691	2.29670038096721	5.47171241817693	14.2753211495495	14.3179768092205	11.9786207685823	14.2753211495495	-2.29670038096721	14.2753211495495	5.47171241817693	14.2753211495495	11.9786207685823	-14.2753211495495	-4.354870313370029	5.098239396221437	14.186739791570808	11.092321793195898	10.41704503920325	14.186739791570808	-14.326635017726845	10.124457258702009	14.479327572072041	10.804233824450034	8.480745363342196	4	correct	1.0
495.81857230002106	8.239554099970974	go_reward	0.2794311000034213	495.84342290001246	497.22088640002744	499.81617920001713	1.3774635000149829	496.8621872999936	498.79173170000945	502.8929534999768	0.35869910003384575	1.0244475000076818	1.190023500006646	501.87235199997644	0.2919505999889225	500.8365067000266	2	1	117	4	go_reward	0	0	1	1	1	1	0	0.0	1.0	0	0.2794311000034213	0.2919505999889225	2033.9854156000076	2529.82883850002	2530.847602900001	2531.206302000035	2532.777147300017	2533.8015948000248	2534.821922300034	2535.857767599984	2536.8783690999844	2538.068392599991	2020-02-21 16:46:25.534691	15.5304892724211	13.0020059413776	2.01234585081587	9.49541019796218	17.542835123237	2.01234585081587	-15.5304892724211	13.0020059413776	2.01234585081587	17.542835123237	2.01234585081587	-13.0020059413776	8.878918578083862	12.628532919422108	1.9237644928371784	6.269755181937578	15.981259393857952	1.9237644928371784	-13.053319809554946	13.391971232389512	4.513052654305611	9.530918616278134	5.021378795981137	4	correct	1.0
504.22869489999675	8.728086300020095	nogo_reward	1.0	504.25354549998815	505.85181750002016	508.38827890000516	1.5982720000320114	505.27351490000706	507.3629119999821	511.49128850002285	0.5783026000131031	1.025366900023073	1.4903432999853976	510.47885429998837	0.3189934000256471	509.41751519998047	2	1	118	3	nogo_reward	1	0	1	0	0	1	1	1.0	1.0	1	1.0	0.3189934000256471	2033.9854156000076	2538.238961099996	2539.2589305000147	2539.837233100028	2541.3483275999897	2542.373694500013	2543.402930799988	2544.464269899996	2545.4767041000305	2546.967047400016	2020-02-21 16:46:25.534691	0.104612659936049	5.47171241817693	10.5896605524757	10.622417128567	10.4850478925396	10.5896605524757	-0.104612659936049	10.5896605524757	5.47171241817693	10.5896605524757	10.4850478925396	3.9378952087496	-6.5469580344011895	5.098239396221437	10.501079194497008	7.3967621125423975	8.92347216316055	10.501079194497008	3.8865813405722553	6.438796661628209	12.98575469602934	7.118573227376233	8.480745363342196	4	correct	1.0
513.0145123000257	9.189332799986005	nogo_punish	1.0	513.0393629000171	515.60691750003	518.1466226000337	2.5675546000129543	514.0525702000011	517.118815900001	521.2209712000329	1.554347300028894	1.02780670003267	1.0077244999702089	520.2082383999948	0.3299059999990277	519.1727988999921	2	1	119	1	nogo_punish	1	-1	0	0	0	1	0	0.0	1.0	0	1.0	0.3299059999990277	2033.9854156000076	2547.0247785000247	2548.0379858000088	2549.5923331000376	2551.1042315000086	2552.1320382000413	2553.1582144999998	2554.1936540000024	2555.2063868000405	2556.2141113000107	2020-02-21 16:46:25.534691	1.22554880969637	-4.14178103657143	-3.83355128322338	-3.83745446180288	-5.05910009291975	-3.83355128322338	-1.22554880969637	-3.83355128322338	-4.14178103657143	-3.83355128322338	-5.05910009291975	3.83355128322338	-5.4260218846408685	-4.5152540585269225	-3.9221326412020714	-7.063109477827482	-6.620675822298798	-3.9221326412020714	3.782237415046035	-7.98441517407087	-2.558393289430009	-7.304638608322845	-1.1327480914061634	4	correct	1.0
522.250987300009	9.333015599986538	nogo_punish	1.0	522.2758379000004	524.7566105999865	527.2877427000205	2.480772699986119	523.2985958000061	526.2652350999995	530.3821664000282	1.4580147999804467	1.022507600021072	1.226687099958781	529.3669177999834	0.3501346000120975	528.3095444000207	2	1	120	1	nogo_punish	1	-1	0	0	0	1	0	0.0	1.0	0	1.0	0.3501346000120975	2033.9854156000076	2556.261253500008	2557.2840114000137	2558.742026199994	2560.250650700007	2561.273158300028	2562.2949600000284	2563.352333399991	2564.367582000036	2565.5942690999946	2020-02-21 16:46:25.534691	1.8329128499885	-4.14178103657143	-2.83106441438907	-2.83415655177584	-4.66397726437757	-2.83106441438907	-1.8329128499885	-2.83106441438907	-4.14178103657143	-2.83106441438907	-4.66397726437757	2.83106441438907	-4.8186578443487385	-4.5152540585269225	-2.919645772367762	-6.059811567800442	-6.225552993756619	-2.919645772367762	2.7797505462117256	-6.98192830523656	-2.1632704608878286	-6.3021517394885365	-1.1327480914061634	4	correct	1.0
