onset	duration	trial_type	response_time	cueOnset	targetOnset	fbOnset	cueRT	firstfixOnset	secondfixOnset	waitOnset	firstfixdur	secondfixdur	waitdur	nback_fbOnset	nback_response_time	nback_targetOnset	block	wm	trial	cue	cond	is_common	outcome_go	outcome_nogo	key_correct	key_pressed	is_correct	key_correct_nback	key_pressed_nback	is_correct_nback	outcome	rt	rt_nback	time_scan	time_onset	time_isi1	time_circle	time_isi2	time_feedback	time_same	time_correct	time_iti	time_done	timestamp_scan	DV	Qgo	Qnogo	SV	Wgo	Wnogo	mDV	Qchosen	Qunchosen	Wchosen	Wunchosen	PE	DVC	QgoC	QnogoC	SVC	WgoC	WnogoC	PEC	WchosenC	WunchosenC	QchosenC	QunchosenC	run	outcome_nback	nback_targetResp
0.0	8.11804680000023	go_punish	0.4194616000004316	0.11546509999971022	1.6708730000000287	4.293244399999821	1.5554079000003185	1.1210684999996374	3.262306599999647	7.330773200000294	0.5498045000003913	1.0309378000001743	0.9027386999996452	6.324278400000367	1.0	5.315887900000234	1	1	1	4	go_punish	0	-1	0	1	1	1	0	n/a	0.0	0	0.4194616000004316	1.0	66.44702700000016	66.56249209999987	67.5680954999998	68.11790000000019	69.70933359999981	70.74027139999998	71.7629149000004	72.77130540000053	73.77780020000046	74.6805389000001	2019-12-13 18:45:43.248730	1.68520941813457	0.0	0.0	0.0	1.68520941813457	0.0	-1.68520941813457	0.0	0.0	1.68520941813457	0.0	-18.9829090916527	-3.1762330340376757	0.2885821936088995	2.066313224561342	0.43710309778479395	0.5966914774107626	2.066313224561342	-18.143103788710217	-0.25661416603278453	2.919618868004892	-0.3201434032547777	2.675038821425021	1	missed	0.0
8.161069700000553	8.50983659999929	go_punish	0.8256247999997868	8.276534800000263	9.94482859999971	12.492597200000091	1.6682937999994465	9.282106699999531	11.479258999999729	15.548117700000148	0.6627219000001787	1.0133382000003621	1.2382536999994045	14.541125300000203	0.3695377000003645	13.504706900000201	1	1	2	4	go_punish	0	-1	0	1	1	1	0	0.0	1.0	-1	0.8256247999997868	0.3695377000003645	66.44702700000016	74.72356180000043	75.7291336999997	76.39185559999987	77.92628599999989	78.93962420000025	79.95173390000036	80.98815230000037	81.99514470000031	83.23339839999971	2019-12-13 18:45:43.248730	1.68520941813457	0.0	0.0	0.0	1.68520941813457	0.0	-1.68520941813457	0.0	0.0	1.68520941813457	0.0	-18.9829090916527	-3.1762330340376757	0.2885821936088995	2.066313224561342	0.43710309778479395	0.5966914774107626	2.066313224561342	-18.143103788710217	-0.25661416603278453	2.919618868004892	-0.3201434032547777	2.675038821425021	1	correct	1.0
16.717069500000434	8.984574099999918	go_reward	0.3755885000000489	16.832534600000145	19.40379920000032	21.950719299999946	2.571264600000177	17.836994299999787	20.93435649999992	24.978818999999916	1.566804900000534	1.0163628000000244	0.8382897000001464	23.970903600000398	1.0	22.96191799999997	1	1	3	2	go_reward	1	1	0	1	1	1	0	n/a	0.0	0	0.3755885000000489	1.0	66.44702700000016	83.2795616000003	84.28402129999995	85.85082620000048	87.38138350000008	88.39774630000011	89.40894500000013	90.41793060000056	91.42584600000008	92.26413570000022	2019-12-13 18:45:43.248730	1.68520941813457	0.0	0.0	0.0	1.68520941813457	0.0	-1.68520941813457	0.0	0.0	1.68520941813457	0.0	9.05315586249126	-3.1762330340376757	0.2885821936088995	2.066313224561342	0.43710309778479395	0.5966914774107626	2.066313224561342	9.892961165433743	-0.25661416603278453	2.919618868004892	-0.3201434032547777	2.675038821425021	1	missed	0.0
25.74637660000009	8.305360600000299	nogo_reward	0.4818259000003309	25.8618416999998	27.215436200000113	29.773455399999875	1.3535945000003125	26.865937100000338	28.744997799999524	32.817332599999645	0.34949909999977535	1.0284576000003511	1.349869700000454	31.811112800000032	0.4093732000001182	30.785039200000043	1	1	4	1	nogo_reward	1	0	1	0	1	0	0	0.0	1.0	0	0.4818259000003309	0.4093732000001182	66.44702700000016	92.30886869999996	93.3129641000005	93.66246320000027	95.19202479999969	96.22048240000004	97.2320662000002	98.2581398000002	99.2643595999998	100.61422930000026	2019-12-13 18:45:43.248730	1.68520941813457	0.0	0.0	0.0	1.68520941813457	0.0	-1.68520941813457	0.0	0.0	1.68520941813457	0.0	0.0	-3.1762330340376757	0.2885821936088995	2.066313224561342	0.43710309778479395	0.5966914774107626	2.066313224561342	0.8398053029424842	-0.25661416603278453	2.919618868004892	-0.3201434032547777	2.675038821425021	1	correct	1.0
34.09727280000061	9.837149399999362	go_reward	0.3901132000000871	34.21273790000032	36.971172900000056	39.51355839999995	2.7584349999997357	35.2169818000002	38.50092620000032	42.56455649999951	1.7541910999998578	1.0126321999996293	1.4853308000001704	41.55759399999988	0.3965115000000878	40.526810700000155	1	1	5	2	go_reward	1	1	0	1	1	1	1	1.0	1.0	1	0.3901132000000871	0.3965115000000878	66.44702700000016	100.65976490000048	101.66400880000036	103.41819990000022	104.94795320000048	105.96058540000011	106.97383770000032	108.00462100000004	109.01158349999967	110.49691429999984	2019-12-13 18:45:43.248730	1.68520941813457	0.0	0.0	0.0	1.68520941813457	0.0	-1.68520941813457	0.0	0.0	1.68520941813457	0.0	9.05315586249126	-3.1762330340376757	0.2885821936088995	2.066313224561342	0.43710309778479395	0.5966914774107626	2.066313224561342	9.892961165433743	-0.25661416603278453	2.919618868004892	-0.3201434032547777	2.675038821425021	1	correct	1.0
43.97467010000037	9.450726299999602	go_reward	0.368351299999631	44.09013520000008	46.70387680000022	49.28809420000016	2.6137416000001394	45.094392199999675	48.273499699999775	52.32965669999976	1.6094846000005418	1.0145945000003849	1.2112047999999191	51.3229723000004	0.4070368000002418	50.29835110000022	1	1	6	2	go_reward	1	1	0	1	1	1	0	0.0	1.0	1	0.368351299999631	0.4070368000002418	66.44702700000016	110.53716220000024	111.54141919999984	113.15090380000038	114.72052669999994	115.73512120000032	116.74537810000038	117.76999930000056	118.77668369999992	119.98788849999984	2019-12-13 18:45:43.248730	3.37307802879299	0.972829436591704	0.0	0.972829436591704	3.37307802879299	0.0	-3.37307802879299	0.972829436591704	0.0	3.37307802879299	0.0	8.080326425899555	-1.488364423379256	1.2614116302006035	2.066313224561342	1.409932534376498	2.284560088069182	2.066313224561342	8.920131728842039	1.4312544446256352	2.919618868004892	0.6526860333369262	2.675038821425021	1	correct	1.0
53.46291259999997	8.018830800000629	nogo_reward	0.4265519999999014	53.57837769999968	54.97177519999968	57.535447000000204	1.393397500000006	54.58302540000024	56.504455600000256	60.57893609999974	0.38874979999944514	1.030991399999948	1.0182724000005692	59.57248470000013	0.7289774999999281	58.54624539999986	1	1	7	1	nogo_reward	1	0	1	0	1	0	0	0.0	1.0	0	0.4265519999999014	0.7289774999999281	66.44702700000016	120.02540469999984	121.0300524000004	121.41880219999985	122.95148260000042	123.98247400000037	124.99327240000002	126.0195117000003	127.0259630999999	128.04423550000047	2019-12-13 18:45:43.248730	1.68520941813457	0.0	0.0	0.0	1.68520941813457	0.0	-1.68520941813457	0.0	0.0	1.68520941813457	0.0	0.0	-3.1762330340376757	0.2885821936088995	2.066313224561342	0.43710309778479395	0.5966914774107626	2.066313224561342	0.8398053029424842	-0.25661416603278453	2.919618868004892	-0.3201434032547777	2.675038821425021	1	correct	1.0
61.51853590000064	8.756372899999405	nogo_reward	0.364705199999662	61.63400100000035	63.39772139999968	65.93834849999985	1.763720399999329	62.637930900000356	64.92976619999993	68.97959379999975	0.7597904999993261	1.0085822999999152	1.4107801000000109	67.97388940000019	0.4122990000005302	66.95110190000014	1	1	8	1	nogo_reward	1	0	1	0	1	0	0	0.0	1.0	0	0.364705199999662	0.4122990000005302	66.44702700000016	128.08102800000052	129.08495790000052	129.84474839999984	131.3767932000001	132.3853755	133.3981289000003	134.42091640000035	135.4266207999999	136.83740089999992	2019-12-13 18:45:43.248730	1.68520941813457	0.0	0.0	0.0	1.68520941813457	0.0	-1.68520941813457	0.0	0.0	1.68520941813457	0.0	0.0	-3.1762330340376757	0.2885821936088995	2.066313224561342	0.43710309778479395	0.5966914774107626	2.066313224561342	0.8398053029424842	-0.25661416603278453	2.919618868004892	-0.3201434032547777	2.675038821425021	1	correct	1.0
70.31120790000023	8.060630099999798	go_reward	0.2870545000005222	70.42667299999994	71.89714999999981	74.44329469999957	1.4704769999998746	71.43103950000022	73.42866010000034	77.48666249999951	0.4661104999995871	1.0146345999992263	1.0006406000002244	76.47974340000019	0.4503963999995903	75.4551021999996	1	1	9	2	go_reward	1	1	0	1	1	1	0	0.0	1.0	1	0.2870545000005222	0.4503963999995903	66.44702700000016	136.8737000000001	137.8780665000004	138.34417699999997	139.8756871000005	140.89032169999973	141.90212919999976	142.92677040000035	143.93368949999967	144.9343300999999	2019-12-13 18:45:43.248730	4.85680517245966	1.82919159847314	0.0	1.82919159847314	4.85680517245966	0.0	-4.85680517245966	1.82919159847314	0.0	4.85680517245966	0.0	7.223964264018119	-0.004637279712585318	2.1177737920820396	2.066313224561342	2.266294696257934	3.7682872317358527	2.066313224561342	8.063769566960604	2.9149815882923056	2.919618868004892	1.5090481952183623	2.675038821425021	1	correct	1.0
78.4063943000001	8.905706600000485	go_punish	1.0	78.52185939999981	80.52234659999976	83.03619530000014	2.0004871999999523	79.52618660000007	82.02715999999964	86.0825418000004	0.9961599999996906	1.0090353000005052	1.345024199999898	85.07493109999996	0.4814807000002474	84.05181119999997	1	1	10	4	go_punish	0	-1	0	1	0	0	0	0.0	1.0	0	1.0	0.4814807000002474	66.44702700000016	144.96888639999997	145.97321360000024	146.96937359999993	148.4741869999998	149.4832223000003	150.49883820000014	151.52195810000012	152.52956880000056	153.87459300000046	2019-12-13 18:45:43.248730	1.78601212832031	-2.00519106439548	0.0	-2.00519106439548	-1.78601212832031	0.0	-1.78601212832031	0.0	-2.00519106439548	0.0	-1.78601212832031	0.0	-3.0754303238519354	-1.7166088707865805	2.066313224561342	-1.568087966610686	-2.8745300690441176	2.066313224561342	0.8398053029424842	-1.9418235841673546	1.1336067396845817	-0.3201434032547777	0.6698477570295411	1	correct	1.0
87.34854300000006	8.968020899999829	go_reward	0.2449100000003454	87.46400809999977	89.32740620000004	91.91882009999972	1.8633981000002677	88.46998280000022	90.88814249999996	94.96374360000027	0.8574233999998171	1.0306775999997626	1.4682853999993313	93.95722250000017	0.3500709999998435	92.92927070000042	1	1	11	2	go_reward	1	1	0	1	1	1	1	0.0	0.0	1	0.2449100000003454	0.3500709999998435	66.44702700000016	153.91103509999994	154.9170098000004	155.7744332000002	157.33516950000012	158.36584709999988	159.37629770000058	160.40424950000033	161.41077060000043	162.87905599999976	2019-12-13 18:45:43.248730	6.16374512442281	2.58455166033422	0.0	2.58455166033422	6.16374512442281	0.0	-6.16374512442281	2.58455166033422	0.0	6.16374512442281	0.0	6.468604202157039	1.3023026722505646	2.8731338539431195	2.066313224561342	3.021654758119014	5.075227183699003	2.066313224561342	7.308409505099523	4.2219215402554555	2.919618868004892	2.264408257079442	2.675038821425021	1	wrong	1.0
96.35631000000012	9.295933500000501	go_punish	1.0	96.47177509999983	99.43379219999952	101.95302739999988	2.9620170999996844	97.47669450000012	100.93865709999955	104.99485480000021	1.9570976999993945	1.014370300000337	0.7728538000001208	103.98882969999977	0.5321768000003431	102.96414660000028	1	1	12	4	go_punish	1	0	-1	1	0	0	1	1.0	1.0	-1	1.0	0.5321768000003431	66.44702700000016	162.9188021	163.92372150000028	165.88081919999968	167.3856840999997	168.40005440000004	169.41117360000044	170.43585669999993	171.44188180000037	172.2147356000005	2019-12-13 18:45:43.248730	1.60704720958401	-2.00519106439548	0.0	-1.76652275950775	-1.60704720958401	0.0	-1.60704720958401	0.0	-2.00519106439548	0.0	-1.60704720958401	-18.9829090916527	-3.2543952425882354	-1.7166088707865805	2.066313224561342	-1.3294196617229561	-2.6955651503078175	2.066313224561342	-18.143103788710217	-1.9418235841673546	1.3125716584208817	-0.3201434032547777	0.6698477570295411	1	correct	1.0
105.68825060000017	8.587757899999787	go_reward	0.3363090000002557	105.80371569999988	107.30807490000007	109.86565659999997	1.5043592000001809	106.80811879999965	108.8517412000001	112.90967720000026	0.4999561000004178	1.0139153999998598	1.4817963999994106	111.90357330000006	0.5293541000000914	110.87903889999961	1	1	13	2	go_reward	1	1	0	1	1	1	1	1.0	1.0	1	0.3363090000002557	0.5293541000000914	66.44702700000016	172.25074270000005	173.2551457999998	173.75510190000023	175.29876820000027	176.31268360000013	177.32606589999978	178.35060030000022	179.35670420000042	180.83850059999983	2019-12-13 18:45:43.248730	7.31720239372027	3.25210252003881	0.0	3.25210252003881	7.31720239372027	0.0	-7.31720239372027	3.25210252003881	0.0	7.31720239372027	0.0	5.801053342452449	2.455759941548024	3.5406847136477095	2.066313224561342	3.689205617823604	6.228684452996462	2.066313224561342	6.640858645394934	5.375378809552915	2.919618868004892	2.931959116784032	2.675038821425021	1	correct	1.0
114.32146139999986	8.99988100000067	nogo_punish	0.3162316999996619	114.43692649999957	116.87520829999994	119.44088120000015	2.438281800000368	115.44142039999952	118.4275776000004	122.48342390000016	1.433787900000425	1.0133035999997446	0.9533836000000804	121.47712940000025	0.7796792999997706	120.45178450000003	1	1	14	3	nogo_punish	1	-1	0	0	1	0	0	0.0	1.0	-1	0.3162316999996619	0.7796792999997706	66.44702700000016	180.88395349999973	181.88844739999968	183.3222353000001	184.87460460000057	185.8879082000003	186.8988115000002	187.9241564000004	188.93045090000032	189.8838345000004	2019-12-13 18:45:43.248730	1.68520941813457	0.0	0.0	0.0	1.68520941813457	0.0	-1.68520941813457	0.0	0.0	1.68520941813457	0.0	-18.9829090916527	-3.1762330340376757	0.2885821936088995	2.066313224561342	0.43710309778479395	0.5966914774107626	2.066313224561342	-18.143103788710217	-0.25661416603278453	2.919618868004892	-0.3201434032547777	2.675038821425021	1	correct	1.0
123.36148899999989	9.043031800000762	nogo_punish	1.0	123.4769540999996	125.9446025999996	128.45851390000007	2.4676484999999957	124.48118780000004	127.44897289999972	131.49967689999994	1.4634147999995548	1.009541000000354	1.0203090000004238	130.49315079999997	0.4700677000000723	129.47138340000035	1	1	15	3	nogo_punish	1	-1	0	0	0	1	0	0.0	1.0	0	1.0	0.4700677000000723	66.44702700000016	189.92398109999976	190.9282148000002	192.39162959999976	193.89599989999988	194.90554090000023	195.9184104000005	196.94017780000013	197.9467039000001	198.96701290000053	2019-12-13 18:45:43.248730	1.78601212832031	-2.00519106439548	0.0	-2.00519106439548	-1.78601212832031	0.0	-1.78601212832031	0.0	-2.00519106439548	0.0	-1.78601212832031	0.0	-3.0754303238519354	-1.7166088707865805	2.066313224561342	-1.568087966610686	-2.8745300690441176	2.066313224561342	0.8398053029424842	-1.9418235841673546	1.1336067396845817	-0.3201434032547777	0.6698477570295411	1	correct	1.0
132.43971190000047	8.248934799999887	go_punish	1.0	132.55517700000019	134.33924750000008	136.85381080000025	1.784070499999899	133.55972240000028	135.84439709999967	139.89491230000024	0.7795250999998018	1.0094137000005787	0.9091994999998292	138.8884965999996	0.4254339999997683	137.86501399999995	1	1	16	4	go_punish	0	-1	0	1	0	0	0	0.0	1.0	0	1.0	0.4254339999997683	66.44702700000016	199.00220400000035	200.00674940000044	200.78627450000025	202.29142409999983	203.3008378000004	204.3120410000001	205.33552359999976	206.3419393000004	207.25113880000023	2019-12-13 18:45:43.248730	0.913442566959657	-2.00519106439548	-2.00519106439548	-3.56504940469805	-2.91863363135514	-2.00519106439548	-0.913442566959657	-2.00519106439548	-2.00519106439548	-2.00519106439548	-2.91863363135514	2.00519106439548	-3.947999885212589	-1.7166088707865805	0.06112216016586203	-3.127946306913256	-4.007151572078947	0.06112216016586203	2.844996367337964	-3.947014648562835	0.0009852366497518084	-2.325334467650258	0.6698477570295411	1	correct	1.0
140.7256212000002	8.601972600000408	go_punish	1.0	140.84108629999992	142.6585001000003	145.1779333000004	1.817413800000395	141.84587139999985	144.16483499999956	148.21999520000008	0.8126287000004595	1.0130983000008484	1.223063700000239	147.21332879999954	0.4107546000004731	146.1905515999997	1	1	17	4	go_punish	1	0	-1	1	0	0	0	0.0	1.0	-1	1.0	0.4107546000004731	66.44702700000016	207.28811330000008	208.2928984	209.10552710000047	210.61186199999972	211.62496030000057	212.63757859999987	213.6603557999997	214.66702220000025	215.89008590000049	2019-12-13 18:45:43.248730	0.839445405955124	-2.00519106439548	-1.76652275950775	-3.14686937408877	-2.60596816546287	-1.76652275950775	-0.839445405955124	-1.76652275950775	-2.00519106439548	-1.76652275950775	-2.60596816546287	-17.21638633214495	-4.0219970462171215	-1.7166088707865805	0.2997904650535921	-2.709766276303976	-3.6944861061866776	0.2997904650535921	-16.376581029202466	-3.7083463436751045	0.3136507025420219	-2.0866661627625276	0.6698477570295411	1	correct	1.0
149.3646902999999	8.799812100000082	go_punish	1.0	149.4801553999996	151.5234450999997	154.0422577999998	2.043289700000088	150.48507510000033	153.0290223000002	157.09090560000004	1.038369999999361	1.0132354999995812	1.1890618999996434	156.08408169999984	0.4959638000000268	155.0575332999997	1	1	18	4	go_punish	1	0	-1	1	0	0	1	1.0	1.0	-1	1.0	0.4959638000000268	66.44702700000016	215.92718239999977	216.9321021000005	217.97047209999985	219.47604930000037	220.48928479999995	221.50456029999987	222.5311087	223.5379326000002	224.72699449999985	2019-12-13 18:45:43.248730	0.236429505317653	-2.00519106439548	-3.56504940469805	-4.78902443573126	-3.8014789100157	-3.56504940469805	-0.236429505317653	-3.56504940469805	-2.00519106439548	-3.56504940469805	-3.8014789100157	-15.417859686954651	-4.625012946854593	-1.7166088707865805	-1.4987361801367078	-4.351921337946466	-4.889996850739507	-1.4987361801367078	-14.578054384012168	-5.506872988865404	-0.8818600420108083	-3.8851928079528277	0.6698477570295411	1	correct	1.0
158.2036102000002	8.768838900000418	nogo_punish	0.3451943999998548	158.31907529999992	160.24022179999974	162.8094535	1.9211464999998213	159.32400320000033	161.79585750000024	165.85134519999974	0.9162185999994108	1.013595999999751	1.2365690000005998	164.8450874999999	0.9844026999999188	163.82209140000032	1	1	19	3	nogo_punish	1	-1	0	0	1	0	0	0.0	1.0	-1	0.3451943999998548	0.9844026999999188	66.44702700000016	224.76610230000009	225.7710302000005	226.6872487999999	228.2428845000004	229.25648050000015	230.26911840000048	231.29211450000005	232.2983721999999	233.5349412000005	2019-12-13 18:45:43.248730	-1.60704720958401	-2.00519106439548	0.0	-1.76652275950775	-1.60704720958401	0.0	1.60704720958401	-2.00519106439548	0.0	-1.60704720958401	0.0	-16.97771802725722	-6.468489661756256	-1.7166088707865805	2.066313224561342	-1.3294196617229561	-2.6955651503078175	2.066313224561342	-16.137912724314738	-3.5488707937513646	2.919618868004892	-2.325334467650258	2.675038821425021	1	correct	1.0
167.00852350000062	8.810249000000056	go_reward	0.2994815000001836	167.12398860000033	169.45497549999985	171.99794269999984	2.330986899999516	168.1290717000002	170.98507049999986	175.0427842999998	1.3259037999996508	1.0128721999999755	0.8914533000005918	174.03554549999993	0.8236277999994854	173.00887460000013	1	1	20	2	go_reward	1	1	0	1	1	1	0	0.0	1.0	1	0.2994815000001836	0.8236277999994854	66.44702700000016	233.5710156000005	234.57609870000036	235.9020025	237.43209750000003	238.4449697	239.4559016000003	240.4825725000001	241.48981129999996	242.38126460000055	2019-12-13 18:45:43.248730	8.33709412100947	3.84313438970607	0.0	3.84313438970607	8.33709412100947	0.0	-8.33709412100947	3.84313438970607	0.0	8.33709412100947	0.0	5.210021472785189	3.475651668837224	4.13171658331497	2.066313224561342	4.280237487490864	7.248576180285662	2.066313224561342	6.049826775727674	6.395270536842115	2.919618868004892	3.5229909864512923	2.675038821425021	1	correct	1.0
175.85982140000033	9.497613999999885	nogo_punish	1.0	175.97528650000004	178.51720860000023	181.03295489999985	2.5419221000001926	176.98000140000025	180.0233884999998	184.0766597000002	1.5372071999999832	1.0095664000000397	1.396240799999731	183.07009970000033	0.648904699999548	182.04554740000003	1	1	21	3	nogo_punish	1	-1	0	0	0	1	1	1.0	1.0	0	1.0	0.648904699999548	66.44702700000016	242.4223135000002	243.4270284000004	244.9642356000004	246.47041549999997	247.4799819	248.4925744000002	249.5171267000005	250.52368670000035	251.91992750000009	2019-12-13 18:45:43.248730	4.68515639086289	-3.77171382390323	0.0	-3.56504940469805	-4.68515639086289	0.0	-4.68515639086289	0.0	-3.77171382390323	0.0	-4.68515639086289	0.0	-0.17628606130935598	-3.4831316302943307	2.066313224561342	-3.127946306913256	-5.773674331586697	2.066313224561342	0.8398053029424842	-1.9418235841673546	-1.765537522857998	-0.3201434032547777	-1.096675002478209	1	correct	1.0
185.39336600000024	7.873051200000191	go_punish	1.0	185.50883109999995	186.87029840000014	189.38439600000035	1.3614673000001858	186.5130724999999	188.37509070000033	192.42692129999978	0.35722590000023047	1.0093053000000225	0.9549610000003668	191.42071430000033	0.5093796000001021	190.39620749999995	1	1	22	4	go_punish	0	-1	0	1	0	0	0	0.0	1.0	0	1.0	0.5093796000001021	66.44702700000016	251.9558581000001	252.96009950000007	253.3173254000003	254.8221177000005	255.8314230000005	256.8432345000001	257.8677413000005	258.87394829999994	259.8289093000003	2019-12-13 18:45:43.248730	-0.298259088350266	-2.00519106439548	-5.15206043848425	-6.2394622110719	-4.85380135013398	-5.15206043848425	0.298259088350266	-5.15206043848425	-2.00519106439548	-5.15206043848425	-4.85380135013398	5.15206043848425	-5.159701540522511	-1.7166088707865805	-3.0857472139229083	-5.802359113287106	-5.942319290857788	-3.0857472139229083	5.991865741426735	-7.093884022651605	-1.9341824821290885	-5.472203841739028	0.6698477570295411	1	correct	1.0
193.30179399999997	9.44999050000024	go_punish	1.0	193.41725909999968	195.83961459999955	198.3579676999998	2.422355499999867	194.42201430000023	197.34439420000035	201.39971150000025	1.4176002999993216	1.0135734999994384	1.4675380999996719	200.3923752999999	0.4280487999994875	199.37043840000024	1	1	23	4	go_punish	1	0	-1	1	0	0	0	0.0	1.0	-1	1.0	0.4280487999994875	66.44702700000016	259.86428609999984	260.8690413000004	262.2866415999997	263.7914212000005	264.80499469999995	265.8174654000004	266.8394023000001	267.8467385000004	269.3142766000001	2019-12-13 18:45:43.248730	-0.234214807876273	-2.00519106439548	-4.55035613084352	-5.51818360291338	-4.31614132296725	-4.55035613084352	0.234214807876273	-4.55035613084352	-2.00519106439548	-4.55035613084352	-4.31614132296725	-14.432552960809181	-5.095657260048519	-1.7166088707865805	-2.484042906282178	-5.081080505128586	-5.404659263691058	-2.484042906282178	-13.592747657866697	-6.492179715010875	-1.3965224549623585	-4.870499534098298	0.6698477570295411	1	correct	1.0
202.78886020000027	9.663039899999603	nogo_reward	0.2903208999996423	202.90432529999998	205.73817340000005	208.28154989999985	2.8338481000000684	203.90830449999976	207.26949929999955	211.32570860000033	1.8298689000002923	1.0120506000002933	1.24165659999926	210.31847070000003	0.5173582999996142	209.29315010000028	1	1	24	1	nogo_reward	1	0	1	0	1	0	0	0.0	1.0	0	0.2903208999996423	0.5173582999996142	66.44702700000016	269.35135230000014	270.3553314999999	272.1852004000002	273.7165262999997	274.7285769	275.74017710000044	276.7654977000002	277.7727356000005	279.01439219999975	2019-12-13 18:45:43.248730	1.68520941813457	0.0	0.0	0.0	1.68520941813457	0.0	-1.68520941813457	0.0	0.0	1.68520941813457	0.0	0.0	-3.1762330340376757	0.2885821936088995	2.066313224561342	0.43710309778479395	0.5966914774107626	2.066313224561342	0.8398053029424842	-0.25661416603278453	2.919618868004892	-0.3201434032547777	2.675038821425021	1	correct	1.0
212.49194239999997	8.212085200000729	nogo_punish	1.0	212.60740749999968	214.45663100000002	216.97073160000036	1.8492235000003348	213.61212599999993	215.96212279999963	220.01447879999978	0.8445050000000833	1.0086088000007294	0.8050139000006311	219.00741550000026	0.4426220999994257	217.98286110000026	1	1	25	3	nogo_punish	1	-1	0	0	0	1	0	0.0	1.0	0	1.0	0.4426220999994257	66.44702700000016	279.05443449999984	280.0591530000001	280.9036580000002	282.4091497999998	283.4177586000005	284.4298881000004	285.4544425000004	286.46150579999994	287.2665197000006	2019-12-13 18:45:43.248730	4.37249092497062	-3.77171382390323	0.0	-3.14686937408877	-4.37249092497062	0.0	-4.37249092497062	0.0	-3.77171382390323	0.0	-4.37249092497062	0.0	-0.4889515272016256	-3.4831316302943307	2.066313224561342	-2.709766276303976	-5.461008865694428	2.066313224561342	0.8398053029424842	-1.9418235841673546	-1.4528720569657283	-0.3201434032547777	-1.096675002478209	1	correct	1.0
220.7453513999999	7.644132100000263	nogo_punish	1.0	220.8608164999996	222.18120939999972	224.6968182999999	1.3203929000001153	221.86518479999995	223.68677690000004	227.73834420000003	0.3160245999997642	1.0100413999998636	0.7666043999998351	226.73168609999993	0.3987835999996605	225.70776569999998	1	1	26	3	nogo_punish	1	-1	0	0	0	1	0	0.0	1.0	0	1.0	0.3987835999996605	66.44702700000016	287.30784349999976	288.3122118000001	288.6282363999999	290.1338039000002	291.14384530000007	292.15479270000014	293.1787131000001	294.1853712000002	294.9519756	2019-12-13 18:45:43.248730	4.10197118746406	-3.77171382390323	0.0	-2.78383337133577	-4.10197118746406	0.0	-4.10197118746406	0.0	-3.77171382390323	0.0	-4.10197118746406	0.0	-0.7594712647081856	-3.4831316302943307	2.066313224561342	-2.346730273550976	-5.190489128187868	2.066313224561342	0.8398053029424842	-1.9418235841673546	-1.1823523194591683	-0.3201434032547777	-1.096675002478209	1	correct	1.0
228.43016650000027	8.245892400000287	go_punish	1.0	228.54563159999998	230.27206449999994	232.79094270000041	1.7264328999999634	229.5507131000004	231.77691229999982	235.83158960000037	0.7213513999995484	1.0140304000005926	0.959934399999895	234.82485059999993	0.5371109999996406	233.80243470000005	1	1	27	4	go_punish	1	0	-1	1	0	0	0	0.0	1.0	-1	1.0	0.5371109999996406	66.44702700000016	294.99265860000014	295.99774010000056	296.7190915000001	298.2239393	299.2379697000006	300.2494617000002	301.2718776000001	302.27861660000053	303.2385510000004	2019-12-13 18:45:43.248730	-0.716940049109131	-2.00519106439548	-6.03279779186672	-6.89569324396553	-5.31585774275759	-6.03279779186672	0.716940049109131	-6.03279779186672	-2.00519106439548	-6.03279779186672	-5.31585774275759	-12.95011129978598	-5.578382501281377	-1.7166088707865805	-3.966484567305378	-6.458590146180736	-6.404375683481398	-3.966484567305378	-12.110305996843497	-7.974621376034075	-2.396238874752698	-6.352941195121498	0.6698477570295411	1	correct	1.0
236.71691310000006	8.08304709999993	nogo_punish	1.0	236.83237819999977	238.39445419999993	240.90949110000025	1.562076000000161	237.83614659999967	239.89930939999977	243.95349989999977	0.558307600000262	1.0101817000004871	0.9619253999999273	242.94660430000022	0.4045219999998153	241.92098720000013	1	1	28	3	nogo_punish	1	-1	0	0	0	1	1	1.0	1.0	0	1.0	0.4045219999998153	66.44702700000016	303.2794051999999	304.2831735999998	304.8414812000001	306.3463363999999	307.3565181000004	308.3680142000003	309.3936313000004	310.40052689999993	311.36245229999986	2019-12-13 18:45:43.248730	3.86722806425924	-3.77171382390323	0.0	-2.46774838716867	-3.86722806425924	0.0	-3.86722806425924	0.0	-3.77171382390323	0.0	-3.86722806425924	0.0	-0.9942143879130056	-3.4831316302943307	2.066313224561342	-2.030645289383876	-4.955746004983047	2.066313224561342	0.8398053029424842	-1.9418235841673546	-0.9476091962543483	-0.3201434032547777	-1.096675002478209	1	correct	1.0
244.83402990000013	8.311770799999977	nogo_reward	1.0	244.94949499999984	246.50680250000005	249.0255417999997	1.5573075000002063	245.95442110000022	248.01113780000014	252.0540473000001	0.552381399999831	1.0144039999995584	1.2072184999997262	251.04632700000002	1.0	250.03766610000002	1	1	29	1	nogo_reward	1	0	1	0	0	1	0	n/a	0.0	1	1.0	1.0	66.44702700000016	311.396522	312.4014481000004	312.9538295000002	314.4581648000003	315.47256879999986	316.4846931000002	317.4933540000002	318.50107430000025	319.7082928	2019-12-13 18:45:43.248730	-1.68520941813457	0.0	0.0	0.0	1.68520941813457	0.0	1.68520941813457	0.0	0.0	0.0	1.68520941813457	9.05315586249126	-6.546651870306816	0.2885821936088995	2.066313224561342	0.43710309778479395	0.5966914774107626	2.066313224561342	9.892961165433743	-1.9418235841673546	4.604828286139462	-0.3201434032547777	2.675038821425021	1	missed	0.0
253.18092810000053	8.309373399999458	go_punish	0.2873185999997076	253.29639320000024	255.13308609999967	257.68311360000007	1.8366928999994343	254.30087139999978	256.66549229999964	260.7222654999996	0.832214699999895	1.0176213000004282	0.8835011000001032	259.7160224999998	0.6860884999996415	258.69441499999994	1	1	30	4	go_punish	0	-1	0	1	1	1	0	0.0	1.0	-1	0.2873185999997076	0.6860884999996415	66.44702700000016	319.7434202000004	320.74789839999994	321.58011309999983	323.1125192999998	324.13014060000023	325.1414420000001	326.16304949999994	327.16929249999976	328.05279359999986	2019-12-13 18:45:43.248730	1.1465032882343	-2.00519106439548	-7.34386294158731	-8.1144759665621	-6.19735965335301	-7.34386294158731	-1.1465032882343	-2.00519106439548	-7.34386294158731	-6.19735965335301	-7.34386294158731	-16.97771802725722	-3.7149391639379457	-1.7166088707865805	-5.277549717025968	-7.677372868777306	-7.285877594076818	-5.277549717025968	-16.137912724314738	-8.139183237520365	-4.424244073582418	-2.325334467650258	-4.668824120162289	1	correct	1.0
261.5257228999999	8.080780000000232	nogo_reward	0.3685882999998284	261.6411879999996	263.0600298999998	265.63577110000006	1.4188419000001886	262.64606939999976	264.62135190000026	268.67836780000016	0.41396050000003015	1.014419199999793	1.0436001999996734	267.6719519999997	0.6861783000003925	266.64736579999953	1	1	31	1	nogo_reward	0	1	0	0	1	0	1	0.0	0.0	1	0.3685882999998284	0.6861783000003925	66.44702700000016	328.08821499999976	329.0930963999999	329.50705689999995	331.0683789000004	332.0827981000002	333.0943927999997	334.11897899999985	335.1253948000003	336.168995	2019-12-13 18:45:43.248730	1.42741915560959	0.0	0.972829436591704	0.972829436591704	2.40024859220129	0.972829436591704	-1.42741915560959	0.0	0.972829436591704	2.40024859220129	0.972829436591704	9.05315586249126	-3.4340232965626556	0.2885821936088995	3.039142661153046	1.409932534376498	1.3117306514774827	3.039142661153046	9.892961165433743	0.4584250080339356	3.892448304596596	-0.3201434032547777	3.647868258016725	1	wrong	1.0
269.64152160000054	9.816045599999597	nogo_reward	0.320889000000534	269.75698670000025	272.52662710000004	275.06925799999954	2.769640399999787	270.76147330000003	274.05882719999954	278.11108739999963	1.7651538000000073	1.0104307999999946	1.4619449000002191	277.1034388999997	0.8428577000004225	276.08154039999954	1	1	32	1	nogo_reward	1	0	1	0	1	0	0	0.0	1.0	0	0.320889000000534	0.8428577000004225	66.44702700000016	336.2040137000004	337.2085003000002	338.9736541000002	340.5058541999997	341.5162849999997	342.5285673999997	343.55046589999984	344.5581143999998	346.0200593	2019-12-13 18:45:43.248730	3.02761357398652	0.972829436591704	0.972829436591704	1.82919159847314	4.00044301057822	0.972829436591704	-3.02761357398652	0.972829436591704	0.972829436591704	4.00044301057822	0.972829436591704	-0.972829436591704	-1.8338288781857255	1.2614116302006035	3.039142661153046	2.266294696257934	2.911925069854412	3.039142661153046	-0.13302413364921972	2.058619426410865	3.892448304596596	0.6526860333369262	3.647868258016725	1	correct	1.0
279.49619290000015	9.269776799999761	nogo_reward	0.4070431000000098	279.61165799999986	281.8914772999997	284.43483620000006	2.279819299999815	280.6168590999996	283.4214539000004	287.4769124000004	1.2746182000000772	1.0133822999996482	1.4045223999992231	286.47067249999964	0.4918571999996857	285.44590739999967	1	1	33	1	nogo_reward	0	1	0	0	1	0	1	1.0	1.0	1	0.4070431000000098	0.4918571999996857	66.44702700000016	346.058685	347.06388609999976	348.33850429999984	349.8684809000006	350.8818632000002	351.89293439999983	352.9176994999998	353.92393940000056	355.3284617999998	2019-12-13 18:45:43.248730	2.7476870153116	0.856362161881434	0.972829436591704	1.61172222374252	3.7205164519033	0.972829436591704	-2.7476870153116	0.856362161881434	0.972829436591704	3.7205164519033	0.972829436591704	8.196793700609826	-2.1137554368606457	1.1449443554903334	3.039142661153046	2.048825321527314	2.631998511179493	3.039142661153046	9.03659900355231	1.7786928677359455	3.892448304596596	0.5362187586266562	3.647868258016725	1	correct	1.0
288.80909340000017	9.637389399999847	nogo_punish	1.0	288.9245584999999	291.6561294000003	294.17089419999957	2.7315709000004063	289.92942800000037	293.1615420999997	297.2129236999999	1.7267013999999108	1.0093520999998873	1.3490241999998034	296.2068427000003	0.3922506999997495	295.18318420000014	1	1	34	3	nogo_punish	1	-1	0	0	0	1	0	0.0	1.0	0	1.0	0.3922506999997495	66.44702700000016	355.37158550000004	356.37645500000053	358.10315640000044	359.60856909999984	360.6179211999997	361.6302112000003	362.6538697000005	363.6599507000001	365.0089748999999	2019-12-13 18:45:43.248730	3.66297701611707	-3.77171382390323	0.0	-2.19180250310306	-3.66297701611707	0.0	-3.66297701611707	0.0	-3.77171382390323	0.0	-3.66297701611707	0.0	-1.1984654360551756	-3.4831316302943307	2.066313224561342	-1.754699405318266	-4.751494956840878	2.066313224561342	0.8398053029424842	-1.9418235841673546	-0.7433581481121783	-0.3201434032547777	-1.096675002478209	1	correct	1.0
298.48261270000063	8.819580999999687	go_punish	1.0	298.59807780000034	300.57450330000034	303.09201889999986	1.9764255000000048	299.60255320000033	302.07912020000003	306.1340008999996	0.971950100000015	1.0128986999998233	1.283657900000435	305.12750210000013	0.691561499999807	304.1030617999995	1	1	35	4	go_punish	1	0	-1	1	0	0	0	0.0	1.0	-1	1.0	0.691561499999807	66.44702700000016	365.0451048000005	366.0495802000005	367.0215303000005	368.5261472000002	369.5390459	370.5500887999997	371.5745291000003	372.58102789999975	373.8646858000002	2019-12-13 18:45:43.248730	1.39900036458937	-3.77171382390323	-7.34386294158731	-9.19513309780882	-8.74286330617668	-7.34386294158731	-1.39900036458937	-7.34386294158731	-3.77171382390323	-7.34386294158731	-8.74286330617668	-11.63904615006539	-3.4624420875828754	-3.4831316302943307	-5.277549717025968	-8.758030000024027	-9.831381246900488	-5.277549717025968	-10.799240847122906	-9.285686525754665	-5.8232444381717885	-7.664006344842088	-1.096675002478209	1	correct	1.0
307.3396460000003	7.860682700000382	nogo_reward	0.4621260000003531	307.4551111	308.8013615	311.34641139999985	1.346250399999974	308.4590529999996	310.3319012000002	314.38869559999966	0.34230850000039936	1.0145101999996768	0.927098200000728	313.38191999999987	0.4971205000001646	312.35944010000003	1	1	36	1	nogo_reward	0	1	0	0	1	0	0	0.0	1.0	1	0.4621260000003531	0.4971205000001646	66.44702700000016	373.9021381000002	374.90607999999975	375.24838850000015	376.77892820000034	377.7934384	378.8064671000002	379.828947	380.8357225999998	381.76282080000055	2019-12-13 18:45:43.248730	4.19309495375732	1.72818949845279	0.972829436591704	2.39574035815737	5.16592439034902	0.972829436591704	-4.19309495375732	1.72818949845279	0.972829436591704	5.16592439034902	0.972829436591704	7.3249663640384695	-0.668347498414926	2.016771692061689	3.039142661153046	2.832843455942164	4.0774064496252125	3.039142661153046	8.164771666980954	3.2241008061816654	3.892448304596596	1.4080460951980123	3.647868258016725	1	correct	1.0
315.23700000000014	8.626986400000476	go_punish	0.2887385000003633	315.35246509999985	317.3968617999999	319.94081149999965	2.04439670000005	316.3563869999998	318.9281553999999	322.98296200000004	1.0404748000000836	1.012656099999731	0.9964895000002798	321.97609399999965	0.663828900000226	320.95170919999964	1	1	37	4	go_punish	0	-1	0	1	1	1	1	0.0	0.0	-1	0.2887385000003633	0.663828900000226	66.44702700000016	381.7994921	382.803414	383.84388880000006	385.3751824000001	386.3878384999998	387.3987361999998	388.4231209999998	389.4299890000002	390.4264785000005	2019-12-13 18:45:43.248730	-0.926828159556864	-3.77171382390323	-8.50584441992546	-10.1552425034335	-9.43267257948232	-8.50584441992546	0.926828159556864	-3.77171382390323	-8.50584441992546	-9.43267257948232	-8.50584441992546	-15.21119526774947	-5.78827061172911	-3.4831316302943307	-6.439531195364117	-9.718139405648706	-10.521190520206128	-6.439531195364117	-14.371389964806987	-11.374496163649674	-5.586225551920568	-4.091857227158008	-5.830805598500438	1	wrong	1.0
323.9012204999999	9.001961400000198	go_punish	0.3197043999998641	324.0166855999996	325.9827513999998	328.5365996999999	1.9660658000001945	325.0216346999996	327.52703949999983	331.5793471999995	0.9611167000002183	1.0095602000000667	1.439299800000299	330.5729054000003	0.641665500000272	329.5498754999998	1	1	38	4	go_punish	1	0	-1	1	1	1	0	0.0	1.0	0	0.3197043999998641	0.641665500000272	66.44702700000016	390.4637125999998	391.46866169999976	392.4297784	393.9740665	394.98362670000006	395.9969025	397.01993240000047	398.0263741999997	399.465674	2019-12-13 18:45:43.248730	-3.09872641418513	-5.3315721642058	-8.50584441992546	-11.0098652542717	-11.6045708341106	-8.50584441992546	3.09872641418513	-5.3315721642058	-8.50584441992546	-11.6045708341106	-8.50584441992546	5.3315721642058	-7.9601688663573755	-5.0429899705969	-6.439531195364117	-10.572762156486906	-12.693088774834408	-6.439531195364117	6.171377467148284	-13.546394418277954	-5.586225551920568	-5.6517155674605775	-5.830805598500438	1	correct	1.0
332.9383488000003	7.618051200000082	nogo_reward	0.5455173000000286	333.0538139	334.3299452000001	336.87443249999984	1.2761313000000882	334.05829859999994	335.8608975999996	339.91888519999975	0.2716466000001674	1.013534900000252	0.752979900000355	338.91182529999975	0.5256589999999051	337.88593089999995	1	1	39	1	nogo_reward	0	1	0	0	1	0	0	0.0	1.0	1	0.5455173000000286	0.5256589999999051	66.44702700000016	399.5008409000002	400.5053256000001	400.7769722000003	402.30792459999975	403.3214595	404.3329579000001	405.3588522999999	406.3659121999999	407.11889210000027	2019-12-13 18:45:43.248730	5.46629286278736	2.49674245817773	0.972829436591704	3.08777432784499	6.43912229937906	0.972829436591704	-5.46629286278736	2.49674245817773	0.972829436591704	6.43912229937906	0.972829436591704	6.556413404313529	0.6048504106151142	2.7853246517866297	3.039142661153046	3.524877425629784	5.350604358655253	3.039142661153046	7.396218707256014	4.497298715211706	3.892448304596596	2.1765990549229524	3.647868258016725	1	correct	1.0
340.5933375000004	8.231379500000003	go_reward	0.4071335999997245	340.7088026000001	342.0384035999996	344.5824204999999	1.3296009999994567	341.7131323000003	343.5696989999997	347.6246091000002	0.3252712999992582	1.0127215000002252	1.3155729999999153	346.61778289999984	0.9366494999994756	345.59469309999986	1	1	40	2	go_reward	1	1	0	1	1	1	0	0.0	1.0	1	0.4071335999997245	0.9366494999994756	66.44702700000016	407.1558296000003	408.1601593000005	408.48543059999975	410.01672599999984	411.02944750000006	412.0417201	413.0648099	414.0716361000004	415.3872091000003	2019-12-13 18:45:43.248730	9.24049233974915	4.36733755145101	0.0	4.36733755145101	9.24049233974915	0.0	-9.24049233974915	4.36733755145101	0.0	9.24049233974915	0.0	4.685818311040249	4.379049887576904	4.65591974505991	2.066313224561342	4.804440649235804	8.151974399025342	2.066313224561342	5.5256236139827335	7.298668755581795	2.919618868004892	4.047194148196232	2.675038821425021	1	correct	1.0
348.8619187000004	9.50765069999943	go_reward	0.3573020000003453	348.9773838000001	351.6842919999999	354.2338206000004	2.706908199999816	349.9815840000001	353.22280260000025	357.2760766000001	1.7027079999998023	1.0110180000001492	1.2089578999994046	356.26942330000026	0.4610844999997425	355.24445029999976	1	1	41	2	go_reward	0	0	1	1	1	1	0	0.0	1.0	0	0.3573020000003453	0.4610844999997425	66.44702700000016	415.42441080000026	416.4286110000003	418.1313190000001	419.6698296000004	420.68084760000056	421.6914772999999	422.7164503000004	423.7231036000003	424.9320614999997	2019-12-13 18:45:43.248730	10.0420704560469	4.83305183240079	0.0	4.83305183240079	10.0420704560469	0.0	-10.0420704560469	4.83305183240079	0.0	10.0420704560469	0.0	-4.83305183240079	5.180628003874655	5.12163402600969	2.066313224561342	5.270154930185584	8.953552515323093	2.066313224561342	-3.993246529458306	8.100246871879547	2.919618868004892	4.512908429146012	2.675038821425021	1	correct	1.0
358.41211360000034	7.888898999999583	nogo_punish	1.0	358.52757870000005	359.9972918000003	362.51124650000025	1.4697131000002628	359.53205419999995	361.5020631999996	365.5543594999999	0.4652376000003642	1.0091833000006432	0.8621181999997134	364.5473265999999	0.4816705000002912	363.52392260000033	1	1	42	3	nogo_punish	1	-1	0	0	0	1	0	0.0	1.0	0	1.0	0.4816705000002912	66.44702700000016	424.9746057000002	425.9790812000001	426.4443188000005	427.9490901999998	428.9582735000004	429.9709496000005	430.99435360000007	432.0013865000001	432.8635046999998	2019-12-13 18:45:43.248730	3.48480756129225	-3.77171382390323	0.0	-1.95029722468646	-3.48480756129225	0.0	-3.48480756129225	0.0	-3.77171382390323	0.0	-3.48480756129225	0.0	-1.3766348908799957	-3.4831316302943307	2.066313224561342	-1.513194126901666	-4.573325502016058	2.066313224561342	0.8398053029424842	-1.9418235841673546	-0.5651886932873582	-0.3201434032547777	-1.096675002478209	1	correct	1.0
366.33804560000044	9.549175600000183	go_reward	0.3212692999995852	366.45351070000015	369.21533749999986	371.76158550000036	2.76182679999971	367.45845869999994	370.7460524999997	374.8042931	1.7568787999999245	1.015533000000687	1.1983932000003392	373.79831060000015	0.4910253999996712	372.7725614000001	1	1	43	2	go_reward	1	1	0	1	1	1	1	1.0	1.0	1	0.3212692999995852	0.4910253999996712	66.44702700000016	432.9005377000003	433.9054857000001	435.6623645	437.19307949999984	438.2086125000005	439.21958840000025	440.2453376000003	441.25132010000016	442.4497133000005	2019-12-13 18:45:43.248730	9.0666041101415	4.27464379862677	0.0	4.27464379862677	9.0666041101415	0.0	-9.0666041101415	4.27464379862677	0.0	9.0666041101415	0.0	4.778512063864489	4.205161657969254	4.56322599223567	2.066313224561342	4.711746896411564	7.978086169417692	2.066313224561342	5.6183173668069735	7.124780525974145	2.919618868004892	3.9545003953719924	2.675038821425021	1	correct	1.0
375.9231408000005	9.222082299999784	nogo_reward	0.2874625000004016	376.0386059000002	378.2550116000002	380.8344298000002	2.2164056999999957	377.04287519999986	379.8232689999995	383.87550829999964	1.212136400000361	1.0111608000006527	1.3851799000003666	382.86884350000037	0.4570143000000826	381.8465935000003	1	1	44	1	nogo_reward	1	0	1	0	1	0	0	0.0	1.0	0	0.2874625000004016	0.4570143000000826	66.44702700000016	442.4856329000004	443.4899022	444.7020386000004	446.2702959999997	447.28145680000034	448.2936205000005	449.3158705000005	450.3225352999998	451.70771520000017	2019-12-13 18:45:43.248730	6.59000247211504	3.17558353000148	0.972829436591704	3.69978669174642	7.56283190870675	0.972829436591704	-6.59000247211504	3.17558353000148	0.972829436591704	7.56283190870675	0.972829436591704	-3.17558353000148	1.728560019942794	3.4641657236103796	3.039142661153046	4.136889789531214	6.474313967982942	3.039142661153046	-2.335778227058996	5.621008324539395	3.892448304596596	2.8554401267467022	3.647868258016725	1	correct	1.0
385.18232960000023	8.729207999999801	go_reward	0.3108228000000963	385.29779469999994	387.46465979999994	390.00766159999966	2.1668650999999954	386.3018474999999	388.99709280000025	393.0497537000001	1.1628123000000414	1.0105687999994188	0.977248999999631	392.0436079000001	0.3378715999997439	391.0188506000004	1	1	45	2	go_reward	0	0	1	1	1	1	1	1.0	1.0	0	0.3108228000000963	0.3378715999997439	66.44702700000016	451.7448217000001	452.74887450000006	453.9116868000001	455.4441198000004	456.4546885999998	457.46587760000057	458.49063490000026	459.4967807000003	460.4740296999999	2019-12-13 18:45:43.248730	9.90489420254942	4.76046370114967	0.0	4.76046370114967	9.90489420254942	0.0	-9.90489420254942	4.76046370114967	0.0	9.90489420254942	0.0	-4.76046370114967	5.043451750377174	5.04904589475857	2.066313224561342	5.1975667989344645	8.816376261825612	2.066313224561342	-3.9206583982071863	7.963070618382065	2.919618868004892	4.440320297894893	2.675038821425021	1	correct	1.0
393.95213710000013	8.612514299999873	nogo_punish	1.0	394.06760219999984	395.6310708000001	398.14554580000004	1.563468600000249	395.0719767999999	397.1360401000002	401.1907613000003	0.5590940000001865	1.0095056999998633	1.4893551999994088	400.18138480000016	0.5519617999998445	399.15773119999994	1	1	46	3	nogo_punish	1	-1	0	0	0	1	0	0.0	1.0	0	1.0	0.5519617999998445	66.44702700000016	460.5146292	461.51900380000006	462.07809780000025	463.58306710000033	464.5925728000002	465.6047582000001	466.6284118000003	467.63778830000047	469.1271434999999	2019-12-13 18:45:43.248730	3.32902013293884	-3.77171382390323	0.0	-1.73844049704465	-3.32902013293884	0.0	-3.32902013293884	0.0	-3.77171382390323	0.0	-3.32902013293884	0.0	-1.5324223192334059	-3.4831316302943307	2.066313224561342	-1.301337399259856	-4.417538073662647	2.066313224561342	0.8398053029424842	-1.9418235841673546	-0.409401264933948	-0.3201434032547777	-1.096675002478209	1	correct	1.0
402.60436450000003	8.721073800000283	go_reward	0.2923901000003752	402.71982959999974	404.4122569000001	407.0135436999999	1.692427300000361	403.72415660000024	405.99883359999967	410.05761770000026	0.68810029999986	1.0147101000002294	1.3832856999997603	409.05115099999966	0.5738679000005504	408.02570209999976	1	1	47	2	go_reward	1	1	0	1	1	1	1	1.0	1.0	1	0.2923901000003752	0.5738679000005504	66.44702700000016	469.1668565999999	470.1711836000004	470.85928390000026	472.44586059999983	473.46057070000006	474.4727290999999	475.4981779999998	476.5046447000004	477.8879304000002	2019-12-13 18:45:43.248730	8.95916425849966	4.21831605580685	0.0	4.21831605580685	8.95916425849966	0.0	-8.95916425849966	4.21831605580685	0.0	8.95916425849966	0.0	4.834839806684409	4.097721806327415	4.50689824941575	2.066313224561342	4.6554191535916445	7.8706463177758526	2.066313224561342	5.674645109626893	7.0173406743323055	2.919618868004892	3.8981726525520726	2.675038821425021	1	correct	1.0
411.36213030000005	8.728343900000198	go_reward	0.2938654999998107	411.47759539999976	413.32480349999975	415.92083879999973	1.847208099999989	412.4815804	414.90389419999974	418.9632416000004	0.8432230999997614	1.016944599999988	1.2426976999995532	417.95661349999955	0.7830713000003016	416.9336198000001	1	1	48	2	go_reward	1	1	0	1	1	1	0	1.0	0.0	1	0.2938654999998107	0.7830713000003016	66.44702700000016	477.9246223999999	478.92860740000015	479.7718304999999	481.3509211999999	482.3678657999999	483.38064680000025	484.4036404999997	485.41026860000056	486.6529663000001	2019-12-13 18:45:43.248730	9.82154820338427	4.71728730846465	0.0	4.71728730846465	9.82154820338427	0.0	-9.82154820338427	4.71728730846465	0.0	9.82154820338427	0.0	4.335868554026609	4.960105751212024	5.0058695020735495	2.066313224561342	5.154390406249444	8.733030262660462	2.066313224561342	5.175673856969094	7.879724619216915	2.919618868004892	4.397143905209872	2.675038821425021	1	wrong	1.0
420.12684380000064	8.803041499999381	nogo_reward	0.3016137000004164	420.24230890000035	422.67200179999963	425.24585399999984	2.4296928999992815	421.24671769999986	424.2342791000001	428.28898920000034	1.4252840999997716	1.0115748999997436	0.7563611999993896	427.28185529999973	0.4702553999995871	426.25742660000014	1	1	49	1	nogo_reward	1	0	1	0	1	0	0	0.0	1.0	0	0.3016137000004164	0.4702553999995871	66.44702700000016	486.6893359000005	487.6937447	489.1190287999998	490.68130610000026	491.692881	492.7044536000003	493.7288822999999	494.7360162000005	495.4923773999999	2019-12-13 18:45:43.248730	5.89576640055779	2.80347624519204	0.972829436591704	3.26919052614183	6.8685958371495	0.972829436591704	-5.89576640055779	2.80347624519204	0.972829436591704	6.8685958371495	0.972829436591704	-2.80347624519204	1.034323948385544	3.0920584388009393	3.039142661153046	3.706293623926624	5.780077896425692	3.039142661153046	-1.9636709422495557	4.926772252982145	3.892448304596596	2.483332841937262	3.647868258016725	1	correct	1.0
428.9684379999999	8.637034700000243	go_reward	0.2905651000000944	429.0839030999996	430.7359335000001	433.28996170000033	1.6520304000005126	430.08874600000036	432.27520569999984	436.3329209000003	0.6471874999997453	1.0147560000004887	1.3880168999995135	435.3263925000001	0.5084541999995054	434.3031508000003	1	1	50	2	go_reward	1	1	0	1	1	1	1	1.0	1.0	1	0.2905651000000944	0.5084541999995054	66.44702700000016	495.53093009999975	496.5357730000005	497.18296050000026	498.7222327	499.7369887000005	500.7501778000005	501.7734195000003	502.7799479000005	504.1679648	2019-12-13 18:45:43.248730	10.5832039668549	5.15859981249527	0.0	5.15859981249527	10.5832039668549	0.0	-10.5832039668549	5.15859981249527	0.0	10.5832039668549	0.0	3.8945560499959893	5.721761514682654	5.447182006104169	2.066313224561342	5.595702910280064	9.494686026131092	2.066313224561342	4.734361352938474	8.641380382687545	2.919618868004892	4.838456409240492	2.675038821425021	1	correct	1.0
437.6466981000003	8.251129299999775	go_reward	0.3415931999998065	437.76216320000003	439.3300304000004	441.92534290000003	1.5678672000003644	438.76688879999983	440.9121589999995	444.96631249999973	0.5631416000005629	1.013183900000513	1.046980000000076	443.9594616000004	0.6584816000004139	442.93714019999976	1	1	51	2	go_reward	1	1	0	1	1	1	0	0.0	1.0	1	0.3415931999998065	0.6584816000004139	66.44702700000016	504.2091902000002	505.2139158	505.77705740000056	507.3591859999997	508.3723699000002	509.3841671999999	510.40648860000056	511.4133394999999	512.4603195	2019-12-13 18:45:43.248730	11.2572429382642	5.54968641242183	0.0	5.54968641242183	11.2572429382642	0.0	-11.2572429382642	5.54968641242183	0.0	11.2572429382642	0.0	3.503469450069429	6.395800486091955	5.83826860603073	2.066313224561342	5.986789510206624	10.168724997540393	2.066313224561342	4.343274753011913	9.315419354096846	2.919618868004892	5.2295430091670525	2.675038821425021	1	correct	1.0
445.9379753000003	8.385832500000106	go_reward	0.2914745999996739	446.0534404	447.7182230999997	450.2944944000001	1.664782699999705	447.05777690000014	449.2809575000001	453.3373138999996	0.6604461999995692	1.0135368999999628	1.1019590000005337	452.3300591999996	0.5321299000006547	451.3055922000003	1	1	52	2	go_reward	1	1	0	1	1	1	1	0.0	0.0	1	0.2914745999996739	0.5321299000006547	66.44702700000016	512.5004674000002	513.5048039000003	514.1652500999999	515.7279845000003	516.7415214000002	517.7526192000005	518.7770861999998	519.7843408999997	520.8862999000003	2019-12-13 18:45:43.248730	11.8548779049027	5.89691240166139	0.0	5.89691240166139	11.8548779049027	0.0	-11.8548779049027	5.89691240166139	0.0	11.8548779049027	0.0	3.1562434608298693	6.993435452730455	6.185494595270289	2.066313224561342	6.334015499446184	10.766359964178893	2.066313224561342	3.9960487637723534	9.913054320735347	2.919618868004892	5.576768998406612	2.675038821425021	1	wrong	1.0
454.36246160000064	8.812782799999695	go_punish	1.0	454.47792670000035	456.38562170000023	458.9028768999997	1.907694999999876	455.48230799999965	457.8905649999997	461.9449418000004	0.9033137000005809	1.012311899999986	1.3457676999996693	460.9382220999996	0.5097912000001088	459.9149140999998	1	1	53	4	go_punish	1	0	-1	1	0	0	0	0.0	1.0	-1	1.0	0.5097912000001088	66.44702700000016	520.9249537000005	521.9293349999998	522.8326487000004	524.3375919999999	525.3499038999998	526.3619411	527.3852490999998	528.3919688000005	529.7377365000002	2019-12-13 18:45:43.248730	1.55189674188429	-4.70672771439134	-8.50584441992546	-9.76676259587161	-10.0577411618097	-8.50584441992546	-1.55189674188429	-8.50584441992546	-4.70672771439134	-8.50584441992546	-10.0577411618097	-10.477064671727241	-3.3095457102879555	-4.41814552078244	-6.439531195364117	-9.329659498086816	-11.146259102533508	-6.439531195364117	-9.637259368784758	-10.447668004092813	-7.138122293804808	-8.825987823180236	-2.0316888929663186	1	correct	1.0
463.2107953000004	8.547955099999854	nogo_reward	0.3541144999999233	463.32626040000014	464.7615334000002	467.3753029999998	1.435273000000052	464.3309025999997	466.35507679999955	470.41736990000027	0.43063080000047194	1.020226200000252	1.456845599999724	469.4108255000001	0.9528500999995232	468.3867661000004	1	1	54	1	nogo_reward	1	0	1	0	1	0	0	0.0	1.0	0	0.3541144999999233	0.9528500999995232	66.44702700000016	529.7732874000003	530.7779295999999	531.2085604000004	532.8021037999997	533.82233	534.8337931000005	535.8578525000003	536.8643969000004	538.3212425000002	2019-12-13 18:45:43.248730	5.29222790832578	2.47965707218271	0.972829436591704	2.8940784750004	6.26505734491748	0.972829436591704	-5.29222790832578	2.47965707218271	0.972829436591704	6.26505734491748	0.972829436591704	-2.47965707218271	0.4307854561535347	2.7682392657916095	3.039142661153046	3.331181572785194	5.176539404193672	3.039142661153046	-1.639851769240226	4.323233760750125	3.892448304596596	2.159513668927932	3.647868258016725	1	correct	1.0
471.84180170000036	9.171883899999557	nogo_punish	1.0	471.95726680000007	474.4395340000001	476.9582498999998	2.482267200000024	472.96180860000004	475.9438462999997	479.99950069999977	1.477725400000054	1.0144036000001506	1.129649999999856	478.9931551999998	0.6711218000000372	477.97051680000004	1	1	55	3	nogo_punish	0	0	-1	0	0	1	0	0.0	1.0	-1	1.0	0.6711218000000372	66.44702700000016	538.4042938000002	539.4088356000002	540.8865610000003	542.3908732999998	543.4052769	544.4175438000002	545.4401822	546.4465276999999	547.5761776999998	2019-12-13 18:45:43.248730	3.19249777648707	-3.77171382390323	0.0	-1.55218412998217	-3.19249777648707	0.0	-3.19249777648707	0.0	-3.77171382390323	0.0	-3.19249777648707	-18.9829090916527	-1.6689446756851756	-3.4831316302943307	2.066313224561342	-1.1150810321973759	-4.281015717210877	2.066313224561342	-18.143103788710217	-1.9418235841673546	-0.27287890848217833	-0.3201434032547777	-1.096675002478209	1	correct	1.0
481.05362070000047	8.163443800000096	nogo_reward	0.486807399999634	481.1690858000002	482.53037529999983	485.1314867000001	1.361289499999657	482.17347210000025	484.1036118000002	488.1738230000001	0.35690319999957865	1.0278748999999152	1.1587066000001869	487.16754709999987	0.5415482999997039	486.1420582999999	1	1	56	1	nogo_reward	1	0	1	0	1	0	1	1.0	1.0	0	0.486807399999634	0.5415482999997039	66.44702700000016	547.6161128000003	548.6204991000004	548.9774023	550.5506388000003	551.5785137000003	552.5890853000001	553.6145741	554.6208500000002	555.7795566000004	2019-12-13 18:45:43.248730	4.76632545922576	2.19720729393447	0.972829436591704	2.5665599217471	5.73915489581746	0.972829436591704	-4.76632545922576	2.19720729393447	0.972829436591704	5.73915489581746	0.972829436591704	-2.19720729393447	-0.0951169929464859	2.4857894875433693	3.039142661153046	3.003663019531894	4.650636955093653	3.039142661153046	-1.3574019909919857	3.7973313116501055	3.892448304596596	1.8770638906796921	3.647868258016725	1	correct	1.0
489.2568132000006	8.850487299999259	go_punish	1.0	489.3722783000003	491.7248303999995	494.24456629999986	2.3525520999992295	490.37652739999976	493.2300819000002	497.28634409999995	1.3483029999997598	1.0144843999996738	0.9364214999995966	496.27900709999994	0.950365700000475	495.2563110000001	1	1	57	4	go_punish	1	0	-1	1	0	0	0	0.0	1.0	-1	1.0	0.950365700000475	66.44702700000016	555.8193053000005	556.8235543999999	558.1718573999997	559.6771089000003	560.6915933	561.7033380000003	562.7260341000001	563.7333711000001	564.6697925999997	2019-12-13 18:45:43.248730	1.18340270213221	-4.70672771439134	-9.53776104841911	-10.6861606759212	-10.7211637505513	-9.53776104841911	-1.18340270213221	-9.53776104841911	-4.70672771439134	-9.53776104841911	-10.7211637505513	-9.44514804323359	-3.6780397500400355	-4.41814552078244	-7.471447823857768	-10.249057578136405	-11.809681691275108	-7.471447823857768	-8.605342740291107	-11.479584632586464	-7.801544882546408	-9.857904451673887	-2.0316888929663186	1	correct	1.0
498.1492586000004	8.612957800000004	nogo_punish	1.0	498.2647237000001	500.0510578000003	502.5652745999996	1.7863341000002038	499.2696863000001	501.5556477	505.6084651000001	0.7813715000002048	1.0096268999996028	1.2692164000000048	504.6020236000004	0.4429275000002235	503.5763616000004	1	1	58	3	nogo_punish	1	-1	0	0	0	1	0	1.0	0.0	0	1.0	0.4429275000002235	66.44702700000016	564.7117507000003	565.7167133000003	566.4980848000005	568.0026747000002	569.0123015999998	570.0233886000005	571.0490506000006	572.0554921000003	573.3247085000003	2019-12-13 18:45:43.248730	2.53344345855049	-3.77171382390323	-2.00519106439548	-3.39328554438463	-4.53863452294598	-2.00519106439548	-2.53344345855049	-2.00519106439548	-3.77171382390323	-2.00519106439548	-4.53863452294598	2.00519106439548	-2.3279989936217556	-3.4831316302943307	0.06112216016586203	-2.956182446599836	-5.627152463669788	0.06112216016586203	2.844996367337964	-3.947014648562835	-1.6190156549410881	-2.325334467650258	-1.096675002478209	1	wrong	1.0
506.80201040000065	9.060891799998899	go_punish	0.3438886999992974	506.91747550000036	509.4349599999996	512.0232750000005	2.5174844999992274	507.9215323999997	511.0142500000002	515.0661011000002	1.5134275999998863	1.0090250000002925	0.9122661999990669	514.0592642999991	0.7215839000000415	513.0352071000007	1	1	59	4	go_punish	1	0	-1	1	1	1	1	0.0	0.0	0	0.3438886999992974	0.7215839000000415	66.44702700000016	573.3645025000005	574.3685593999999	575.8819869999998	577.4612770000003	578.4703020000006	579.4822341000008	580.5062912999992	581.5131281000004	582.4253942999994	2019-12-13 18:45:43.248730	-0.851825051355866	-4.70672771439134	-10.4559054118721	-11.5018681294851	-11.3077304632279	-10.4559054118721	0.851825051355866	-4.70672771439134	-10.4559054118721	-11.3077304632279	-10.4559054118721	4.70672771439134	-5.713267503528112	-4.41814552078244	-8.389592187310758	-11.064765031700306	-12.396248403951708	-8.389592187310758	5.546533017333824	-13.249554047395254	-7.536286543867209	-5.026871117646118	-7.780866590447079	1	wrong	1.0
515.9051038999996	8.489785900001152	nogo_punish	1.0	516.0205689999993	517.5615332999996	520.0762206000009	1.5409643000002688	517.0254620999995	519.0659093000004	523.1188235	0.5360712000001513	1.0103113000004669	1.391531400000531	522.1123278999994	0.3887979999999515	521.0878719000002	1	1	60	3	nogo_punish	1	-1	0	0	0	1	1	1.0	1.0	0	1.0	0.3887979999999515	66.44702700000016	582.4675959999995	583.4724890999996	584.0085602999998	585.5129363000005	586.523247600001	587.5348989000004	588.5593548999996	589.5658505000001	590.9573819000007	2019-12-13 18:45:43.248730	2.48764373006691	-3.77171382390323	-1.76652275950775	-3.00977127979071	-4.25416648957466	-1.76652275950775	-2.48764373006691	-1.76652275950775	-3.77171382390323	-1.76652275950775	-4.25416648957466	1.76652275950775	-2.373798722105336	-3.4831316302943307	0.2997904650535921	-2.572668182005916	-5.342684430298467	0.2997904650535921	2.6063280624502343	-3.7083463436751045	-1.3345476215697678	-2.0866661627625276	-1.096675002478209	1	correct	1.0
