onset	duration	trial_type	response_time	cueOnset	targetOnset	fbOnset	cueRT	firstfixOnset	secondfixOnset	waitOnset	firstfixdur	secondfixdur	waitdur	nback_fbOnset	nback_response_time	nback_targetOnset	block	wm	trial	cue	cond	is_common	outcome_go	outcome_nogo	key_correct	key_pressed	is_correct	key_correct_nback	key_pressed_nback	is_correct_nback	outcome	rt	rt_nback	time_scan	time_onset	time_isi1	time_circle	time_isi2	time_feedback	time_same	time_correct	time_iti	time_done	timestamp_scan	DV	Qgo	Qnogo	SV	Wgo	Wnogo	mDV	Qchosen	Qunchosen	Wchosen	Wunchosen	PE	DVC	QgoC	QnogoC	SVC	WgoC	WnogoC	PEC	WchosenC	WunchosenC	QchosenC	QunchosenC	run	outcome_nback	nback_targetResp
0.0	6.340204299998732	go_reward	0.2690354999995179	0.03021960000114632	1.9363205999998172	4.480370700001231	1.9061009999986709	1.0349003999999695	3.466993000000002	5.487413200000219	0.9014201999998477	1.0133777000012287	0.8830106999996588	n/a	1.0	n/a	2	0	61	2	go_reward	1	1	0	1	1	1	1	n/a	n/a	1	0.2690354999995179	1.0	1726.2261676999997	1726.2563873000008	1727.2610680999996	1728.1624882999995	1729.6931606999997	1730.706538400001	n/a	n/a	1731.7135809	1732.5965915999996	2019-12-13 19:13:23.027892	11.1318332858235	6.49056312600654	0.0	6.49056312600654	11.1318332858235	0.0	-11.1318332858235	6.49056312600654	0.0	11.1318332858235	0.0	2.562592736484719	6.270390833651255	6.77914531961544	2.066313224561342	6.927666223791334	10.043315345099693	2.066313224561342	3.402398039427203	9.190009701656146	2.919618868004892	6.170419722751762	2.675038821425021	4	missed	0.0
6.383263899999065	7.249229100000093	go_reward	0.254577400000926	6.413483500000211	8.983680600000298	11.526426199999833	2.5701971000000867	7.41787850000037	10.513462599999912	12.533630500000072	1.565802099999928	1.012963599999921	1.1290821000002325	n/a	1.0	n/a	2	0	62	2	go_reward	1	1	0	1	1	1	0	n/a	n/a	1	0.254577400000926	1.0	1726.2261676999997	1732.6396512	1733.6440462	1735.2098483	1736.7396302999996	1737.7525938999995	n/a	n/a	1738.7597981999998	1739.8888803	2019-12-13 19:13:23.027892	11.7937905354164	6.94527528083722	0.0	6.94527528083722	11.7937905354164	0.0	-11.7937905354164	6.94527528083722	0.0	11.7937905354164	0.0	2.1078805816540394	6.932348083244155	7.233857474446119	2.066313224561342	7.382378378622014	10.705272594692593	2.066313224561342	2.9476858845965235	9.851966951249047	2.919618868004892	6.625131877582442	2.675038821425021	4	missed	0.0
13.657345099998565	6.3870862000001125	go_punish	0.2391691000011633	13.687564699999712	15.533247600000323	18.071126300001197	1.845682900000611	14.691729500000292	17.062023200000112	19.07866970000032	0.8415181000000302	1.0091031000010844	0.9959811999995054	n/a	1.0	n/a	2	0	63	4	go_punish	1	0	-1	1	1	1	0	n/a	n/a	0	0.2391691000011633	1.0	1726.2261676999997	1739.9137323999994	1740.9178972	1741.7594153	1743.2881908999998	1744.2972940000009	n/a	n/a	1745.3048374	1746.3008185999995	2019-12-13 19:13:23.027892	8.07523018602786	-0.235698413111507	-6.88377660601838	-0.598001874316602	1.19145358000948	-6.88377660601838	-8.07523018602786	-0.235698413111507	-6.88377660601838	1.19145358000948	-6.88377660601838	0.235698413111507	3.2137877338556136	0.05288378049739248	-4.817463381457038	-0.16089877653180806	0.10293563928567262	-4.817463381457038	1.0755037160539913	-0.7503700041578745	-3.964157738013488	-0.5558418163662847	-4.2087377845933585	4	missed	0.0
20.07214019999992	6.871476599999141	nogo_reward	0.2391816999988805	20.102359800001068	21.937124300000505	24.475205599999754	1.8347644999994372	21.106662000000142	23.466264200000296	25.484603500000958	0.830462300000363	1.0089413999994576	1.4892328999992515	n/a	1.0	n/a	2	0	64	1	nogo_reward	1	0	1	0	1	0	0	n/a	n/a	0	0.2391816999988805	1.0	1726.2261676999997	1746.3285275000007	1747.3328296999998	1748.1632920000002	1749.6924319	1750.7013732999994	n/a	n/a	1751.7107712000006	1753.2000041	2019-12-13 19:13:23.027892	7.61436029702382	4.14360045698893	0.0	3.93092766282201	7.61436029702382	0.0	-7.61436029702382	4.14360045698893	0.0	7.61436029702382	0.0	-4.14360045698893	2.7529178448515745	4.43218265059783	2.066313224561342	4.368030760606803	6.5258423563000125	2.066313224561342	-3.3037951540464463	5.672536712856465	2.919618868004892	3.8234570537341526	2.675038821425021	4	missed	0.0
27.012203399999635	6.784971499999301	nogo_punish	1.0	27.04242300000078	28.96173760000056	31.47561490000021	1.9193145999997796	28.046494000000166	30.466430400000036	32.48191550000024	0.9152436000003945	1.009184500000174	1.345478999999841	n/a	1.0	n/a	2	0	65	3	nogo_punish	1	-1	0	0	0	1	0	n/a	n/a	0	1.0	1.0	1726.2261676999997	1753.2685907000005	1754.2726616999998	1755.1879053000002	1756.6925980999997	1757.7017826	n/a	n/a	1758.7080832	1760.0535621999998	2019-12-13 19:13:23.027892	4.47120308280683	-6.88377660601838	-1.81435229069405	-2.56756124850435	-6.28555537350088	-1.81435229069405	-4.47120308280683	-1.81435229069405	-6.88377660601838	-1.81435229069405	-6.28555537350088	1.81435229069405	-0.3902393693654158	-6.59519441240948	0.2519609338672921	-2.130458150719556	-7.374073314224687	0.2519609338672921	2.6541575936365343	-3.7561758748614045	-3.3659365054959878	-2.1344956939488275	-4.2087377845933585	4	missed	0.0
33.826368099998945	5.848894000000655	go_punish	0.3518878000013501	33.85658770000009	35.21852829999989	37.76253259999976	1.361940599999798	34.86142749999999	36.74867919999997	38.76958630000081	0.3571007999998983	1.013853399999789	0.9358953999999358	n/a	1.0	n/a	2	0	66	4	go_punish	0	-1	0	1	1	1	0	n/a	n/a	-1	0.3518878000013501	1.0	1726.2261676999997	1760.0827553999998	1761.0875951999997	1761.4446959999996	1762.9748468999996	1763.9887002999994	n/a	n/a	1764.9957540000005	1765.9316494000004	2019-12-13 19:13:23.027892	8.15540673253602	-0.197041120729873	-6.88377660601838	-0.501338894111312	1.27163012651765	-6.88377660601838	-8.15540673253602	-0.197041120729873	-6.88377660601838	1.27163012651765	-6.88377660601838	-18.785867970922826	3.2939642803637748	0.09154107287902646	-4.817463381457038	-0.0642357963265181	0.18311218579384247	-4.817463381457038	-17.946062667980343	-0.6701934576497046	-3.964157738013488	-0.5171845239846506	-4.2087377845933585	4	missed	0.0
39.72153539999999	5.842824599998494	nogo_punish	1.0	39.75175500000114	41.306883900000685	43.82066490000034	1.555128899999545	40.755934900000284	42.81130540000049	44.82788270000128	0.5509490000004007	1.0093594999998459	0.766696899998351	n/a	1.0	n/a	2	0	67	3	nogo_punish	1	-1	0	0	0	1	1	n/a	n/a	0	1.0	1.0	1726.2261676999997	1765.9779227000008	1766.9821026	1767.5330516000004	1769.0374731000002	1770.0468326	n/a	n/a	1771.054050400001	1771.8207472999993	2019-12-13 19:13:23.027892	4.63669291743919	-6.88377660601838	-1.43824586785051	-2.06203918294192	-6.0749387852897	-1.43824586785051	-4.63669291743919	-1.43824586785051	-6.88377660601838	-1.43824586785051	-6.0749387852897	1.43824586785051	-0.22474953473305526	-6.59519441240948	0.6280673567108321	-1.6249360851571257	-7.163456726013508	0.6280673567108321	2.278051170792994	-3.3800694520178647	-3.1553199172848085	-1.7583892711052875	-4.2087377845933585	4	missed	0.0
45.595615599999064	6.452555100000836	nogo_reward	0.2975772999998298	45.62583520000021	47.66760080000131	50.20836000000054	2.0417656000010993	46.63056459999984	49.1984837	51.215544200000295	1.0370362000014666	1.009876300000542	0.8628461000007519	n/a	1.0	n/a	2	0	68	1	nogo_reward	1	0	1	0	1	0	0	n/a	n/a	0	0.2975772999998298	1.0	1726.2261676999997	1771.8520029	1772.8567322999995	1773.893768500001	1775.4246513999997	1776.4345277000002	n/a	n/a	1777.4417119	1778.3045580000007	2019-12-13 19:13:23.027892	6.40288388500024	3.29282996940921	0.0	3.12675481474999	6.40288388500024	0.0	-6.40288388500024	3.29282996940921	0.0	6.40288388500024	0.0	-3.29282996940921	1.5414414328279946	3.5814121630181095	2.066313224561342	3.5638579125347842	5.314365944276433	2.066313224561342	-2.453024666466726	4.4610603008328855	2.919618868004892	2.972686566154432	2.675038821425021	4	missed	0.0
52.07530969999948	6.496256499998935	nogo_reward	0.4933823000010306	52.105529300000626	53.66800499999954	56.203631700000415	1.5624756999989131	53.11033889999999	55.194742400000905	57.21102150000115	0.5576660999995511	1.0088892999995096	1.3907642999984091	n/a	1.0	n/a	2	0	69	1	nogo_reward	1	0	1	0	1	0	0	n/a	n/a	0	0.4933823000010306	1.0	1726.2261676999997	1778.3316970000003	1779.3365065999997	1779.8941726999992	1781.4209101000006	1782.4297994	n/a	n/a	1783.4371892000008	1784.8279534999992	2019-12-13 19:13:23.027892	5.46892000614027	2.6385075890267	0.0	2.50757512596482	5.46892000614027	0.0	-5.46892000614027	2.6385075890267	0.0	5.46892000614027	0.0	-2.6385075890267	0.6074775539680246	2.9270897826355995	2.066313224561342	2.944678223749614	4.380402065416463	2.066313224561342	-1.798702286084216	3.5270964219729155	2.919618868004892	2.318364185771922	2.675038821425021	4	missed	0.0
58.60226749999856	6.308457500001168	nogo_reward	1.0	58.63248709999971	60.10109270000066	62.61790600000131	1.4686056000009557	59.63714869999944	61.605539000000135	63.6251228000001	0.46394400000122005	1.012367000001177	1.3158218000007764	n/a	1.0	n/a	2	0	70	1	nogo_reward	1	0	1	0	0	1	1	n/a	n/a	1	1.0	1.0	1726.2261676999997	1784.8586547999994	1785.8633163999991	1786.3272604000003	1787.8317066999998	1788.844073700001	n/a	n/a	1789.8512904999998	1791.1671123000006	2019-12-13 19:13:23.027892	-4.7401044290608	2.12882717713868	0.0	2.02477352872828	4.7401044290608	0.0	4.7401044290608	0.0	2.12882717713868	0.0	4.7401044290608	9.05315586249126	-9.601546881233045	2.4174093707475794	2.066313224561342	2.461876626513074	3.651586488336992	2.066313224561342	9.892961165433743	-1.9418235841673546	7.659723297065692	-0.3201434032547777	4.803865998563701	4	missed	0.0
64.9590575000002	6.759178999998767	nogo_punish	1.0	64.98927710000135	67.2670362000008	69.78248530000042	2.2777590999994572	65.9937129000009	68.7724515000009	70.78951930000039	1.2733232999999018	1.010033799999519	0.9589367999997194	n/a	1.0	n/a	2	0	71	3	nogo_punish	1	-1	0	0	0	1	0	n/a	n/a	0	1.0	1.0	1726.2261676999997	1791.215444800001	1792.2198806000006	1793.4932039000005	1794.9986192000006	1796.008653	n/a	n/a	1797.015687	1797.9746237999998	2019-12-13 19:13:23.027892	4.76016822673469	-6.88377660601838	-1.14971904051398	-1.6683390650357	-5.90988726724867	-1.14971904051398	-4.76016822673469	-1.14971904051398	-6.88377660601838	-1.14971904051398	-5.90988726724867	1.14971904051398	-0.10127422543755582	-6.59519441240948	0.9165941840473619	-1.231235967250906	-6.9984052079724774	0.9165941840473619	1.9895243434564645	-3.0915426246813347	-2.990268399243778	-1.4698624437687577	-4.2087377845933585	4	missed	0.0
71.76536729999862	7.208294100000558	go_reward	0.2473712000009982	71.79558689999976	74.40493900000001	76.95010060000118	2.609352100000251	72.79995260000032	75.94082050000043	77.95714980000025	1.6049863999996887	1.0092801000007512	1.0467312000000675	n/a	1.0	n/a	2	0	72	2	go_reward	0	0	1	1	1	1	0	n/a	n/a	0	0.2473712000009982	1.0	1726.2261676999997	1798.0217545999994	1799.0261203	1800.6311066999997	1802.1669882	1803.1762683000009	n/a	n/a	1804.1833175	1805.2300487	2019-12-13 19:13:23.027892	12.3267891475862	7.31118853007853	0.0	7.31118853007853	12.3267891475862	0.0	-12.3267891475862	7.31118853007853	0.0	12.3267891475862	0.0	-7.31118853007853	7.465346695413955	7.5997707236874295	2.066313224561342	7.748291627863324	11.238271206862393	2.066313224561342	-6.471383227136045	10.384965563418847	2.919618868004892	6.991045126823752	2.675038821425021	4	missed	0.0
79.01691400000004	6.7215481999992335	go_reward	0.2995222999998077	79.04713360000119	81.26381310000033	83.80598290000125	2.2166794999991453	80.05206460000022	82.79330170000003	84.81359890000022	1.2117485000001125	1.012681200001225	0.9550829000002068	n/a	1.0	n/a	2	0	73	2	go_reward	1	1	0	1	1	1	0	n/a	n/a	1	0.2995222999998077	1.0	1726.2261676999997	1805.2733013000009	1806.2782323	1807.4899808	1809.0194693999997	1810.032150600001	n/a	n/a	1811.0397666	1811.9948495	2019-12-13 19:13:23.027892	10.267776999717	5.89282240566614	0.0	5.89282240566614	10.267776999717	0.0	-10.267776999717	5.89282240566614	0.0	10.267776999717	0.0	3.1603334568251196	5.406334547544755	6.181404599275039	2.066313224561342	6.329925503450934	9.179259058993193	2.066313224561342	4.000138759767604	8.325953415549646	2.919618868004892	5.572679002411362	2.675038821425021	4	missed	0.0
85.78483469999992	6.746118899998919	go_reward	0.2612939999999071	85.81505430000107	87.81418850000023	90.35580300000038	1.9991341999991619	86.81976390000113	89.34307040000022	91.36274100000082	0.9944245999990926	1.012732600000163	1.1984321999991607	n/a	1.0	n/a	2	0	74	2	go_reward	1	1	0	1	1	1	1	n/a	n/a	1	0.2612939999999071	1.0	1726.2261676999997	1812.0412220000007	1813.0459316000008	1814.0403562	1815.5692381	1816.5819707	n/a	n/a	1817.5889087000005	1818.7873408999997	2019-12-13 19:13:23.027892	11.1436203944564	6.49675376418573	0.0	6.49675376418573	11.1436203944564	0.0	-11.1436203944564	6.49675376418573	0.0	11.1436203944564	0.0	2.5564020983055293	6.282177942284155	6.785335957794629	2.066313224561342	6.933856861970524	10.055102453732593	2.066313224561342	3.3962074012480135	9.201796810289046	2.919618868004892	6.176610360930952	2.675038821425021	4	missed	0.0
92.55615519999992	7.242096899999751	go_punish	0.2618316000007326	92.58637480000107	94.9394735000003	97.47788570000034	2.3530986999992365	93.59100570000032	96.46918560000063	98.4842540000011	1.3484677999999803	1.0087000999997144	1.3442176999997173	n/a	1.0	n/a	2	0	75	4	go_punish	1	0	-1	1	1	1	0	n/a	n/a	0	0.2618316000007326	1.0	1726.2261676999997	1818.8125425000007	1819.8171734	1821.1656412	1822.6953533000003	1823.7040534	n/a	n/a	1824.7104217000008	1826.0546394000005	2019-12-13 19:13:23.027892	2.71314089186076	-4.06811492519222	-6.88377660601838	-4.32446122779854	-4.17063571415761	-6.88377660601838	-2.71314089186076	-4.06811492519222	-6.88377660601838	-4.17063571415761	-6.88377660601838	4.06811492519222	-2.1483015603114857	-3.7795327315833207	-4.817463381457038	-3.8873581300137463	-5.259153654881418	-4.817463381457038	4.907920228134705	-6.112459298324965	-3.964157738013488	-4.388258328446998	-4.2087377845933585	4	missed	0.0
99.82548249999877	6.289660400001367	nogo_reward	0.4087118999996164	99.85570209999992	101.13269299999956	103.6696273	1.276990899999646	100.86069450000105	102.66075079999996	104.67640159999996	0.2719984999985172	1.0088765000000421	1.4689609000013206	n/a	1.0	n/a	2	0	76	1	nogo_reward	1	0	1	0	1	0	0	n/a	n/a	0	0.4087118999996164	1.0	1726.2261676999997	1826.0818697999996	1827.0868622000007	1827.3588606999992	1828.8869184999996	1829.8957949999997	n/a	n/a	1830.9025692999996	1832.371530200001	2019-12-13 19:13:23.027892	3.62828236022534	2.12882717713868	1.71474047075272	3.3592468211535	5.34302283097807	1.71474047075272	-3.62828236022534	2.12882717713868	1.71474047075272	5.34302283097807	1.71474047075272	-2.12882717713868	-1.233160091946906	2.4174093707475794	3.7810536953140623	3.796349918938294	4.254504890254262	3.7810536953140623	-1.2890218741961958	3.401199246810715	4.634359338757612	1.8086837738839023	4.389779292177741	4	missed	0.0
106.1431135999992	7.314571000000797	go_punish	0.3496893999999884	106.17333320000034	109.13674280000123	111.67599440000026	2.9634096000008867	107.17819430000031	110.66681670000071	112.68268290000037	1.9585485000009157	1.0091776999995545	0.8052213000007669	n/a	1.0	n/a	2	0	77	4	go_punish	1	0	-1	1	1	1	1	n/a	n/a	0	0.3496893999999884	1.0	1726.2261676999997	1832.3995009	1833.404362	1835.362910500001	1836.8929844000004	1837.9021621	n/a	n/a	1838.9088506	1839.7140719000008	2019-12-13 19:13:23.027892	4.05739347687082	-3.11995945420759	-6.88377660601838	-3.33652392240731	-2.82638312914755	-6.88377660601838	-4.05739347687082	-3.11995945420759	-6.88377660601838	-2.82638312914755	-6.88377660601838	3.11995945420759	-0.8040489753014253	-2.8313772605986904	-4.817463381457038	-2.899420824622516	-3.914901069871357	-4.817463381457038	3.959764757150074	-4.768206713314904	-3.964157738013488	-3.4401028574623678	-4.2087377845933585	4	missed	0.0
113.5354192999987	6.713132200000473	nogo_punish	1.0	113.56563889999984	115.2890595000008	117.80399410000064	1.7234206000009635	114.56919460000063	116.79464310000026	118.81068100000061	0.7198649000001751	1.009351000000379	1.4680900999996993	n/a	1.0	n/a	2	0	78	3	nogo_punish	1	-1	0	0	0	1	0	n/a	n/a	0	1.0	1.0	1726.2261676999997	1839.7918065999995	1840.7953623000003	1841.5152272000005	1843.0208108	1844.0301618000003	n/a	n/a	1845.0368487000003	1846.5049388	2019-12-13 19:13:23.027892	4.85356102635403	-6.88377660601838	-0.925776709792928	-1.35851624363431	-5.77933773614696	-0.925776709792928	-4.85356102635403	-0.925776709792928	-6.88377660601838	-0.925776709792928	-5.77933773614696	0.925776709792928	-0.007881425818215604	-6.59519441240948	1.1405365147684141	-0.921413145849516	-6.867855676870768	1.1405365147684141	1.7655820127354123	-2.8676002939602827	-2.8597188681420684	-1.2459201130477058	-4.2087377845933585	4	missed	0.0
120.27556839999875	5.897747200000367	nogo_reward	0.3759036999999807	120.3057879999999	121.73955349999983	124.28459529999986	1.4337654999999359	121.31064200000037	123.27052730000105	125.29155900000114	0.4289114999994581	1.0140679999988151	0.9119761999991169	n/a	1.0	n/a	2	0	79	1	nogo_reward	0	1	0	0	1	0	0	n/a	n/a	1	0.3759036999999807	1.0	1726.2261676999997	1846.5319556999996	1847.5368097	1847.9657211999995	1849.4966950000007	1850.5107629999995	n/a	n/a	1851.5177267000008	1852.4297029	2019-12-13 19:13:23.027892	2.92781709797948	1.72776591100718	1.71474047075272	2.69471836188723	4.64255756873221	1.71474047075272	-2.92781709797948	1.72776591100718	1.71474047075272	4.64255756873221	1.71474047075272	7.3253899514840795	-1.9336253541927655	2.016348104616079	3.7810536953140623	3.131821459672024	3.554039628008402	3.7810536953140623	8.165195254426564	2.700733984564855	4.634359338757612	1.4076225077524023	4.389779292177741	4	missed	0.0
126.20195449999869	7.109670800000458	go_punish	1.0	126.23217409999984	129.06452379999996	131.57890940000107	2.8323497000001225	127.23707440000021	130.5694715000011	132.58581640000034	1.8274493999997503	1.0094378999999662	0.7560284999999567	n/a	1.0	n/a	2	0	80	4	go_punish	0	-1	0	1	0	0	0	n/a	n/a	0	1.0	1.0	1726.2261676999997	1852.4583417999995	1853.4632421	1855.2906914999996	1856.7956392000008	1857.8050771000007	n/a	n/a	1858.8119841	1859.5680126	2019-12-13 19:13:23.027892	-5.04297845016896	-2.42894240747548	-6.88377660601838	-2.61239171572742	-1.84079815584942	-6.88377660601838	5.04297845016896	-6.88377660601838	-2.42894240747548	-6.88377660601838	-1.84079815584942	6.88377660601838	-9.904420902341204	-2.1403602138665807	-4.817463381457038	-2.175288617942626	-2.9293160965732277	-4.817463381457038	7.723581908960864	-8.825600190185733	1.0788207121554718	-7.2039200092731575	0.24609641394954096	4	missed	0.0
133.3359305999984	6.578128100001777	go_punish	1.0	133.36615019999954	135.1813297000008	137.69926169999985	1.8151795000012498	134.37040180000076	136.68576310000026	138.70577919999982	0.8109279000000242	1.0134985999995934	1.2384991000014907	n/a	1.0	n/a	2	0	81	4	go_punish	1	0	-1	1	0	0	0	n/a	n/a	-1	1.0	1.0	1726.2261676999997	1859.5923178999992	1860.5965695000004	1861.4074974000005	1862.9119308	1863.9254293999995	n/a	n/a	1864.9319468999995	1866.170446000001	2019-12-13 19:13:23.027892	-3.67508206991388	-2.42894240747548	-5.29255555907676	-2.06940197038701	-1.61747348916288	-5.29255555907676	3.67508206991388	-5.29255555907676	-2.42894240747548	-5.29255555907676	-1.61747348916288	-13.69035353257594	-8.536524522086125	-2.1403602138665807	-3.226242334515418	-1.6322988726022158	-2.705991429886687	-3.226242334515418	-12.850548229633457	-7.234379143244115	1.3021453788420119	-5.612698962331538	0.24609641394954096	4	missed	0.0
139.96050749999995	6.946494599999141	nogo_punish	1.0	139.9907271000011	141.95515069999988	144.46860279999987	1.9644235999987814	140.99490119999996	143.45942560000026	145.47521350000034	0.960249499999918	1.0091771999996126	1.4620081999999002	n/a	1.0	n/a	2	0	82	3	nogo_punish	1	-1	0	0	0	1	0	n/a	n/a	0	1.0	1.0	1726.2261676999997	1866.2168948000008	1867.2210688999996	1868.1813183999996	1869.6855933	1870.6947704999995	n/a	n/a	1871.7013812	1873.1633894	2019-12-13 19:13:23.027892	4.92501478646542	-6.88377660601838	-0.750239348088399	-1.1125428092935	-5.67525413455382	-0.750239348088399	-4.92501478646542	-0.750239348088399	-6.88377660601838	-0.750239348088399	-5.67525413455382	0.750239348088399	0.06357233429317422	-6.59519441240948	1.316073876472943	-0.675439711508706	-6.763772075277628	1.316073876472943	1.5900446510308832	-2.6920629322557534	-2.7556352665489285	-1.0703827513431767	-4.2087377845933585	4	missed	0.0
146.9548053000001	7.155619299999444	nogo_punish	1.0	146.98502490000124	149.40829029999986	151.92686380000123	2.423265399998627	147.98889780000036	150.9134169000008	152.93345270000123	1.4193924999995033	1.0134469000004174	1.2071914999994533	n/a	1.0	n/a	2	0	83	3	nogo_punish	0	0	-1	0	0	1	0	n/a	n/a	-1	1.0	1.0	1726.2261676999997	1873.211192600001	1874.2150655	1875.6344579999995	1877.1395846000005	1878.153031500001	n/a	n/a	1879.159620400001	1880.3668119000004	2019-12-13 19:13:23.027892	4.98022331079863	-6.88377660601838	-0.611469992290231	-0.915767765671669	-5.59169330308886	-0.611469992290231	-4.98022331079863	-0.611469992290231	-6.88377660601838	-0.611469992290231	-5.59169330308886	-18.37143909936247	0.11878085862638432	-6.59519441240948	1.4548432322711111	-0.478664667886875	-6.680211243812668	1.4548432322711111	-17.531633796419985	-2.5532935764575857	-2.6720744350839682	-0.9316133955450088	-4.2087377845933585	4	missed	0.0
154.13555029999952	6.428713899999366	go_punish	0.2752211999995779	154.16576990000067	155.6632075	158.20083580000028	1.49743759999933	155.17088119999994	157.1912611000007	159.21059270000114	0.49232630000005884	1.0095746999995754	1.3838910999988911	n/a	1.0	n/a	2	0	84	4	go_punish	1	0	-1	1	1	1	0	n/a	n/a	0	0.2752211999995779	1.0	1726.2261676999997	1880.3919376000003	1881.3970488999996	1881.8893751999997	1883.4174288000004	1884.4270035	n/a	n/a	1885.4367604000008	1886.8206514999997	2019-12-13 19:13:23.027892	4.9777596181289	-2.42894240747548	-8.02883641318643	-5.55792867651648	-3.05107679505753	-8.02883641318643	-4.9777596181289	-2.42894240747548	-8.02883641318643	-3.05107679505753	-8.02883641318643	2.42894240747548	0.1163171659566542	-2.1403602138665807	-5.962523188625087	-5.120825578731686	-4.139594735781338	-5.962523188625087	3.2687477104179643	-4.992900379224885	-5.109217545181537	-2.749085810730258	-5.353797591761408	4	missed	0.0
160.59173129999908	6.181600899999694	nogo_reward	0.3285969000007753	160.62195090000023	161.97579720000067	164.51336280000032	1.3538463000004413	161.62689669999986	163.50402210000038	165.52011930000117	0.3489005000008092	1.0093406999999388	1.283432499998753	n/a	1.0	n/a	2	0	85	1	nogo_reward	1	0	1	0	1	0	0	n/a	n/a	0	0.3285969000007753	1.0	1726.2261676999997	1886.8481186	1887.8530643999995	1888.2019649000003	1889.7301898	1890.7395305	n/a	n/a	1891.7462870000008	1893.0297194999996	2019-12-13 19:13:23.027892	4.86610456738984	3.12426070968123	1.71474047075272	3.89233925802779	6.58084503814256	1.71474047075272	-4.86610456738984	3.12426070968123	1.71474047075272	6.58084503814256	1.71474047075272	-3.12426070968123	0.004662115217594298	3.4128429032901293	3.7810536953140623	4.329442355812584	5.492327097418753	3.7810536953140623	-2.2844554067387457	4.6390214539752055	4.634359338757612	2.804117306426452	4.389779292177741	4	missed	0.0
166.80283950000012	7.5461278999989645	go_punish	0.2829450999997789	166.83305910000126	169.59446260000027	172.13621410000064	2.7614034999990054	167.83734300000106	171.1240596000007	173.14275840000118	1.7571195999992142	1.0121544999999514	1.2364285999990443	n/a	1.0	n/a	2	0	86	4	go_punish	0	-1	0	1	1	1	1	n/a	n/a	-1	0.2829450999997789	1.0	1726.2261676999997	1893.059226800001	1894.0635107000007	1895.8206303	1897.3502273000004	1898.3623818000003	n/a	n/a	1899.3689261000009	1900.6053547	2019-12-13 19:13:23.027892	5.99468107255218	-1.91360588919367	-8.02883641318643	-4.31542314989053	-2.03415534063425	-8.02883641318643	-5.99468107255218	-1.91360588919367	-8.02883641318643	-2.03415534063425	-8.02883641318643	-17.069303202459032	1.1332386203799345	-1.6250236955847706	-5.962523188625087	-3.878320052105736	-3.1226732813580576	-5.962523188625087	-16.22949789951655	-3.9759789248016046	-5.109217545181537	-2.2337492924484477	-5.353797591761408	4	missed	0.0
174.4149938999999	7.181507399998964	nogo_punish	1.0	174.44521350000105	176.86540740000032	179.37782830000106	2.4201938999992763	175.4498960000003	178.36980220000078	180.3848214000011	1.415511400000014	1.0080261000002793	1.2418994999989081	n/a	1.0	n/a	2	0	87	3	nogo_punish	1	-1	0	0	0	1	0	n/a	n/a	0	1.0	1.0	1726.2261676999997	1900.6713812000007	1901.6760637	1903.0915751	1904.5959699000005	1905.6039960000007	n/a	n/a	1906.6109891000008	1907.8528885999997	2019-12-13 19:13:23.027892	2.72587987025119	-6.88377660601838	-4.40379986585416	-4.66014616846048	-7.12967973610535	-4.40379986585416	-2.72587987025119	-4.40379986585416	-6.88377660601838	-4.40379986585416	-7.12967973610535	4.40379986585416	-2.1355625819210555	-6.59519441240948	-2.337486641292818	-4.223043070675686	-8.218197676829158	-2.337486641292818	5.243605168796645	-6.345623450021515	-4.2100608681004585	-4.723943269108938	-4.2087377845933585	4	missed	0.0
181.64324010000018	6.99845809999897	go_reward	0.2641534000013052	181.67345970000133	183.7183722000011	186.26100810000025	2.044912499999782	182.6777488000007	185.24784200000067	187.26733400000035	1.0406234000004133	1.0131660999995802	1.4045837999999549	n/a	1.0	n/a	2	0	88	2	go_reward	1	1	0	1	1	1	0	n/a	n/a	1	0.2641534000013052	1.0	1726.2261676999997	1907.899627400001	1908.9039165000004	1909.9445399000008	1911.4740097000004	1912.4871758	n/a	n/a	1913.4935017	1914.8980855	2019-12-13 19:13:23.027892	11.8310731810678	6.96994615267048	0.0	6.96994615267048	11.8310731810678	0.0	-11.8310731810678	6.96994615267048	0.0	11.8310731810678	0.0	2.083209709820779	6.969630728895555	7.2585283462793795	2.066313224561342	7.407049250455274	10.742555240343993	2.066313224561342	2.9230150127632633	9.889249596900447	2.919618868004892	6.649802749415702	2.675038821425021	4	missed	0.0
188.67538280000008	6.3012404999990395	nogo_reward	1.0	188.70560240000123	190.55476889999954	193.07192550000036	1.8491664999983186	189.71013870000024	192.05893090000063	194.0789457000012	0.8446301999993011	1.012994599999729	0.9278971999990517	n/a	1.0	n/a	2	0	89	1	nogo_reward	1	0	1	0	0	1	0	n/a	n/a	1	1.0	1.0	1726.2261676999997	1914.931770100001	1915.9363064	1916.7809365999992	1918.2850986000003	1919.2980932	n/a	n/a	1920.305113400001	1921.2330106	2019-12-13 19:13:23.027892	-3.90256044951856	2.50740515287043	1.71474047075272	3.12277167774734	5.61730092027128	1.71474047075272	3.90256044951856	1.71474047075272	2.50740515287043	1.71474047075272	5.61730092027128	7.338415391738539	-8.764002901690805	2.7959873464793294	3.7810536953140623	3.5598747755321343	4.528782979547472	3.7810536953140623	8.178220694681023	-0.2270831134146345	8.536919788276172	1.3945970674979424	5.182443974295451	4	missed	0.0
195.00525419999917	7.72671810000088	nogo_reward	0.2722234000011667	195.03547380000032	197.80414060000112	200.34469410000042	2.7686668000008012	196.03969390000043	199.3341790000013	201.35164840000107	1.7644467000006898	1.010515099999111	1.4105435000001307	n/a	1.0	n/a	2	0	90	1	nogo_reward	1	0	1	0	1	0	0	n/a	n/a	0	0.2722234000011667	1.0	1726.2261676999997	1921.2616415	1922.2658616	1924.0303083000008	1925.560346700001	1926.5708618	n/a	n/a	1927.5778161000007	1928.9883596000009	2019-12-13 19:13:23.027892	3.05511255939428	2.50740515287043	3.06695767964901	4.2386078427685	6.12207023904329	3.06695767964901	-3.05511255939428	2.50740515287043	3.06695767964901	6.12207023904329	3.06695767964901	-2.50740515287043	-1.8063298927779656	2.7959873464793294	5.133270904210352	4.675710940553294	5.033552298319482	5.133270904210352	-1.6675998499279459	4.180246654875935	5.986576547653902	2.187261749615652	5.741996501074031	4	missed	0.0
202.80237859999966	6.260731399999486	nogo_punish	1.0	202.8325982000008	204.1801656000007	206.69806070000027	1.347567399999889	203.8372625000011	205.68548510000073	207.70485399999984	0.342903099999603	1.0125755999995363	1.3884756000004472	n/a	1.0	n/a	2	0	91	3	nogo_punish	0	0	-1	0	0	1	0	n/a	n/a	-1	1.0	1.0	1726.2261676999997	1929.0587659000005	1930.0634302000008	1930.4063333000004	1931.9116528000004	1932.9242284	n/a	n/a	1933.9310216999995	1935.3194973	2019-12-13 19:13:23.027892	3.31392058759619	-6.88377660601838	-3.39326127543047	-3.60982574363019	-6.70718186302666	-3.39326127543047	-3.31392058759619	-3.39326127543047	-6.88377660601838	-3.39326127543047	-6.70718186302666	-15.58964781622223	-1.5475218645760558	-6.59519441240948	-1.3269480508691278	-3.172722645845396	-7.795699803750468	-1.3269480508691278	-14.749842513279747	-5.335084859597824	-3.7875629950217684	-3.7134046786852477	-4.2087377845933585	4	missed	0.0
209.18011159999924	6.4504157000008036	go_reward	0.2339794999988953	209.21033120000038	210.90158359999987	213.4446621999998	1.6912523999994846	210.21474010000043	212.43203139999991	214.45140940000033	0.6868434999994406	1.0126307999998971	1.2093375000008564	n/a	1.0	n/a	2	0	92	2	go_reward	1	1	0	1	1	1	0	n/a	n/a	1	0.2339794999988953	1.0	1726.2261676999997	1935.4364989	1936.4409078	1937.1277512999995	1938.6581990999996	1939.6708298999995	n/a	n/a	1940.6775771	1941.8869146000009	2019-12-13 19:13:23.027892	12.3767736830299	7.34511375706121	0.0	7.34511375706121	12.3767736830299	0.0	-12.3767736830299	7.34511375706121	0.0	12.3767736830299	0.0	1.7080421054300494	7.515331230857654	7.633695950670109	2.066313224561342	7.782216854846004	11.288255742306092	2.066313224561342	2.5478474083725335	10.434950098862545	2.919618868004892	7.024970353806432	2.675038821425021	4	missed	0.0
215.6552116999992	6.600464200000715	go_punish	0.4083009000005404	215.68543130000035	217.2539899000003	219.79349900000125	1.5685585999999603	216.69023329999982	218.7846683000007	220.80075779999993	0.5637566000004881	1.0088307000005443	1.4851377000011325	n/a	1.0	n/a	2	0	93	4	go_punish	1	0	-1	1	1	1	0	n/a	n/a	0	0.4083009000005404	1.0	1726.2261676999997	1941.911599	1942.9164009999995	1943.4801576	1945.0108360000004	1946.019666700001	n/a	n/a	1947.0269254999996	1948.5120632000007	2019-12-13 19:13:23.027892	1.25383402763246	-5.42529416231983	-8.02883641318643	-7.29808910888919	-6.77500238555397	-8.02883641318643	-1.25383402763246	-5.42529416231983	-8.02883641318643	-6.77500238555397	-8.02883641318643	5.42529416231983	-3.6076084245397855	-5.13671196871093	-5.962523188625087	-6.860986011104396	-7.8635203262777775	-5.962523188625087	6.265099465262314	-8.716825969721324	-5.109217545181537	-5.7454375655746075	-5.353797591761408	4	missed	0.0
222.3128364999991	6.70249920000083	go_reward	0.3743268000016542	222.34305610000024	224.10807500000033	226.65184500000032	1.7650189000000864	223.3472062000003	225.63845849999984	227.66057639999985	0.7608688000000257	1.013386500000479	1.3849789000012152	n/a	1.0	n/a	2	0	94	2	go_reward	1	1	0	1	1	1	1	n/a	n/a	1	0.3743268000016542	1.0	1726.2261676999997	1948.5692238	1949.5733739	1950.3342427	1951.8646261999995	1952.8780127	n/a	n/a	1953.8867440999995	1955.2717230000007	2019-12-13 19:13:23.027892	12.8138368873994	7.6453448603203	0.0	7.6453448603203	12.8138368873994	0.0	-12.8138368873994	7.6453448603203	0.0	12.8138368873994	0.0	1.4078110021709591	7.952394435227155	7.9339270539291995	2.066313224561342	8.082447958105094	11.725318946675593	2.066313224561342	2.2476163051134432	10.872013303232047	2.919618868004892	7.325201457065522	2.675038821425021	4	missed	0.0
229.08873049999966	6.362700899999481	nogo_punish	1.0	229.1189501000008	230.76803780000023	233.28534380000042	1.649087699999427	230.12341670000023	232.27390170000035	234.29200950000063	0.6446210999999948	1.0114421000000675	1.1896414999996523	n/a	1.0	n/a	2	0	95	3	nogo_punish	1	-1	0	0	0	1	0	n/a	n/a	0	1.0	1.0	1726.2261676999997	1955.3451178000005	1956.3495844	1956.9942055	1958.5000694	1959.5115115	n/a	n/a	1960.5181772000003	1961.7078187	2019-12-13 19:13:23.027892	1.44162719149791	-6.88377660601838	-6.55535582617358	-6.73880513442552	-7.99698301767149	-6.55535582617358	-1.44162719149791	-6.55535582617358	-6.88377660601838	-6.55535582617358	-7.99698301767149	6.55535582617358	-3.4198152606743357	-6.59519441240948	-4.489042601612238	-6.301702036640726	-9.085500958395297	-4.489042601612238	7.395161129116064	-8.497179410340934	-5.077364149666598	-6.875499229428358	-4.2087377845933585	4	missed	0.0
235.4847844999988	7.355268600000272	nogo_reward	0.2722912000008364	235.51500409999994	238.05545580000035	240.59416890000102	2.5404517000004034	236.52018610000027	239.58488100000068	241.6015571999999	1.5352697000000717	1.009287900000345	1.2687155000003258	n/a	1.0	n/a	2	0	96	1	nogo_reward	1	0	1	0	1	0	0	n/a	n/a	0	0.2722912000008364	1.0	1726.2261676999997	1961.7411717999996	1962.7463538	1964.2816235	1965.8110487000004	1966.8203366000007	n/a	n/a	1967.8277248999996	1969.0964404	2019-12-13 19:13:23.027892	2.19906692083569	2.0273201407311	3.06695767964901	3.40464018776005	5.2660246004847	3.06695767964901	-2.19906692083569	2.0273201407311	3.06695767964901	5.2660246004847	3.06695767964901	-2.0273201407311	-2.6623755313365556	2.3159023343399996	5.133270904210352	3.841743285544844	4.177506659760892	5.133270904210352	-1.187514837788616	3.324201016317345	5.986576547653902	1.7071767374763225	5.741996501074031	4	missed	0.0
242.87338099999965	6.321295800000371	nogo_reward	0.4805825000003096	242.9036006000008	244.22281150000003	246.76136740000038	1.3192108999992342	243.90849300000082	245.75237840000023	247.76817470000083	0.31431849999921724	1.008989000000156	1.4567217000003438	n/a	1.0	n/a	2	0	97	1	nogo_reward	1	0	1	0	1	0	0	n/a	n/a	0	0.4805825000003096	1.0	1726.2261676999997	1969.1297683000005	1970.1346607000005	1970.4489791999997	1971.9785461	1972.9875351	n/a	n/a	1973.9943424000005	1975.4510641000008	2019-12-13 19:13:23.027892	1.52634372106288	1.64930344887449	3.06695767964901	2.75455791335583	4.59330140071189	3.06695767964901	-1.52634372106288	1.64930344887449	3.06695767964901	4.59330140071189	3.06695767964901	-1.64930344887449	-3.3350987311093654	1.9378856424833895	5.133270904210352	3.191661011140624	3.504783459988082	5.133270904210352	-0.8094981459320058	2.651477816544535	5.986576547653902	1.3291600456197123	5.741996501074031	4	missed	0.0
249.22541029999957	6.418456999999535	go_punish	0.3594806000000972	249.2556299000007	250.64602639999998	253.18562860000043	1.3903964999992695	250.25912540000036	252.17592280000122	254.19264750000025	0.38690099999962513	1.0097057999992103	1.4814393999999993	n/a	1.0	n/a	2	0	98	4	go_punish	1	0	-1	1	1	1	0	n/a	n/a	0	0.3594806000000972	1.0	1726.2261676999997	1975.4817976000004	1976.4852931	1976.8721940999997	1978.402090500001	1979.4117963	n/a	n/a	1980.4188152	1981.9002546	2019-12-13 19:13:23.027892	3.13183782906486	-4.20224343325637	-8.02883641318643	-5.68061911134793	-4.89699858412157	-8.02883641318643	-3.13183782906486	-4.20224343325637	-8.02883641318643	-4.89699858412157	-8.02883641318643	4.20224343325637	-1.7296046231073858	-3.91366123964747	-5.962523188625087	-5.243516013563136	-5.985516524845377	-5.962523188625087	5.042048736198854	-6.8388221682889245	-5.109217545181537	-4.5223868365111475	-5.353797591761408	4	missed	0.0
255.6727799999992	7.651465299999472	nogo_reward	0.2938197999992553	255.70299960000034	258.40866350000033	260.9512878000003	2.7056638999999905	256.7064859000004	259.93786090000003	261.9584408000012	1.7021775999999136	1.0134269000002405	1.3960240999986127	n/a	1.0	n/a	2	0	99	1	nogo_reward	0	1	0	0	1	0	1	n/a	n/a	1	0.2938197999992553	1.0	1726.2261676999997	1981.9291673	1982.9326536	1984.6348312	1986.1640285999997	1987.1774555	n/a	n/a	1988.1846085000009	1989.5806325999995	2019-12-13 19:13:23.027892	0.992717144670389	1.34889978292373	3.06695767964901	2.24212971318071	4.0596748243194	3.06695767964901	-0.992717144670389	1.34889978292373	3.06695767964901	4.0596748243194	3.06695767964901	7.7042560795675294	-3.868725307501857	1.6374819765326294	5.133270904210352	2.679232810965504	2.971156883595592	5.133270904210352	8.544061382510014	2.117851240152045	5.986576547653902	1.0287563796689523	5.741996501074031	4	missed	0.0
263.35247919999915	5.9942060999999285	nogo_reward	0.3009870999994746	263.3826988000003	264.9224217000012	267.46122130000026	1.5397229000009247	264.38748810000106	266.4517947000004	268.4673657000003	0.5349336000001585	1.0094265999998697	0.9095391999999265	n/a	1.0	n/a	2	0	100	1	nogo_reward	1	0	1	0	1	0	0	n/a	n/a	0	0.3009870999994746	1.0	1726.2261676999997	1989.6088665	1990.6136558000007	1991.148589400001	1992.6779624	1993.687389	n/a	n/a	1994.6935334	1995.6030726	2019-12-13 19:13:23.027892	3.05704965865071	2.82309688919094	3.06695767964901	3.54932585423911	6.12400733829972	3.06695767964901	-3.05704965865071	2.82309688919094	3.06695767964901	6.12400733829972	3.06695767964901	-2.82309688919094	-1.8043927935215356	3.1116790827998395	5.133270904210352	3.9864289520239042	5.035489397575913	5.133270904210352	-1.983291586248456	4.182183754132366	5.986576547653902	2.502953485936162	5.741996501074031	4	missed	0.0
269.3946347000001	7.305847399999038	go_reward	0.2462774999985413	269.42485430000124	271.94226010000034	274.48253790000126	2.5174057999990964	270.42909970000073	273.47042070000134	275.48845319999987	1.513160399999606	1.0121171999999206	1.2422485000004144	n/a	1.0	n/a	2	0	101	2	go_reward	1	1	0	1	1	1	0	n/a	n/a	1	0.2462774999985413	1.0	1726.2261676999997	1995.651022000001	1996.6552674000004	1998.1684278	1999.696588400001	2000.708705600001	n/a	n/a	2001.7146208999995	2002.9568694	2019-12-13 19:13:23.027892	13.1664762974275	7.88744765840885	0.0	7.88744765840885	13.1664762974275	0.0	-13.1664762974275	7.88744765840885	0.0	13.1664762974275	0.0	1.1657082040824092	8.305033845255256	8.176029852017749	2.066313224561342	8.324550756193643	12.077958356703693	2.066313224561342	2.0055135070248933	11.224652713260147	2.919618868004892	7.567304255154072	2.675038821425021	4	missed	0.0
276.7457197999993	7.600104900000588	nogo_punish	1.0	276.7759394000004	279.50666140000067	282.01944960000037	2.7307220000002417	277.7804552	281.01121390000117	283.02623080000035	1.7262062000006608	1.0082356999992044	1.3498135000006641	n/a	1.0	n/a	2	0	102	3	nogo_punish	1	-1	0	0	0	1	0	n/a	n/a	0	1.0	1.0	1726.2261676999997	2003.0021071	2004.0066228999997	2005.7328291000003	2007.2373816000008	2008.2456173	n/a	n/a	2009.2523985	2010.6022120000007	2019-12-13 19:13:23.027892	2.31080754621452	-6.88377660601838	-5.07819792340564	-5.23399400459898	-7.38900546962016	-5.07819792340564	-2.31080754621452	-5.07819792340564	-6.88377660601838	-5.07819792340564	-7.38900546962016	5.07819792340564	-2.550634905957726	-6.59519441240948	-3.011884698844298	-4.796890906814186	-8.477523410343967	-3.011884698844298	5.918003226348125	-7.020021507572995	-4.469386601615268	-5.398341326660418	-4.2087377845933585	4	missed	0.0
284.37660030000006	5.766098399999464	nogo_reward	0.4188260000009904	284.4068199000012	285.8735790000012	288.4119598	1.4667590999999902	285.41036290000034	287.4023792000007	289.4190037999999	0.46321610000086366	1.0095805999992535	0.7539145000007466	n/a	1.0	n/a	2	0	103	1	nogo_reward	1	0	1	0	1	0	0	n/a	n/a	0	0.4188260000009904	1.0	1726.2261676999997	2010.632987600001	2011.6365306	2012.0997467000009	2013.6285469000004	2014.6381274999997	n/a	n/a	2015.6451714999996	2016.3990860000004	2019-12-13 19:13:23.027892	2.18987800548684	2.26671949268792	3.06695767964901	2.86026399691133	5.25683568513585	3.06695767964901	-2.18987800548684	2.26671949268792	3.06695767964901	5.25683568513585	3.06695767964901	-2.26671949268792	-2.6715644466854056	2.5553016862968194	5.133270904210352	3.297367094696124	4.168317744412042	5.133270904210352	-1.4269141897454358	3.315012100968495	5.986576547653902	1.9465760894331423	5.741996501074031	4	missed	0.0
290.19190919999915	6.152940800000351	go_reward	0.2552782999991905	290.2221288000003	291.7822785999999	294.3247756000003	1.5601497999996354	291.2264931000011	293.3107332000004	295.3317749	0.5557854999988194	1.0140423999998802	1.0432947000006152	n/a	1.0	n/a	2	0	104	2	go_reward	1	1	0	1	1	1	0	n/a	n/a	1	0.2552782999991905	1.0	1726.2261676999997	2016.4482965	2017.4526608000008	2018.0084462999996	2019.5369009	2020.5509433	n/a	n/a	2021.5579425999997	2022.6012373000003	2019-12-13 19:13:23.027892	13.4527833144474	8.08393965561908	0.0	8.08393965561908	13.4527833144474	0.0	-13.4527833144474	8.08393965561908	0.0	13.4527833144474	0.0	0.9692162068721792	8.591340862275153	8.37252184922798	2.066313224561342	8.521042753403874	12.364265373723592	2.066313224561342	1.8090215098146634	11.510959730280046	2.919618868004892	7.763796252364302	2.675038821425021	4	missed	0.0
296.46072829999866	5.807592100000193	nogo_punish	1.0	296.4909478999998	297.82485199999996	300.33949640000037	1.3339041000001544	297.49623860000065	299.32969930000036	301.34547060000114	0.3286133999993126	1.0097971000000143	0.9530693999988671	n/a	1.0	n/a	2	0	105	3	nogo_punish	1	-1	0	0	0	1	0	n/a	n/a	0	1.0	1.0	1726.2261676999997	2022.7171155999995	2023.7224063000003	2024.0510196999996	2025.555867	2026.5656641	n/a	n/a	2027.5716383000008	2028.5247076999997	2019-12-13 19:13:23.027892	2.94689635095897	-6.88377660601838	-3.9855758187374	-4.11821033293405	-6.93247216969636	-3.9855758187374	-2.94689635095897	-3.9855758187374	-6.88377660601838	-3.9855758187374	-6.93247216969636	3.9855758187374	-1.9145461012132756	-6.59519441240948	-1.919262594176058	-3.6811072351492555	-8.020990110420167	-1.919262594176058	4.825381121679884	-5.927399402904754	-4.012853301691468	-4.305719221992177	-4.2087377845933585	4	missed	0.0
302.3117901999997	6.559725200000457	go_reward	0.3255872999998246	302.3420098000008	304.00589860000036	306.5461883000007	1.6638887999995404	303.3466034000012	305.5343432000011	307.5525232000002	0.6592951999991783	1.0118450999996185	1.3492118000010578	n/a	1.0	n/a	2	0	106	2	go_reward	1	1	0	1	1	1	1	n/a	n/a	1	0.3255872999998246	1.0	1726.2261676999997	2028.5681775000005	2029.5727711000009	2030.2320663	2031.7605109000008	2032.7723560000004	n/a	n/a	2033.7786909	2035.127902700001	2019-12-13 19:13:23.027892	13.6865011939068	8.24430633770245	0.0	8.24430633770245	13.6865011939068	0.0	-13.6865011939068	8.24430633770245	0.0	13.6865011939068	0.0	0.8088495247888083	8.825058741734555	8.53288853131135	2.066313224561342	8.681409435487245	12.597983253182992	2.066313224561342	1.6486548277312925	11.744677609739446	2.919618868004892	7.924162934447673	2.675038821425021	4	missed	0.0
308.92091499999924	7.062213200000315	nogo_punish	1.0	308.9511346000004	311.28145210000025	313.7948503000007	2.3303174999998646	309.95532810000077	312.78610810000123	314.8016922000006	1.3261239999994814	1.0087421999994604	1.2116556000000855	n/a	1.0	n/a	2	0	107	3	nogo_punish	1	-1	0	0	0	1	1	n/a	n/a	0	1.0	1.0	1726.2261676999997	2035.1773023	2036.1814958000004	2037.5076198	2039.012275800001	2040.0210180000004	n/a	n/a	2041.0278599000003	2042.2395155000004	2019-12-13 19:13:23.027892	3.42270227285244	-6.88377660601838	-3.16111245193791	-3.27429216857207	-6.58381472479034	-3.16111245193791	-3.42270227285244	-3.16111245193791	-6.88377660601838	-3.16111245193791	-6.58381472479034	3.16111245193791	-1.4387401793198058	-6.59519441240948	-1.0947992273765679	-2.837189070787276	-7.672332665514148	-1.0947992273765679	4.000917754880394	-5.102936036105264	-3.6641958567854482	-3.4812558551926878	-4.2087377845933585	4	missed	0.0
316.0142840999995	7.325823400000672	nogo_reward	0.300247400000444	316.04450370000063	318.8012990999998	321.3424955000012	2.7567953999991914	317.0488968999998	320.3298938000007	322.35005509999974	1.752402200000006	1.0126017000004595	1.0202720000015688	n/a	1.0	n/a	2	0	108	1	nogo_reward	0	1	0	0	1	0	0	n/a	n/a	1	0.300247400000444	1.0	1726.2261676999997	2042.2706714000003	2043.2750645999995	2045.0274667999995	2046.5560615000004	2047.5686632000009	n/a	n/a	2048.5762227999994	2049.596494800001	2019-12-13 19:13:23.027892	1.51281681116239	1.83404335519895	3.06695767964901	2.32139648394817	4.5797744908114	3.06695767964901	-1.51281681116239	1.83404335519895	3.06695767964901	4.5797744908114	3.06695767964901	7.2191125072923095	-3.3486256410098556	2.122625548807849	5.133270904210352	2.758499581732964	3.4912565500875923	5.133270904210352	8.058917810234794	2.637950906644045	5.986576547653902	1.5138999519441723	5.741996501074031	4	missed	0.0
323.38608419999946	6.037799699999596	nogo_punish	1.0	323.4163038000006	324.7746911000013	327.28889510000045	1.358387300000686	324.4206167000011	326.27953610000077	328.2959056000004	0.3540744000001723	1.0093589999996766	1.1581978999997773	n/a	1.0	n/a	2	0	109	3	nogo_punish	1	-1	0	0	0	1	1	n/a	n/a	0	1.0	1.0	1726.2261676999997	2049.6424715000003	2050.646784400001	2051.000858800001	2052.5057038000004	2053.5150628	n/a	n/a	2054.5220733	2055.6802712	2019-12-13 19:13:23.027892	3.78466750841665	-6.88377660601838	-2.52928491811866	-2.62607905196691	-6.31395242653531	-2.52928491811866	-3.78466750841665	-2.52928491811866	-6.88377660601838	-2.52928491811866	-6.31395242653531	2.52928491811866	-1.0767749437555958	-6.59519441240948	-0.4629716935573178	-2.188975954182116	-7.4024703672591174	-0.4629716935573178	3.369090221061144	-4.471108502286015	-3.394333558530418	-2.8494283213734377	-4.2087377845933585	4	missed	0.0
329.45113459999993	6.904288399999132	go_punish	0.3043421000002126	329.4813542000011	331.9482913000011	334.48608989999957	2.4669370999999956	330.48569690000113	333.4762453000003	335.4930728000004	1.4625943999999436	1.0098445999992691	0.8925697999998192	n/a	1.0	n/a	2	0	110	4	go_punish	1	0	-1	1	1	1	0	n/a	n/a	0	0.3043421000002126	1.0	1726.2261676999997	2055.7075219000008	2056.711864600001	2058.1744590000008	2059.702413	2060.7122575999992	n/a	n/a	2061.7192405	2062.6118103	2019-12-13 19:13:23.027892	4.52888395669933	-3.29844239032394	-8.02883641318643	-4.47724141404031	-3.4999524564871	-8.02883641318643	-4.52888395669933	-3.29844239032394	-8.02883641318643	-3.4999524564871	-8.02883641318643	3.29844239032394	-0.3325584954729157	-3.0098601967150405	-5.962523188625087	-4.040138316255516	-4.588470397210908	-5.962523188625087	4.1382476932664245	-5.441776040654455	-5.109217545181537	-3.618585793578718	-5.353797591761408	4	missed	0.0
336.4005272999989	6.678667100000439	go_reward	0.3117253000000346	336.43074690000003	338.59979720000047	341.13997910000035	2.1690503000004355	337.43576120000034	340.1282327000008	342.147317500001	1.1640360000001237	1.011746399999538	0.9620964999994612	n/a	1.0	n/a	2	0	111	2	go_reward	1	1	0	1	1	1	0	n/a	n/a	1	0.3117253000000346	1.0	1726.2261676999997	2062.6569145999997	2063.6619289	2064.8259649	2066.3544004000005	2067.3661468	n/a	n/a	2068.3734852000007	2069.3355817	2019-12-13 19:13:23.027892	13.8782086851861	8.37583521072385	0.0	8.37583521072385	13.8782086851861	0.0	-13.8782086851861	8.37583521072385	0.0	13.8782086851861	0.0	0.6773206517674097	9.016766233013854	8.664417404332749	2.066313224561342	8.812938308508643	12.789690744462293	2.066313224561342	1.5171259547098939	11.936385101018747	2.919618868004892	8.055691807469072	2.675038821425021	4	missed	0.0
343.10504309999897	6.14894299999969	go_punish	0.3259922000015649	343.1352627000001	344.6376674000003	347.17509340000106	1.5024047000001701	344.1388633000006	346.16713660000096	348.1817683999998	0.49880409999968833	1.0079568000001018	1.1024373000000196	n/a	1.0	n/a	2	0	112	4	go_punish	1	0	-1	1	1	1	1	n/a	n/a	0	0.3259922000015649	1.0	1726.2261676999997	2069.3614304	2070.3650310000003	2070.8638351	2072.3933043000006	2073.4012611000007	n/a	n/a	2074.4079360999995	2075.5103733999995	2019-12-13 19:13:23.027892	5.58816143938591	-2.61673721266097	-8.02883641318643	-3.56463536097757	-2.44067497380052	-8.02883641318643	-5.58816143938591	-2.61673721266097	-8.02883641318643	-2.44067497380052	-8.02883641318643	2.61673721266097	0.7267189872136646	-2.3281550190520703	-5.962523188625087	-3.127532263192776	-3.5291929145243275	-5.962523188625087	3.456542515603454	-4.382498557967875	-5.109217545181537	-2.9368806159157477	-5.353797591761408	4	missed	0.0
349.28688949999923	6.539627900000141	go_punish	0.4425265999998373	349.3171091000004	351.29296320000003	353.83083780000015	1.9758540999996512	350.32078790000014	352.82129550000036	354.83795480000117	0.9721752999998898	1.0095422999997936	1.0187821999993503	n/a	1.0	n/a	2	0	113	4	go_punish	1	0	-1	1	1	1	0	n/a	n/a	0	0.4425265999998373	1.0	1726.2261676999997	2075.5432768	2076.5469556	2077.5191308999997	2079.0474632	2080.0570055	n/a	n/a	2081.064122500001	2082.0829047	2019-12-13 19:13:23.027892	6.40332919976215	-2.09436442011047	-8.02883641318643	-2.86215185157081	-1.62550721342428	-8.02883641318643	-6.40332919976215	-2.09436442011047	-8.02883641318643	-1.62550721342428	-8.02883641318643	2.09436442011047	1.5418867475899045	-1.8057822265015706	-5.962523188625087	-2.425048753786016	-2.7140251541480875	-5.962523188625087	2.934169723052954	-3.5673307975916346	-5.109217545181537	-2.414507823365248	-5.353797591761408	4	missed	0.0
355.9151038	6.207477299998573	go_reward	0.2453578000004199	355.94532340000114	357.6051122000008	360.1461169000013	1.6597887999996601	356.94900810000036	359.1329715000011	361.15246490000027	0.6561041000004479	1.0131454000002122	1.0003357999994478	n/a	1.0	n/a	2	0	114	2	go_reward	1	1	0	1	1	1	0	n/a	n/a	1	0.2453578000004199	1.0	1726.2261676999997	2082.171491100001	2083.1751758	2083.8312799000005	2085.3591392000008	2086.372284600001	n/a	n/a	2087.3786326	2088.3789683999994	2019-12-13 19:13:23.027892	14.0361370551959	8.4841883313651	0.0	8.4841883313651	14.0361370551959	0.0	-14.0361370551959	8.4841883313651	0.0	14.0361370551959	0.0	0.5689675311261588	9.174694603023653	8.772770524974	2.066313224561342	8.921291429149894	12.947619114472092	2.066313224561342	1.408772834068643	12.094313471028546	2.919618868004892	8.164044928110323	2.675038821425021	4	missed	0.0
362.14919599999894	6.245518700000957	go_punish	0.4713657000011153	362.1794156000001	364.0397248999998	366.5798251000001	1.8603092999996989	363.18357020000076	365.5702567999997	367.5868917000007	0.8561546999990242	1.00956830000041	0.8380426000003354	n/a	1.0	n/a	2	0	115	4	go_punish	1	0	-1	1	1	1	1	n/a	n/a	0	0.4713657000011153	1.0	1726.2261676999997	2088.4055832999998	2089.4097379000004	2090.2658925999995	2091.7964244999994	2092.8059928	n/a	n/a	2093.8130594000004	2094.6511020000007	2019-12-13 19:13:23.027892	7.03820191840691	-1.68897563906699	-8.02883641318643	-2.31485421742015	-0.990634494779524	-8.02883641318643	-7.03820191840691	-1.68897563906699	-8.02883641318643	-0.990634494779524	-8.02883641318643	1.68897563906699	2.176759466234664	-1.4003934454580906	-5.962523188625087	-1.8777511196353558	-2.0791524355033317	-5.962523188625087	2.5287809420094742	-2.932458078946879	-5.109217545181537	-2.009119042321768	-5.353797591761408	4	missed	0.0
368.4468717	6.204049399999349	nogo_punish	1.0	368.4770913000011	370.25803080000014	372.7716782000007	1.7809394999990218	369.48115230000076	371.76296360000015	373.7785354000007	0.7768784999993841	1.0087146000005305	0.9026052999997773	n/a	1.0	n/a	2	0	116	3	nogo_punish	1	-1	0	0	0	1	0	n/a	n/a	0	1.0	1.0	1726.2261676999997	2094.703259000001	2095.7073200000004	2096.4841985	2097.9891313	2098.9978459000004	n/a	n/a	2100.0047031000004	2100.9073084	2019-12-13 19:13:23.027892	4.06377717847398	-6.88377660601838	-2.0389938215086	-2.12195169889418	-6.10277099998258	-2.0389938215086	-4.06377717847398	-2.0389938215086	-6.88377660601838	-2.0389938215086	-6.10277099998258	2.0389938215086	-0.7976652736982661	-6.59519441240948	0.027319403052742164	-1.684848601109386	-7.191288940706388	0.027319403052742164	2.878799124451084	-3.980817405675954	-3.183152131977688	-2.3591372247633777	-4.2087377845933585	4	missed	0.0
374.6792796999998	6.1036742999990565	nogo_reward	0.5620448999998189	374.70949930000097	376.49350490000006	379.03449470000123	1.784005599999091	375.7145707000004	378.0215681999998	380.04063000000133	0.7789341999996395	1.012926500001413	0.7725435999986985	n/a	1.0	n/a	2	0	117	1	nogo_reward	0	1	0	0	1	0	0	n/a	n/a	1	0.5620448999998189	1.0	1726.2261676999997	2100.9356670000006	2101.9407384	2102.7196725999997	2104.2477358999995	2105.260662400001	n/a	n/a	2106.266797700001	2107.0393412999997	2019-12-13 19:13:23.027892	3.46908539588621	3.20816447070173	3.06695767964901	3.60999409401279	6.53604307553523	3.06695767964901	-3.46908539588621	3.20816447070173	3.06695767964901	6.53604307553523	3.06695767964901	5.844991391789529	-1.392357056286036	3.4967466643106295	5.133270904210352	4.047097191797584	5.447525134811422	5.133270904210352	6.684796694732014	4.594219491367875	5.986576547653902	2.888021067446952	5.741996501074031	4	missed	0.0
380.83023409999987	7.184814799999458	nogo_punish	1.0	380.860453700001	383.2971545000005	385.81559410000045	2.436700799999471	381.8647987000004	384.8024274000004	386.8219399999998	1.4323558000000958	1.0131667000000562	1.2233285000006617	n/a	1.0	n/a	2	0	118	3	nogo_punish	0	0	-1	0	0	1	1	n/a	n/a	-1	1.0	1.0	1726.2261676999997	2107.0866214000007	2108.0909664	2109.5233222	2111.0285951	2112.0417618	n/a	n/a	2113.0481076999995	2114.2714362	2019-12-13 19:13:23.027892	4.28141571220354	-6.88377660601838	-1.65455757178326	-1.72580302793771	-5.9359732839868	-1.65455757178326	-4.28141571220354	-1.65455757178326	-6.88377660601838	-1.65455757178326	-5.9359732839868	-17.32835151986944	-0.580026739968706	-6.59519441240948	0.4117556527780821	-1.2886999301529158	-7.024491224710608	0.4117556527780821	-16.488546216926956	-3.5963811559506143	-3.0163544159819082	-1.9747009750380375	-4.2087377845933585	4	missed	0.0
388.0666311999994	5.916987700000391	nogo_punish	1.0	388.09685080000054	389.51526590000003	392.0290266000011	1.4184150999994927	389.10154530000045	391.0194545000013	393.03674740000133	0.41372059999957855	1.0095720999997866	0.9770910999995976	n/a	1.0	n/a	2	0	119	3	nogo_punish	1	-1	0	0	0	1	0	n/a	n/a	0	1.0	1.0	1726.2261676999997	2114.3230185	2115.327713	2115.7414335999997	2117.245622200001	2118.2551943000008	n/a	n/a	2119.262915100001	2120.2400062000006	2019-12-13 19:13:23.027892	2.15536839121212	-6.88377660601838	-5.25329281244218	-5.3146002436587	-7.4086612036543	-5.25329281244218	-2.15536839121212	-5.25329281244218	-6.88377660601838	-5.25329281244218	-7.4086612036543	5.25329281244218	-2.7060740609601255	-6.59519441240948	-3.1869795878808382	-4.877497145873906	-8.497179144378107	-3.1869795878808382	6.093098115384665	-7.195116396609535	-4.489042335649408	-5.573436215696958	-4.2087377845933585	4	missed	0.0
394.0285581999997	7.440440500000477	nogo_punish	1.0	394.0587778000008	396.53602630000023	399.05304179999985	2.477248499999405	395.063355100001	398.04088900000033	400.05969709999954	1.4726711999992403	1.0121527999995124	1.4395212000017636	n/a	1.0	n/a	2	0	120	3	nogo_punish	0	0	-1	0	0	1	1	n/a	n/a	-1	1.0	1.0	1726.2261676999997	2120.2849455000005	2121.2895228000007	2122.762194	2124.2670567	2125.2792094999995	n/a	n/a	2126.285864799999	2127.725386000001	2019-12-13 19:13:23.027892	2.84559276855548	-6.88377660601838	-4.08892697747303	-4.1417828585327	-6.93451974602851	-4.08892697747303	-2.84559276855548	-4.08892697747303	-6.88377660601838	-4.08892697747303	-6.93451974602851	-14.893982114179671	-2.0158496836167656	-6.59519441240948	-2.0226137529116883	-3.704679760747906	-8.023037686752318	-2.0226137529116883	-14.054176811237188	-6.030750561640385	-4.014900878023618	-4.409070380727808	-4.2087377845933585	4	missed	0.0
