onset	duration	trial_type	response_time	cueOnset	targetOnset	fbOnset	cueRT	firstfixOnset	secondfixOnset	waitOnset	firstfixdur	secondfixdur	waitdur	nback_fbOnset	nback_response_time	nback_targetOnset	block	wm	trial	cue	cond	is_common	outcome_go	outcome_nogo	key_correct	key_pressed	is_correct	key_correct_nback	key_pressed_nback	is_correct_nback	outcome	rt	rt_nback	time_scan	time_onset	time_isi1	time_circle	time_isi2	time_feedback	time_same	time_correct	time_iti	time_done	timestamp_scan	DV	Qgo	Qnogo	SV	Wgo	Wnogo	mDV	Qchosen	Qunchosen	Wchosen	Wunchosen	PE	DVC	QgoC	QnogoC	SVC	WgoC	WnogoC	PEC	WchosenC	WunchosenC	QchosenC	QunchosenC	run	outcome_nback	nback_targetResp
0.0	7.902717799999664	go_reward	0.3156839000002946	0.07036859999971057	3.090505000000121	5.72265179999863	3.0201364000004105	1.0750236999992921	4.692683199999237	6.730801399999109	2.015481300000829	1.0299685999993926	1.2422850000002654	n/a	1.0	n/a	2	0	1	2	go_reward	1	1	0	1	1	1	0	n/a	n/a	1	0.3156839000002946	1.0	1253.7299656000005	1253.8003342000002	1254.8049892999998	1256.8204706000006	1258.4226487999997	1259.452617399999	n/a	n/a	1260.4607669999996	1261.7030519999998	2019-12-13 19:05:30.531981	1.68520941813457	0.0	0.0	0.0	1.68520941813457	0.0	-1.68520941813457	0.0	0.0	1.68520941813457	0.0	9.05315586249126	-3.1762330340376757	0.2885821936088995	2.066313224561342	0.43710309778479395	0.5966914774107626	2.066313224561342	9.892961165433743	-0.25661416603278453	2.919618868004892	-0.3201434032547777	2.675038821425021	3	missed	0.0
7.956319200000507	6.432586099999753	nogo_reward	0.6512846000005084	8.026687800000218	9.565912699999899	12.103359799999453	1.539224899999681	9.030623900000137	11.094017299999905	13.11006979999911	0.535288799999762	1.0093424999995477	1.3492041000008612	n/a	1.0	n/a	2	0	2	1	nogo_reward	1	0	1	0	1	0	0	n/a	n/a	0	0.6512846000005084	1.0	1253.7299656000005	1261.7566534000007	1262.7605895000006	1263.2958783000004	1264.8239829000004	1265.8333254	n/a	n/a	1266.8400353999996	1268.1892395000004	2019-12-13 19:05:30.531981	1.68520941813457	0.0	0.0	0.0	1.68520941813457	0.0	-1.68520941813457	0.0	0.0	1.68520941813457	0.0	0.0	-3.1762330340376757	0.2885821936088995	2.066313224561342	0.43710309778479395	0.5966914774107626	2.066313224561342	0.8398053029424842	-0.25661416603278453	2.919618868004892	-0.3201434032547777	2.675038821425021	3	missed	0.0
14.46643849999964	6.559989800000267	go_reward	0.2700896999995166	14.53680709999935	16.262980600000446	18.806233799999973	1.7261735000010958	15.541490500000009	17.792721300000267	19.813731199999893	0.7214901000004375	1.013512499999706	1.2830656999997245	n/a	1.0	n/a	2	0	3	2	go_reward	1	1	0	1	1	1	1	n/a	n/a	1	0.2700896999995166	1.0	1253.7299656000005	1268.2667726999998	1269.2714561000005	1269.992946200001	1271.5226869000007	1272.5361994000004	n/a	n/a	1273.5436968000004	1274.8267625	2019-12-13 19:05:30.531981	4.17609510926867	1.71474047075272	0.0	1.71474047075272	4.17609510926867	0.0	-4.17609510926867	1.71474047075272	0.0	4.17609510926867	0.0	7.338415391738539	-0.6853473429035759	2.0033226643616198	2.066313224561342	2.151843568537514	3.087577168544862	2.066313224561342	8.178220694681023	2.234271525101315	2.919618868004892	1.3945970674979424	2.675038821425021	3	missed	0.0
21.11967480000021	7.5538111999997	nogo_punish	0.2736251999995147	21.190043399999922	23.804518900000403	26.345152199999575	2.6144755000004807	22.194786699999895	25.33476309999969	27.35575599999902	1.6097322000005079	1.010389099999884	1.3880986000006033	n/a	1.0	n/a	2	0	4	3	nogo_punish	0	0	-1	0	1	0	0	n/a	n/a	0	0.2736251999995147	1.0	1253.7299656000005	1274.9200090000004	1275.9247523000004	1277.5344845000009	1279.0647287000002	1280.0751178	n/a	n/a	1281.0857215999995	1282.4738202	2019-12-13 19:05:30.531981	1.68520941813457	0.0	0.0	0.0	1.68520941813457	0.0	-1.68520941813457	0.0	0.0	1.68520941813457	0.0	0.0	-3.1762330340376757	0.2885821936088995	2.066313224561342	0.43710309778479395	0.5966914774107626	2.066313224561342	0.8398053029424842	-0.25661416603278453	2.919618868004892	-0.3201434032547777	2.675038821425021	3	missed	0.0
28.71504769999933	7.451349200000777	go_reward	0.2680142000008345	28.785416299999042	31.302227799998946	33.83992209999997	2.5168114999999034	29.789533299999448	32.83023519999915	34.845743899999434	1.5126944999994976	1.0096869000008155	1.3910216000003857	n/a	1.0	n/a	2	0	5	2	go_reward	0	0	1	1	1	1	1	n/a	n/a	0	0.2680142000008345	1.0	1253.7299656000005	1282.5153818999995	1283.5194989	1285.0321933999994	1286.5602007999996	1287.5698877000004	n/a	n/a	1288.5757095	1289.9667311000003	2019-12-13 19:05:30.531981	6.14299720198747	3.06695767964901	0.0	3.06695767964901	6.14299720198747	0.0	-6.14299720198747	3.06695767964901	0.0	6.14299720198747	0.0	-3.06695767964901	1.281554749815224	3.3555398732579094	2.066313224561342	3.504060777433804	5.054479261263662	2.066313224561342	-2.2271523767065258	4.201173617820115	2.919618868004892	2.746814276394232	2.675038821425021	3	missed	0.0
36.21047220000014	7.334121500000265	go_reward	0.2698806000007607	36.28084079999985	38.822361799999044	41.36551650000001	2.541520999999193	37.285152200000084	40.35253869999906	42.37295760000052	1.5372095999989597	1.0129778000009537	1.2420046999995975	n/a	1.0	n/a	2	0	6	2	go_reward	1	1	0	1	1	1	0	n/a	n/a	1	0.2698806000007607	1.0	1253.7299656000005	1290.0108064000003	1291.0151178000006	1292.5523273999995	1294.0825042999995	1295.0954821000005	n/a	n/a	1296.102923200001	1297.3449279000006	2019-12-13 19:05:30.531981	5.21962845054155	2.42885998623621	0.0	2.42885998623621	5.21962845054155	0.0	-5.21962845054155	2.42885998623621	0.0	5.21962845054155	0.0	6.624295876255049	0.3581859983693043	2.7174421798451096	2.066313224561342	2.865963084021004	4.131110509817742	2.066313224561342	7.464101179197534	3.277804866374195	2.919618868004892	2.1087165829814323	2.675038821425021	3	missed	0.0
43.58964510000078	7.504924799999344	nogo_punish	0.2920186999999714	43.66001370000049	46.230153299999074	48.77472879999914	2.5701395999985834	44.66458289999923	47.75918110000043	49.781833999999435	1.5655703999998423	1.0155476999987059	1.3831045000003996	n/a	1.0	n/a	2	0	7	3	nogo_punish	1	-1	0	0	1	0	0	n/a	n/a	-1	0.2920186999999714	1.0	1253.7299656000005	1297.389979300001	1298.3945484999997	1299.9601188999995	1301.489146700001	1302.5046943999996	n/a	n/a	1303.5117996	1304.8949041000003	2019-12-13 19:05:30.531981	1.68520941813457	0.0	0.0	0.0	1.68520941813457	0.0	-1.68520941813457	0.0	0.0	1.68520941813457	0.0	-18.9829090916527	-3.1762330340376757	0.2885821936088995	2.066313224561342	0.43710309778479395	0.5966914774107626	2.066313224561342	-18.143103788710217	-0.25661416603278453	2.919618868004892	-0.3201434032547777	2.675038821425021	3	missed	0.0
51.14375309999923	6.633435000001555	nogo_punish	0.3371999999999389	51.21412169999894	53.256057299999156	55.797165799998766	2.0419356000002153	52.219036499998765	54.78426260000015	56.80407340000056	1.0370208000003913	1.0129031999986182	1.0434832999999344	n/a	1.0	n/a	2	0	8	3	nogo_punish	1	-1	0	0	1	0	0	n/a	n/a	-1	0.3371999999999389	1.0	1253.7299656000005	1304.9440872999994	1305.9490020999992	1306.9860228999996	1308.5142282000006	1309.5271313999992	n/a	n/a	1310.534039000001	1311.577522300001	2019-12-13 19:05:30.531981	-3.82312831409215	-3.902852584717	0.0	-3.902852584717	-3.82312831409215	0.0	3.82312831409215	-3.902852584717	0.0	-3.82312831409215	0.0	-15.080056506935701	-8.684570766264397	-3.6142703911081004	2.066313224561342	-3.465749486932206	-4.911646254815958	2.066313224561342	-14.240251203993218	-5.764951898259505	2.919618868004892	-4.222995987971777	2.675038821425021	3	missed	0.0
57.83851499999946	6.800554200000988	go_reward	0.2562238999998953	57.90888359999917	60.2610939999995	62.800394800000504	2.352210400000331	58.91297889999987	61.79032840000036	63.80746779999936	1.3481150999996316	1.0100664000001416	0.9019700000008015	n/a	1.0	n/a	2	0	9	2	go_reward	0	0	1	1	1	1	0	n/a	n/a	0	0.2562238999998953	1.0	1253.7299656000005	1311.6388491999996	1312.6429445000003	1313.9910596	1315.5202940000008	1316.530360400001	n/a	n/a	1317.5374333999998	1318.4394034000006	2019-12-13 19:05:30.531981	7.00230234982629	3.65535323126564	0.0	3.65535323126564	7.00230234982629	0.0	-7.00230234982629	3.65535323126564	0.0	7.00230234982629	0.0	-3.65535323126564	2.1408598976540443	3.9439354248745393	2.066313224561342	4.092456329050433	5.913784409102482	2.066313224561342	-2.8155479283231557	5.060478765658935	2.919618868004892	3.335209828010862	2.675038821425021	3	missed	0.0
64.68375960000071	5.922484999998915	go_reward	0.4367566000000806	64.75412820000042	66.07450690000042	68.62285909999991	1.320378699999992	65.75785999999971	67.6045895999996	69.6301110000004	0.3166469000007055	1.018269500000315	1.0465021999989403	n/a	1.0	n/a	2	0	10	2	go_reward	1	1	0	1	1	1	0	n/a	n/a	1	0.4367566000000806	1.0	1253.7299656000005	1318.484093800001	1319.4878256000002	1319.8044725000009	1321.3345552	1322.3528247000004	n/a	n/a	1323.3600766000009	1324.4065787999998	2019-12-13 19:05:30.531981	5.92798209152228	2.91408202058307	0.0	2.91408202058307	5.92798209152228	0.0	-5.92798209152228	2.91408202058307	0.0	5.92798209152228	0.0	6.139073841908189	1.066539639350034	3.2026642141919694	2.066313224561342	3.351185118367864	4.839464150798472	2.066313224561342	6.978879144850674	3.986158507354925	2.919618868004892	2.593938617328292	2.675038821425021	3	missed	0.0
70.6453122999992	6.624526300000298	go_punish	0.2574936999990314	70.71568089999892	72.92977070000052	75.47130199999992	2.2140898000016023	71.71915719999924	74.4579991999999	76.47761700000046	1.2106135000012728	1.0133028000000195	0.8625901999987491	n/a	1.0	n/a	2	0	11	4	go_punish	0	-1	0	1	1	1	0	n/a	n/a	-1	0.2574936999990314	1.0	1253.7299656000005	1324.4456464999994	1325.4491227999997	1326.659736300001	1328.1879648000004	1329.2012676000004	n/a	n/a	1330.207582600001	1331.0701727999997	2019-12-13 19:05:30.531981	1.68520941813457	0.0	0.0	0.0	1.68520941813457	0.0	-1.68520941813457	0.0	0.0	1.68520941813457	0.0	-18.9829090916527	-3.1762330340376757	0.2885821936088995	2.066313224561342	0.43710309778479395	0.5966914774107626	2.066313224561342	-18.143103788710217	-0.25661416603278453	2.919618868004892	-0.3201434032547777	2.675038821425021	3	missed	0.0
77.33376479999993	6.438777600000094	go_reward	0.279636200000823	77.40413339999964	79.38065339999957	81.92398309999953	1.9765199999999368	78.40908469999863	80.91020659999958	82.93041379999863	0.9715687000009439	1.013776499999949	0.9124972000010985	n/a	1.0	n/a	2	0	12	2	go_reward	1	1	0	1	1	1	1	n/a	n/a	1	0.279636200000823	1.0	1253.7299656000005	1331.134099	1332.139050299999	1333.110619	1334.6401722	1335.6539487	n/a	n/a	1336.660379399999	1337.5728766000002	2019-12-13 19:05:30.531981	7.58736321314252	4.05624044205832	0.0	4.05624044205832	7.58736321314252	0.0	-7.58736321314252	4.05624044205832	0.0	7.58736321314252	0.0	4.99691542043294	2.7259207609702747	4.344822635667219	2.066313224561342	4.493343539843114	6.498845272418713	2.066313224561342	5.836720723375424	5.645539628975166	2.919618868004892	3.7360970388035417	2.675038821425021	3	missed	0.0
83.88188730000002	7.376141500000813	nogo_punish	1.0	83.95225589999973	86.78648699999962	89.3026417000001	2.834231099999897	84.95659340000043	88.29150749999985	90.30975289999878	1.8298935999991954	1.0111342000002423	1.0186445000017557	n/a	1.0	n/a	2	0	13	3	nogo_punish	1	-1	0	0	0	1	0	n/a	n/a	0	1.0	1.0	1253.7299656000005	1337.6822215000002	1338.686559000001	1340.5164526	1342.0214731000003	1343.0326073000006	n/a	n/a	1344.0397184999993	1345.058363000001	2019-12-13 19:05:30.531981	8.04186582587147	-6.88377660601838	0.0	-6.88377660601838	-8.04186582587147	0.0	-8.04186582587147	0.0	-6.88377660601838	0.0	-8.04186582587147	0.0	3.1804233736992247	-6.59519441240948	2.066313224561342	-6.4466735082335855	-9.130383766595278	2.066313224561342	0.8398053029424842	-1.9418235841673546	-5.122246957866579	-0.3201434032547777	-4.2087377845933585	3	missed	0.0
91.28876920000039	6.463131799999246	go_punish	1.0	91.3591378000001	92.82733859999985	95.34630169999946	1.4682007999997495	92.36312600000042	94.33210920000056	96.35331049999877	0.46421259999942777	1.0141924999988987	1.4689591000005748	n/a	1.0	n/a	2	0	14	4	go_punish	1	0	-1	1	0	0	0	n/a	n/a	-1	1.0	1.0	1253.7299656000005	1345.0891034000006	1346.093091600001	1346.5573042000003	1348.062074800001	1349.0762673	n/a	n/a	1350.0832760999992	1351.5522351999998	2019-12-13 19:05:30.531981	3.82312831409215	-3.902852584717	0.0	-3.902852584717	-3.82312831409215	0.0	-3.82312831409215	0.0	-3.902852584717	0.0	-3.82312831409215	-18.9829090916527	-1.0383141380800955	-3.6142703911081004	2.066313224561342	-3.465749486932206	-4.911646254815958	2.066313224561342	-18.143103788710217	-1.9418235841673546	-0.9035094460872584	-0.3201434032547777	-1.2278137632919788	3	missed	0.0
97.77983900000072	6.386402099999032	nogo_reward	0.2927435000001424	97.85020760000043	99.28362679999918	101.82589369999914	1.4334191999987524	98.8550135000005	100.81499680000002	102.83195849999902	0.4286132999986876	1.0108968999991248	1.404651200000444	n/a	1.0	n/a	2	0	15	1	nogo_reward	1	0	1	0	1	0	0	n/a	n/a	0	0.2927435000001424	1.0	1253.7299656000005	1351.580173200001	1352.584979100001	1353.0135923999997	1354.5449624000005	1355.5558592999996	n/a	n/a	1356.5619240999995	1357.9665753	2019-12-13 19:05:30.531981	1.68520941813457	0.0	0.0	0.0	1.68520941813457	0.0	-1.68520941813457	0.0	0.0	1.68520941813457	0.0	0.0	-3.1762330340376757	0.2885821936088995	2.066313224561342	0.43710309778479395	0.5966914774107626	2.066313224561342	0.8398053029424842	-0.25661416603278453	2.919618868004892	-0.3201434032547777	2.675038821425021	3	missed	0.0
104.1904840999996	6.43164969999998	go_punish	1.0	104.2608526999993	105.67856190000043	108.19582549999905	1.417709200001127	105.26556559999881	107.18339910000032	109.20266090000041	0.41299630000162324	1.0124263999987306	1.4898414999988745	n/a	1.0	n/a	2	0	16	4	go_punish	1	0	-1	1	0	0	1	n/a	n/a	-1	1.0	1.0	1253.7299656000005	1357.9908182999998	1358.9955311999993	1359.408527500001	1360.9133647000008	1361.9257910999995	n/a	n/a	1362.9326265000009	1364.4224679999998	2019-12-13 19:05:30.531981	1.15808921985309	-3.902852584717	-3.902852584717	-6.88377660601838	-5.06094180457009	-3.902852584717	-1.15808921985309	-3.902852584717	-3.902852584717	-3.902852584717	-5.06094180457009	-15.080056506935701	-3.703353232319156	-3.6142703911081004	-1.8365393601556579	-6.4466735082335855	-6.149459745293898	-1.8365393601556579	-14.240251203993218	-5.844676168884354	-2.1413229365651985	-4.222995987971777	-1.2278137632919788	3	missed	0.0
110.66851390000011	5.949891799999023	nogo_punish	1.0	110.73888249999982	112.39958149999984	114.91525860000002	1.6606990000000224	111.74354180000046	113.90371719999894	115.92288179999923	0.6560396999993827	1.0115414000010787	0.7658924999996088	n/a	1.0	n/a	2	0	17	3	nogo_punish	1	-1	0	0	0	1	0	n/a	n/a	0	1.0	1.0	1253.7299656000005	1364.4688481000003	1365.473507400001	1366.1295471000003	1367.6336827999994	1368.6452242000005	n/a	n/a	1369.6528473999997	1370.4187398999993	2019-12-13 19:05:30.531981	7.40326699505728	-6.88377660601838	0.0	-5.29255555907676	-7.40326699505728	0.0	-7.40326699505728	0.0	-6.88377660601838	0.0	-7.40326699505728	0.0	2.541824542885034	-6.59519441240948	2.066313224561342	-4.855452461291966	-8.491784935781087	2.066313224561342	0.8398053029424842	-1.9418235841673546	-4.483648127052388	-0.3201434032547777	-4.2087377845933585	3	missed	0.0
116.64723570000024	6.392464299999119	go_punish	0.3606708999996044	116.71760429999995	118.10857079999914	120.64719100000002	1.3909664999991946	117.72156539999924	119.63784540000051	121.65384379999864	0.38700539999990724	1.0093455999995058	1.4562248000004274	n/a	1.0	n/a	2	0	18	4	go_punish	1	0	-1	1	1	1	1	n/a	n/a	0	0.3606708999996044	1.0	1253.7299656000005	1370.4475699000004	1371.4515309999997	1371.8385363999996	1373.367811000001	1374.3771566000005	n/a	n/a	1375.383809399999	1376.8400341999995	2019-12-13 19:05:30.531981	0.855948484752757	-3.902852584717	-6.88377660601838	-9.19540814379375	-6.02782812126562	-6.88377660601838	-0.855948484752757	-3.902852584717	-6.88377660601838	-6.02782812126562	-6.88377660601838	3.902852584717	-4.005493967419489	-3.6142703911081004	-4.817463381457038	-8.758305046008957	-7.116346061989428	-4.817463381457038	4.742657887659484	-7.969651705432975	-3.964157738013488	-4.222995987971777	-4.2087377845933585	3	missed	0.0
123.10166480000044	6.470806999999695	go_reward	0.3728173999988939	123.17203340000015	124.82256399999983	127.36650980000013	1.6505305999996835	124.17660819999946	126.35325269999862	128.37339219999922	0.6459558000003653	1.0132571000015105	1.2694482000006246	n/a	1.0	n/a	2	0	19	2	go_reward	1	1	0	1	1	1	0	n/a	n/a	1	0.3728173999988939	1.0	1253.7299656000005	1376.9019990000006	1377.9065738	1378.5525296000003	1380.083218299999	1381.0964754000006	n/a	n/a	1382.1033577999997	1383.3728060000003	2019-12-13 19:05:30.531981	8.90322916909004	4.96079874531542	0.0	4.96079874531542	8.90322916909004	0.0	-8.90322916909004	4.96079874531542	0.0	8.90322916909004	0.0	4.0923571171758395	4.041786716917794	5.249380938924319	2.066313224561342	5.397901843100214	7.814711228366232	2.066313224561342	4.932162420118324	6.961405584922685	2.919618868004892	4.640655342060642	2.675038821425021	3	missed	0.0
129.61765849999938	6.116644900001347	go_reward	0.3553315999997721	129.6880270999991	131.03492189999997	133.57352119999996	1.3468948000008822	130.6924610999995	132.56327420000002	134.58100009999907	0.34246080000048096	1.0102469999999357	1.2236719000013636	n/a	1.0	n/a	2	0	20	2	go_reward	0	0	1	1	1	1	0	n/a	n/a	0	0.3553315999997721	1.0	1253.7299656000005	1383.4179926999996	1384.4224267	1384.7648875000004	1386.2932398000005	1387.3034868000004	n/a	n/a	1388.3109656999995	1389.534637600001	2019-12-13 19:05:30.531981	9.9562614048606	5.68405315897931	0.0	5.68405315897931	9.9562614048606	0.0	-9.9562614048606	5.68405315897931	0.0	9.9562614048606	0.0	-5.68405315897931	5.094818952688354	5.97263535258821	2.066313224561342	6.121156256764104	8.867743464136792	2.066313224561342	-4.844247856036826	8.014437820693246	2.919618868004892	5.363909755724532	2.675038821425021	3	missed	0.0
135.78500069999973	6.487089800000831	nogo_reward	0.2757277000000613	135.85536929999944	137.8195857999999	140.35892969999986	1.9642165000004752	136.8595091999996	139.34841020000044	141.3651864000003	0.9600766000003205	1.0105194999994183	0.9772726999999577	n/a	1.0	n/a	2	0	21	1	nogo_reward	1	0	1	0	1	0	0	n/a	n/a	0	0.2757277000000613	1.0	1253.7299656000005	1389.5853349	1390.5894748	1391.5495514000004	1393.078375800001	1394.0888953000003	n/a	n/a	1395.0951520000008	1396.0724247000007	2019-12-13 19:05:30.531981	1.68520941813457	0.0	0.0	0.0	1.68520941813457	0.0	-1.68520941813457	0.0	0.0	1.68520941813457	0.0	0.0	-3.1762330340376757	0.2885821936088995	2.066313224561342	0.43710309778479395	0.5966914774107626	2.066313224561342	0.8398053029424842	-0.25661416603278453	2.919618868004892	-0.3201434032547777	2.675038821425021	3	missed	0.0
142.29541020000033	7.183008500000369	go_punish	0.393335400000069	142.36577880000004	144.78798129999996	147.33055830000012	2.422202499999912	143.37026969999897	146.3186267000001	148.33788540000023	1.4177116000009846	1.0119316000000254	1.2109019000001808	n/a	1.0	n/a	2	0	22	4	go_punish	1	0	-1	1	1	1	0	n/a	n/a	0	0.393335400000069	1.0	1253.7299656000005	1396.0957444000005	1397.1002352999994	1398.5179469000004	1400.0485923000006	1401.0605239000006	n/a	n/a	1402.0678510000007	1403.2787529000009	2019-12-13 19:05:30.531981	2.62007684741734	-2.98092402130138	-6.88377660601838	-7.10690784977081	-4.26369975860103	-6.88377660601838	-2.62007684741734	-2.98092402130138	-6.88377660601838	-4.26369975860103	-6.88377660601838	2.98092402130138	-2.2413656047549058	-2.6923418276924806	-4.817463381457038	-6.669804751986016	-5.352217699324838	-4.817463381457038	3.8207293242438642	-6.205523342768385	-3.964157738013488	-3.301067424556158	-4.2087377845933585	3	missed	0.0
149.60143059999973	6.602094199999783	nogo_punish	1.0	149.67179919999944	151.59455789999993	154.10845879999943	1.922758700000486	150.67672270000003	153.0999469999988	155.1155421000003	0.9178351999998995	1.0085118000006332	1.1583512999989125	n/a	1.0	n/a	2	0	23	3	nogo_punish	1	-1	0	0	0	1	0	n/a	n/a	0	1.0	1.0	1253.7299656000005	1403.4017648	1404.4066883000005	1405.3245235000004	1406.8299125999993	1407.8384244	n/a	n/a	1408.8455077000008	1410.0038589999997	2019-12-13 19:05:30.531981	6.92873885284009	-6.88377660601838	0.0	-4.12598382846943	-6.92873885284009	0.0	-6.92873885284009	0.0	-6.88377660601838	0.0	-6.92873885284009	0.0	2.0672964006678445	-6.59519441240948	2.066313224561342	-3.6888807306846356	-8.017256793563897	2.066313224561342	0.8398053029424842	-1.9418235841673546	-4.009119984835198	-0.3201434032547777	-4.2087377845933585	3	missed	0.0
156.2342021000004	6.048770499999591	nogo_reward	0.3642765999993571	156.3045707000001	157.77587529999983	160.34930530000042	1.471304599999712	157.30924349999987	159.3410033	161.35658929999954	0.4666317999999592	1.0083020000004126	0.996751900000163	n/a	1.0	n/a	2	0	24	1	nogo_reward	1	0	1	0	1	0	0	n/a	n/a	0	0.3642765999993571	1.0	1253.7299656000005	1410.0345363000006	1411.0392091000003	1411.5058409000003	1413.0709689000005	1414.079270900001	n/a	n/a	1415.0865549	1416.0833068000002	2019-12-13 19:05:30.531981	1.68520941813457	0.0	0.0	0.0	1.68520941813457	0.0	-1.68520941813457	0.0	0.0	1.68520941813457	0.0	0.0	-3.1762330340376757	0.2885821936088995	2.066313224561342	0.43710309778479395	0.5966914774107626	2.066313224561342	0.8398053029424842	-0.25661416603278453	2.919618868004892	-0.3201434032547777	2.675038821425021	3	missed	0.0
162.30870180000056	6.3595639999985	nogo_reward	0.3704694999996718	162.37907040000027	163.8749241000005	166.4165353999997	1.4958537000002252	163.38337649999994	165.40618989999894	167.42355940000016	0.4915476000005583	1.010345500000767	1.3150749999986147	n/a	1.0	n/a	2	0	25	1	nogo_reward	1	0	1	0	1	0	0	n/a	n/a	0	0.3704694999996718	1.0	1253.7299656000005	1416.1090360000007	1417.1133421000004	1417.604889700001	1419.1361554999994	1420.1465010000002	n/a	n/a	1421.1535250000006	1422.4685999999992	2019-12-13 19:05:30.531981	1.68520941813457	0.0	0.0	0.0	1.68520941813457	0.0	-1.68520941813457	0.0	0.0	1.68520941813457	0.0	0.0	-3.1762330340376757	0.2885821936088995	2.066313224561342	0.43710309778479395	0.5966914774107626	2.066313224561342	0.8398053029424842	-0.25661416603278453	2.919618868004892	-0.3201434032547777	2.675038821425021	3	missed	0.0
168.7679186000007	6.940112799998815	nogo_punish	1.0	168.83828720000042	171.30523549999998	173.81904179999947	2.466948299999558	169.84251889999905	172.81061349999982	174.82574709999972	1.462716600000931	1.0084282999996503	0.9526528999995207	n/a	1.0	n/a	2	0	26	3	nogo_punish	1	-1	0	0	0	1	0	n/a	n/a	0	1.0	1.0	1253.7299656000005	1422.568252800001	1423.5724844999995	1425.0352011000004	1426.5405791000003	1427.5490074	n/a	n/a	1428.5557127000002	1429.5083655999997	2019-12-13 19:05:30.531981	6.5697610917146	-6.88377660601838	0.0	-3.25259815854456	-6.5697610917146	0.0	-6.5697610917146	0.0	-6.88377660601838	0.0	-6.5697610917146	0.0	1.7083186395423544	-6.59519441240948	2.066313224561342	-2.815495060759766	-7.658279032438408	2.066313224561342	0.8398053029424842	-1.9418235841673546	-3.6501422237097083	-0.3201434032547777	-4.2087377845933585	3	missed	0.0
175.73269900000014	6.420209500000055	go_punish	0.2491903000009188	175.80306759999985	177.46811239999988	180.00848269999915	1.6650448000000324	176.8074469000003	178.99945829999865	181.01536099999976	0.6606654999995953	1.0090244000004986	1.2079161000001477	n/a	1.0	n/a	2	0	27	4	go_punish	1	0	-1	1	1	1	0	n/a	n/a	0	0.2491903000009188	1.0	1253.7299656000005	1429.5330332000003	1430.5374125000008	1431.1980780000004	1432.7294238999991	1433.7384482999996	n/a	n/a	1434.7453266000002	1435.9532427000004	2019-12-13 19:05:30.531981	3.91927426585125	-2.31163153777538	-6.88377660601838	-5.56422969631994	-2.96450234016713	-6.88377660601838	-3.91927426585125	-2.31163153777538	-6.88377660601838	-2.96450234016713	-6.88377660601838	2.31163153777538	-0.9421681863209956	-2.0230493441664805	-4.817463381457038	-5.1271265985351455	-4.053020280890937	-4.817463381457038	3.151436840717864	-4.906325924334484	-3.964157738013488	-2.631774941030158	-4.2087377845933585	3	missed	0.0
182.22326480000083	7.348664199998893	nogo_punish	1.0	182.29363340000054	184.77129029999924	187.28589809999903	2.477656899998692	183.29784160000054	186.27644359999977	188.29266180000013	1.4734486999986984	1.009454499999265	1.3496357999993052	n/a	1.0	n/a	2	0	28	3	nogo_punish	1	-1	0	0	0	1	1	n/a	n/a	0	1.0	1.0	1253.7299656000005	1436.023599000001	1437.027807200001	1438.5012558999997	1440.0064092000002	1441.0158636999995	n/a	n/a	1442.0226274000006	1443.3722632	2019-12-13 19:05:30.531981	6.29432204621106	-6.88377660601838	0.0	-2.58796490836449	-6.29432204621106	0.0	-6.29432204621106	0.0	-6.88377660601838	0.0	-6.29432204621106	0.0	1.4328795940388144	-6.59519441240948	2.066313224561342	-2.1508618105796957	-7.382839986934868	2.066313224561342	0.8398053029424842	-1.9418235841673546	-3.3747031782061683	-0.3201434032547777	-4.2087377845933585	3	missed	0.0
189.5981599000006	6.313793100000112	go_punish	0.3015099000003829	189.66852850000032	191.48385659999985	194.0212608999991	1.8153280999995332	190.67300619999878	193.01241739999932	195.0277776999992	0.8108504000010726	1.0088434999997844	0.9545439000012266	n/a	1.0	n/a	2	0	29	4	go_punish	1	0	-1	1	1	1	1	n/a	n/a	0	0.3015099000003829	1.0	1253.7299656000005	1443.3984941000008	1444.4029717999992	1445.2138222000003	1446.7423829999998	1447.7512264999996	n/a	n/a	1448.7577432999997	1449.712287200001	2019-12-13 19:05:30.531981	4.89559352687088	-1.81435229069405	-6.88377660601838	-4.40231719905854	-1.98818307914749	-6.88377660601838	-4.89559352687088	-1.81435229069405	-6.88377660601838	-1.98818307914749	-6.88377660601838	1.81435229069405	0.03415107469863443	-1.5257700970851504	-4.817463381457038	-3.9652141012737463	-3.0767010198712974	-4.817463381457038	2.6541575936365343	-3.9300066633148445	-3.964157738013488	-2.1344956939488275	-4.2087377845933585	3	missed	0.0
195.94120269999985	6.6167667000008805	nogo_reward	0.3778631000004679	196.01157129999956	197.84644789999948	200.38525469999877	1.834876599999916	197.01620580000053	199.37574259999928	201.39211260000047	0.8302420999989408	1.0095120999994833	1.2362253999999666	n/a	1.0	n/a	2	0	30	1	nogo_reward	1	0	1	0	1	0	0	n/a	n/a	0	0.3778631000004679	1.0	1253.7299656000005	1449.7415369	1450.746171400001	1451.5764135	1453.1057081999998	1454.1152202999992	n/a	n/a	1455.122078200001	1456.358303600001	2019-12-13 19:05:30.531981	1.68520941813457	0.0	0.0	0.0	1.68520941813457	0.0	-1.68520941813457	0.0	0.0	1.68520941813457	0.0	0.0	-3.1762330340376757	0.2885821936088995	2.066313224561342	0.43710309778479395	0.5966914774107626	2.066313224561342	0.8398053029424842	-0.25661416603278453	2.919618868004892	-0.3201434032547777	2.675038821425021	3	missed	0.0
202.6163214999999	7.0748297000006914	go_reward	0.2899542999984987	202.68669009999962	205.01834659999986	207.56540940000014	2.3316565000002356	203.69095329999982	206.55030299999999	208.57180899999912	1.3273933000000397	1.0151064000001497	1.189710800001194	n/a	1.0	n/a	2	0	31	2	go_reward	1	1	0	1	1	1	0	n/a	n/a	1	0.2899542999984987	1.0	1253.7299656000005	1456.4166557	1457.4209189000003	1458.7483122000003	1460.2802686000005	1461.2953750000006	n/a	n/a	1462.3017745999996	1463.4914854000008	2019-12-13 19:05:30.531981	8.31434267986149	4.55207156179375	0.0	4.55207156179375	8.31434267986149	0.0	-8.31434267986149	4.55207156179375	0.0	8.31434267986149	0.0	4.501084300697509	3.452900227689244	4.840653755402649	2.066313224561342	4.989174659578544	7.225824739137682	2.066313224561342	5.340889603639994	6.372519095694135	2.919618868004892	4.231928158538972	2.675038821425021	3	missed	0.0
209.77388900000005	7.666418700000577	nogo_punish	1.0	209.84425759999976	212.55153559999962	215.06510510000044	2.70727799999986	210.84779679999883	214.05653510000047	216.0713930999991	1.7037388000007923	1.0085699999999633	1.4392832000012277	n/a	1.0	n/a	2	0	32	3	nogo_punish	1	-1	0	0	0	1	0	n/a	n/a	0	1.0	1.0	1253.7299656000005	1463.5742232000002	1464.5777623999993	1466.2815012	1467.786500700001	1468.795070700001	n/a	n/a	1469.8013586999996	1471.2406419000008	2019-12-13 19:05:30.531981	6.08051593396229	-6.88377660601838	0.0	-2.07549575030691	-6.08051593396229	0.0	-6.08051593396229	0.0	-6.88377660601838	0.0	-6.08051593396229	0.0	1.2190734817900442	-6.59519441240948	2.066313224561342	-1.638392652522116	-7.1690338746860975	2.066313224561342	0.8398053029424842	-1.9418235841673546	-3.160897065957398	-0.3201434032547777	-4.2087377845933585	3	missed	0.0
217.4645005000002	6.7907703000000765	go_punish	0.2700003999998444	217.53486909999992	219.57942600000024	222.1197804000003	2.044556900000316	218.53897529999995	221.10923009999897	223.12702460000037	1.0404507000002923	1.0105503000013414	1.198614799999632	n/a	1.0	n/a	2	0	33	4	go_punish	1	0	-1	1	1	1	0	n/a	n/a	0	0.2700003999998444	1.0	1253.7299656000005	1471.2648347000004	1472.2689409000004	1473.3093916000007	1474.8391956999994	1475.8497460000008	n/a	n/a	1476.8569902000008	1478.0556050000005	2019-12-13 19:05:30.531981	5.64088285465391	-1.43824586785051	-6.88377660601838	-3.51374161815742	-1.24289375136446	-6.88377660601838	-5.64088285465391	-1.43824586785051	-6.88377660601838	-1.24289375136446	-6.88377660601838	1.43824586785051	0.7794404024816641	-1.1496636742416104	-4.817463381457038	-3.076638520372626	-2.3314116920882677	-4.817463381457038	2.278051170792994	-3.184717335531815	-3.964157738013488	-1.7583892711052875	-4.2087377845933585	3	missed	0.0
224.27901340000062	7.332198500000231	go_punish	0.2447425999998813	224.34938200000033	226.78876739999964	229.3289083999989	2.43938539999931	225.35407099999975	228.31944439999984	230.33584039999914	1.4346963999998934	1.0094639999990704	1.3457401000014215	n/a	1.0	n/a	2	0	34	4	go_punish	1	0	-1	1	1	1	0	n/a	n/a	0	0.2447425999998813	1.0	1253.7299656000005	1478.0793476000008	1479.0840366000002	1480.518733	1482.0494100000003	1483.0588739999994	n/a	n/a	1484.0658059999996	1485.411546100001	2019-12-13 19:05:30.531981	6.2170630938109	-1.14971904051398	-6.88377660601838	-2.82573509839531	-0.666713512207477	-6.88377660601838	-6.2170630938109	-1.14971904051398	-6.88377660601838	-0.666713512207477	-6.88377660601838	1.14971904051398	1.3556206416386543	-0.8611368469050806	-4.817463381457038	-2.388632000610516	-1.7552314529312845	-4.817463381457038	1.9895243434564645	-2.6085370963748318	-3.964157738013488	-1.4698624437687577	-4.2087377845933585	3	missed	0.0
231.66315620000023	6.580143400000452	go_reward	0.2972339000007196	231.73352479999994	233.2961335	235.83889819999945	1.5626087000000553	232.73856069999943	234.82525399999963	236.84560509999937	0.5575728000005711	1.013644199999817	1.468063100001018	n/a	1.0	n/a	2	0	35	2	go_reward	1	1	0	1	1	1	0	n/a	n/a	1	0.2972339000007196	1.0	1253.7299656000005	1485.4634904000004	1486.4685263	1487.0260991000005	1488.5552196	1489.5688638	n/a	n/a	1490.5755706999998	1492.0436338000009	2019-12-13 19:05:30.531981	9.52705480814523	5.387184983777	0.0	5.387184983777	9.52705480814523	0.0	-9.52705480814523	5.387184983777	0.0	9.52705480814523	0.0	3.6659708787142593	4.665612355972985	5.675767177385899	2.066313224561342	5.824288081561794	8.438536867421423	2.066313224561342	4.505776181656744	7.585231223977876	2.919618868004892	5.067041580522222	2.675038821425021	3	missed	0.0
238.31831640000019	7.0144643999992695	nogo_punish	1.0	238.3886849999999	240.39201809999963	242.91064220000044	2.003333099999736	239.39341579999905	241.89711220000027	243.91735759999938	0.9986023000005844	1.0135300000001735	1.485791799999788	n/a	1.0	n/a	2	0	36	3	nogo_punish	0	0	-1	0	0	1	0	n/a	n/a	-1	1.0	1.0	1253.7299656000005	1492.1186506000004	1493.1233813999995	1494.1219837	1495.6270778000007	1496.640607800001	n/a	n/a	1497.6473231999998	1499.1331149999996	2019-12-13 19:05:30.531981	5.91292477495465	-6.88377660601838	0.0	-1.67601605788133	-5.91292477495465	0.0	-5.91292477495465	0.0	-6.88377660601838	0.0	-5.91292477495465	-18.9829090916527	1.0514823227824044	-6.59519441240948	2.066313224561342	-1.238912960096536	-7.001442715678458	2.066313224561342	-18.143103788710217	-1.9418235841673546	-2.9933059069497583	-0.3201434032547777	-4.2087377845933585	3	missed	0.0
245.35676769999918	6.075539800000342	go_punish	0.3342140999993717	245.4271362999989	246.9940475000003	249.53305059999911	1.5669112000014138	246.43132519999904	248.5240376999991	250.5397410000005	0.5627223000012691	1.009012900000016	0.962935099998731	n/a	1.0	n/a	2	0	37	4	go_punish	1	0	-1	1	1	1	0	n/a	n/a	0	0.3342140999993717	1.0	1253.7299656000005	1499.1571018999994	1500.1612907999995	1500.7240131000008	1502.2540032999996	1503.2630161999996	n/a	n/a	1504.269706600001	1505.2326416999997	2019-12-13 19:05:30.531981	6.66722130012243	-0.925776709792928	-6.88377660601838	-2.28748605017156	-0.216555305895942	-6.88377660601838	-6.66722130012243	-0.925776709792928	-6.88377660601838	-0.216555305895942	-6.88377660601838	0.925776709792928	1.805778847950184	-0.6371945161840286	-4.817463381457038	-1.850382952386766	-1.3050732466197494	-4.817463381457038	1.7655820127354123	-2.1583788900632968	-3.964157738013488	-1.2459201130477058	-4.2087377845933585	3	missed	0.0
251.48884779999935	6.288220700000238	go_reward	0.2610772000007273	251.55921639999906	253.40625629999863	255.94815279999943	1.8470398999995723	252.56352229999902	254.93379850000042	256.95508599999994	0.8427339999996093	1.0143542999990132	0.8923510999993596	n/a	1.0	n/a	2	0	38	2	go_reward	1	1	0	1	1	1	0	n/a	n/a	1	0.2610772000007273	1.0	1253.7299656000005	1505.2891819999995	1506.2934878999995	1507.136221899999	1508.663764100001	1509.6781184	n/a	n/a	1510.6850516000004	1511.5774026999998	2019-12-13 19:05:30.531981	10.488192012089	6.04813740842674	0.0	6.04813740842674	10.488192012089	0.0	-10.488192012089	6.04813740842674	0.0	10.488192012089	0.0	3.005018454064519	5.626749559916754	6.3367196020356396	2.066313224561342	6.485240506211534	9.399674071365192	2.066313224561342	3.844823757007003	8.546368427921646	2.919618868004892	5.727994005171962	2.675038821425021	3	missed	0.0
257.8038661999999	6.21797440000023	nogo_reward	0.3590015999998286	257.8742347999996	259.1487954999993	261.68838179999875	1.2745606999997108	258.8784001999993	260.67916349999905	262.6953725000003	0.2703953000000183	1.0092182999997021	1.3968366999995396	n/a	1.0	n/a	2	0	39	1	nogo_reward	1	0	1	0	1	0	0	n/a	n/a	0	0.3590015999998286	1.0	1253.7299656000005	1511.6042004	1512.6083657999998	1512.8787610999998	1514.4091290999995	1515.4183473999992	n/a	n/a	1516.4253381000008	1517.8221748000003	2019-12-13 19:05:30.531981	1.68520941813457	0.0	0.0	0.0	1.68520941813457	0.0	-1.68520941813457	0.0	0.0	1.68520941813457	0.0	0.0	-3.1762330340376757	0.2885821936088995	2.066313224561342	0.43710309778479395	0.5966914774107626	2.066313224561342	0.8398053029424842	-0.25661416603278453	2.919618868004892	-0.3201434032547777	2.675038821425021	3	missed	0.0
264.05071829999906	6.0418109000002005	nogo_reward	0.274381799999901	264.1210868999988	265.81308720000015	268.35107380000045	1.6920003000013821	265.1253564999988	267.341613999999	269.3577802999989	0.6877307000013388	1.009459800001423	0.8051175000000512	n/a	1.0	n/a	2	0	40	1	nogo_reward	1	0	1	0	1	0	0	n/a	n/a	0	0.274381799999901	1.0	1253.7299656000005	1517.8510524999992	1518.8553220999993	1519.5430528000006	1521.0715795999995	1522.081039400001	n/a	n/a	1523.0877458999994	1523.8928633999994	2019-12-13 19:05:30.531981	1.68520941813457	0.0	0.0	0.0	1.68520941813457	0.0	-1.68520941813457	0.0	0.0	1.68520941813457	0.0	0.0	-3.1762330340376757	0.2885821936088995	2.066313224561342	0.43710309778479395	0.5966914774107626	2.066313224561342	0.8398053029424842	-0.25661416603278453	2.919618868004892	-0.3201434032547777	2.675038821425021	3	missed	0.0
270.1204567999994	6.449775700000828	go_punish	0.2723019000004569	270.1908253999991	271.7521866999996	274.28938410000046	1.5613613000004989	271.1950133999999	273.2809550000002	275.2965549999992	0.5571732999997039	1.008429100000285	1.3440461000006962	n/a	1.0	n/a	2	0	41	4	go_punish	1	0	-1	1	1	1	0	n/a	n/a	0	0.2723019000004569	1.0	1253.7299656000005	1523.9207909999996	1524.9249790000003	1525.4821523	1527.0109206000006	1528.019349700001	n/a	n/a	1529.0265205999997	1530.3705667000004	2019-12-13 19:05:30.531981	7.02208944395494	-0.750239348088399	-6.88377660601838	-1.86265662151579	0.138312837936569	-6.88377660601838	-7.02208944395494	-0.750239348088399	-6.88377660601838	0.138312837936569	-6.88377660601838	0.750239348088399	2.160646991782694	-0.4616571544794995	-4.817463381457038	-1.4255535237309962	-0.9502051027872385	-4.817463381457038	1.5900446510308832	-1.8035107462307856	-3.964157738013488	-1.0703827513431767	-4.2087377845933585	3	missed	0.0
276.59407640000063	6.005446600000141	go_punish	0.4597959000002447	276.66444500000034	278.0216917	280.5606244999999	1.3572466999996777	277.66811140000027	279.55113489999894	281.5671817000002	0.3535802999997486	1.0094896000009612	1.1027099000002636	n/a	1.0	n/a	2	0	42	4	go_punish	1	0	-1	1	1	1	0	n/a	n/a	0	0.4597959000002447	1.0	1253.7299656000005	1530.3944106000008	1531.3980770000007	1531.7516573000005	1533.2811004999994	1534.2905901000004	n/a	n/a	1535.2971473000007	1536.399857200001	2019-12-13 19:05:30.531981	7.30402599346775	-0.611469992290231	-6.88377660601838	-1.52475452755649	0.42024938744937	-6.88377660601838	-7.30402599346775	-0.611469992290231	-6.88377660601838	0.42024938744937	-6.88377660601838	0.611469992290231	2.4425835412955044	-0.32288779868133155	-4.817463381457038	-1.0876514297716962	-0.6682685532744375	-4.817463381457038	1.4512752952327153	-1.5215741967179846	-3.964157738013488	-0.9316133955450088	-4.2087377845933585	3	missed	0.0
282.6440677999999	6.027179400000023	go_reward	0.3086677999999665	282.7144363999996	284.0677527999994	286.6053824999999	1.3533163999998123	283.71912189999944	285.59686279999914	287.6124906999996	0.3486308999999892	1.008519700000761	1.1291251000000102	n/a	1.0	n/a	2	0	43	2	go_reward	0	0	1	1	1	1	0	n/a	n/a	0	0.3086677999999665	1.0	1253.7299656000005	1536.444402	1537.4490875	1537.7977184	1539.3268283999996	1540.3353481000004	n/a	n/a	1541.3424563	1542.4715814	2019-12-13 19:05:30.531981	11.2573847231076	6.57660325644505	0.0	6.57660325644505	11.2573847231076	0.0	-11.2573847231076	6.57660325644505	0.0	11.2573847231076	0.0	-6.57660325644505	6.395942270935355	6.865185450053949	2.066313224561342	7.013706354229844	10.168866782383793	2.066313224561342	-5.736797953502565	9.315561138940247	2.919618868004892	6.256459853190272	2.675038821425021	3	missed	0.0
288.70565279999937	6.16207790000044	nogo_reward	0.2935739000004105	288.7760213999991	290.63676730000043	293.17527359999985	1.8607459000013478	289.78082290000043	292.1667603999995	294.1818910000002	0.8559443999999985	1.0085132000003796	0.7562082999993436	n/a	1.0	n/a	2	0	44	1	nogo_reward	1	0	1	0	1	0	0	n/a	n/a	0	0.2935739000004105	1.0	1253.7299656000005	1542.5059869999995	1543.510788500001	1544.366732900001	1545.896726	1546.9052392000003	n/a	n/a	1547.9118566000006	1548.6680649	2019-12-13 19:05:30.531981	1.68520941813457	0.0	0.0	0.0	1.68520941813457	0.0	-1.68520941813457	0.0	0.0	1.68520941813457	0.0	0.0	-3.1762330340376757	0.2885821936088995	2.066313224561342	0.43710309778479395	0.5966914774107626	2.066313224561342	0.8398053029424842	-0.25661416603278453	2.919618868004892	-0.3201434032547777	2.675038821425021	3	missed	0.0
294.8919057999992	6.857446300000447	go_punish	0.4942006999990553	294.96227439999893	296.86521150000044	299.40146449999884	1.902937100001509	295.9663810999991	298.392397399999	300.40879080000013	0.8988304000013159	1.009067099999811	1.4109298999992461	n/a	1.0	n/a	2	0	45	4	go_punish	1	0	-1	1	1	1	0	n/a	n/a	0	0.4942006999990553	1.0	1253.7299656000005	1548.6922399999994	1549.6963466999996	1550.595177100001	1552.1223629999995	1553.1314300999993	n/a	n/a	1554.1387564000006	1555.5496862999998	2019-12-13 19:05:30.531981	7.52956424446618	-0.500947281137161	-6.88377660601838	-1.25415623894746	0.645787638447805	-6.88377660601838	-7.52956424446618	-0.500947281137161	-6.88377660601838	0.645787638447805	-6.88377660601838	0.500947281137161	2.6681217922939346	-0.21236508752826155	-4.817463381457038	-0.8170531411626661	-0.4427303022760025	-4.817463381457038	1.3407525840796453	-1.2960359457195496	-3.964157738013488	-0.8210906843919388	-4.2087377845933585	3	missed	0.0
301.77642820000074	6.288799299998573	nogo_reward	0.2745138999998744	301.84679680000045	303.63031599999863	306.1693952000005	1.7835191999981816	302.85189720000017	305.15983909999863	307.17580160000034	0.7784187999984624	1.0095561000018733	0.9597944999986794	n/a	1.0	n/a	2	0	46	1	nogo_reward	1	0	1	0	1	0	1	n/a	n/a	0	0.2745138999998744	1.0	1253.7299656000005	1555.576762400001	1556.5818628000006	1557.360281599999	1558.889804699999	1559.899360800001	n/a	n/a	1560.9057672000008	1561.8655616999995	2019-12-13 19:05:30.531981	1.68520941813457	0.0	0.0	0.0	1.68520941813457	0.0	-1.68520941813457	0.0	0.0	1.68520941813457	0.0	0.0	-3.1762330340376757	0.2885821936088995	2.066313224561342	0.43710309778479395	0.5966914774107626	2.066313224561342	0.8398053029424842	-0.25661416603278453	2.919618868004892	-0.3201434032547777	2.675038821425021	3	missed	0.0
308.11825879999924	7.3019648000010875	go_reward	0.2821750000002794	308.18862739999895	310.4662693999999	313.00249020000047	2.277642000000924	309.19294990000003	311.99303829999917	314.00872249999884	1.2733194999998432	1.0094519000012951	1.481869700001198	n/a	1.0	n/a	2	0	47	2	go_reward	0	0	1	1	1	1	0	n/a	n/a	0	0.2821750000002794	1.0	1253.7299656000005	1561.9185929999994	1562.9229155000005	1564.1962350000003	1565.7230038999996	1566.732455800001	n/a	n/a	1567.7386880999993	1569.2205578000005	2019-12-13 19:05:30.531981	9.38689518473872	5.28783713903717	0.0	5.28783713903717	9.38689518473872	0.0	-9.38689518473872	5.28783713903717	0.0	9.38689518473872	0.0	-5.28783713903717	4.525452732566474	5.576419332646069	2.066313224561342	5.724940236821964	8.298377244014912	2.066313224561342	-4.448031836094685	7.445071600571365	2.919618868004892	4.967693735782392	2.675038821425021	3	missed	0.0
315.4465600000003	6.629293799998777	go_punish	0.2856150000006892	315.5169286	317.36276220000036	319.901607	1.8458336000003328	316.52140150000014	318.8920238999999	320.9082540999989	0.841360700000223	1.0095831000000999	1.2379682999999204	n/a	1.0	n/a	2	0	48	4	go_punish	1	0	-1	1	1	1	0	n/a	n/a	0	0.2856150000006892	1.0	1253.7299656000005	1569.2468942000005	1570.2513671000006	1571.0927278000008	1572.6219895000004	1573.6315726000005	n/a	n/a	1574.6382196999994	1575.8761879999993	2019-12-13 19:05:30.531981	7.71109777815304	-0.412337254129095	-6.88377660601838	-1.03613056922051	0.827321172134665	-6.88377660601838	-7.71109777815304	-0.412337254129095	-6.88377660601838	0.827321172134665	-6.88377660601838	0.412337254129095	2.8496553259807946	-0.12375506052019553	-4.817463381457038	-0.5990274714357161	-0.2611967685891424	-4.817463381457038	1.2521425570715792	-1.1145024120326896	-3.964157738013488	-0.7324806573838727	-4.2087377845933585	3	missed	0.0
322.1579829999989	7.4964002000017445	nogo_punish	1.0	322.22835159999863	324.99212719999923	327.5076711999991	2.7637756000005993	323.2330196999992	326.4974172000004	328.5151860999995	1.7591075000000274	1.0102539999986675	1.2095657000008941	n/a	1.0	n/a	2	0	49	3	nogo_punish	1	-1	0	0	0	1	0	n/a	n/a	0	1.0	1.0	1253.7299656000005	1575.958317199999	1576.9629852999997	1578.7220927999997	1580.227382800001	1581.2376367999996	n/a	n/a	1582.2451517	1583.4547174000008	2019-12-13 19:05:30.531981	3.48308532159285	-6.88377660601838	-3.902852584717	-5.26456192509563	-7.38593790630985	-3.902852584717	-3.48308532159285	-3.902852584717	-6.88377660601838	-3.902852584717	-7.38593790630985	3.902852584717	-1.3783571305793956	-6.59519441240948	-1.8365393601556579	-4.827458827310836	-8.474455847033656	-1.8365393601556579	4.742657887659484	-5.844676168884354	-4.466319038304958	-4.222995987971777	-4.2087377845933585	3	missed	0.0
329.6840680999994	5.989616700000624	nogo_reward	0.4615971999992325	329.75443669999913	331.2580087999995	333.8003186999995	1.5035721000003832	330.75937089999934	332.78762730000017	334.8075604000005	0.49863790000017616	1.0126913999993121	0.9364929999992455	n/a	1.0	n/a	2	0	50	1	nogo_reward	0	1	0	0	1	0	0	n/a	n/a	1	0.4615971999992325	1.0	1253.7299656000005	1583.4844022999996	1584.4893364999998	1584.9879744	1586.5175929000006	1587.5302843	n/a	n/a	1588.537526000001	1589.4740190000002	2019-12-13 19:05:30.531981	1.68520941813457	0.0	0.0	0.0	1.68520941813457	0.0	-1.68520941813457	0.0	0.0	1.68520941813457	0.0	9.05315586249126	-3.1762330340376757	0.2885821936088995	2.066313224561342	0.43710309778479395	0.5966914774107626	2.066313224561342	9.892961165433743	-0.25661416603278453	2.919618868004892	-0.3201434032547777	2.675038821425021	3	missed	0.0
335.7201941000003	7.29886869999973	nogo_punish	1.0	335.7905627	338.54724759999954	341.0619993	2.7566848999995273	336.79516259999946	340.05268520000027	342.06833140000003	1.7520850000000792	1.0093140999997559	1.0210999999997057	n/a	1.0	n/a	2	0	51	3	nogo_punish	1	-1	0	0	0	1	1	n/a	n/a	0	1.0	1.0	1253.7299656000005	1589.5205283000005	1590.5251282	1592.2772132	1593.7826508000007	1594.7919649000005	n/a	n/a	1595.7982970000005	1596.8193970000002	2019-12-13 19:05:30.531981	3.93185874542039	-6.88377660601838	-2.98092402130138	-4.09334129472877	-6.91278276672177	-2.98092402130138	-3.93185874542039	-2.98092402130138	-6.88377660601838	-2.98092402130138	-6.91278276672177	2.98092402130138	-0.9295837067518558	-6.59519441240948	-0.9146107967400381	-3.656238196943976	-8.001300707445576	-0.9146107967400381	3.8207293242438642	-4.922747605468735	-3.993163898716878	-3.301067424556158	-4.2087377845933585	3	missed	0.0
343.0903880999995	6.196372000000338	go_reward	0.2303412999990541	343.1607566999992	344.9238501999989	347.4666551999999	1.7630934999997407	344.1648219999988	346.45378639999944	348.4730708999996	0.7590282000001025	1.0128688000004331	0.8840577999999368	n/a	1.0	n/a	2	0	52	2	go_reward	1	1	0	1	1	1	0	n/a	n/a	1	0.2303412999990541	1.0	1253.7299656000005	1596.8907222999997	1597.8947875999993	1598.6538157999994	1600.183752	1601.1966208000003	n/a	n/a	1602.2030365	1603.0870943	2019-12-13 19:05:30.531981	7.92363481451122	4.28129279929037	0.0	4.28129279929037	7.92363481451122	0.0	-7.92363481451122	4.28129279929037	0.0	7.92363481451122	0.0	4.771863063200889	3.0621923623389744	4.56987499289927	2.066313224561342	4.7183958970751645	6.835116873787412	2.066313224561342	5.611668366143373	5.981811230343865	2.919618868004892	3.9611493960355926	2.675038821425021	3	missed	0.0
349.3187147000008	6.765667399999074	nogo_reward	1.0	349.3890833000005	351.17136830000004	353.6854040999988	1.782284999999547	350.3939470999994	352.67649209999945	354.6921978999999	0.7774212000006173	1.0089119999993272	1.4625527999996848	n/a	1.0	n/a	2	0	53	1	nogo_reward	0	1	0	0	0	1	0	n/a	n/a	0	1.0	1.0	1253.7299656000005	1603.119048900001	1604.1239127	1604.9013339000005	1606.4064577	1607.4153696999992	n/a	n/a	1608.4221635000004	1609.8847163	2019-12-13 19:05:30.531981	-4.17609510926867	1.71474047075272	0.0	1.71474047075272	4.17609510926867	0.0	4.17609510926867	0.0	1.71474047075272	0.0	4.17609510926867	0.0	-9.037537561440915	2.0033226643616198	2.066313224561342	2.151843568537514	3.087577168544862	2.066313224561342	0.8398053029424842	-1.9418235841673546	7.095713977273562	-0.3201434032547777	4.389779292177741	3	missed	0.0
356.1087504999996	6.5535950000012235	go_punish	0.2600206000006437	356.1791190999993	358.3474047999989	360.8870038999996	2.1682856999996147	357.18389319999915	359.87722720000056	361.89402119999977	1.1635115999997652	1.0097766999990654	0.8386929000007513	n/a	1.0	n/a	2	0	54	4	go_punish	1	0	-1	1	1	1	0	n/a	n/a	0	0.2600206000006437	1.0	1253.7299656000005	1609.9090846999998	1610.9138587999996	1612.0773703999994	1613.607192800001	1614.6169695	n/a	n/a	1615.6239868000002	1616.462679700001	2019-12-13 19:05:30.531981	7.85802565654273	-0.340871703681201	-6.88377660601838	-0.859491728202921	0.974249050524352	-6.88377660601838	-7.85802565654273	-0.340871703681201	-6.88377660601838	0.974249050524352	-6.88377660601838	0.340871703681201	2.9965832043704843	-0.05228951007230154	-4.817463381457038	-0.422388630418127	-0.11426889019945552	-4.817463381457038	1.1806770066236854	-0.9675745336430026	-3.964157738013488	-0.6610151069359786	-4.2087377845933585	3	missed	0.0
362.7076734000002	7.003690699999424	nogo_punish	1.0	362.7780419999999	365.5067904999996	368.02083440000024	2.7287484999997105	363.78283199999896	367.01187269999923	369.0282996999995	1.7239585000006628	1.0089617000010094	0.753432999999859	n/a	1.0	n/a	2	0	55	3	nogo_punish	1	-1	0	0	0	1	0	n/a	n/a	0	1.0	1.0	1253.7299656000005	1616.5080076000004	1617.5127975999994	1619.2367561	1620.7418382999997	1621.7508000000007	n/a	n/a	1622.7582653	1623.5116982999998	2019-12-13 19:05:30.531981	4.24568157803218	-6.88377660601838	-2.31163153777538	-3.22491607304163	-6.55731311580756	-2.31163153777538	-4.24568157803218	-2.31163153777538	-6.88377660601838	-2.31163153777538	-6.55731311580756	2.31163153777538	-0.615760874140066	-6.59519441240948	-0.24531831321403796	-2.787812975256836	-7.645831056531367	-0.24531831321403796	3.151436840717864	-4.253455121942735	-3.637694247802668	-2.631774941030158	-4.2087377845933585	3	missed	0.0
369.7438414999999	7.706423499999573	nogo_reward	0.2600338000011106	369.8142100999996	372.58247889999984	375.12808159999986	2.7682688000002145	370.8188501000004	374.1141828999989	376.1352052000004	1.7636287999994238	1.0138987000009365	1.3854283999987729	n/a	1.0	n/a	2	0	56	1	nogo_reward	0	1	0	0	1	0	0	n/a	n/a	1	0.2600338000011106	1.0	1253.7299656000005	1623.5441757	1624.548815700001	1626.3124445000003	1627.8441484999994	1628.8580472000003	n/a	n/a	1629.865170800001	1631.2505991999997	2019-12-13 19:05:30.531981	4.0146347727098	1.71474047075272	0.0	1.35221720889629	4.0146347727098	0.0	-4.0146347727098	1.71474047075272	0.0	4.0146347727098	0.0	7.338415391738539	-0.8468076794624455	2.0033226643616198	2.066313224561342	1.789320306681084	2.9261168319859925	2.066313224561342	8.178220694681023	2.0728111885424454	2.919618868004892	1.3945970674979424	2.675038821425021	3	missed	0.0
377.4942632000002	5.912548000000243	go_reward	0.4906651000001147	377.5646317999999	378.9260166999993	381.4701605999999	1.3613848999993934	378.5694889999995	380.45739779999894	382.47662169999944	0.35652769999978773	1.012762800000928	1.0005581000007169	n/a	1.0	n/a	2	0	57	2	go_reward	1	1	0	1	1	1	0	n/a	n/a	1	0.4906651000001147	1.0	1253.7299656000005	1631.2945974000004	1632.2994546	1632.6559822999998	1634.1873633999994	1635.2001262000003	n/a	n/a	1636.2065873	1637.2071454000006	2019-12-13 19:05:30.531981	9.25814396713624	5.20151075687761	0.0	5.20151075687761	9.25814396713624	0.0	-9.25814396713624	5.20151075687761	0.0	9.25814396713624	0.0	3.851645105613649	4.396701514963994	5.49009295048651	2.066313224561342	5.638613854662404	8.169626026412432	2.066313224561342	4.6914504085561335	7.316320382968885	2.919618868004892	4.881367353622832	2.675038821425021	3	missed	0.0
383.4324729	6.743138100000579	go_punish	0.2602167000004556	383.5028414999997	385.9283020999992	388.46566729999904	2.4254605999994965	384.5071146999999	387.45642289999864	389.47360110000045	1.4211873999993259	1.009244400000398	0.7723784999998315	n/a	1.0	n/a	2	0	58	4	go_punish	1	0	-1	1	1	1	0	n/a	n/a	0	0.2602167000004556	1.0	1253.7299656000005	1637.2328071000002	1638.2370803000003	1639.6582676999997	1641.186388499999	1642.1956328999995	n/a	n/a	1643.203566700001	1643.9759452000008	2019-12-13 19:05:30.531981	7.97754815328636	-0.282921611410213	-6.88377660601838	-0.715661145251593	1.09377154726798	-6.88377660601838	-7.97754815328636	-0.282921611410213	-6.88377660601838	1.09377154726798	-6.88377660601838	0.282921611410213	3.1161057011141144	0.005660582198686481	-4.817463381457038	-0.278558047466799	0.005253606544172618	-4.817463381457038	1.1227269143526972	-0.8480520368993745	-3.964157738013488	-0.6030650146649907	-4.2087377845933585	3	missed	0.0
390.2421978999989	5.788316900001746	go_reward	0.5529182999998739	390.31256649999864	391.6415952999996	394.1855502999988	1.3290288000009696	391.3166610999997	393.17152259999943	395.19164529999944	0.324934199999916	1.0140276999993603	0.9092381000009482	n/a	1.0	n/a	2	0	59	2	go_reward	1	1	0	1	1	1	1	n/a	n/a	1	0.5529182999998739	1.0	1253.7299656000005	1644.042532099999	1645.0466267000002	1645.3715609	1646.9014882	1647.9155158999993	n/a	n/a	1648.9216109	1649.8308490000009	2019-12-13 19:05:30.531981	10.3036237093487	5.92116346516183	0.0	5.92116346516183	10.3036237093487	0.0	-10.3036237093487	5.92116346516183	0.0	10.3036237093487	0.0	3.1319923973294292	5.442181257176455	6.209745658770729	2.066313224561342	6.358266562946624	9.215105768624893	2.066313224561342	3.9717977002719134	8.361800125181347	2.919618868004892	5.601020061907052	2.675038821425021	3	missed	0.0
396.0572382999999	6.031228600000759	nogo_reward	0.247638700000607	396.1276068999996	397.68285189999915	400.22498689999884	1.5552449999995588	397.13210979999894	399.21221649999984	401.23176070000045	0.5507421000002068	1.012770399998999	0.9270747999999003	n/a	1.0	n/a	2	0	60	1	nogo_reward	0	1	0	0	1	0	0	n/a	n/a	1	0.247638700000607	1.0	1253.7299656000005	1649.8575725	1650.8620753999994	1651.4128174999996	1652.9421821000003	1653.9549524999993	n/a	n/a	1654.961726300001	1655.8888011000008	2019-12-13 19:05:30.531981	6.01918648051322	3.06695767964901	0.0	2.79138324809264	6.01918648051322	0.0	-6.01918648051322	3.06695767964901	0.0	6.01918648051322	0.0	5.98619818284225	1.1577440283409741	3.3555398732579094	2.066313224561342	3.228486345877434	4.930668539789412	2.066313224561342	6.826003485784734	4.077362896345865	2.919618868004892	2.746814276394232	2.675038821425021	3	missed	0.0
