onset	duration	trial_type	response_time	cueOnset	targetOnset	fbOnset	cueRT	firstfixOnset	secondfixOnset	waitOnset	firstfixdur	secondfixdur	waitdur	nback_fbOnset	nback_response_time	nback_targetOnset	block	wm	trial	cue	cond	is_common	outcome_go	outcome_nogo	key_correct	key_pressed	is_correct	key_correct_nback	key_pressed_nback	is_correct_nback	outcome	rt	rt_nback	time_scan	time_onset	time_isi1	time_circle	time_isi2	time_feedback	time_same	time_correct	time_iti	time_done	timestamp_scan	DV	Qgo	Qnogo	SV	Wgo	Wnogo	mDV	Qchosen	Qunchosen	Wchosen	Wunchosen	PE	DVC	QgoC	QnogoC	SVC	WgoC	WnogoC	PEC	WchosenC	WunchosenC	QchosenC	QunchosenC	run	outcome_nback	nback_targetResp
0.0	9.423314699999537	nogo_reward	0.3221513000007689	0.02357049999955052	2.4452080999999453	5.0618154000003415	2.4216376000003947	1.0278605000003154	4.034031299999697	8.09688069999902	1.41734759999963	1.0277841000006447	1.3500045000000682	7.0888101999989885	1.0	6.0796921999990445	1	1	61	1	nogo_reward	1	0	1	0	1	0	0	n/a	0.0	1	0.3221513000007689	1.0	659.4474232000002	659.4709936999998	660.4752837000005	661.8926313000002	663.4814544999999	664.5092386000006	665.5271153999993	666.5362333999992	667.5443038999992	668.8943083999993	2019-12-13 18:55:36.248466	4.30706845296227	1.95030194017462	0.972829436591704	2.27998163140315	5.27989788955398	0.972829436591704	-4.30706845296227	1.95030194017462	0.972829436591704	5.27989788955398	0.972829436591704	-1.95030194017462	-0.5543739992099761	2.2388841337835195	3.039142661153046	2.717084729187944	4.191379948830172	3.039142661153046	-1.1104966372321359	3.338074305386625	3.892448304596596	1.6301585369198424	3.647868258016725	2	missed	0.0
9.461743100000604	9.192146299999877	go_reward	0.3319482000006246	9.485313600000154	11.923361799999839	14.467034199999034	2.4380481999996846	10.489389799999117	13.453330300000744	17.51910029999999	1.433972000000722	1.0137038999982906	1.1583596000000398	16.511940300000788	0.5189038000007713	15.477400899999338	1	1	62	2	go_reward	1	1	0	1	1	1	0	0.0	1.0	1	0.3319482000006246	0.5189038000007713	659.4474232000002	668.9327368000004	669.9368129999993	671.3707850000001	672.900753500001	673.9144573999993	674.9248240999996	675.959363500001	676.9665235000002	678.1248831000003	2019-12-13 18:55:36.248466	12.3857293140235	6.20574669644203	0.0	6.20574669644203	12.3857293140235	0.0	-12.3857293140235	6.20574669644203	0.0	12.3857293140235	0.0	2.8474091660492293	7.524286861851254	6.494328890050929	2.066313224561342	6.642849794226824	11.297211373299692	2.066313224561342	3.6872144689917135	10.443905729856146	2.919618868004892	5.885603293187252	2.675038821425021	2	correct	1.0
18.76689070000066	8.840051199998925	nogo_punish	0.3181026000002021	18.79046120000021	20.606289900000775	23.14897689999998	1.8158287000005657	19.795242599999256	22.13585620000049	26.191631499999858	0.811047300001519	1.0131206999994902	1.4388808999992762	25.184777000000395	0.980272500000865	24.161939199999324	1	1	63	3	nogo_punish	1	-1	0	0	1	0	0	0.0	1.0	-1	0.3181026000002021	0.980272500000865	659.4474232000002	678.2378844000004	679.2426657999995	680.053713100001	681.5832794000007	682.5964001000002	683.6093623999996	684.6322002000006	685.6390547000001	687.0779355999994	2019-12-13 18:55:36.248466	-2.44684558215062	-3.77171382390323	-1.55985834030257	-2.67500794108839	-4.00670392245319	-1.55985834030257	2.44684558215062	-3.77171382390323	-1.55985834030257	-4.00670392245319	-1.55985834030257	-15.21119526774947	-7.308288034322866	-3.4831316302943307	0.5064548842587719	-2.2379048433035957	-5.095221863176998	0.5064548842587719	-14.371389964806987	-5.948527506620545	1.3597605277023217	-4.091857227158008	1.115180481122451	2	correct	1.0
27.64548769999965	8.437043600000834	go_punish	1.0	27.6690581999992	29.502807499999108	32.02095399999962	1.8337492999999085	28.672838799999226	31.008370699999432	35.06267090000074	0.8299686999998812	1.0125833000001876	1.0434308999992936	34.056663900000785	0.4186186000006273	33.03183200000058	1	1	64	4	go_punish	1	0	-1	1	0	0	0	0.0	1.0	-1	1.0	0.4186186000006273	659.4474232000002	687.1164813999994	688.1202619999995	688.9502306999993	690.4557938999997	691.4683771999998	692.4792552000008	693.504087100001	694.510094100001	695.5535250000003	2019-12-13 18:55:36.248466	-0.636990912187896	-4.16417998591679	-10.4559054118721	-10.2219387644159	-9.81891449968415	-10.4559054118721	0.636990912187896	-10.4559054118721	-4.16417998591679	-10.4559054118721	-9.81891449968415	-8.5270036797806	-5.4984333643601415	-3.8755977923078904	-8.389592187310758	-9.784835666631105	-10.907432440407957	-8.389592187310758	-7.687198376838116	-12.397728996039454	-6.899295631679258	-10.776048815126877	-1.4891411644917687	2	correct	1.0
36.12315859999944	8.752861700000722	nogo_punish	1.0	36.14672909999899	38.571784699999625	41.085198099999616	2.4250556000006327	37.15109950000078	40.0766734000008	44.13279340000008	1.420685199998843	1.0085246999988158	0.766797399999632	43.125645899999654	0.4666843000013614	42.097642099999575	1	1	65	3	nogo_punish	1	-1	0	0	0	1	1	1.0	1.0	0	1.0	0.4666843000013614	659.4474232000002	695.5941522999992	696.598522700001	698.0192078999999	699.524096600001	700.5326212999998	701.5450652999998	702.5730690999999	703.5802166000003	704.347014	2019-12-13 18:55:36.248466	5.25687173077938	-5.3315721642058	-1.55985834030257	-4.38719635706982	-6.81673007108195	-1.55985834030257	-5.25687173077938	-1.55985834030257	-5.3315721642058	-1.55985834030257	-6.81673007108195	1.55985834030257	0.3954292786071347	-5.0429899705969	0.5064548842587719	-3.950093259285026	-7.9052480118057575	0.5064548842587719	2.3996636432450544	-3.5016819244699247	-3.897111203077058	-1.8800017435573477	-2.6565333427807785	2	correct	1.0
44.91648470000109	8.594519899999796	go_reward	0.2606142000004183	44.94005520000064	46.60472219999974	49.14598710000064	1.664666999999099	45.944792599999346	48.13730100000066	52.18899229999988	0.659929600000396	1.0086860999999772	1.3455828000005567	51.18221009999979	0.8296394000008149	50.157834300000104	1	1	66	2	go_reward	0	0	1	1	1	1	0	0.0	1.0	0	0.2606142000004183	0.8296394000008149	659.4474232000002	704.3874784000009	705.3922157999996	706.0521454	707.5847242000009	708.5934103000009	709.6052575000003	710.6296333	711.6364155000001	712.9819983000007	2019-12-13 18:55:36.248466	12.8580761875508	6.48090216884542	0.0	6.48090216884542	12.8580761875508	0.0	-12.8580761875508	6.48090216884542	0.0	12.8580761875508	0.0	-6.48090216884542	7.996633735378555	6.769484362454319	2.066313224561342	6.918005266630214	11.769558246826993	2.066313224561342	-5.641096865902935	10.916252603383446	2.919618868004892	6.160758765590642	2.675038821425021	2	correct	1.0
53.549026599999706	8.540081900000587	go_reward	0.2965003999997861	53.57259709999926	55.618691800000306	58.160485500000505	2.046094700001049	54.57786929999929	57.14747879999959	61.20297190000019	1.0408225000010134	1.0130067000009149	0.9097070999996504	60.19630420000067	0.7652624000002106	59.173003300000346	1	1	67	2	go_reward	1	1	0	1	1	1	0	0.0	1.0	1	0.2965003999997861	0.7652624000002106	659.4474232000002	713.0200202999995	714.0252924999995	715.0661150000005	716.5949019999998	717.6079087000007	718.6204265000006	719.6437274000009	720.6503951000004	721.5601022000001	2019-12-13 18:55:36.248466	11.5911944028679	5.7536220166519	0.0	5.7536220166519	11.5911944028679	0.0	-11.5911944028679	5.7536220166519	0.0	11.5911944028679	0.0	3.299533845839359	6.729751950695655	6.0422042102608	2.066313224561342	6.190725114436694	10.502676462144093	2.066313224561342	4.139339148781843	9.649370818700547	2.919618868004892	5.4334786133971225	2.675038821425021	2	correct	1.0
62.13048080000044	7.980873599999541	nogo_punish	1.0	62.15405129999999	63.65119810000033	66.16579769999953	1.497146800000337	63.15880569999899	65.15619800000059	69.20726400000058	0.4923924000013358	1.0095996999989438	0.9276608999989548	68.20139539999946	0.451716799998394	67.17762849999963	1	1	68	3	nogo_punish	1	-1	0	0	0	1	0	0.0	1.0	0	1.0	0.451716799998394	659.4474232000002	721.6014745000002	722.6062288999992	723.0986213000006	724.6036212000008	725.6132208999998	726.6250516999999	727.6488185999997	728.6546872000008	729.5823480999998	2019-12-13 18:55:36.248466	5.06864221586954	-5.3315721642058	-1.38034661458102	-3.89143562085459	-6.44898883045057	-1.38034661458102	-5.06864221586954	-1.38034661458102	-5.3315721642058	-1.38034661458102	-6.44898883045057	1.38034661458102	0.20719976369729398	-5.0429899705969	0.6859666099803221	-3.454332523069796	-7.537506771174377	0.6859666099803221	2.2201519175235043	-3.3221701987483745	-3.529369962445678	-1.7004900178357976	-2.6565333427807785	2	correct	1.0
70.14753030000065	9.692991099998835	nogo_reward	0.2932398000011744	70.1711008000002	72.87828369999988	75.41747340000074	2.7071828999996796	71.17540439999902	74.40774369999963	78.45961929999976	1.702879300000859	1.0097297000011167	1.4044725999992806	77.45343529999991	0.5524229000002379	76.42990680000003	1	1	69	1	nogo_reward	1	0	1	0	1	0	0	0.0	1.0	0	0.2932398000011744	0.5524229000002379	659.4474232000002	729.6185240000004	730.6228275999993	732.3257069000001	733.8551668999999	734.864896600001	735.8773300000003	736.9008585000001	737.9070425	739.3115150999993	2019-12-13 18:55:36.248466	5.59304368633302	2.70684797333264	0.972829436591704	3.00154274912368	6.56587312292473	0.972829436591704	-5.59304368633302	2.70684797333264	0.972829436591704	6.56587312292473	0.972829436591704	-2.70684797333264	0.7316012341607747	2.9954301669415395	3.039142661153046	3.438645846908474	5.477355182200922	3.039142661153046	-1.867042670390156	4.624049538757375	3.892448304596596	2.386704570077862	3.647868258016725	2	correct	1.0
79.87537320000047	8.172962200000256	nogo_reward	0.2596341999997094	79.89894370000002	81.68282510000063	84.22198290000051	1.7838814000006096	80.90285930000027	83.21330999999918	87.26662020000003	0.7799658000003546	1.0086729000013293	0.8052857000002405	86.26007349999963	0.4322229999997944	85.23417800000061	1	1	70	1	nogo_reward	1	0	1	0	1	0	0	0.0	1.0	0	0.2596341999997094	0.4322229999997944	659.4474232000002	739.3463669000002	740.3502825000005	741.1302483000009	742.6607331999994	743.6694061000007	744.6816012000008	745.7074966999999	746.7140434000003	747.5193291000005	2019-12-13 18:55:36.248466	5.03650754268949	2.40054524925257	0.972829436591704	2.66433666322551	6.0093369792812	0.972829436591704	-5.03650754268949	2.40054524925257	0.972829436591704	6.0093369792812	0.972829436591704	-2.40054524925257	0.1750650905172444	2.6891274428614693	3.039142661153046	3.101439761010304	4.920819038557393	3.039142661153046	-1.5607399463100857	4.067513395113846	3.892448304596596	2.080401845997792	3.647868258016725	2	correct	1.0
88.09015300000101	8.306737400000202	nogo_punish	1.0	88.11372350000056	89.54694589999963	92.0610312000008	1.4332223999990674	89.11781080000037	91.0520462000004	95.10463610000079	0.42913509999925736	1.0089850000003935	1.315824799999973	94.09786990000066	0.5333776999996189	93.07310549999966	1	1	71	3	nogo_punish	1	-1	0	0	0	1	0	0.0	1.0	0	1.0	0.5333776999996189	659.4474232000002	747.5611467000008	748.5652340000006	748.9943690999999	750.4994694000006	751.508454400001	752.5205286999999	753.5452931000009	754.552059300001	755.867884100001	2019-12-13 18:55:36.248466	4.9050897825623	-5.3315721642058	-1.2239750310332	-3.45866372731756	-6.12906481359551	-1.2239750310332	-4.9050897825623	-1.2239750310332	-5.3315721642058	-1.2239750310332	-6.12906481359551	1.2239750310332	0.04364733039005397	-5.0429899705969	0.842338193528142	-3.021560629532766	-7.217582754319317	0.842338193528142	2.0637803339756844	-3.1657986152005546	-3.209445945590618	-1.5441184342879777	-2.6565333427807785	2	correct	1.0
96.43224550000014	9.209987000000183	go_punish	1.0	96.45581599999969	98.62401490000047	101.14239649999945	2.168198900000789	97.46049959999982	100.12891579999996	104.18400359999941	1.163515300000654	1.0134806999994908	1.4817994000004546	103.17760610000005	0.6863720999990619	102.1540316999999	1	1	72	4	go_punish	1	0	-1	1	0	0	0	0.0	1.0	-1	1.0	0.6863720999990619	659.4474232000002	755.9032391999999	756.9079228	758.0714381000007	759.5763390000002	760.5898196999997	761.6014549000001	762.6250293000003	763.6314267999996	765.1132262000001	2019-12-13 18:55:36.248466	-0.814887968706714	-4.16417998591679	-11.2742855144956	-11.1067387757585	-10.4593975457889	-11.2742855144956	0.814887968706714	-11.2742855144956	-4.16417998591679	-11.2742855144956	-10.4593975457889	-7.7086235771571	-5.676330420878959	-3.8755977923078904	-9.207972289934258	-10.669635677973705	-11.547915486512707	-9.207972289934258	-6.8688182742146155	-13.216109098662955	-7.539778677784008	-11.594428917750378	-1.4891411644917687	2	correct	1.0
105.68394249999983	9.708181900001364	nogo_punish	1.0	105.70751299999938	108.46507659999952	110.98469549999936	2.7575636000001396	106.71159509999961	109.97035639999922	114.03013920000012	1.753481499999907	1.014339100000143	1.385555700000623	113.02322679999997	0.4572376000014628	111.99719360000017	1	1	73	3	nogo_punish	0	0	-1	0	0	1	1	0.0	0.0	-1	1.0	0.4572376000014628	659.4474232000002	765.1549361999996	766.1590182999998	767.9124997999998	769.4177795999994	770.4321186999996	771.4446168000004	772.4706500000002	773.4775624000004	774.863118100001	2019-12-13 18:55:36.248466	4.7625811208931	-5.3315721642058	-1.08740177258765	-3.07986245534483	-5.84998289348074	-1.08740177258765	-4.7625811208931	-1.08740177258765	-5.3315721642058	-1.08740177258765	-5.84998289348074	-17.89550731906505	-0.09886133127914576	-5.0429899705969	0.9789114519736921	-2.642759357560036	-6.9385008342045476	0.9789114519736921	-17.055702016122567	-3.0292253567550045	-2.930364025475848	-1.4075451758424276	-2.6565333427807785	2	wrong	1.0
115.42886360000011	8.79632010000023	nogo_reward	0.2636480999990453	115.45243409999966	117.45276840000042	119.99735259999943	2.000334300000759	116.45711929999925	118.9835335000007	123.03891959999964	0.9956491000011738	1.0138190999987273	1.2098346000002493	122.03319220000049	0.5094618999992235	121.00840690000041	1	1	74	1	nogo_reward	0	1	0	0	1	0	0	0.0	1.0	1	0.2636480999990453	0.5094618999992235	659.4474232000002	774.8998572999999	775.9045424999995	776.9001916000007	778.4309567000009	779.4447757999997	780.4558301000006	781.4806154000007	782.4863427999999	783.6961774000001	2019-12-13 18:55:36.248466	4.5501394186855	2.13260519769286	0.972829436591704	2.36905388754061	5.52296885527721	0.972829436591704	-4.5501394186855	2.13260519769286	0.972829436591704	5.52296885527721	0.972829436591704	6.920550664798399	-0.3113030334867455	2.4211873913017596	3.039142661153046	2.806156985325404	4.434450914553402	3.039142661153046	7.7603559677408835	3.581145271109855	3.892448304596596	1.8124617944380825	3.647868258016725	2	correct	1.0
124.26166279999961	8.281340600000476	go_punish	0.898772700000336	124.28523329999916	125.60463170000003	128.14323390000027	1.319398400000864	125.29002290000062	127.13360459999967	131.16999690000011	0.31460879999940516	1.0096293000005971	1.3965769999995246	130.1631985999993	1.0	129.1543056999999	1	1	75	4	go_punish	1	0	-1	1	1	1	0	n/a	0.0	-1	0.898772700000336	1.0	659.4474232000002	783.7326564999994	784.7374461000009	785.0520549000003	786.5810277999999	787.5906571000005	788.6017289000001	789.6106217999995	790.6174201000003	792.0139970999999	2019-12-13 18:55:36.248466	0.980545907775849	-4.16417998591679	-12.0049845997353	-11.8901165028536	-11.0244386919594	-12.0049845997353	-0.980545907775849	-4.16417998591679	-12.0049845997353	-11.0244386919594	-12.0049845997353	4.16417998591679	-3.8808965443963968	-3.8755977923078904	-9.938671375173957	-11.453013405068805	-12.112956632683208	-9.938671375173957	5.003985288859274	-12.966262276126754	-9.085365731730409	-4.484323389171568	-9.329945778310279	2	missed	0.0
132.58105980000073	9.106734599999982	go_reward	0.2736229000001913	132.60463030000028	135.21579179999935	137.75830889999997	2.6111614999990707	133.60913489999984	136.74486029999935	140.79840669999976	1.606656899999507	1.013448600000629	0.912958200000503	139.79232629999933	0.8815716000008251	138.77075990000048	1	1	76	2	go_reward	1	1	0	1	1	1	0	0.0	1.0	1	0.2736229000001913	0.8815716000008251	659.4474232000002	792.0520535000005	793.0565581000001	794.6632149999996	796.1922834999996	797.2057321000002	798.2181831000007	799.2397494999996	800.2458299	801.1587881000005	2019-12-13 18:55:36.248466	12.1711441380245	6.08956089070813	0.0	6.08956089070813	12.1711441380245	0.0	-12.1711441380245	6.08956089070813	0.0	12.1711441380245	0.0	2.963594971783129	7.3097016858522545	6.3781430843170295	2.066313224561342	6.526663988492924	11.082626197300693	2.066313224561342	3.8034002747256133	10.229320553857146	2.919618868004892	5.769417487453352	2.675038821425021	2	correct	1.0
141.72390620000078	9.353084999998828	nogo_reward	0.2823353999992832	141.74747670000033	144.5111839000001	147.05598420000024	2.7637071999997715	142.75290089999908	146.0449607999999	150.10055710000051	1.758283000001029	1.0110234000003402	1.0000045999986469	149.09446519999983	0.4292497999995248	148.07025430000067	1	1	77	1	nogo_reward	1	0	1	0	1	0	0	0.0	1.0	0	0.2823353999992832	0.4292497999995248	659.4474232000002	801.1948999000006	802.2003240999993	803.9586071000003	805.4923840000001	806.5034074000005	807.5176775000009	808.5418884000001	809.5479803000007	810.5479848999994	2019-12-13 18:55:36.248466	5.81205974102255	2.87055608097624	0.972829436591704	3.08277419938331	6.78488917761425	0.972829436591704	-5.81205974102255	2.87055608097624	0.972829436591704	6.78488917761425	0.972829436591704	-2.87055608097624	0.9506172888503039	3.1591382745851395	3.039142661153046	3.519877297168104	5.6963712368904424	3.039142661153046	-2.030750778033756	4.843065593446895	3.892448304596596	2.550412677721462	3.647868258016725	2	correct	1.0
151.1142746000005	8.17234979999921	go_punish	0.2751726000005874	151.13784510000005	152.70519149999927	155.24607339999966	1.5673463999992236	152.1425237000003	154.23717419999957	158.28959450000002	0.5626677999989624	1.0088992000000871	1.020600399999239	157.28264490000038	0.6781836000009207	156.2582609000001	1	1	78	4	go_punish	1	0	-1	1	1	1	0	0.0	1.0	0	0.2751726000005874	0.6781836000009207	659.4474232000002	810.5852683000003	811.5899469000005	812.1526146999995	813.6845973999998	814.6934965999999	815.7056841000003	816.7300681000006	817.7370177000003	818.7576180999995	2019-12-13 18:55:36.248466	-1.05185423200395	-5.69691448259735	-12.0049845997353	-12.5852908042101	-13.0568388317392	-12.0049845997353	1.05185423200395	-5.69691448259735	-12.0049845997353	-13.0568388317392	-12.0049845997353	5.69691448259735	-5.913296684176196	-5.408332288988451	-9.938671375173957	-12.148187706425306	-14.145356772463007	-9.938671375173957	6.536719785539835	-14.998662415906553	-9.085365731730409	-6.017057885852128	-9.329945778310279	2	correct	1.0
159.32789510000111	8.526035999999294	nogo_punish	1.0	159.35146560000067	161.2715528000008	163.7875335000008	1.9200872000001254	160.35644449999927	162.7766434999994	166.83136009999907	0.9151083000015205	1.0108900000013818	1.0461415000008856	165.8242138000005	0.6238370000010036	164.7996703000008	1	1	79	3	nogo_punish	1	-1	0	0	0	1	0	0.0	1.0	0	1.0	0.6238370000010036	659.4474232000002	818.7988888000009	819.8038676999995	820.718976000001	822.2240666999996	823.234956700001	824.247093500001	825.2716370000007	826.2787832999993	827.3249248000002	2019-12-13 18:55:36.248466	4.09892687155861	-5.3315721642058	-2.97301853646534	-4.75266951735732	-7.07194540802395	-2.97301853646534	-4.09892687155861	-2.97301853646534	-5.3315721642058	-2.97301853646534	-7.07194540802395	2.97301853646534	-0.7625155806136359	-5.0429899705969	-0.9067053119039978	-4.315566419572526	-8.160463348747758	-0.9067053119039978	3.812823839407824	-4.914842120632694	-4.152326540019058	-3.2931619397201177	-2.6565333427807785	2	correct	1.0
167.89581999999973	9.023589899999934	nogo_punish	1.0	167.91939049999928	170.19889899999907	172.71295699999973	2.2795084999997925	168.92391789999965	171.70337990000007	175.75394699999924	1.2749810999994224	1.0095770999996603	1.1890333999999712	174.74803330000032	0.7501073999992514	173.7253230999995	1	1	80	3	nogo_punish	1	-1	0	0	0	1	0	0.0	1.0	0	1.0	0.7501073999992514	659.4474232000002	827.3668136999995	828.3713410999999	829.6463221999993	831.1508031000003	832.1603802	833.1727462999997	834.1954565000005	835.2013701999995	836.3904035999994	2019-12-13 18:55:36.248466	4.0496120721783	-5.3315721642058	-2.62941821160656	-4.22167242084686	-6.67903028378486	-2.62941821160656	-4.0496120721783	-2.62941821160656	-5.3315721642058	-2.62941821160656	-6.67903028378486	2.62941821160656	-0.8118303799939453	-5.0429899705969	-0.563104987045218	-3.7845693230620663	-7.767548224508667	-0.563104987045218	3.469223514549044	-4.571241795773915	-3.759411415779968	-2.949561614861338	-2.6565333427807785	2	correct	1.0
176.9568737999998	8.990558700001202	go_reward	0.2973994000003586	176.98044429999936	179.4980747999998	182.04519140000048	2.5176305000004504	177.98417039999913	181.03192239999953	185.08829100000003	1.5139044000006834	1.013269000000946	0.882712000000538	184.0818204999996	0.5356524999988324	183.05588159999934	1	1	81	2	go_reward	1	1	0	1	1	1	0	0.0	1.0	1	0.2973994000003586	0.5356524999988324	659.4474232000002	836.4278674999996	837.4315935999994	838.945498	840.4793455999998	841.4926146000007	842.5033047999996	843.5292436999998	844.5357142000003	845.4184262000008	2019-12-13 18:55:36.248466	12.6839224421874	6.38702142741246	0.0	6.38702142741246	12.6839224421874	0.0	-12.6839224421874	6.38702142741246	0.0	12.6839224421874	0.0	2.666134435078799	7.822479990015155	6.675603621021359	2.066313224561342	6.824124525197254	11.595404501463593	2.066313224561342	3.5059397380212833	10.742098858020046	2.919618868004892	6.066878024157682	2.675038821425021	2	correct	1.0
185.98962849999953	9.787781100001666	nogo_punish	1.0	186.01319899999908	188.97309870000026	191.48755510000046	2.9598997000011877	187.01775690000068	190.4780580000006	194.53193629999987	1.9553417999995872	1.0094970999998623	1.2690438000008726	193.52451420000034	0.4459375000005821	192.49955469999986	1	1	82	3	nogo_punish	1	-1	0	0	0	1	1	1.0	1.0	0	1.0	0.4459375000005821	659.4474232000002	845.4606221999993	846.4651801000009	848.4205219000005	849.9254812000008	850.9349783000007	851.9469779000001	852.9719374000006	853.9793595000001	855.248403300001	2019-12-13 18:55:36.248466	4.00614992443795	-5.3315721642058	-2.33047136527736	-3.7573499168474	-6.33662128971531	-2.33047136527736	-4.00614992443795	-2.33047136527736	-5.3315721642058	-2.33047136527736	-6.33662128971531	2.33047136527736	-0.8552925277342958	-5.0429899705969	-0.26415814071601806	-3.3202468190626058	-7.425139230439117	-0.26415814071601806	3.170276668219844	-4.272294949444714	-3.417002421710418	-2.650614768532138	-2.6565333427807785	2	correct	1.0
195.81989470000008	8.846113499999774	nogo_punish	1.0	195.84346519999963	198.17295489999924	200.68816220000008	2.3294896999996126	196.84755960000075	199.6782705000005	203.7302925999993	1.3253952999984904	1.0098916999995708	0.9592861000000994	202.72393050000028	0.4089524999999412	201.69956160000038	1	1	83	3	nogo_punish	1	-1	0	0	0	1	0	0.0	1.0	0	1.0	0.4089524999999412	659.4474232000002	855.2908883999999	856.294982800001	857.6203780999995	859.1256937000007	860.1355854000003	861.1469848000006	862.1713537000005	863.1777157999995	864.1370018999996	2019-12-13 18:55:36.248466	3.9678035199694	-5.3315721642058	-2.06963529246438	-3.35027441850887	-6.03743881243378	-2.06963529246438	-3.9678035199694	-2.06963529246438	-5.3315721642058	-2.06963529246438	-6.03743881243378	2.06963529246438	-0.8936389322028457	-5.0429899705969	-0.0033220679030381284	-2.913171320724076	-7.125956753157587	-0.0033220679030381284	2.9094405954068643	-4.0114588766317345	-3.117819944428888	-2.389778695719158	-2.6565333427807785	2	correct	1.0
204.701927600001	8.362555099998644	nogo_reward	0.3058985000006942	204.72549810000055	206.28943199999958	208.83874660000038	1.5639338999990287	205.73132009999972	207.8213599999999	211.88076150000052	0.558111899999858	1.0173866000004637	1.2072916999986774	210.8745018999998	0.5151076999991346	209.85132949999934	1	1	84	1	nogo_reward	0	1	0	0	1	0	0	0.0	1.0	1	0.3058985000006942	0.5151076999991346	659.4474232000002	864.1729213000008	865.1787433	865.7368551999998	867.2687832000001	868.2861698000006	869.2987526999996	870.3219251	871.3281847000007	872.5354763999994	2019-12-13 18:55:36.248466	5.2341318148785	2.54777803094827	0.972829436591704	2.73849073967449	6.2069612514702	0.972829436591704	-5.2341318148785	2.54777803094827	0.972829436591704	6.2069612514702	0.972829436591704	6.505377831542989	0.37268936270625463	2.8363602245571693	3.039142661153046	3.1755938374592843	5.118443310746392	3.039142661153046	7.345183134485474	4.265137667302845	3.892448304596596	2.227634627693492	3.647868258016725	2	correct	1.0
213.1017036000012	9.083530599998994	nogo_reward	0.7629917000012938	213.12527410000075	215.6964955000003	218.27258389999952	2.5712213999995583	214.12973989999955	217.24147389999962	221.31674360000034	1.5667556000007608	1.0311099999998987	0.8920610999994096	220.30984089999947	0.3742325999992317	219.2843675999993	1	1	85	1	nogo_reward	1	0	1	0	1	0	0	0.0	1.0	0	0.7629917000012938	0.3742325999992317	659.4474232000002	872.572697300001	873.5771630999998	875.1439187000005	876.6888970999998	877.7200070999997	878.7317907999995	879.7572640999997	880.7641668000006	881.6562279	2019-12-13 18:55:36.248466	6.41656973225608	3.23804024853567	0.972829436591704	3.40963806513885	7.38939916884778	0.972829436591704	-6.41656973225608	3.23804024853567	0.972829436591704	7.38939916884778	0.972829436591704	-3.23804024853567	1.555127280083834	3.5266224421445695	3.039142661153046	3.846741162923644	6.3008812281239726	3.039142661153046	-2.398234945593186	5.4475755846804255	3.892448304596596	2.917896845280892	3.647868258016725	2	correct	1.0
222.23970709999958	8.757611300001372	nogo_punish	1.0	222.26327759999913	224.4840533000006	226.9997585000001	2.220775700001468	223.26738359999945	225.9894065999997	230.04317730000002	1.2166697000011482	1.010351900000387	0.9777116000004753	229.03557949999959	0.4594126000010874	228.0121624000003	1	1	86	3	nogo_punish	1	-1	0	0	0	1	0	0.0	1.0	0	1.0	0.4594126000010874	659.4474232000002	881.7107007999994	882.7148067999997	883.9314765000008	885.4368297999999	886.4471817000003	887.4595856000005	888.4830026999998	889.4906005000003	890.4683121000007	2019-12-13 18:55:36.248466	3.93392860575199	-5.3315721642058	-1.84145648604756	-2.99252916411542	-5.77538509179955	-1.84145648604756	-3.93392860575199	-1.84145648604756	-5.3315721642058	-1.84145648604756	-5.77538509179955	1.84145648604756	-0.9275138464202555	-5.0429899705969	0.22485673851378207	-2.555426066330626	-6.863903032523358	0.22485673851378207	2.681261788990044	-3.7832800702149143	-2.8557662237946584	-2.161599889302338	-2.6565333427807785	2	correct	1.0
231.03575790000104	9.566107099999499	nogo_reward	0.2758288999993965	231.0593284000006	233.5296032999995	236.0915526000008	2.4702748999989126	232.06348079999952	235.08075309999913	239.13657020000028	1.4661224999999831	1.0107995000016672	1.4888652999998158	238.1296332999991	0.4046908999989682	237.1017066000004	1	1	87	1	nogo_reward	1	0	1	0	1	0	1	1.0	1.0	0	0.2758288999993965	0.4046908999989682	659.4474232000002	890.5067516000008	891.5109039999998	892.9770264999997	894.5281762999994	895.538975800001	896.5491298000006	897.5770564999993	898.5839934000005	900.0728587000003	2019-12-13 18:55:36.248466	5.7694611289323	2.87368334136674	0.972829436591704	3.02826681104874	6.742290565524	0.972829436591704	-5.7694611289323	2.87368334136674	0.972829436591704	6.742290565524	0.972829436591704	-2.87368334136674	0.9080186767600544	3.1622655349756394	3.039142661153046	3.465369908833534	5.653772624800192	3.039142661153046	-2.033878038424256	4.800466981356645	3.892448304596596	2.553539938111962	3.647868258016725	2	correct	1.0
240.6390554999998	8.535611700001027	nogo_reward	0.3641987999999401	240.66262599999936	242.20533989999979	244.7664678000002	1.5427139000004217	241.6674019000002	243.7405197999998	247.80981129999975	0.537937999999599	1.025948000000426	1.3884264000006397	246.80368909999936	0.4764664999984234	245.7789924000008	1	1	88	1	nogo_reward	1	0	1	0	1	0	0	1.0	0.0	0	0.3641987999999401	0.4764664999984234	659.4474232000002	900.1100491999996	901.1148251000004	901.6527631	903.187943	904.2138910000004	905.226415600001	906.2511122999996	907.2572345	908.6456609000006	2019-12-13 18:55:36.248466	5.20366694112364	2.55477632100906	0.972829436591704	2.69419422991246	6.17649637771535	0.972829436591704	-5.20366694112364	2.55477632100906	0.972829436591704	6.17649637771535	0.972829436591704	-2.55477632100906	0.3422244889513939	2.8433585146179596	3.039142661153046	3.131297327697254	5.087978436991542	3.039142661153046	-1.714971018066576	4.234672793547995	3.892448304596596	2.2346329177542823	3.647868258016725	2	wrong	1.0
249.2129963999996	8.204125800000838	go_punish	0.3789185000005091	249.23656689999916	250.58552380000037	253.15569940000012	1.3489569000012125	250.24086630000056	252.14609349999955	256.19833590000053	0.344657499999812	1.0096059000005653	1.2423567999994702	255.19154139999955	0.3831614999999146	254.166378599999	1	1	89	4	go_punish	1	0	-1	1	1	1	0	0.0	1.0	0	0.3789185000005091	0.3831614999999146	659.4474232000002	908.6839900999994	909.6882895000008	910.0329470000006	911.5935166999998	912.6031226000003	913.6138017999992	914.6389645999998	915.6457591000008	916.8881159000002	2019-12-13 18:55:36.248466	0.62253515954205	-5.04572703519846	-12.0049845997353	-11.1983179949598	-11.3824494401932	-12.0049845997353	-0.62253515954205	-5.04572703519846	-12.0049845997353	-11.3824494401932	-12.0049845997353	5.04572703519846	-4.238907292630196	-4.757144841589561	-9.938671375173957	-10.761214897175005	-12.470967380917008	-9.938671375173957	5.885532338140945	-13.324273024360554	-9.085365731730409	-5.365870438453238	-9.329945778310279	2	correct	1.0
257.4594362000006	8.05221670000003	go_punish	0.316484599999967	257.48300670000015	258.9539141999994	261.53161499999976	1.4709074999992708	258.4873284999994	260.5179748999998	264.5729577000002	0.466585699999996	1.013640099999975	0.962265699999989	263.5662847999994	0.4993138000008912	262.5431962000001	1	1	90	4	go_punish	0	-1	0	1	1	1	0	0.0	1.0	-1	0.316484599999967	0.4993138000008912	659.4474232000002	916.9304299000004	917.9347516999997	918.4013373999996	919.9653981	920.9790382	921.9906194000004	923.0137079999996	924.0203809000004	924.9826466000004	2019-12-13 18:55:36.248466	2.08407625322916	-4.47798303705889	-12.0049845997353	-9.98267422654804	-9.92090834650611	-12.0049845997353	-2.08407625322916	-4.47798303705889	-12.0049845997353	-9.92090834650611	-12.0049845997353	-14.50492605459381	-2.777366198943086	-4.189400843449991	-9.938671375173957	-9.545571128763246	-11.009426287229918	-9.938671375173957	-13.665120751651326	-11.862731930673464	-9.085365731730409	-4.798126440313668	-9.329945778310279	2	correct	1.0
265.55261820000123	9.432360799999401	go_reward	0.2941362999990815	265.5761887000008	268.3474060999997	270.9464095000002	2.771217399998932	266.5805999999993	269.9275737999998	273.9904573999994	1.7668061000003945	1.018835700000409	1.0180921000007856	272.98397699999975	0.5626411000012013	271.96185909999974	1	1	91	2	go_reward	1	1	0	1	1	1	0	0.0	1.0	1	0.2941362999990815	0.5626411000012013	659.4474232000002	925.023611900001	926.0280231999996	927.7948293	929.374997	930.3938327000004	931.4092823	932.4314002	933.4378805999996	934.4559727000004	2019-12-13 18:55:36.248466	13.1382399721761	6.65094358249758	0.0	6.65094358249758	13.1382399721761	0.0	-13.1382399721761	6.65094358249758	0.0	13.1382399721761	0.0	2.4022122799936794	8.276797520003853	6.939525776106479	2.066313224561342	7.088046680282374	12.049722031452292	2.066313224561342	3.2420175829361635	11.196416388008746	2.919618868004892	6.330800179242802	2.675038821425021	2	correct	1.0
275.02916259999984	7.692579800001226	nogo_punish	1.0	275.0527330999994	276.4131720999993	278.932380799999	1.3604389999999285	276.05774569999994	277.9182619000002	281.97319419999974	0.35542639999937364	1.0141188999988344	0.772118700000874	280.9658278000006	0.7962881000003108	279.94313499999953	1	1	92	3	nogo_punish	0	0	-1	0	0	1	0	0.0	1.0	-1	1.0	0.7962881000003108	659.4474232000002	934.5001562999996	935.5051689000002	935.8605952999995	937.3656851000004	938.3798039999992	939.3905581999998	940.4132510000009	941.4206174	942.1927361000008	2019-12-13 18:55:36.248466	3.90396411090197	-5.3315721642058	-1.64136161498725	-2.67743022272052	-5.54532572588922	-1.64136161498725	-3.90396411090197	-1.64136161498725	-5.3315721642058	-1.64136161498725	-5.54532572588922	-17.34154747666545	-0.9574783412702756	-5.0429899705969	0.42495160957409195	-2.240327124935726	-6.633843666613028	0.42495160957409195	-16.501742173722967	-3.5831851991546046	-2.625706857884328	-1.9615050182420277	-2.6565333427807785	2	correct	1.0
282.7633046999998	8.954233400000021	go_reward	0.2602497999996558	282.7868751999994	285.2662146999992	287.85955339999975	2.47933949999981	283.79152729999976	286.8456466000006	290.90316600000017	1.474687399999425	1.0139067999991767	0.8379425999992236	289.89596619999975	0.4982598000005964	288.8722825999994	1	1	93	2	go_reward	1	1	0	1	1	1	1	1.0	1.0	1	0.2602497999996558	0.4982598000005964	659.4474232000002	942.2342983999996	943.2389505	944.7136378999994	946.2930698000008	947.3069766	948.3197057999996	949.3433894	950.3505892000004	951.1885317999996	2019-12-13 18:55:36.248466	13.5415449168746	6.88555733526019	0.0	6.88555733526019	13.5415449168746	0.0	-13.5415449168746	6.88555733526019	0.0	13.5415449168746	0.0	2.1675985272310694	8.680102464702355	7.174139528869089	2.066313224561342	7.322660433044984	12.453026976150792	2.066313224561342	3.0074038301735535	11.599721332707245	2.919618868004892	6.565413932005412	2.675038821425021	2	correct	1.0
291.7581826000006	8.478548200000546	go_reward	0.3039998000003834	291.7817531000002	293.17655430000013	295.75467930000013	1.3948011999999608	292.78608639999936	294.740713699999	298.7973812	0.3904679000007718	1.0139656000011428	1.4629201000007015	297.79123380000055	0.6188956000005419	296.765621299999	1	1	94	2	go_reward	1	1	0	1	1	1	0	0.0	1.0	1	0.3039998000003834	0.6188956000005419	659.4474232000002	951.2291763000004	952.2335095999996	952.6239775000004	954.1881368999992	955.2021025000004	956.2130444999992	957.2386570000008	958.2448044000002	959.707724500001	2019-12-13 18:55:36.248466	13.9002278032559	7.0944971724541	0.0	7.0944971724541	13.9002278032559	0.0	-13.9002278032559	7.0944971724541	0.0	13.9002278032559	0.0	1.9586586900371588	9.038785351083654	7.383079366063	2.066313224561342	7.5316002702388944	12.811709862532092	2.066313224561342	2.798463992979643	11.958404219088546	2.919618868004892	6.7743537691993225	2.675038821425021	2	correct	1.0
300.2744803000006	8.490348999999583	nogo_reward	0.3380231000010099	300.29805080000017	301.9605025000002	304.5098041000002	1.6624517000000196	301.30241559999934	303.49100650000037	307.55192349999936	0.6580869000008533	1.018797599999857	1.2364763000003904	306.5455354000005	0.4551449000009597	305.52236749999975	1	1	95	1	nogo_reward	1	0	1	0	1	0	0	0.0	1.0	0	0.3380231000010099	0.4551449000009597	659.4474232000002	959.7454740000004	960.7498387999996	961.4079257000004	962.9384297000006	963.9572273000005	964.9697907	965.9929586000007	966.9993466999996	968.235823	2019-12-13 18:55:36.248466	4.70790660530774	2.27505320190203	0.972829436591704	2.40093534018381	5.68073604189945	0.972829436591704	-4.70790660530774	2.27505320190203	0.972829436591704	5.68073604189945	0.972829436591704	-2.27505320190203	-0.1535358468645054	2.5636353955109294	3.039142661153046	2.838038437968604	4.592218101175642	3.039142661153046	-1.4352478989595459	3.738912457732095	3.892448304596596	1.9549097986472523	3.647868258016725	2	correct	1.0
308.80232570000044	8.520891500000175	nogo_reward	0.290971399999762	308.8258962	310.7945316000006	313.3685265999993	1.9686354000006077	309.830824999999	312.35601680000036	316.4111150000008	0.9637066000016148	1.012509799998952	0.9356726999993725	315.40463160000036	0.5083793999983754	314.3801629999998	1	1	96	1	nogo_reward	1	0	1	0	1	0	0	0.0	1.0	0	0.290971399999762	0.5083793999983754	659.4474232000002	968.2733194000002	969.2782481999992	970.2419548000008	971.8034400000006	972.8159497999995	973.8275862	974.8520548000006	975.858538200001	976.7942109000004	2019-12-13 18:55:36.248466	4.27262510592421	2.02920197513874	0.972829436591704	2.14298728850469	5.24545454251592	0.972829436591704	-4.27262510592421	2.02920197513874	0.972829436591704	5.24545454251592	0.972829436591704	-2.02920197513874	-0.5888173462480353	2.3177841687476395	3.039142661153046	2.580090386289484	4.156936601792112	3.039142661153046	-1.1893966721962559	3.303630958348565	3.892448304596596	1.7090585718839624	3.647868258016725	2	correct	1.0
317.36023170000044	8.07355169999937	nogo_reward	0.3839442999997118	317.3838022	318.7466353	321.3115691999992	1.362833099999989	318.38861739999993	320.3017579999996	324.3552476999994	0.35801790000004985	1.0098111999996036	1.1021061999999802	323.3484709000004	0.4091929000005621	322.3252855999998	1	1	97	1	nogo_reward	1	0	1	0	1	0	1	1.0	1.0	0	0.3839442999997118	0.4091929000005621	659.4474232000002	976.8312254000002	977.8360406000002	978.1940585000002	979.7491811999998	980.7589923999994	981.7727088	982.7958941000006	983.8026708999996	984.9047770999996	2019-12-13 18:55:36.248466	3.88970143291105	1.81270384890818	0.972829436591704	1.91566467837469	4.86253086950275	0.972829436591704	-3.88970143291105	1.81270384890818	0.972829436591704	4.86253086950275	0.972829436591704	-1.81270384890818	-0.9717410192611955	2.1012860425170796	3.039142661153046	2.352767776159484	3.7740129287789426	3.039142661153046	-0.9728985459656957	2.9207072853353955	3.892448304596596	1.4925604456534023	3.647868258016725	2	correct	1.0
325.47511570000097	8.54941150000002	go_reward	0.3337900000005902	325.4986862000005	327.0027389000006	329.5485714000006	1.504052700000102	326.5032828000002	328.5344915000005	332.59157699999935	0.4994561000004296	1.0140799000000698	1.4565207000011924	331.58480860000054	0.601339699998789	330.56018779999977	1	1	98	2	go_reward	1	1	0	1	1	1	0	0.0	1.0	1	0.3337900000005902	0.601339699998789	659.4474232000002	984.9461094000008	985.9507060000004	986.4501621000009	987.9819147000007	988.9959946000008	990.007611	991.0322318000008	992.0390001999996	993.4955209000008	2019-12-13 18:55:36.248466	14.2197888863941	7.28089571583943	0.0	7.28089571583943	14.2197888863941	0.0	-14.2197888863941	7.28089571583943	0.0	14.2197888863941	0.0	1.7722601466518295	9.358346434221854	7.569477909448329	2.066313224561342	7.717998813624224	13.131270945670293	2.066313224561342	2.6120654495943136	12.277965302226747	2.919618868004892	6.960752312584652	2.675038821425021	2	correct	1.0
334.0624789000012	8.686323599999014	go_reward	0.3402001000013115	334.0860494000008	335.9473902999998	338.51782869999977	1.8613408999990497	335.0909248000007	337.50416229999973	341.56066409999937	0.8564654999991035	1.0136664000000337	1.211708900000417	340.55330479999975	0.6302322000010463	339.5303485000004	1	1	99	2	go_reward	1	1	0	1	1	1	0	0.0	1.0	1	0.3402001000013115	0.6302322000010463	659.4474232000002	993.533472600001	994.538348000001	995.3948135	996.9515855	997.9652519	998.9777717000006	1000.000728	1001.0080872999996	1002.2197962	2019-12-13 18:55:36.248466	14.5049759053576	7.44746083583843	0.0	7.44746083583843	14.5049759053576	0.0	-14.5049759053576	7.44746083583843	0.0	14.5049759053576	0.0	1.6056950266528291	9.643533453185356	7.7360430294473295	2.066313224561342	7.884563933623224	13.416457964633793	2.066313224561342	2.4455003295953133	12.563152321190246	2.919618868004892	7.127317432583652	2.675038821425021	2	correct	1.0
342.78727120000065	8.230026499999553	nogo_reward	0.4597983000003296	342.8108417000002	344.1440688999992	346.7143398999998	1.333227199998987	343.8157900999994	345.70240790000014	349.75706739999976	0.3282787999997936	1.0119319999996605	1.2838007999999945	348.75110719999975	0.4643700999986322	347.72613640000054	1	1	100	1	nogo_reward	1	0	1	0	1	0	0	0.0	1.0	0	0.4597983000003296	0.4643700999986322	659.4474232000002	1002.2582649000004	1003.2632132999996	1003.5914920999994	1005.1498311000004	1006.1617631	1007.1735596000008	1008.1985304	1009.2044906	1010.4882914	2019-12-13 18:55:36.248466	3.55221176142126	1.62170266906904	0.972829436591704	1.71496566453459	4.52504119801296	0.972829436591704	-3.55221176142126	1.62170266906904	0.972829436591704	4.52504119801296	0.972829436591704	-1.62170266906904	-1.3092306907509856	1.9102848626779394	3.039142661153046	2.152068762319384	3.436523257289152	3.039142661153046	-0.7818973661265557	2.583217613845605	3.892448304596596	1.3015592658142623	3.647868258016725	2	correct	1.0
351.0569104000007	8.32716059999973	go_reward	0.2807232000013755	351.0804809000002	353.05780849999974	355.60726389999934	1.9773275999995121	352.08508989999973	354.593130199999	358.6505978999994	0.9727186000000074	1.0141337000003432	0.7570436000005429	357.6443670999997	0.6644817000014882	356.6200449000007	1	1	101	2	go_reward	1	1	0	1	1	1	1	1.0	1.0	1	0.2807232000013755	0.6644817000014882	659.4474232000002	1010.5279041000005	1011.5325131	1012.5052317	1014.0405533999992	1015.0546870999996	1016.067468100001	1017.0917903	1018.0980210999996	1018.8550647000002	2019-12-13 18:55:36.248466	14.7598981216098	7.59653954792931	0.0	7.59653954792931	14.7598981216098	0.0	-14.7598981216098	7.59653954792931	0.0	14.7598981216098	0.0	1.4566163145619493	9.898455669437553	7.885121741538209	2.066313224561342	8.033642645714103	13.671380180885992	2.066313224561342	2.2964216175044334	12.818074537442445	2.919618868004892	7.276396144674532	2.675038821425021	2	correct	1.0
359.4223731000002	8.392376899999135	go_punish	0.3029888999990362	359.44594359999974	361.0076487000006	363.5724021999994	1.561705100000836	360.4499933999996	362.5621881000005	366.6144862000001	0.5576553000009881	1.0102140999988478	1.2238342999987708	365.60743059999913	0.4961148999991565	364.58437269999945	1	1	102	4	go_punish	1	0	-1	1	1	1	0	0.0	1.0	0	0.3029888999990362	0.4961148999991565	659.4474232000002	1018.8933668	1019.8974165999998	1020.4550719000008	1022.0096113000008	1023.0198253999996	1024.0317958999997	1025.0548537999994	1026.0619094000003	1027.285743699999	2019-12-13 18:55:36.248466	-0.108159578168167	-5.98687362811996	-12.0049845997353	-10.919804064048	-12.1131441779034	-12.0049845997353	0.108159578168167	-5.98687362811996	-12.0049845997353	-12.1131441779034	-12.0049845997353	5.98687362811996	-4.969602030340413	-5.69829143451106	-9.938671375173957	-10.482700966263206	-13.201662118627208	-9.938671375173957	6.826678931062444	-14.054967762070754	-9.085365731730409	-6.307017031374738	-9.329945778310279	2	correct	1.0
367.8528113000011	9.479979799998546	go_reward	0.3130737999999837	367.8763818000007	370.41950759999986	372.97120919999907	2.5431257999991885	368.8814345999999	371.9578490999993	376.01171570000065	1.5380729999999403	1.0133600999997725	1.344645899998568	375.00595500000054	0.7231453999993391	373.98342950000006	1	1	103	2	go_reward	1	1	0	1	1	1	1	0.0	0.0	1	0.3130737999999837	0.7231453999993391	659.4474232000002	1027.323805000001	1028.3288578000002	1029.8669308	1031.4052722999995	1032.4186323999993	1033.4308527000003	1034.4533782000008	1035.4591389000009	1036.8037847999994	2019-12-13 18:55:36.248466	14.9881212093638	7.73017123507142	0.0	7.73017123507142	14.9881212093638	0.0	-14.9881212093638	7.73017123507142	0.0	14.9881212093638	0.0	1.3229846274198396	10.126678757191556	8.01875342868032	2.066313224561342	8.167274332856213	13.899603268639993	2.066313224561342	2.1627899303623237	13.046297625196447	2.919618868004892	7.410027831816642	2.675038821425021	2	wrong	1.0
377.3982534999993	8.809071200001199	nogo_punish	1.0	377.4218239999989	379.4673373000005	381.98833809999996	2.0455133000016303	378.4266184999997	380.97289610000007	385.0321237999997	1.0407188000008318	1.0154419999998936	1.1987714000003962	384.0249760000006	0.7178574000008666	382.99967300000026	1	1	104	3	nogo_punish	0	0	-1	0	0	1	0	0.0	1.0	-1	1.0	0.7178574000008666	659.4474232000002	1036.869247199999	1037.8740417	1038.9147605000007	1040.4203193000003	1041.4357613000002	1042.4470962000005	1043.4723992000008	1044.479547	1045.6783184000003	2019-12-13 18:55:36.248466	3.33826179113043	-5.3315721642058	-3.4706866822368	-4.40449940213146	-6.80894847336723	-3.4706866822368	-3.33826179113043	-3.4706866822368	-5.3315721642058	-3.4706866822368	-6.80894847336723	-15.512222409415902	-1.5231806610418155	-5.0429899705969	-1.404373457675458	-3.967396304346666	-7.897466414091038	-1.404373457675458	-14.672417106473418	-5.412510266404155	-3.889329605362338	-3.790830085491578	-2.6565333427807785	2	correct	1.0
386.2477178000008	9.197384299999612	go_punish	1.0	386.2712883000004	389.00342160000037	391.5224550999992	2.7321332999999868	387.27591369999936	390.50878179999927	394.5662209000002	1.727507900001001	1.0136732999999367	0.9024516999998013	393.5600477000007	0.7187271000002511	392.53593569999975	1	1	105	4	go_punish	1	0	-1	1	0	0	0	0.0	1.0	-1	1.0	0.7187271000002511	659.4474232000002	1045.7187115000006	1046.7233368999996	1048.4508448000006	1049.9562049999995	1050.9698782999994	1051.9833589	1053.007470900001	1054.0136441000004	1054.9160958000002	2019-12-13 18:55:36.248466	-1.43135123478997	-5.31329494549791	-12.0049845997353	-9.74062102239635	-10.5736333649453	-12.0049845997353	1.43135123478997	-12.0049845997353	-5.31329494549791	-12.0049845997353	-10.5736333649453	-6.977924491917401	-6.292793686962216	-5.024712751889011	-9.938671375173957	-9.303517924611556	-11.662151305669108	-9.938671375173957	-6.138119188974916	-13.946808183902654	-7.654014496940408	-12.325128002990077	-2.638256124072889	2	correct	1.0
395.48846349999985	8.431199399999969	go_punish	1.0	395.5120339999994	397.4274189999999	399.94659990000036	1.9153850000004695	396.51771650000046	398.93286420000027	402.9893818000003	0.9097024999994119	1.0137357000000975	0.9538515999990977	401.98327790000076	0.6208506000002671	400.95783889999984	1	1	106	4	go_punish	1	0	-1	1	0	0	0	1.0	0.0	-1	1.0	0.6208506000002671	659.4474232000002	1054.9594571999996	1055.9651397000007	1056.8748422	1058.3802874000005	1059.3940231000006	1060.4052621	1061.430701100001	1062.4368050000005	1063.3906565999996	2019-12-13 18:55:36.248466	-1.37750033777183	-5.31329494549791	-12.6584567852455	-10.7091933533232	-11.2809564474737	-12.6584567852455	1.37750033777183	-12.6584567852455	-5.31329494549791	-12.6584567852455	-11.2809564474737	-6.324452306407201	-6.238942789944076	-5.024712751889011	-10.592143560684157	-10.272090255538407	-12.369474388197508	-10.592143560684157	-5.484647003464716	-14.600280369412854	-8.36133757946881	-12.978600188500277	-2.638256124072889	2	wrong	1.0
403.95733160000054	8.539001199998893	go_reward	0.3113420999998197	403.9809021000001	405.7452104999993	408.3496450999992	1.7643083999992086	404.9848843	407.3366332000005	411.39061190000007	0.7603261999993265	1.0130118999986735	1.1292913999989196	410.3841367999994	0.5136696999998094	409.3619369000007	1	1	107	2	go_reward	1	1	0	1	1	1	0	0.0	1.0	1	0.3113420999998197	0.5136696999998094	659.4474232000002	1063.4283253000003	1064.4323075000002	1065.1926336999995	1066.7840564000007	1067.7970682999994	1068.809360100001	1069.8315599999996	1070.8380351000003	1071.9673264999992	2019-12-13 18:55:36.248466	15.1927465730155	7.85013218469747	0.0	7.85013218469747	15.1927465730155	0.0	-15.1927465730155	7.85013218469747	0.0	15.1927465730155	0.0	1.203023677793789	10.331304120843253	8.13871437830637	2.066313224561342	8.287235282482264	14.104228632291692	2.066313224561342	2.042828980736273	13.250922988848146	2.919618868004892	7.529988781442692	2.675038821425021	2	correct	1.0
412.6044861999999	8.721513800001048	nogo_punish	1.0	412.62805669999943	414.3223166999999	416.83876059999966	1.6942600000004404	413.6318833999994	415.8277478	419.8818577999991	0.6904333000004499	1.011012799999662	1.467712700001357	418.8740844999993	0.7235402999995131	417.850073399999	1	1	108	3	nogo_punish	1	-1	0	0	0	1	0	0.0	1.0	0	1.0	0.7235402999995131	659.4474232000002	1072.0754798999997	1073.0793065999997	1073.7697399	1075.2751710000002	1076.2861838	1077.2974965999992	1078.3215076999995	1079.3292809999994	1080.7969937000007	2019-12-13 18:55:36.248466	2.83526208378879	-5.3315721642058	-5.08230811169575	-5.92504913035829	-7.91757019548454	-5.08230811169575	-2.83526208378879	-5.08230811169575	-5.3315721642058	-5.08230811169575	-7.91757019548454	5.08230811169575	-2.026180368383456	-5.0429899705969	-3.0159948871344078	-5.487946032573496	-9.006088136208348	-3.0159948871344078	5.922113414638234	-7.024131695863105	-4.997951327479648	-5.402451514950528	-2.6565333427807785	2	correct	1.0
421.3667634000012	8.829200199999832	go_reward	0.2989720000005036	421.39033390000077	423.23659269999916	425.78433360000054	1.8462587999983953	422.39438960000007	424.76876919999995	428.82781950000026	0.8422030999990966	1.015564400000585	1.3917146000003413	427.8208754999996	0.6358517999997275	426.79772199999934	1	1	109	2	go_reward	1	1	0	1	1	1	1	0.0	0.0	1	0.2989720000005036	0.6358517999997275	659.4474232000002	1080.837757100001	1081.8418128000003	1082.6840158999994	1084.2161924000002	1085.2317568000008	1086.2451451999996	1087.2682986999998	1088.2752427000005	1089.6669573000008	2019-12-13 18:55:36.248466	15.3764779192015	7.95797301247988	0.0	7.95797301247988	15.3764779192015	0.0	-15.3764779192015	7.95797301247988	0.0	15.3764779192015	0.0	1.095182850011379	10.515035467029254	8.246555206088779	2.066313224561342	8.395076110264673	14.287959978477693	2.066313224561342	1.934988152953863	13.434654335034146	2.919618868004892	7.637829609225102	2.675038821425021	2	wrong	1.0
430.2598075999995	8.280246800000896	nogo_punish	1.0	430.283378099999	432.01056849999986	434.52434130000074	1.7271904000008362	431.28695659999903	433.51476369999887	437.5669564	0.723611900000833	1.009577600001876	0.9966684999999416	436.56056659999945	0.4287391000016214	435.53586410000025	1	1	110	3	nogo_punish	1	-1	0	0	0	1	1	1.0	1.0	0	1.0	0.4287391000016214	659.4474232000002	1089.7308012999993	1090.7343797999993	1091.4579917	1092.962186899999	1093.971764500001	1094.9832873000005	1096.0079897999997	1097.0143796000002	1098.0110481000002	2019-12-13 18:55:36.248466	2.92627470441358	-5.3315721642058	-4.50026380932729	-5.26176532940554	-7.42653851374087	-4.50026380932729	-2.92627470441358	-4.50026380932729	-5.3315721642058	-4.50026380932729	-7.42653851374087	4.50026380932729	-1.9351677477586655	-5.0429899705969	-2.433950584765948	-4.824662231620746	-8.515056454464677	-2.433950584765948	5.3400691122697745	-6.442087393494645	-4.506919645735978	-4.820407212582068	-2.6565333427807785	2	correct	1.0
438.5787994000002	8.017067799999722	go_punish	0.2585697000013169	438.60236989999976	440.25300740000057	442.82331949999934	1.650637500000812	439.6073443999994	441.8126685999996	445.86615229999916	0.6456630000011501	1.0106508999997459	0.7532854000003226	444.8594749999993	0.46231970000008	443.83731049999915	1	1	111	4	go_punish	1	0	-1	1	1	1	0	0.0	1.0	0	0.2585697000013169	0.46231970000008	659.4474232000002	1098.0497931	1099.0547675999996	1099.7004306000008	1101.2600917999998	1102.2707426999996	1103.2847336999994	1104.3068981999995	1105.3135754999994	1106.0668608999997	2019-12-13 18:55:36.248466	1.34205678764265	-5.31329494549791	-13.2437716646588	-11.5623501393588	-11.9017148770162	-13.2437716646588	-1.34205678764265	-5.31329494549791	-13.2437716646588	-11.9017148770162	-13.2437716646588	5.31329494549791	-3.5193856645295956	-5.024712751889011	-11.177458440097457	-11.125247041574006	-12.990232817740008	-11.177458440097457	6.153100248440395	-13.843538461183554	-10.324152796653909	-5.633438348752688	-10.568732843233779	2	correct	1.0
446.6464952000006	8.189176800000496	nogo_punish	1.0	446.6700657000001	447.94731890000025	450.46667030000026	1.277253200000132	447.67459210000015	449.45218229999955	453.5099897	0.2727268000001004	1.0144880000007106	1.3492528000006132	452.5029317000008	0.4153317000000243	451.47861849999936	1	1	112	3	nogo_punish	0	0	-1	0	0	1	1	0.0	0.0	-1	1.0	0.4153317000000243	659.4474232000002	1106.1174889000004	1107.1220153000004	1107.3947421000005	1108.8996054999998	1109.9140935000005	1110.9260416999996	1111.950354900001	1112.9574129000002	1114.3066657000008	2019-12-13 18:55:36.248466	3.00570686348489	-5.3315721642058	-3.99319841150058	-4.6821209356254	-6.99890527498547	-3.99319841150058	-3.00570686348489	-3.99319841150058	-5.3315721642058	-3.99319841150058	-6.99890527498547	-14.989710680152122	-1.8557355886873559	-5.0429899705969	-1.9268851869392378	-4.245017837840606	-8.087423215709277	-1.9268851869392378	-14.149905377209638	-5.935021995667935	-4.079286406980578	-4.313341814755358	-2.6565333427807785	2	wrong	1.0
454.8733377000008	9.3603693999994	go_punish	0.3629208999991533	454.8969082000003	457.2506372000007	459.82995479999954	2.353729000000385	455.9014322999992	458.80733469999905	462.87335370000073	1.3492049000014958	1.0226201000004949	1.3839238999989902	461.86635079999905	0.4695835000002262	460.84338969999953	1	1	113	4	go_punish	1	0	-1	1	1	1	1	0.0	0.0	0	0.3629208999991533	0.4695835000002262	659.4474232000002	1114.3443314000006	1115.3488554999994	1116.698060400001	1118.2547578999993	1119.2773779999998	1120.2908128999998	1121.3137739999993	1122.320776900001	1123.7047008	2019-12-13 18:55:36.248466	2.8505544950539	-4.72464327076272	-13.2437716646588	-10.3105358196377	-10.3932171696049	-13.2437716646588	-2.8505544950539	-4.72464327076272	-13.2437716646588	-10.3932171696049	-13.2437716646588	4.72464327076272	-2.010887957118346	-4.436061077153821	-11.177458440097457	-9.873432721852906	-11.481735110328708	-11.177458440097457	5.564448573705205	-12.335040753772255	-10.324152796653909	-5.044786674017498	-10.568732843233779	2	wrong	1.0
464.27148450000095	7.965097899999819	nogo_reward	0.2913548999986233	464.2950550000005	465.7162365999993	468.2624563999998	1.4211815999988175	465.2999087999997	467.2523906999995	471.3053390999994	0.4163277999996353	1.0100657000002684	0.9548138000009203	470.2984395000001	0.369229500000074	469.27437269999973	1	1	114	1	nogo_reward	1	0	1	0	1	0	0	0.0	1.0	0	0.2913548999986233	0.369229500000074	659.4474232000002	1123.7424782000007	1124.747332	1125.1636597999996	1126.6998138999998	1127.7098796	1128.7217959	1129.7458627000003	1130.7527622999996	1131.7075761000006	2019-12-13 18:55:36.248466	3.25423582659671	1.45289813991064	0.972829436591704	1.5374623389371	4.22706526318841	0.972829436591704	-3.25423582659671	1.45289813991064	0.972829436591704	4.22706526318841	0.972829436591704	-1.45289813991064	-1.6072066255755355	1.7414803335195395	3.039142661153046	1.9745654367218939	3.1385473224646026	3.039142661153046	-0.6130928369681558	2.2852416790210555	3.892448304596596	1.1327547366558623	3.647868258016725	2	correct	1.0
472.2749808000008	8.675555099998746	nogo_reward	0.3411977000014303	472.2985513000003	474.1474347000001	476.6902088000006	1.8488833999997496	473.30349840000054	475.67713249999906	479.7359656999997	0.843936299999541	1.0130763000015577	1.2381406999993487	478.72844239999904	0.5418759000003774	477.70284549999997	1	1	115	1	nogo_reward	0	1	0	0	1	0	0	0.0	1.0	1	0.3411977000014303	0.5418759000003774	659.4474232000002	1131.7459745000006	1132.7509216000008	1133.5948579000003	1135.1245556999993	1136.1376320000008	1137.1502687000002	1138.1758655999993	1139.1833889	1140.4215295999993	2019-12-13 18:55:36.248466	2.99069772472678	1.30345800215143	0.972829436591704	1.38021048741628	3.96352716131848	0.972829436591704	-2.99069772472678	1.30345800215143	0.972829436591704	3.96352716131848	0.972829436591704	7.749697860339829	-1.8707447274454658	1.5920401957603294	3.039142661153046	1.8173135852010738	2.8750092205946727	3.039142661153046	8.589503163282313	2.0217035771511256	3.892448304596596	0.9833145988966523	3.647868258016725	2	correct	1.0
480.9939537999999	8.8288321	nogo_punish	1.0	481.0175242999994	482.80181079999966	485.32073879999916	1.7842865000002348	482.0225527999992	484.3070463999993	488.361318199999	0.7792580000004818	1.0136923999998544	1.4850382000004174	487.35437900000034	0.5904033000006166	486.3312339999993	1	1	116	3	nogo_punish	0	0	-1	0	0	1	0	0.0	1.0	-1	1.0	0.5904033000006166	659.4474232000002	1140.4649474999997	1141.4699759999994	1142.249234	1143.7544695999995	1144.7681619999994	1145.7786571999995	1146.8018022000006	1147.8087413999992	1149.2937795999997	2019-12-13 18:55:36.248466	2.53608773438588	-5.3315721642058	-5.55541284917583	-6.17939897936293	-8.0915005835617	-5.55541284917583	-2.53608773438588	-5.55541284917583	-5.3315721642058	-5.55541284917583	-8.0915005835617	-13.42749624247687	-2.325354717786366	-5.0429899705969	-3.4890996246144876	-5.742295881578136	-9.180018524285508	-3.4890996246144876	-12.587690939534387	-7.4972364333431845	-5.171881715556808	-5.8755562524306075	-2.6565333427807785	2	correct	1.0
489.8614653000004	9.694371100000353	go_punish	0.30961969999953	489.88503579999997	492.7181600999993	495.2954499000007	2.8331242999993265	490.8893905000007	494.27440079999906	498.3370152000007	1.8287695999986227	1.021049100001619	1.2423916999996436	497.3300314999997	0.7760213000001386	496.30855580000025	1	1	117	4	go_punish	1	0	-1	1	1	1	0	0.0	1.0	0	0.30961969999953	0.7760213000001386	659.4474232000002	1149.3324590000002	1150.336813700001	1152.1655832999995	1153.7218239999993	1154.742873100001	1155.7559790000005	1156.7774547	1157.784438400001	1159.0268301000006	2019-12-13 18:55:36.248466	4.17164172583741	-4.2089040619482	-13.2437716646588	-9.2108276584245	-9.07212993882138	-13.2437716646588	-4.17164172583741	-4.2089040619482	-13.2437716646588	-9.07212993882138	-13.2437716646588	4.2089040619482	-0.6898007263348358	-3.9203218683393004	-11.177458440097457	-8.773724560639707	-10.160647879545188	-11.177458440097457	5.0487093648906844	-11.013953522988734	-10.324152796653909	-4.529047465202978	-10.568732843233779	2	correct	1.0
499.5942823000007	8.04020700000001	go_punish	0.3728645000010147	499.61785280000026	501.17470219999996	503.75281890000065	1.5568493999996917	500.6216640999992	502.74159449999934	506.79537659999914	0.5530381000007765	1.0112244000013106	0.8626832000011291	505.7885248999992	0.4802225000003091	504.7645515999993	1	1	118	4	go_punish	1	0	-1	1	1	1	0	0.0	1.0	0	0.3728645000010147	0.4802225000003091	659.4474232000002	1159.0652760000005	1160.0690872999994	1160.6221254000002	1162.1890176999996	1163.2002421000009	1164.2119747999996	1165.2359480999994	1166.2427997999994	1167.1054830000005	2019-12-13 18:55:36.248466	5.33137504163669	-3.75597992631743	-13.2437716646588	-8.24245301350978	-7.91239662302211	-13.2437716646588	-5.33137504163669	-3.75597992631743	-13.2437716646588	-7.91239662302211	-13.2437716646588	3.75597992631743	0.4699325894644444	-3.4673977327085304	-11.177458440097457	-7.805349915724985	-9.000914563745917	-11.177458440097457	4.595785229259914	-9.854220207189464	-10.324152796653909	-4.076123329572208	-10.568732843233779	2	correct	1.0
507.67087750000064	8.517567499999132	nogo_reward	0.3688738999990164	507.6944480000002	509.16290599999957	511.7014806999996	1.468457999999373	508.6991130999995	510.6914221999996	514.743348	0.46379290000004403	1.0100585000000137	1.4686674999993556	513.7365169000007	0.7411867999999231	512.7135531999993	1	1	119	1	nogo_reward	1	0	1	0	1	0	0	0.0	1.0	0	0.3688738999990164	0.7411867999999231	659.4474232000002	1167.1418712000004	1168.1465362999998	1168.6103291999998	1170.1388453999998	1171.1489038999998	1172.1609763999995	1173.1839401000009	1174.1907712000002	1175.6594386999996	2019-12-13 18:55:36.248466	4.44510298540523	2.14377487408225	0.972829436591704	2.21350435826645	5.41793242199694	0.972829436591704	-4.44510298540523	2.14377487408225	0.972829436591704	5.41793242199694	0.972829436591704	-2.14377487408225	-0.41633946676701594	2.4323570676911497	3.039142661153046	2.6506074560512443	4.329414481273132	3.039142661153046	-1.303969571139766	3.4761088378295852	3.892448304596596	1.8236314708274726	3.647868258016725	2	correct	1.0
516.2514869999993	8.323603000000958	nogo_punish	1.0	516.2750574999989	517.6312834000003	520.1460924999992	1.356225900001391	517.2804266000003	519.1367191999998	523.1882146000007	0.3508567999999741	1.0093732999994245	1.4104458999991039	522.1811601999998	0.4065405000001192	521.1571750999994	1	1	120	3	nogo_punish	1	-1	0	0	0	1	0	0.0	1.0	0	1.0	0.4065405000001192	659.4474232000002	1175.722480699999	1176.7278498000005	1177.0787066000005	1178.5841424	1179.5935156999994	1180.6045982999997	1181.6285834	1182.635637800001	1184.0460837	2019-12-13 18:55:36.248466	2.11768319469676	-5.3315721642058	-6.93395366101987	-7.4997596977599	-9.05163685571663	-6.93395366101987	-2.11768319469676	-6.93395366101987	-5.3315721642058	-6.93395366101987	-9.05163685571663	6.93395366101987	-2.7437592574754857	-5.0429899705969	-4.867640436458528	-7.062656599975106	-10.140154796440438	-4.867640436458528	7.773758963962354	-8.875777245187225	-6.1320179877117384	-7.254097064274648	-2.6565333427807785	2	correct	1.0
