onset	duration	trial_type	response_time	cueOnset	targetOnset	fbOnset	cueRT	firstfixOnset	secondfixOnset	waitOnset	firstfixdur	secondfixdur	waitdur	nback_fbOnset	nback_response_time	nback_targetOnset	block	wm	trial	cue	cond	is_common	outcome_go	outcome_nogo	key_correct	key_pressed	is_correct	key_correct_nback	key_pressed_nback	is_correct_nback	outcome	rt	rt_nback	time_scan	time_onset	time_isi1	time_circle	time_isi2	time_feedback	time_same	time_correct	time_iti	time_done	timestamp_scan	DV	Qgo	Qnogo	SV	Wgo	Wnogo	mDV	Qchosen	Qunchosen	Wchosen	Wunchosen	PE	DVC	QgoC	QnogoC	SVC	WgoC	WnogoC	PEC	WchosenC	WunchosenC	QchosenC	QunchosenC	run	outcome_nback	nback_targetResp
0.0	6.465778100013267	nogo_reward	1.0	0.024062299984507263	1.5324222999915946	4.051252000004752	1.5083600000070874	1.030836999998428	3.025288700009696	5.050711899995804	0.5015852999931667	1.0259632999950554	1.4391285000019707	n/a	1.0	n/a	1	0	61	4	nogo_reward	1	0	1	0	0	1	0	n/a	n/a	1	1.0	1.0	561.4921496000024	561.516211899987	562.5229866000009	563.024571899994	564.5174383000121	565.5434016000072	n/a	n/a	566.5428614999983	567.9819900000002	2019-12-21 09:27:50.925837	-13.2258599081066	5.9601105615396	2.14512338317599	6.46942061318923	15.3709832912826	2.14512338317599	13.2258599081066	2.14512338317599	5.9601105615396	2.14512338317599	15.3709832912826	23.822732215863812	-20.752240819588316	3.0877181337015345	5.247243756904163	7.357756877143043	14.077785357647157	5.247243756904163	24.332200626900473	-0.7136058525185023	20.038634967069836	3.607728180158677	4.727233710447029	2	missed	0.0
6.505057000002125	7.668899000011152	go_reward	0.2894126000173855	6.5291192999866325	9.15092580000055	11.710893000010401	2.6218065000139177	7.542050599993672	10.687264400010463	12.7203748000029	1.608875200006878	1.0236285999999382	1.4776434999948833	n/a	1.0	n/a	1	0	62	3	go_reward	1	1	0	1	1	1	1	n/a	n/a	1	0.2894126000173855	1.0	561.4921496000024	568.0212688999891	569.0342001999961	570.643075400003	572.1794140000129	573.2030426000129	n/a	n/a	574.2125244000053	575.6901679000002	2019-12-21 09:27:50.925837	41.7159920681109	16.6927241626674	0.0	16.6927241626674	41.7159920681109	0.0	-41.7159920681109	16.6927241626674	0.0	41.7159920681109	0.0	9.275131436372401	34.189611156629184	13.820331734829335	3.1021203737281726	17.581060426621214	40.42279413447546	3.1021203737281726	9.784599847409064	38.85726283241641	4.667651675787236	18.155328959650088	-1.2328768510925705	2	missed	0.0
14.2074773000204	6.853549399995245	go_punish	1.0	14.231539600004908	16.640055199997732	19.17097659999854	2.4085155999928247	15.223976000008406	18.156426100002136	20.179078599991044	1.4160791999893263	1.0145504999964032	0.9060104000091087	n/a	1.0	n/a	1	0	63	1	go_punish	1	0	-1	1	0	0	0	n/a	n/a	-1	1.0	1.0	561.4921496000024	575.7236892000074	576.7161256000109	578.1322048000002	579.6485757000046	580.663126200001	n/a	n/a	581.6712281999935	582.5772386000026	2019-12-21 09:27:50.925837	3.91159667675017	0.0	-18.2937329205165	-14.9732218317221	-22.2053295972667	-18.2937329205165	-3.91159667675017	-18.2937329205165	0.0	-18.2937329205165	-22.2053295972667	-18.640247186156802	-3.614784234731548	-2.8723924278380655	-15.191612546788328	-14.084885567768286	-23.498527530902145	-15.191612546788328	-18.13077877512014	-21.152462156210994	-17.537677921479464	-16.831128123533812	-1.2328768510925705	2	missed	0.0
21.09475270000985	6.280644600017695	nogo_punish	1.0	21.118814999994356	22.482050299993716	25.009963199991034	1.36323529999936	22.137753199989675	23.996645700011868	26.015689699997893	0.34429710000404157	1.0133174999791663	1.3837699000141583	n/a	1.0	n/a	1	0	64	2	nogo_punish	0	0	-1	0	0	1	0	n/a	n/a	-1	1.0	1.0	561.4921496000024	582.6109645999968	583.6299027999921	583.9741998999962	585.4887953000143	586.5021127999935	n/a	n/a	587.5078393000003	588.8916092000145	2019-12-21 09:27:50.925837	11.2501492826748	-3.23156285074341	-10.2176564218722	-12.1864437851732	-21.4678057045471	-10.2176564218722	-11.2501492826748	-10.2176564218722	-3.23156285074341	-10.2176564218722	-21.4678057045471	-26.716323684801104	3.7237683711930814	-6.103955278581475	-7.115536048144026	-11.298107521219386	-22.761003638182544	-7.115536048144026	-26.206855273764443	-13.076385657566691	-16.800154028759863	-8.755051624889512	-4.464439701835981	2	missed	0.0
27.413701500016032	6.519637599994894	nogo_punish	1.0	27.43776380000054	29.41207699998631	31.938767899991944	1.9743131999857724	28.44194270001026	30.917565799987642	32.95784300001105	0.9701342999760527	1.0212021000043023	0.9995583999843802	n/a	1.0	n/a	1	0	65	2	nogo_punish	1	-1	0	0	0	1	0	n/a	n/a	0	1.0	1.0	561.4921496000024	588.929913400003	589.9340923000127	590.9042265999888	592.4097153999901	593.4309174999944	n/a	n/a	594.4499926000135	595.4495509999979	2019-12-21 09:27:50.925837	12.0271388994155	-3.23156285074341	-12.4986864471689	-14.2845156291141	-24.5258253465844	-12.4986864471689	-12.0271388994155	-12.4986864471689	-3.23156285074341	-12.4986864471689	-24.5258253465844	12.4986864471689	4.500757987933781	-6.103955278581475	-9.396566073440727	-13.396179365160286	-25.819023280219845	-9.396566073440727	13.008154858205563	-15.357415682863392	-19.858173670797164	-11.036081650186214	-4.464439701835981	2	missed	0.0
33.973751300014555	6.741012499987846	go_reward	0.5535352000151761	33.99781359999906	35.69869709998602	38.253857000003336	1.7008834999869578	35.003853300004266	37.23000429998501	39.26335769999423	0.6948437999817543	1.023852700018324	1.4754683999926783	n/a	1.0	n/a	1	0	66	3	go_reward	1	1	0	1	1	1	0	n/a	n/a	1	0.5535352000151761	1.0	561.4921496000024	595.4899632000015	596.4960029000067	597.1908466999885	598.7221538999875	599.7460066000058	n/a	n/a	600.7555072999967	602.2309756999894	2019-12-21 09:27:50.925837	43.4607278844347	17.3839557233401	0.0	17.3839557233401	43.4607278844347	0.0	-43.4607278844347	17.3839557233401	0.0	43.4607278844347	0.0	8.5838998756997	35.93434697295298	14.511563295502036	3.1021203737281726	18.272291987293915	42.167529950799256	3.1021203737281726	9.093368286736363	40.60199864874021	4.667651675787236	18.84656052032279	-1.2328768510925705	2	missed	0.0
40.75150290000602	6.456301500002155	nogo_punish	1.0	40.775565199990524	42.352117200003704	44.88514959998429	1.57655200001318	41.78998189998674	43.86735630000476	45.89521779998904	0.562135300016962	1.0177932999795303	1.3366489000036381	n/a	1.0	n/a	1	0	67	2	nogo_punish	1	-1	0	0	0	1	1	n/a	n/a	0	1.0	1.0	561.4921496000024	602.267714799993	603.2821314999892	603.8442668000062	605.3595059000072	606.3772991999867	n/a	n/a	607.3873673999915	608.7240162999951	2019-12-21 09:27:50.925837	11.2245940229347	-3.23156285074341	-11.3323804994206	-12.953805467583	-22.5569745223553	-11.3323804994206	-11.2245940229347	-11.3323804994206	-3.23156285074341	-11.3323804994206	-22.5569745223553	11.3323804994206	3.698213111452981	-6.103955278581475	-8.230260125692427	-12.065469203629187	-23.850172455990744	-8.230260125692427	11.841848910457262	-14.191109735115091	-17.889322846568064	-9.869775702437913	-4.464439701835981	2	missed	0.0
47.24744410000858	7.327642399992328	go_punish	1.0	47.271506399993086	49.85137109999778	52.37016779999249	2.5798647000046913	48.28862420000951	51.3576436000003	53.38066379999509	1.5627468999882694	1.0125241999921855	1.2184849999903236	n/a	1.0	n/a	1	0	68	1	go_punish	1	0	-1	1	0	0	0	n/a	n/a	-1	1.0	1.0	561.4921496000024	608.7636559999955	609.780773800012	611.3435207000002	612.8497932000028	613.8623173999949	n/a	n/a	614.8728133999975	616.0912983999879	2019-12-21 09:27:50.925837	5.10383856756672	0.0	-19.8277474471915	-16.8414270051272	-24.9315860147582	-19.8277474471915	-5.10383856756672	-19.8277474471915	0.0	-19.8277474471915	-24.9315860147582	-17.106232659481805	-2.422542343914998	-2.8723924278380655	-16.725627073463325	-15.953090741173387	-26.224783948393643	-16.725627073463325	-16.596764248445144	-22.686476682885992	-20.263934338970962	-18.36514265020881	-1.2328768510925705	2	missed	0.0
54.610354500007816	6.275799600000028	nogo_reward	0.434863000002224	54.63441679999232	56.109542299993336	58.65753140000743	1.4751255000010133	55.641749800008256	57.64645790000213	59.67104580000159	0.4677924999850802	1.0110735000052955	1.2391705999907572	n/a	1.0	n/a	1	0	69	4	nogo_reward	1	0	1	0	1	0	0	n/a	n/a	0	0.434863000002224	1.0	561.4921496000024	616.1265663999948	617.1338994000107	617.6016918999958	619.1386075000046	620.1496810000099	n/a	n/a	621.163195400004	622.4023659999948	2019-12-21 09:27:50.925837	13.6929479570585	5.9601105615396	4.09275182801432	8.04073609901568	17.7856997850728	4.09275182801432	-13.6929479570585	5.9601105615396	4.09275182801432	17.7856997850728	4.09275182801432	-5.9601105615396	6.166567045576782	3.0877181337015345	7.194872201742493	8.929072362969494	16.492501851437357	7.194872201742493	-5.450642150502937	14.926970549378309	8.760403503801555	7.422715358522288	2.8598749769217493	2	missed	0.0
60.92564300002414	6.210724099975778	go_reward	0.4517982999968808	60.949705300008645	62.2476222999976	64.8024948000093	1.2979169999889564	61.966411100002006	63.778305599989835	65.81742360000499	0.28121119999559596	1.024189200019464	1.3430057999794371	n/a	1.0	n/a	1	0	70	3	go_reward	1	1	0	1	1	1	0	n/a	n/a	1	0.4517982999968808	1.0	561.4921496000024	622.4418549000111	623.4585607000045	623.7397719	625.2704551999923	626.2946444000117	n/a	n/a	627.3095732000074	628.6525789999869	2019-12-21 09:27:50.925837	45.0569656061124	18.0168227922555	0.0	18.0168227922555	45.0569656061124	0.0	-45.0569656061124	18.0168227922555	0.0	45.0569656061124	0.0	7.951032806784301	37.53058469463068	15.144430364417435	3.1021203737281726	18.905159056209314	43.76376767247696	3.1021203737281726	8.460501217820964	42.19823637041791	4.667651675787236	19.47942758923819	-1.2328768510925705	2	missed	0.0
67.17469980000169	7.488111300015589	go_punish	1.0	67.1987620999862	69.74868349998724	72.27786460000789	2.5499214000010397	68.21092730000964	71.25319029999082	73.2870971999946	1.5377561999775935	1.0246743000170682	1.3997762000071816	n/a	1.0	n/a	1	0	71	1	go_punish	1	0	-1	1	0	0	0	n/a	n/a	-1	1.0	1.0	561.4921496000024	628.6909116999886	629.7030769000121	631.2408330999897	632.7453398999933	633.7700142000103	n/a	n/a	634.779246799997	636.1790230000042	2019-12-21 09:27:50.925837	6.17415066821187	0.0	-21.2213446947203	-18.5329509216828	-27.3954953629321	-21.2213446947203	-6.17415066821187	-21.2213446947203	0.0	-21.2213446947203	-27.3954953629321	-15.712635411953002	-1.3522302432698483	-2.8723924278380655	-18.119224320992128	-17.644614657728987	-28.688693296567543	-18.119224320992128	-15.20316700091634	-24.080073930414795	-22.727843687144862	-19.758739897737613	-1.2328768510925705	2	missed	0.0
74.70037000000593	7.547931400011294	nogo_punish	1.0	74.72443229999044	77.49974850000581	80.0351226000057	2.775316200015368	75.72791509999661	79.01508320000721	81.03882749998593	1.7718334000092	1.0200393999984954	1.2335362000158057	n/a	1.0	n/a	1	0	72	2	nogo_punish	1	-1	0	0	0	1	0	n/a	n/a	0	1.0	1.0	561.4921496000024	636.2165818999929	637.220064699999	638.9918981000083	640.5072328000097	641.5272722000082	n/a	n/a	642.5309770999884	643.7645133000042	2019-12-21 09:27:50.925837	10.5065963705411	-3.23156285074341	-10.284805764586	-11.7583519317655	-20.7914021351271	-10.284805764586	-10.5065963705411	-10.284805764586	-3.23156285074341	-10.284805764586	-20.7914021351271	10.284805764586	2.980215459059382	-6.103955278581475	-7.182685390857827	-10.870015667811685	-22.084600068762544	-7.182685390857827	10.794274175622663	-13.143535000280492	-16.123750459339863	-8.822200967603314	-4.464439701835981	2	missed	0.0
82.2875456000038	7.239432700007455	go_reward	0.4420119999849703	82.3116078999883	85.0747441999847	87.62727319999249	2.763136299996404	83.3136841999949	86.60636340000201	88.63536469999235	1.7610599999898113	1.020909799990477	0.9156759000034072	n/a	1.0	n/a	1	0	73	3	go_reward	1	1	0	1	1	1	0	n/a	n/a	1	0.4420119999849703	1.0	561.4921496000024	643.8037574999908	644.8058337999973	646.5668937999872	648.0985130000045	649.1194227999949	n/a	n/a	650.1275142999948	651.0431901999982	2019-12-21 09:27:50.925837	46.5186892687792	18.5967768315132	0.0	18.5967768315132	46.5186892687792	0.0	-46.5186892687792	18.5967768315132	0.0	46.5186892687792	0.0	7.371078767526601	38.99230835729748	15.724384403675135	3.1021203737281726	19.485113095467014	45.22549133514376	3.1021203737281726	7.880547178563264	43.65996003308471	4.667651675787236	20.05938162849589	-1.2328768510925705	2	missed	0.0
89.5647830000089	6.4108238000189885	nogo_reward	1.0	89.58884529999341	91.45148019999033	93.9900004999945	1.8626348999969196	90.60164770000847	92.9666631	94.98922849999508	0.8498324999818578	1.0233373999944888	1.0104406000173185	n/a	1.0	n/a	1	0	74	4	nogo_reward	1	0	1	0	0	1	0	n/a	n/a	1	1.0	1.0	561.4921496000024	651.0809948999959	652.0937973000109	652.9436297999928	654.4588127000025	655.4821500999969	n/a	n/a	656.4813780999975	657.4918187000148	2019-12-21 09:27:50.925837	-12.0472783486536	5.42672980128974	4.09275182801432	7.32527734235053	16.1400301766679	4.09275182801432	12.0472783486536	4.09275182801432	5.42672980128974	4.09275182801432	16.1400301766679	21.87510377102548	-19.57365926013532	2.5543373734516748	7.194872201742493	8.213613606304344	14.846832243032456	7.194872201742493	22.38457218206214	1.2340225923198278	20.807681852455136	5.555356624997007	4.1938529501971695	2	missed	0.0
96.0103814000031	5.8107755000237375	nogo_reward	0.3837279999861493	96.0344436999876	97.40060669998638	99.9428052000003	1.366162999998778	97.04084209998837	98.9219005999912	100.9546113999968	0.3597645999980159	1.0209046000090893	0.8906078000145499	n/a	1.0	n/a	1	0	75	4	nogo_reward	1	0	1	0	1	0	0	n/a	n/a	0	0.3837279999861493	1.0	561.4921496000024	657.52659329999	658.5329916999908	658.8927562999888	660.4140501999937	661.4349548000027	n/a	n/a	662.4467609999992	663.3373688000138	2019-12-21 09:27:50.925837	12.581409432086	5.42672980128974	5.86273322932309	8.82476434338751	18.4441426614091	5.86273322932309	-12.581409432086	5.42672980128974	5.86273322932309	18.4441426614091	5.86273322932309	-5.42672980128974	5.0550285206042815	2.5543373734516748	8.964853603051262	9.713100607341325	17.150944727773656	8.964853603051262	-4.917261390253078	15.585413425714608	10.530384905110326	6.889334598272427	4.629856378230519	2	missed	0.0
101.85709000000497	7.665385200001765	nogo_punish	1.0	101.88115229998948	104.62971300000208	107.13355639998917	2.7485607000126038	102.89567080000415	106.1242307999928	108.14671760000056	1.7340421999979299	1.009325599996373	1.399819899990689	n/a	1.0	n/a	1	0	76	2	nogo_punish	1	-1	0	0	0	1	0	n/a	n/a	0	1.0	1.0	561.4921496000024	663.3733018999919	664.3878204000066	666.1218626000045	667.6163803999953	668.6257059999916	n/a	n/a	669.638867200003	671.0386870999937	2019-12-21 09:27:50.925837	9.86357384779984	-3.23156285074341	-9.34293405745484	-10.683335150027	-19.2065079052547	-9.34293405745484	-9.86357384779984	-9.34293405745484	-3.23156285074341	-9.34293405745484	-19.2065079052547	9.34293405745484	2.3371929363181216	-6.103955278581475	-6.2408136837266674	-9.794998886073186	-20.499705838890144	-6.2408136837266674	9.852402468491503	-12.201663293149332	-14.538856229467463	-7.880329260472154	-4.464439701835981	2	missed	0.0
109.55848860001424	6.997448200010695	go_punish	1.0	109.58255089999875	112.072021400003	114.6112191999855	2.489470500004245	110.59719460000633	113.58772720000707	115.61095199998817	1.4748267999966629	1.0234919999784324	0.969047100021271	n/a	1.0	n/a	1	0	77	1	go_punish	1	0	-1	1	0	0	0	n/a	n/a	-1	1.0	1.0	561.4921496000024	671.0747005000012	672.0893442000088	673.5641710000054	675.0798768000095	676.103368799988	n/a	n/a	677.1031015999906	678.0721487000119	2019-12-21 09:27:50.925837	7.13603955004322	0.0	-22.4885948834427	-20.0660668717315	-29.6246344334859	-22.4885948834427	-7.13603955004322	-22.4885948834427	0.0	-22.4885948834427	-29.6246344334859	-14.445385223230602	-0.39034136143849807	-2.8723924278380655	-19.386474509714528	-19.177730607777686	-30.917832367121346	-19.386474509714528	-13.93591681219394	-25.347324119137195	-24.956982757698665	-21.025990086460013	-1.2328768510925705	2	missed	0.0
116.59101460000966	6.450926399993477	nogo_punish	1.0	116.61507689999416	118.55329650000203	121.08614550001221	1.9382196000078693	117.63080769998487	120.06533039998612	122.10412289999658	0.9224888000171632	1.020815100026084	0.9618803999910597	n/a	1.0	n/a	1	0	78	2	nogo_punish	1	-1	0	0	0	1	1	n/a	n/a	0	1.0	1.0	561.4921496000024	678.1072264999966	679.1229572999873	680.0454461000045	681.5574799999886	682.5782951000147	n/a	n/a	683.596272499999	684.5581528999901	2019-12-21 09:27:50.925837	9.28710816580333	-3.23156285074341	-8.49526369890362	-9.71566930505595	-17.782371864707	-8.49526369890362	-9.28710816580333	-8.49526369890362	-3.23156285074341	-8.49526369890362	-17.782371864707	8.49526369890362	1.760727254321612	-6.103955278581475	-5.393143325175448	-8.827333041102136	-19.075569798342443	-5.393143325175448	9.004732109940283	-11.353992934598113	-13.114720188919762	-7.032658901920934	-4.464439701835981	2	missed	0.0
123.08193310000934	5.970614399993792	go_reward	0.4737833999970462	123.10599539999384	124.77280080001219	127.30457839998417	1.6668054000183474	124.11713100000634	126.283307900012	128.31740609998815	0.6556698000058532	1.021270499972161	0.7592036999994889	n/a	1.0	n/a	1	0	79	3	go_reward	0	0	1	1	1	1	0	n/a	n/a	0	0.4737833999970462	1.0	561.4921496000024	684.5981449999963	685.6092806000088	686.2649504000146	687.7754575000145	688.7967279999866	n/a	n/a	689.8095556999906	690.5687593999901	2019-12-21 09:27:50.925837	47.8584509219653	19.1287156698363	0.0	19.1287156698363	47.8584509219653	0.0	-47.8584509219653	19.1287156698363	0.0	47.8584509219653	0.0	-19.1287156698363	40.332070010483584	16.256323241998235	3.1021203737281726	20.017051933790114	46.56525298832986	3.1021203737281726	-18.61924725879964	44.99972168627081	4.667651675787236	20.59132046681899	-1.2328768510925705	2	missed	0.0
129.09589960001176	7.358268999989377	nogo_punish	1.0	129.11996189999627	131.474971299991	133.98881249999977	2.355009399994742	130.12717039999552	132.97842470000614	135.00221070001135	1.347800899995491	1.010387799993623	1.4760201999743003	n/a	1.0	n/a	1	0	80	2	nogo_punish	1	-1	0	0	0	1	1	n/a	n/a	0	1.0	1.0	561.4921496000024	690.6121114999987	691.619319999998	692.9671208999935	694.4705743000086	695.4809621000022	n/a	n/a	696.4943603000138	697.9703804999881	2019-12-21 09:27:50.925837	8.76978785845226	-3.23156285074341	-7.73162993566758	-8.84378755773745	-16.5014177941198	-7.73162993566758	-8.76978785845226	-7.73162993566758	-3.23156285074341	-7.73162993566758	-16.5014177941198	7.73162993566758	1.2434069469705413	-6.103955278581475	-4.6295095619394075	-7.955451293783637	-17.794615727755243	-4.6295095619394075	8.241098346704241	-10.590359171362072	-11.833766118332562	-6.269025138684892	-4.464439701835981	2	missed	0.0
136.48884360000375	6.602298300014809	nogo_punish	1.0	136.51290589998825	138.80204219999723	141.32616950001102	2.289136300008977	137.52970189999905	140.3170722000068	142.34018830000423	1.2723402999981772	1.009097300004214	0.7750158999988344	n/a	1.0	n/a	1	0	81	2	nogo_punish	1	-1	0	0	0	1	0	n/a	n/a	0	1.0	1.0	561.4921496000024	698.0050554999907	699.0218515000015	700.2941917999997	701.8092218000093	702.8183191000135	n/a	n/a	703.8323379000067	704.6073538000055	2019-12-21 09:27:50.925837	8.30508096947521	-3.23156285074341	-7.04304016605118	-8.05745507826438	-15.3481211355264	-7.04304016605118	-8.30508096947521	-7.04304016605118	-3.23156285074341	-7.04304016605118	-15.3481211355264	7.04304016605118	0.7787000579934915	-6.103955278581475	-3.9409197923230077	-7.1691188143105675	-16.641319069161842	-3.9409197923230077	7.552508577087843	-9.901769401745673	-10.680469459739165	-5.580435369068493	-4.464439701835981	2	missed	0.0
143.12580950002302	6.096446499985177	go_punish	1.0	143.14987180000753	144.5560417000088	147.07193390000612	1.4061699000012595	144.16572719998658	146.06174949998967	148.0761455000029	0.3903145000222139	1.010184400016442	1.170172799989814	n/a	1.0	n/a	1	0	82	1	go_punish	0	-1	0	1	0	0	0	n/a	n/a	0	1.0	1.0	561.4921496000024	704.64202140001	705.657876799989	706.0481913000112	707.5538990999921	708.5640835000086	n/a	n/a	709.5682951000053	710.7384678999952	2019-12-21 09:27:50.925837	8.00140982828477	0.0	-23.6420439579317	-21.4570073975575	-31.6434537862165	-23.6420439579317	-8.00140982828477	-23.6420439579317	0.0	-23.6420439579317	-31.6434537862165	23.6420439579317	0.47502891680305126	-2.8723924278380655	-20.539923584203528	-20.568671133603686	-32.936651719851945	-20.539923584203528	24.151512368968362	-26.500773193626195	-26.975802110429264	-22.179439160949013	-1.2328768510925705	2	missed	0.0
149.25832340001944	6.684679500001948	go_punish	1.0	149.28238570000394	150.9596642999968	153.4887461999897	1.67727859999286	150.29801269999007	152.46485079999547	154.49776619998738	0.661651600006735	1.0238953999942169	1.469299000018509	n/a	1.0	n/a	1	0	83	1	go_punish	1	0	-1	1	0	0	0	n/a	n/a	-1	1.0	1.0	561.4921496000024	710.7745353000064	711.7901622999925	712.4518138999993	713.9570003999979	714.9808957999921	n/a	n/a	715.9899157999898	717.4592148000083	2019-12-21 09:27:50.925837	7.27780857361354	0.0	-21.4613275325099	-19.4886451211971	-28.7391361061235	-21.4613275325099	-7.27780857361354	-21.4613275325099	0.0	-21.4613275325099	-28.7391361061235	-15.472652574163401	-0.24857233786817812	-2.8723924278380655	-18.35920715878173	-18.600308857243284	-30.032334039758943	-18.35920715878173	-14.963184163126739	-24.320056768204395	-24.071484430336263	-19.998722735527213	-1.2328768510925705	2	missed	0.0
155.97836200002348	7.084204999991925	nogo_reward	0.3588376000116113	156.002424300008	158.47558490000665	161.02818399999524	2.473160599998664	157.0077764999878	160.00702379998984	162.0306319000083	1.4678084000188392	1.0211602000053972	1.055997399991611	n/a	1.0	n/a	1	0	84	4	nogo_reward	1	0	1	0	1	0	0	n/a	n/a	0	0.3588376000116113	1.0	561.4921496000024	717.4945739000104	718.4999260999903	719.9677345000091	721.4991733999923	722.5203335999977	n/a	n/a	723.5227815000108	724.5787789000024	2019-12-21 09:27:50.925837	10.8877506822953	4.94564566192555	5.86273322932309	8.04409899682375	16.7504839116184	5.86273322932309	-10.8877506822953	4.94564566192555	5.86273322932309	16.7504839116184	5.86273322932309	-4.94564566192555	3.3613697708135817	2.0732532340874843	8.964853603051262	8.932435260777565	15.457285977982956	8.964853603051262	-4.436177250888887	13.891754675923908	10.530384905110326	6.4082504589082365	4.629856378230519	2	missed	0.0
163.1015796000138	6.768528999993578	nogo_punish	1.0	163.1256418999983	165.13987630000338	167.66890620000777	2.01423440000508	164.13299909999478	166.64915350000956	168.68175699998392	1.0068772000086028	1.0197526999982074	1.2124139000079595	n/a	1.0	n/a	1	0	85	2	nogo_punish	1	-1	0	0	0	1	0	n/a	n/a	0	1.0	1.0	561.4921496000024	724.6177915000007	725.6251486999972	726.6320259000058	728.141303100012	729.1610558000102	n/a	n/a	730.1739065999864	731.3863204999943	2019-12-21 09:27:50.925837	7.88722465792021	-3.23156285074341	-6.42153056920319	-7.34760633382444	-14.3087552271234	-6.42153056920319	-7.88722465792021	-6.42153056920319	-3.23156285074341	-6.42153056920319	-14.3087552271234	6.42153056920319	0.3608437464384915	-6.103955278581475	-3.3194101954750175	-6.459270069870627	-15.601953160758844	-3.3194101954750175	6.930998980239853	-9.280259804897682	-9.641103551336165	-4.958925772220503	-4.464439701835981	2	missed	0.0
169.90887240000302	6.410456500016153	nogo_punish	1.0	169.93293469998753	171.60739689998445	174.1426303999906	1.674462199996924	170.94489009998506	173.12292230001185	175.1452936999849	0.6625067999993917	1.0197080999787431	1.1980975000187755	n/a	1.0	n/a	1	0	86	2	nogo_punish	1	-1	0	0	0	1	0	n/a	n/a	0	1.0	1.0	561.4921496000024	731.42508429999	732.4370396999875	733.0995464999869	734.6150719000143	735.634779999993	n/a	n/a	736.6374432999874	737.8355408000061	2019-12-21 09:27:50.925837	7.51112937129991	-3.23156285074341	-5.86004122258387	-6.70620333275855	-13.3711705938838	-5.86004122258387	-7.51112937129991	-5.86004122258387	-3.23156285074341	-5.86004122258387	-13.3711705938838	5.86004122258387	-0.015251540181807854	-6.103955278581475	-2.7579208488556977	-5.817867068804737	-14.664368527519244	-2.7579208488556977	6.369509633620533	-8.718770458278362	-8.703518918096563	-4.3974364256011835	-4.464439701835981	2	missed	0.0
176.3539715000079	6.576687699998729	nogo_reward	0.4018437000049744	176.3780337999924	178.1654021999857	180.70689189998666	1.7873683999932837	177.385285700002	179.69646569999168	181.7112334999838	0.7801164999837056	1.0104261999949813	1.2434880000073463	n/a	1.0	n/a	1	0	87	4	nogo_reward	1	0	1	0	1	0	0	n/a	n/a	0	0.4018437000049744	1.0	561.4921496000024	737.8701833999949	738.8774353000044	739.6575517999881	741.1886152999941	742.1990414999891	n/a	n/a	743.2033830999862	744.4468710999936	2019-12-21 09:27:50.925837	9.36015034075132	4.51132699508653	5.86273322932309	7.33921806711221	15.2228835700744	5.86273322932309	-9.36015034075132	4.51132699508653	5.86273322932309	15.2228835700744	5.86273322932309	-4.51132699508653	1.8337694292696014	1.6389345672484645	8.964853603051262	8.227554331066024	13.929685636438956	8.964853603051262	-4.0018585840498675	12.364154334379908	10.530384905110326	5.973931792069218	4.629856378230519	2	missed	0.0
182.9656569000217	6.430411699984688	nogo_reward	0.150907700008247	182.98971920000622	184.3649150999845	186.913818800007	1.37519589997828	184.00542219998897	185.9026040000026	187.92689519998385	0.35949289999553	1.0112148000043817	1.4932357000070624	n/a	1.0	n/a	1	0	88	4	nogo_reward	1	0	1	0	1	0	0	n/a	n/a	0	0.150907700008247	1.0	561.4921496000024	744.4818688000087	745.4975717999914	745.857064699987	747.3947536000051	748.4059684000094	n/a	n/a	749.4190447999863	750.9122804999934	2019-12-21 09:27:50.925837	7.98102534757919	4.11886642331421	5.86273322932309	6.70217551854509	13.8437585769023	5.86273322932309	-7.98102534757919	4.11886642331421	5.86273322932309	13.8437585769023	5.86273322932309	-4.11886642331421	0.45464443609747196	1.2464739954761446	8.964853603051262	7.590511782498903	12.550560643266856	8.964853603051262	-3.6093980122775475	10.985029341207808	10.530384905110326	5.581471220296898	4.629856378230519	2	missed	0.0
189.44159210001817	5.918980299989926	go_reward	1.0	189.46565440000268	191.03237770000123	193.55787600000622	1.5667232999985572	190.4707333999977	192.5384029999841	194.57116210000822	0.561644300003536	1.019473000022117	0.8134725999843795	n/a	1.0	n/a	1	0	89	3	go_reward	1	1	0	1	0	0	0	n/a	n/a	0	1.0	1.0	561.4921496000024	750.9578040000051	751.9628830000001	752.5245273000037	754.0305525999865	755.0500256000087	n/a	n/a	756.0633117000107	756.876784299995	2019-12-21 09:27:50.925837	-43.63601845366	17.471920464048	0.0	17.471920464048	43.63601845366	0.0	43.63601845366	0.0	17.471920464048	0.0	43.63601845366	0.0	-51.16239936514172	14.599528036209936	3.1021203737281726	18.360256728001815	42.34282052002456	3.1021203737281726	0.5094684110366623	-2.858729235694492	48.303670129447234	1.4626047969826872	16.23904361295543	2	missed	0.0
195.39718620001804	6.527206400001887	nogo_reward	0.7666458000021521	195.42124850000255	196.99230189999798	199.54445009998744	1.571053399995435	196.42469059998984	198.52488109999103	200.55776379999588	0.5676113000081386	1.0195689999964088	1.390691100008553	n/a	1.0	n/a	1	0	90	4	nogo_reward	1	0	1	0	1	0	1	n/a	n/a	0	0.7666458000021521	1.0	561.4921496000024	756.913398100005	757.9168401999923	758.4844515000004	760.0170306999935	761.0365996999899	n/a	n/a	762.0499133999983	763.4406045000069	2019-12-21 09:27:50.925837	6.73477947605275	3.76390599883987	5.86273322932309	6.12591457626245	12.5975127053758	5.86273322932309	-6.73477947605275	3.76390599883987	5.86273322932309	12.5975127053758	5.86273322932309	-3.76390599883987	-0.7916014354289684	0.8915135710018047	8.964853603051262	7.014250840216263	11.304314771740357	8.964853603051262	-3.254437587803208	9.738783469681309	10.530384905110326	5.226510795822557	4.629856378230519	2	missed	0.0
201.9614881000016	6.365587000007508	go_punish	1.0	201.9855503999861	203.84305520000635	206.36951459999545	1.8575048000202514	202.99988310001208	205.3479640999867	207.3889640000125	0.8431720999942627	1.0215505000087433	0.9621733999811113	n/a	1.0	n/a	1	0	91	1	go_punish	0	-1	0	1	0	0	0	n/a	n/a	0	1.0	1.0	561.4921496000024	763.4776999999885	764.4920327000145	765.3352048000088	766.8401136999892	767.8616641999979	n/a	n/a	768.8811136000149	769.843286999996	2019-12-21 09:27:50.925837	8.13334425973811	0.0	-22.7318199671605	-20.9491996208049	-30.8651642268986	-22.7318199671605	-8.13334425973811	-22.7318199671605	0.0	-22.7318199671605	-30.8651642268986	22.7318199671605	0.6069633482563912	-2.8723924278380655	-19.629699593432328	-20.060863356851087	-32.15836216053404	-19.629699593432328	23.24128837819716	-25.590549202854994	-26.197512551111362	-21.269215170177812	-1.2328768510925705	2	missed	0.0
208.36365400001523	7.188691299990751	nogo_reward	0.5664725999813527	208.38771629999974	210.82324399999925	213.35278509999625	2.4355276999995112	209.40198649998638	212.34398499998497	214.3671631999896	1.4212575000128709	1.0088001000112854	1.2092444000008982	n/a	1.0	n/a	1	0	92	4	nogo_reward	1	0	1	0	1	0	1	n/a	n/a	0	0.5664725999813527	1.0	561.4921496000024	769.8798659000022	770.8941360999888	772.3153936000017	773.8361345999874	774.8449346999987	n/a	n/a	775.859312799992	777.0685571999929	2019-12-21 09:27:50.925837	5.60756593504409	3.44257216035435	5.86273322932309	5.60416246754054	11.4702991643672	5.86273322932309	-5.60756593504409	3.44257216035435	5.86273322932309	11.4702991643672	5.86273322932309	-3.44257216035435	-1.9188149764376279	0.5701797325162845	8.964853603051262	6.492498731494353	10.177101230731756	8.964853603051262	-2.933103749317688	8.611569928672708	10.530384905110326	4.905176957337037	4.629856378230519	2	missed	0.0
215.58746420001262	7.08269820001442	go_punish	1.0	215.61152649999713	218.13041079998948	220.66492350000772	2.518884299992351	216.6225545000052	219.6454778999905	221.66922999999952	1.5078562999842688	1.0194456000172067	1.02499470001203	n/a	1.0	n/a	1	0	93	1	go_punish	0	-1	0	1	0	0	1	n/a	n/a	0	1.0	1.0	561.4921496000024	777.1036760999996	778.1147041000077	779.6225603999919	781.137627499993	782.1570731000102	n/a	n/a	783.161379600002	784.186374300014	2019-12-21 09:27:50.925837	7.40055661917175	0.0	-20.6542875449458	-19.041940614114	-28.0548441641175	-20.6542875449458	-7.40055661917175	-20.6542875449458	0.0	-20.6542875449458	-28.0548441641175	20.6542875449458	-0.12582429230996794	-2.8723924278380655	-17.552167171217626	-18.153604350160187	-29.348042097752945	-17.552167171217626	21.16375595598246	-23.513016780640292	-23.387192488330264	-19.19168274796311	-1.2328768510925705	2	missed	0.0
222.7064747000113	6.108927199995378	nogo_reward	0.4517940000223461	222.73053699999582	224.07274410000537	226.63345779999509	1.3422071000095457	223.74500180000905	225.60957209998742	227.64303239999572	0.32774229999631643	1.0238857000076678	1.19643179999548	n/a	1.0	n/a	1	0	94	4	nogo_reward	0	1	0	0	1	0	1	n/a	n/a	1	0.4517940000223461	1.0	561.4921496000024	784.2226865999983	785.2371514000115	785.5648937000078	787.1017216999899	788.1256073999975	n/a	n/a	789.1351819999982	790.3316137999936	2019-12-21 09:27:50.925837	4.58707974990635	3.15141877416118	5.86273322932309	5.13133824679996	10.4498129792294	5.86273322932309	-4.58707974990635	3.15141877416118	5.86273322932309	10.4498129792294	5.86273322932309	22.816436824878622	-2.9393011615753686	0.2790263463231146	8.964853603051262	6.019674510753774	9.156615045593956	8.964853603051262	23.325905235915283	7.591083743534908	10.530384905110326	4.614023571143868	4.629856378230519	2	missed	0.0
228.85311760002514	7.306960399990203	nogo_reward	0.5339909000031184	228.87717990000965	231.58849379999447	234.1410646000004	2.711313899984816	229.8811127000081	233.1203542999865	235.15315369999735	1.707381099986378	1.0207103000138886	1.0309866000025067	n/a	1.0	n/a	1	0	95	4	nogo_reward	1	0	1	0	1	0	0	n/a	n/a	0	0.5339909000031184	1.0	561.4921496000024	790.3693295000121	791.3732623000105	793.0806433999969	794.612503899989	795.6332142000028	n/a	n/a	796.6453032999998	797.6762899000023	2019-12-21 09:27:50.925837	9.1138855835849	5.03250059384722	5.86273322932309	6.84759538938074	14.976618812908	5.86273322932309	-9.1138855835849	5.03250059384722	5.86273322932309	14.976618812908	5.86273322932309	-5.03250059384722	1.5875046721031811	2.1601081660091546	8.964853603051262	7.7359316533345535	13.683420879272557	8.964853603051262	-4.5230321828105575	12.117889577213509	10.530384905110326	6.495105390829908	4.629856378230519	2	missed	0.0
236.20065670000622	7.545429299992975	go_reward	0.4445882999862078	236.22471899999073	239.19389070000034	241.7361280999903	2.9691717000096105	237.22542989999056	240.7209898000001	242.74538830001256	1.9684608000097796	1.0151382999902125	1.0247599999711383	n/a	1.0	n/a	1	0	96	3	go_reward	1	1	0	1	1	1	0	n/a	n/a	1	0.4445882999862078	1.0	561.4921496000024	797.7168685999932	798.717579499993	800.6860403000028	802.2131394000025	803.2282776999928	n/a	n/a	804.237537900015	805.2622978999862	2019-12-21 09:27:50.925837	41.3180533588775	17.471920464048	0.0	15.9729741429146	41.3180533588775	0.0	-41.3180533588775	17.471920464048	0.0	41.3180533588775	0.0	8.4959351349918	33.79167244739578	14.599528036209936	3.1021203737281726	16.861310406868412	40.02485542524206	3.1021203737281726	9.005403546028463	38.45932412318301	4.667651675787236	18.93452526103069	-1.2328768510925705	2	missed	0.0
243.78203700002632	6.793457199994009	nogo_punish	1.0	243.80609930001083	246.14486969998688	248.6746475000109	2.338770399976056	244.82055629999377	247.65114679999533	249.68416360000265	1.324313399993116	1.0235007000155747	0.915392900002189	n/a	1.0	n/a	1	0	97	2	nogo_punish	0	0	-1	0	0	1	0	n/a	n/a	-1	1.0	1.0	561.4921496000024	805.2982489000133	806.3127058999962	807.6370192999893	809.1432963999978	810.1667971000134	n/a	n/a	811.1763132000051	812.0917061000073	2019-12-21 09:27:50.925837	7.17229557561189	-3.23156285074341	-5.3523072068052	-6.12611199382613	-12.5246027824171	-5.3523072068052	-7.17229557561189	-5.3523072068052	-3.23156285074341	-5.3523072068052	-12.5246027824171	-31.581672899868103	-0.3540853358698284	-6.103955278581475	-2.2501868330770276	-5.237775729872316	-13.817800716052544	-2.2501868330770276	-31.072204488831442	-8.211036442499692	-7.856951106629864	-3.889702409822513	-4.464439701835981	2	missed	0.0
250.62099420002778	6.401208299997961	go_reward	0.5107335000066087	250.6450565000123	252.1867341999896	254.73312079999596	1.5416776999772992	251.6395926999976	253.70777730000555	255.7335036000004	0.5471414999919944	1.025343499990413	1.3127612000098452	n/a	1.0	n/a	1	0	98	3	go_reward	1	1	0	1	1	1	1	n/a	n/a	1	0.5107335000066087	1.0	561.4921496000024	812.1372061000147	813.1317423	813.678883799992	815.199926900008	816.2252703999984	n/a	n/a	817.2256532000029	818.5384144000127	2019-12-21 09:27:50.925837	43.1744467700568	18.1180975260906	0.0	16.7607240897956	43.1744467700568	0.0	-43.1744467700568	18.1180975260906	0.0	43.1744467700568	0.0	7.8497580729492	35.64806585857508	15.245705098252536	3.1021203737281726	17.649060353749412	41.881248836421356	3.1021203737281726	8.359226483985863	40.31571753436231	4.667651675787236	19.58070232307329	-1.2328768510925705	2	missed	0.0
257.05803890002426	7.014071799989324	go_punish	1.0	257.08210120000876	259.26793790000374	261.8057623000059	2.1858366999949794	258.09678530000383	260.7840062000032	262.8059271000093	1.171152599999914	1.0217561000026762	1.290245899988804	n/a	1.0	n/a	1	0	99	1	go_punish	1	0	-1	1	0	0	0	n/a	n/a	-1	1.0	1.0	561.4921496000024	818.5742508000112	819.5889349000063	820.7600875000062	822.2761558000057	823.2979119000083	n/a	n/a	824.2980767000117	825.5883226000005	2019-12-21 09:27:50.925837	6.74456519536257	0.0	-18.7842562177352	-17.3245990134529	-25.5288214130978	-18.7842562177352	-6.74456519536257	-18.7842562177352	0.0	-18.7842562177352	-25.5288214130978	-18.1497238889381	-0.7818157161191479	-2.8723924278380655	-15.682135844007028	-16.436262749499086	-26.822019346733242	-15.682135844007028	-17.64025547790144	-21.642985453429695	-20.86116973731056	-17.321651420752513	-1.2328768510925705	2	missed	0.0
264.1077398000052	7.059645200002706	nogo_punish	1.0	264.1318020999897	266.17524809998577	268.7014918999921	2.043445999996038	265.1464864999871	267.68047650001245	269.7140044000116	1.0287615999986883	1.0210153999796603	1.4774428999808151	n/a	1.0	n/a	1	0	100	2	nogo_punish	1	-1	0	0	0	1	0	n/a	n/a	0	1.0	1.0	561.4921496000024	825.6239516999922	826.6386360999895	827.6673976999882	829.1726261000149	830.1936414999946	n/a	n/a	831.2061540000141	832.6835968999949	2019-12-21 09:27:50.925837	8.36969855168776	-3.23156285074341	-8.12432640103282	-8.8325570594677	-16.4940249527206	-8.12432640103282	-8.36969855168776	-8.12432640103282	-3.23156285074341	-8.12432640103282	-16.4940249527206	8.12432640103282	0.8433176402060418	-6.103955278581475	-5.022206027304646	-7.944220795513886	-17.787222886356044	-5.022206027304646	8.633794812069482	-10.983055636727311	-11.826373276933364	-6.661721604050133	-4.464439701835981	2	missed	0.0
271.2049933000235	7.736277399992105	go_punish	1.0	271.229055600008	273.99902660000953	276.52853479998885	2.769971000001533	272.2340385999996	275.50392709998414	277.54417089998606	1.7649880000099074	1.024607700004708	1.421162100014044	n/a	1.0	n/a	1	0	101	1	go_punish	1	0	-1	1	0	0	1	n/a	n/a	-1	1.0	1.0	561.4921496000024	832.7212052000104	833.7261882000021	835.491176200012	836.9960766999866	838.0206843999913	n/a	n/a	839.0363204999885	840.4574826000025	2019-12-21 09:27:50.925837	7.65966389236051	0.0	-20.3309162831836	-19.0083091521332	-27.9905801755441	-20.3309162831836	-7.65966389236051	-20.3309162831836	0.0	-20.3309162831836	-27.9905801755441	-16.603063823489702	0.13328298087879187	-2.8723924278380655	-17.228795909455428	-18.119972888179387	-29.283778109179543	-17.228795909455428	-16.09359541245304	-23.189645518878095	-23.322928499756863	-18.868311486200913	-1.2328768510925705	2	missed	0.0
278.9740585000254	6.136643699981505	go_punish	1.0	278.99812080000993	280.81883999999263	283.35284750000574	1.8207191999827046	280.0054050000035	282.32409239999834	284.358006800001	0.8134349999891128	1.0287551000074018	0.7767576999904122	n/a	1.0	n/a	1	0	102	1	go_punish	1	0	-1	1	0	0	0	n/a	n/a	-1	1.0	1.0	561.4921496000024	840.4902704000124	841.497554600006	842.3109895999951	843.8162420000008	844.8449971000082	n/a	n/a	845.8501564000035	846.6269140999939	2019-12-21 09:27:50.925837	8.4823586249237	0.0	-21.7306687854993	-20.531187775239	-30.213027410423	-21.7306687854993	-8.4823586249237	-21.7306687854993	0.0	-21.7306687854993	-30.213027410423	-15.203311321174002	0.9559777134419818	-2.8723924278380655	-18.628548411771128	-19.642851511285187	-31.506225344058443	-18.628548411771128	-14.69384291013734	-24.589398021193794	-25.545375734635762	-20.268063988516612	-1.2328768510925705	2	missed	0.0
285.1461788000015	6.232747000001837	go_punish	1.0	285.170241099986	286.48961099999724	289.01665360000334	1.3193699000112247	286.16269110000576	287.9959366999974	290.0187588999979	0.32691989999148063	1.0207169000059366	1.3842291999899317	n/a	1.0	n/a	1	0	103	1	go_punish	0	-1	0	1	0	0	1	n/a	n/a	0	1.0	1.0	561.4921496000024	846.6623906999885	847.6548407000082	847.9817605999997	849.4880862999998	850.5088032000058	n/a	n/a	851.5109085000004	852.8951376999903	2019-12-21 09:27:50.925837	9.22277284052095	0.0	-22.9987988364018	-21.9100356759085	-32.2215716769227	-22.9987988364018	-9.22277284052095	-22.9987988364018	0.0	-22.9987988364018	-32.2215716769227	22.9987988364018	1.6963919290392315	-2.8723924278380655	-19.896678462673627	-21.021699411954685	-33.51476961055814	-19.896678462673627	23.50826724743846	-25.857528072096294	-27.553920001135463	-21.53619403941911	-1.2328768510925705	2	missed	0.0
291.41911190000246	6.351776299998164	nogo_punish	1.0	291.44317419998697	292.89480539999204	295.43304149998585	1.4516312000050675	292.45952370000305	294.41519199998584	296.44759409999824	0.435281699988991	1.0178495000000112	1.347356399986893	n/a	1.0	n/a	1	0	104	2	nogo_punish	1	-1	0	0	0	1	0	n/a	n/a	0	1.0	1.0	561.4921496000024	852.9353237999894	853.9516733000055	854.3869549999945	855.9073415999883	856.9251910999883	n/a	n/a	857.9397437000007	859.2871000999876	2019-12-21 09:27:50.925837	7.94098126638967	-3.23156285074341	-7.39578235629974	-8.04453369563135	-15.3367636226894	-7.39578235629974	-7.94098126638967	-7.39578235629974	-3.23156285074341	-7.39578235629974	-15.3367636226894	7.39578235629974	0.414600354907952	-6.103955278581475	-4.293661982571567	-7.156197431677536	-16.629961556324844	-4.293661982571567	7.905250767336402	-10.254511591994232	-10.669111946902163	-5.933177559317052	-4.464439701835981	2	missed	0.0
297.8061076000158	6.890102999983355	go_punish	1.0	297.8301699000003	300.0666489999858	302.58588999998756	2.236479099985445	298.84670809999807	301.57156489999034	303.5947346999892	1.219940899987705	1.0143250999972224	1.1255381999944802	n/a	1.0	n/a	1	0	105	1	go_punish	1	0	-1	1	0	0	1	n/a	n/a	-1	1.0	1.0	561.4921496000024	859.3223195000028	860.3388577000005	861.5587985999882	863.0637144999928	864.07803959999	n/a	n/a	865.0868842999917	866.2124224999861	2019-12-21 09:27:50.925837	8.38688378616346	0.0	-20.9173098119005	-19.9281965190044	-29.3041935980639	-20.9173098119005	-8.38688378616346	-20.9173098119005	0.0	-20.9173098119005	-29.3041935980639	-16.016670294772805	0.8605028746817425	-2.8723924278380655	-17.815189438172325	-19.039860255050584	-30.597391531699344	-17.815189438172325	-15.507201883736142	-23.776039047594992	-24.636541922276663	-19.45470501491781	-1.2328768510925705	2	missed	0.0
304.7374213000003	6.689738800021587	go_reward	0.4415653999894857	304.7614835999848	306.797985000012	309.3345786999853	2.0365014000271913	305.7622151999967	308.3146202999924	310.3434908000054	1.0357698000152595	1.0199583999929018	1.1077316000009887	n/a	1.0	n/a	1	0	106	3	go_reward	1	1	0	1	1	1	0	n/a	n/a	1	0.4415653999894857	1.0	561.4921496000024	866.2536331999872	867.2543647999992	868.2901346000144	869.8067698999948	870.8267282999877	n/a	n/a	871.8356404000078	872.9433720000088	2019-12-21 09:27:50.925837	44.8651581652892	18.7083525346339	0.0	17.4780703447068	44.8651581652892	0.0	-44.8651581652892	18.7083525346339	0.0	44.8651581652892	0.0	7.2595030644059015	37.338777253807486	15.835960106795834	3.1021203737281726	18.366406608660615	43.57196023165376	3.1021203737281726	7.768971475442564	42.00642892959471	4.667651675787236	20.170957331616588	-1.2328768510925705	2	missed	0.0
311.4732392000151	6.843967599997995	nogo_punish	1.0	311.4973014999996	313.34409679999226	315.87086779999663	1.8467952999926638	312.51199239998823	314.8593736999901	316.87346589998924	0.8321044000040274	1.01149410000653	1.4678032000083476	n/a	1.0	n/a	1	0	107	2	nogo_punish	1	-1	0	0	0	1	0	n/a	n/a	0	1.0	1.0	561.4921496000024	872.989451100002	874.0041419999907	874.8362463999947	876.3515232999926	877.3630173999991	n/a	n/a	878.3656154999917	879.8334187	2019-12-21 09:27:50.925837	7.55572416685599	-3.23156285074341	-6.73889166997258	-7.33364499041672	-14.2946158368286	-6.73889166997258	-7.55572416685599	-6.73889166997258	-3.23156285074341	-6.73889166997258	-14.2946158368286	6.73889166997258	0.02934325537427185	-6.103955278581475	-3.6367712962444076	-6.4453087264629065	-15.587813770464043	-3.6367712962444076	7.248360081009243	-9.597620905667073	-9.626964161041364	-5.276286872989893	-4.464439701835981	2	missed	0.0
318.3526248000271	6.320347899978515	go_punish	1.0	318.3766871000116	319.88291479999316	322.40921149999485	1.5062276999815367	319.3928786999895	321.3985726000101	323.4223961000098	0.4900361000036355	1.0106388999847695	1.2746388999803457	n/a	1.0	n/a	1	0	108	1	go_punish	0	-1	0	1	0	0	0	n/a	n/a	0	1.0	1.0	561.4921496000024	879.8688367000141	880.885028299992	881.3750643999956	882.8907222000125	883.9013610999973	n/a	n/a	884.9145457000122	886.1891845999926	2019-12-21 09:27:50.925837	9.14141489139164	0.0	-22.2736241800627	-21.3742791098606	-31.4150390714544	-22.2736241800627	-9.14141489139164	-22.2736241800627	0.0	-22.2736241800627	-31.4150390714544	22.2736241800627	1.6150339799099225	-2.8723924278380655	-19.171503806334528	-20.485942845906784	-32.70823700508984	-19.171503806334528	22.78309259109936	-25.132353415757194	-26.747387395667165	-20.811019383080012	-1.2328768510925705	2	missed	0.0
324.7067594000255	6.443653199996334	go_punish	1.0	324.73082170001	326.3011517999985	328.81772200000705	1.570330099988496	325.73868139999104	327.79538609998417	329.81786270000157	0.5624704000074416	1.022335900022881	1.3566122000047471	n/a	1.0	n/a	1	0	109	1	go_punish	1	0	-1	1	0	0	0	n/a	n/a	-1	1.0	1.0	561.4921496000024	886.2229713000124	887.2308309999935	887.7933014000009	889.2875356999866	890.3098716000095	n/a	n/a	891.310012300004	892.6666245000088	2019-12-21 09:27:50.925837	8.3176825756919	0.0	-20.270280994575	-19.4518735740933	-28.5879635702669	-20.270280994575	-8.3176825756919	-20.270280994575	0.0	-20.270280994575	-28.5879635702669	-16.663699112098303	0.7913016642101827	-2.8723924278380655	-17.168160620846827	-18.563537310139488	-29.881161503902344	-17.168160620846827	-16.154230701061643	-23.129010230269493	-23.920311894479664	-18.80767619759231	-1.2328768510925705	2	missed	0.0
331.18877570002223	6.084410899988143	nogo_punish	1.0	331.21283800000674	333.00154580001254	335.5189096000104	1.7887078000057954	332.21354349999456	334.5177779000078	336.5350996000052	0.788002300017979	1.0011317000025883	0.7621492999896873	n/a	1.0	n/a	1	0	110	2	nogo_punish	1	-1	0	0	0	1	0	n/a	n/a	0	1.0	1.0	561.4921496000024	892.7049876000092	893.705693099997	894.493695400015	896.0099275000102	897.0110592000128	n/a	n/a	898.0272492000076	898.7893984999973	2019-12-21 09:27:50.925837	7.20916748553787	-3.23156285074341	-6.14602338829824	-6.69171269641584	-13.3551908738361	-6.14602338829824	-7.20916748553787	-6.14602338829824	-3.23156285074341	-6.14602338829824	-13.3551908738361	6.14602338829824	-0.31721342594384794	-6.103955278581475	-3.0439030145700676	-5.803376432462027	-14.648388807471544	-3.0439030145700676	6.655491799334903	-9.004752623992733	-8.687539198048864	-4.683418591315553	-4.464439701835981	2	missed	0.0
337.3142058000085	6.327810300019337	go_reward	0.5951495999761391	337.338268099993	339.1103992999997	341.6726785000063	1.7721312000066973	338.3480775000062	340.64889499999117	342.68820330000017	0.762321799993515	1.0237835000151563	0.9778751000121702	n/a	1.0	n/a	1	0	111	3	go_reward	1	1	0	1	1	1	0	n/a	n/a	1	0.5951495999761391	1.0	561.4921496000024	898.8304176999955	899.8402271000086	900.6025489000021	902.1410445999936	903.1648281000088	n/a	n/a	904.1803529000026	905.1582280000148	2019-12-21 09:27:50.925837	46.406550118222	19.2480517460156	0.0	18.1319639887104	46.406550118222	0.0	-46.406550118222	19.2480517460156	0.0	46.406550118222	0.0	6.7198038530241995	38.880169206740284	16.375659318177537	3.1021203737281726	19.020300252664214	45.11335218458656	3.1021203737281726	7.229272264060862	43.54782088252751	4.667651675787236	20.71065654299829	-1.2328768510925705	2	missed	0.0
343.6797879000078	7.260234200017294	nogo_reward	0.6364694999938365	343.7038501999923	346.5351156000107	349.0823769999844	2.831265400018424	344.70800569999835	348.0713048999895	350.09568830000353	1.827109900012374	1.0110720999948626	0.8683961000060663	n/a	1.0	n/a	1	0	112	4	nogo_reward	1	0	1	0	1	0	0	n/a	n/a	0	0.6364694999938365	1.0	561.4921496000024	905.1959997999948	906.2001553000008	908.0272652000132	909.563454499992	910.5745265999868	n/a	n/a	911.587837900006	912.456234000012	2019-12-21 09:27:50.925837	7.76915650747918	4.59534099349984	5.86273322932309	6.26076244763016	13.6318897368023	5.86273322932309	-7.76915650747918	4.59534099349984	5.86273322932309	13.6318897368023	5.86273322932309	-4.59534099349984	0.242775595997462	1.7229485656617745	8.964853603051262	7.1490987115839735	12.338691803166856	8.964853603051262	-4.085872582463177	10.773160501107808	10.530384905110326	6.057945790482528	4.629856378230519	2	missed	0.0
350.9858024000132	7.401878800010195	go_reward	0.292373200005386	351.0098646999977	353.4420991000079	355.9889918999979	2.432234400010202	352.00566210001114	354.97398619999876	356.99488539999595	1.436436999996772	1.0150056999991648	1.4168581000119502	n/a	1.0	n/a	1	0	113	3	go_reward	1	1	0	1	1	1	1	n/a	n/a	1	0.292373200005386	1.0	561.4921496000024	912.5020143000002	913.4978117000136	914.9342487000104	916.4661358000012	917.4811415000004	n/a	n/a	918.4870349999984	919.9038931000104	2019-12-21 09:27:50.925837	47.8132303729235	19.7420009967656	0.0	18.7286118739474	47.8132303729235	0.0	-47.8132303729235	19.7420009967656	0.0	47.8132303729235	0.0	6.2258546022742	40.28684946144178	16.869608568927536	3.1021203737281726	19.616948137901215	46.52003243928806	3.1021203737281726	6.735323013310863	44.95450113722901	4.667651675787236	21.20460579374829	-1.2328768510925705	2	missed	0.0
358.42248810001183	6.740148699988026	go_punish	1.0	358.44655039999634	360.43060530000355	362.9303821999928	1.9840549000072087	359.4624338999855	361.92465999998956	363.94344440000714	0.9681714000180364	1.0057222000032198	1.2432546999772285	n/a	1.0	n/a	1	0	114	1	go_punish	0	-1	0	1	0	0	0	n/a	n/a	0	1.0	1.0	561.4921496000024	919.9386999999988	920.954583499988	921.922754900006	923.416809599992	924.4225317999952	n/a	n/a	925.4355940000096	926.6788486999868	2019-12-21 09:27:50.925837	9.08268201199445	0.0	-21.6959044738532	-20.9505362386015	-30.7785864858476	-21.6959044738532	-9.08268201199445	-21.6959044738532	0.0	-21.6959044738532	-30.7785864858476	21.6959044738532	1.5563011005127318	-2.8723924278380655	-18.593784100125028	-20.062199974647687	-32.071784419483045	-18.593784100125028	22.20537288488986	-24.554633709547694	-26.110934810060364	-20.233299676870512	-1.2328768510925705	2	missed	0.0
365.19870890001766	6.121699799987368	nogo_punish	1.0	365.22277120000217	366.59624789998634	369.11921889998473	1.3734766999841668	366.23462480001035	368.0992169000092	370.13236119999794	0.3616230999759864	1.020001999975534	1.2121097999915946	n/a	1.0	n/a	1	0	115	2	nogo_punish	1	-1	0	0	0	1	0	n/a	n/a	0	1.0	1.0	561.4921496000024	926.7149208000046	927.7267744000128	928.0883974999888	929.5913665000116	930.6113684999872	n/a	n/a	931.6245108000004	932.836620599992	2019-12-21 09:27:50.925837	6.89710894213697	-3.23156285074341	-5.61041776294148	-6.1114883854158	-12.5075267050785	-5.61041776294148	-6.89710894213697	-5.61041776294148	-3.23156285074341	-5.61041776294148	-12.5075267050785	5.61041776294148	-0.6292719693447486	-6.103955278581475	-2.508297389213307	-5.223152121461987	-13.800724638713945	-2.508297389213307	6.119886173978142	-8.469146998635972	-7.839875029291265	-4.147812965958792	-4.464439701835981	2	missed	0.0
371.3569511000243	5.91869219997875	go_punish	1.0	371.3810134000088	372.8549062999956	375.3943944000056	1.4738928999868222	372.38678150001215	374.37002219998976	376.40933289998793	0.4681247999834568	1.0243722000158186	0.8903726999996024	n/a	1.0	n/a	1	0	116	1	go_punish	1	0	-1	1	0	0	1	n/a	n/a	-1	1.0	1.0	561.4921496000024	932.8731630000112	933.8789311000146	934.347055899998	935.8621717999922	936.886544000008	n/a	n/a	937.9014824999904	938.79185519999	2019-12-21 09:27:50.925837	8.26796298342204	0.0	-19.7540843452521	-19.074684211764	-28.0220473286742	-19.7540843452521	-8.26796298342204	-19.7540843452521	0.0	-19.7540843452521	-28.0220473286742	-17.179895761421204	0.7415820719403214	-2.8723924278380655	-16.651963971523926	-18.186347947810187	-29.315245262309645	-16.651963971523926	-16.670427350384543	-22.612813580946593	-23.354395652886964	-18.29147954826941	-1.2328768510925705	2	missed	0.0
377.3127256000006	6.379071700008467	nogo_punish	1.0	377.3367878999851	379.1996919999948	381.7425286000072	1.8629041000097004	378.3400494999952	380.7155788000091	382.75352989998635	0.8596424999996088	1.0269497999980786	0.9623297000072171	n/a	1.0	n/a	1	0	117	2	nogo_punish	0	0	-1	0	0	1	1	n/a	n/a	-1	1.0	1.0	561.4921496000024	938.8289374999875	939.8321990999976	940.6918415999972	942.2077284000115	943.2346782000096	n/a	n/a	944.2456794999888	945.208009199996	2019-12-21 09:27:50.925837	6.61583447667112	-3.23156285074341	-5.12608047214863	-5.58654099013567	-11.7419149488198	-5.12608047214863	-6.61583447667112	-5.12608047214863	-3.23156285074341	-5.12608047214863	-11.7419149488198	-31.807899634524674	-0.9105464348105983	-6.103955278581475	-2.0239600984204578	-4.6982047261818565	-13.035112882455243	-2.0239600984204578	-31.298431223488013	-7.984809707843123	-7.074263273032563	-3.663475675165943	-4.464439701835981	2	missed	0.0
383.73276460001944	5.828036899998551	go_reward	0.5122705000103451	383.75682690000394	385.1883109000046	387.73838900000555	1.431484000000637	384.76641750001	386.72464209998714	388.74768860000756	0.4218933999945875	1.0137469000184183	0.8371751999949311	n/a	1.0	n/a	1	0	118	3	go_reward	1	1	0	1	1	1	0	n/a	n/a	1	0.5122705000103451	1.0	561.4921496000024	945.2489765000064	946.2585671000124	946.680460500007	948.2167916999896	949.230538600008	n/a	n/a	950.23983820001	951.077013400005	2019-12-21 09:27:50.925837	49.098253393373	20.1945085183027	0.0	19.2735618639211	49.098253393373	0.0	-49.098253393373	20.1945085183027	0.0	49.098253393373	0.0	5.7733470807371	41.57187248189128	17.322116090464636	3.1021203737281726	20.161898127874913	47.80505545973756	3.1021203737281726	6.282815491773762	46.23952415767851	4.667651675787236	21.65711331528539	-1.2328768510925705	2	missed	0.0
389.6016370000142	6.242373799992606	nogo_reward	0.3292674999975133	389.6256992999987	391.36927609998395	393.91726879999635	1.7435767999852487	390.63563360000273	392.90661109998473	394.93030939999153	0.7336424999812152	1.0106577000116204	0.9377636999997776	n/a	1.0	n/a	1	0	119	4	nogo_reward	1	0	1	0	1	0	0	n/a	n/a	0	0.3292674999975133	1.0	561.4921496000024	951.1178489000011	952.1277832000052	952.8614256999864	954.3987606999872	955.4094183999988	n/a	n/a	956.422458999994	957.3602226999938	2019-12-21 09:27:50.925837	6.55306506350617	4.19996652274446	5.86273322932309	5.72935383145535	12.4157982928293	5.86273322932309	-6.55306506350617	4.19996652274446	5.86273322932309	12.4157982928293	5.86273322932309	-4.19996652274446	-0.9733158479755479	1.3275740949063946	8.964853603051262	6.617690095409163	11.122600359193855	8.964853603051262	-3.6904981117077975	9.557069057134807	10.530384905110326	5.662571319727148	4.629856378230519	2	missed	0.0
395.8810541000274	6.387442099978443	nogo_punish	1.0	395.90511640001193	397.8071931999875	400.3421284999931	1.902076799975589	396.90874290000636	399.3224599999958	401.3552181000124	0.8984502999811639	1.0196684999973513	0.9373403999779839	n/a	1.0	n/a	1	0	120	2	nogo_punish	1	-1	0	0	0	1	0	n/a	n/a	0	1.0	1.0	561.4921496000024	957.3972660000144	958.4008925000088	959.29934279999	960.8146095999982	961.8342780999956	n/a	n/a	962.8473677000148	963.7847080999928	2019-12-21 09:27:50.925837	7.86501528366028	-3.23156285074341	-7.91925326336983	-8.34272157214717	-15.7842685470301	-7.91925326336983	-7.86501528366028	-7.91925326336983	-3.23156285074341	-7.91925326336983	-15.7842685470301	7.91925326336983	0.3386343721785616	-6.103955278581475	-4.817132889641657	-7.454385308193356	-17.077466480665542	-4.817132889641657	8.428721674406493	-10.777982499064322	-11.116616871242865	-6.4566484663871435	-4.464439701835981	2	missed	0.0
