onset	duration	trial_type	response_time	cueOnset	targetOnset	fbOnset	cueRT	firstfixOnset	secondfixOnset	waitOnset	firstfixdur	secondfixdur	waitdur	nback_fbOnset	nback_response_time	nback_targetOnset	block	wm	trial	cue	cond	is_common	outcome_go	outcome_nogo	key_correct	key_pressed	is_correct	key_correct_nback	key_pressed_nback	is_correct_nback	outcome	rt	rt_nback	time_scan	time_onset	time_isi1	time_circle	time_isi2	time_feedback	time_same	time_correct	time_iti	time_done	timestamp_scan	DV	Qgo	Qnogo	SV	Wgo	Wnogo	mDV	Qchosen	Qunchosen	Wchosen	Wunchosen	PE	DVC	QgoC	QnogoC	SVC	WgoC	WnogoC	PEC	WchosenC	WunchosenC	QchosenC	QunchosenC	run	outcome_nback	nback_targetResp
0.0	8.429278800002066	nogo_punish	1.0	0.04010199999925135	1.4860075000035522	4.021035099984601	1.4459055000043008	1.047348499996815	3.0001500999790096	7.085793399979821	0.4386590000067372	1.0208850000055918	1.3835874000214972	6.080806799989887	0.8285303000011481	5.047904199978802	2	1	1	2	nogo_punish	1	-1	0	0	0	1	0	0.0	1.0	0	1.0	0.8285303000011481	1037.4394122000083	1037.4795142000075	1038.486760700005	1038.9254197000118	1040.4395622999873	1041.460447299993	1042.487316399987	1043.5202189999982	1044.525205599988	1045.9087930000096	2019-12-21 09:35:46.879027	0.509301239133896	0.0	0.0	0.0	-0.509301239133896	0.0	-0.509301239133896	0.0	0.0	0.0	-0.509301239133896	0.0	-7.017079672347823	-2.8723924278380655	3.1021203737281726	0.8883362639538134	-1.8024991727693394	3.1021203737281726	0.5094684110366623	-2.858729235694492	4.15835043665334	1.4626047969826872	-1.2328768510925705	3	correct	1.0
8.456079399998771	8.181612199987512	nogo_reward	1.0	8.496181399998022	10.280159399990453	12.809382299980143	1.7839779999924303	9.507935400004726	11.78536999999801	15.840311199979624	0.7722239999857266	1.0240122999821324	0.8374824000059107	14.837911999988592	0.5228748000226915	13.823374999978341	2	1	2	4	nogo_reward	1	0	1	0	0	1	0	0.0	1.0	1	1.0	0.5228748000226915	1037.4394122000083	1045.9355936000063	1046.947347600013	1047.7195715999987	1049.2247822000063	1050.2487944999884	1051.2627871999866	1052.2773241999969	1053.279723399988	1054.1172057999938	2019-12-21 09:35:46.879027	0.509301239133896	0.0	0.0	0.0	-0.509301239133896	0.0	-0.509301239133896	0.0	0.0	0.0	-0.509301239133896	25.9678555990398	-7.017079672347823	-2.8723924278380655	3.1021203737281726	0.8883362639538134	-1.8024991727693394	3.1021203737281726	26.47732401007646	-2.858729235694492	4.15835043665334	1.4626047969826872	-1.2328768510925705	3	correct	1.0
16.68031679998967	8.753515499993227	nogo_punish	1.0	16.72041879998892	18.649521599989612	21.167388899979642	1.9291028000006918	17.728463799983956	20.15586189998453	24.225880699989148	0.9210578000056557	1.0115269999951124	1.2480535999929998	23.21303709998051	0.4215618000016548	22.18376089999242	2	1	3	2	nogo_punish	1	-1	0	0	0	1	1	1.0	1.0	0	1.0	0.4215618000016548	1037.4394122000083	1054.1598309999972	1055.1678759999922	1056.088933799998	1057.5952740999928	1058.606801099988	1059.6231731000007	1060.6524492999888	1061.6652928999974	1062.9133464999904	2019-12-21 09:35:46.879027	0.509301239133896	0.0	0.0	0.0	-0.509301239133896	0.0	-0.509301239133896	0.0	0.0	0.0	-0.509301239133896	0.0	-7.017079672347823	-2.8723924278380655	3.1021203737281726	0.8883362639538134	-1.8024991727693394	3.1021203737281726	0.5094684110366623	-2.858729235694492	4.15835043665334	1.4626047969826872	-1.2328768510925705	3	correct	1.0
25.4584130999865	7.999831900000572	nogo_reward	0.8367235999903642	25.498515099985752	26.899634999980208	29.451214799977606	1.4011198999944554	26.51027349999663	28.43157939999969	32.49830959999258	0.38936149998357905	1.0196353999779149	1.0000373999937437	31.49538009997923	0.4512278000183869	30.466084299987642	2	1	4	4	nogo_reward	1	0	1	0	1	0	1	1.0	1.0	0	0.8367235999903642	0.4512278000183869	1037.4394122000083	1062.937927299994	1063.949685700005	1064.3390471999885	1065.870991600008	1066.890626999986	1067.905496499996	1068.9347922999875	1069.9377218000009	1070.9377591999946	2019-12-21 09:35:46.879027	0.486650315588641	0.0	2.4584393029123	2.4584393029123	2.94508961850094	2.4584393029123	-0.486650315588641	0.0	2.4584393029123	2.94508961850094	2.4584393029123	0.0	-7.039730595893078	-2.8723924278380655	5.560559676640473	3.346775566866113	1.6518916848654968	5.560559676640473	0.5094684110366623	0.08636038280644787	7.126090978699536	1.4626047969826872	1.2255624518197294	3	correct	1.0
33.505281699995976	8.82870849999017	go_reward	1.0	33.54538369999523	35.3067107999816	37.831077799986815	1.7613270999863744	34.54034750000619	36.81145809998293	40.89524620000179	0.76636329997541	1.0196197000038865	1.478845999983605	39.88675079998234	0.3873620000085793	38.84996969997883	2	1	5	3	go_reward	1	1	0	1	0	0	0	1.0	0.0	0	1.0	0.3873620000085793	1037.4394122000083	1070.9847959000035	1071.9797597000145	1072.74612299999	1074.2508702999912	1075.270489999995	1076.2893818999871	1077.3261629999906	1078.33465840001	1079.8135043999937	2019-12-21 09:35:46.879027	0.509301239133896	0.0	0.0	0.0	-0.509301239133896	0.0	-0.509301239133896	0.0	0.0	0.0	-0.509301239133896	0.0	-7.017079672347823	-2.8723924278380655	3.1021203737281726	0.8883362639538134	-1.8024991727693394	3.1021203737281726	0.5094684110366623	-2.858729235694492	4.15835043665334	1.4626047969826872	-1.2328768510925705	3	wrong	1.0
42.377358900004765	8.002045899978839	go_reward	1.0	42.417460900004016	43.971752599987894	46.49719539997773	1.554291699983878	43.424351299996715	45.47627139999554	49.546529399988	0.5474012999911793	1.0209239999821875	0.872977399994852	48.53345009998907	0.4261619999888353	47.51430619999883	2	1	6	3	go_reward	1	1	0	1	0	0	0	0.0	1.0	0	1.0	0.4261619999888353	1037.4394122000083	1079.8568731000123	1080.863763500005	1081.4111647999962	1082.9156836000038	1083.936607599986	1084.9537184000071	1085.9728622999974	1086.9859415999963	1087.8589189999911	2019-12-21 09:35:46.879027	0.509301239133896	0.0	0.0	0.0	-0.509301239133896	0.0	-0.509301239133896	0.0	0.0	0.0	-0.509301239133896	0.0	-7.017079672347823	-2.8723924278380655	3.1021203737281726	0.8883362639538134	-1.8024991727693394	3.1021203737281726	0.5094684110366623	-2.858729235694492	4.15835043665334	1.4626047969826872	-1.2328768510925705	3	correct	1.0
50.40506769999047	7.936795499990694	go_punish	1.0	50.44516969998972	51.81902120000473	54.35923889998253	1.3738515000150073	51.46054699999536	53.335360600002105	57.4200644999803	0.35847420000936836	1.0238782999804243	0.9619007000001147	56.40689019998581	0.7371646000246983	55.3731537999995	2	1	7	1	go_punish	1	0	-1	1	0	0	0	0.0	1.0	-1	1.0	0.7371646000246983	1037.4394122000083	1087.884581899998	1088.8999592000037	1089.258433400013	1090.7747728000104	1091.7986510999908	1092.8125660000078	1093.846302399994	1094.8594766999886	1095.8213773999887	2019-12-21 09:35:46.879027	0.509301239133896	0.0	0.0	0.0	-0.509301239133896	0.0	-0.509301239133896	0.0	0.0	0.0	-0.509301239133896	-36.9339801066733	-7.017079672347823	-2.8723924278380655	3.1021203737281726	0.8883362639538134	-1.8024991727693394	3.1021203737281726	-36.42451169563664	-2.858729235694492	4.15835043665334	1.4626047969826872	-1.2328768510925705	3	correct	1.0
58.38499249998131	9.02899420002359	go_reward	1.0	58.42509449998056	60.88579259999142	63.42185079999058	2.460698100010859	59.43841519998409	62.40086749999341	66.49193990000663	1.4473774000073263	1.0209832999971695	0.9621487999975216	65.47163489999389	0.3752712999994401	64.43816639998136	2	1	8	3	go_reward	1	1	0	1	0	0	1	1.0	1.0	0	1.0	0.3752712999994401	1037.4394122000083	1095.8645066999889	1096.8778273999924	1098.3252047999997	1099.8402797000017	1100.8612629999989	1101.8775785999896	1102.9110471000022	1103.931352100015	1104.8935009000124	2019-12-21 09:35:46.879027	0.509301239133896	0.0	0.0	0.0	-0.509301239133896	0.0	-0.509301239133896	0.0	0.0	0.0	-0.509301239133896	0.0	-7.017079672347823	-2.8723924278380655	3.1021203737281726	0.8883362639538134	-1.8024991727693394	3.1021203737281726	0.5094684110366623	-2.858729235694492	4.15835043665334	1.4626047969826872	-1.2328768510925705	3	correct	1.0
67.45529039998655	7.78037089999998	go_reward	1.0	67.4953923999858	68.92676659999461	71.4417610999958	1.431374200008804	68.50464319999469	70.43155929999216	74.50107659999071	0.42212339999991855	1.0102018000036423	0.7746866999950726	73.48819679999747	0.3264671000069938	72.45991899998648	2	1	9	3	go_reward	1	1	0	1	0	0	0	0.0	1.0	0	1.0	0.3264671000069938	1037.4394122000083	1104.934804599994	1105.944055400003	1106.366178800003	1107.8709715000005	1108.881173300004	1109.8993311999948	1110.9276090000058	1111.940488799999	1112.715175499994	2019-12-21 09:35:46.879027	0.509301239133896	0.0	0.0	0.0	-0.509301239133896	0.0	-0.509301239133896	0.0	0.0	0.0	-0.509301239133896	0.0	-7.017079672347823	-2.8723924278380655	3.1021203737281726	0.8883362639538134	-1.8024991727693394	3.1021203737281726	0.5094684110366623	-2.858729235694492	4.15835043665334	1.4626047969826872	-1.2328768510925705	3	correct	1.0
75.27946249998035	8.29507920000492	go_reward	1.0	75.3195644999796	76.80224279998242	79.32746109997993	1.4826783000028172	76.33357739998632	78.30764319998002	82.3867044999788	0.46866539999609813	1.0198178999999072	1.2279392000057214	81.37364169998932	0.2578158999967854	80.33564320000028	2	1	10	3	go_reward	1	1	0	1	0	0	1	1.0	1.0	0	1.0	0.2578158999967854	1037.4394122000083	1112.758976699988	1113.7729895999946	1114.2416549999907	1115.7470553999883	1116.7668732999882	1117.7750554000086	1118.8130538999976	1119.826116699987	1121.0540558999928	2019-12-21 09:35:46.879027	0.509301239133896	0.0	0.0	0.0	-0.509301239133896	0.0	-0.509301239133896	0.0	0.0	0.0	-0.509301239133896	0.0	-7.017079672347823	-2.8723924278380655	3.1021203737281726	0.8883362639538134	-1.8024991727693394	3.1021203737281726	0.5094684110366623	-2.858729235694492	4.15835043665334	1.4626047969826872	-1.2328768510925705	3	correct	1.0
83.59630429997924	8.329098400019575	nogo_reward	1.0	83.63640629997849	85.4301780999815	87.95061149998241	1.7937718000030145	84.64966589998244	86.93603919999464	91.00328579999064	0.7805121999990661	1.0145722999877762	0.9622189000074286	89.99788349997857	0.4472447999869473	88.96517479998897	2	1	11	4	nogo_reward	1	0	1	0	0	1	0	0.0	1.0	1	1.0	0.4472447999869473	1037.4394122000083	1121.0758184999868	1122.0890780999907	1122.8695902999898	1124.375451400003	1125.3900236999907	1126.4045869999973	1127.4372956999869	1128.442697999999	1129.4049169000064	2019-12-21 09:35:46.879027	-0.0410316203229237	0.0	2.4584393029123	2.14658382856201	2.49947092323523	2.4584393029123	0.0410316203229237	2.4584393029123	0.0	2.4584393029123	2.49947092323523	23.5094162961275	-7.567412531804642	-2.8723924278380655	5.560559676640473	3.034920092515823	1.2062729895997868	5.560559676640473	24.018884707164162	-0.40028993278219227	7.167122599022466	3.921044099894987	-1.2328768510925705	3	correct	1.0
91.96734499998297	7.980946499999391	nogo_punish	0.5758333000121638	92.00744699998222	93.36872480000602	95.91045759999565	1.3612778000237995	93.00788349998788	94.898199999996	98.9577559999891	0.3608413000181372	1.012257599999657	1.0306374999925083	97.9447324999785	0.662391200021375	96.92684410000243	2	1	12	2	nogo_punish	0	0	-1	0	1	0	0	0.0	1.0	0	0.5758333000121638	0.662391200021375	1037.4394122000083	1129.4468591999905	1130.4472956999962	1130.8081370000143	1132.3376122000043	1133.349869800004	1134.3662563000107	1135.3841446999868	1136.3971681999974	1137.42780569999	2019-12-21 09:35:46.879027	-0.509301239133896	0.0	0.0	0.0	-0.509301239133896	0.0	0.509301239133896	0.0	0.0	-0.509301239133896	0.0	0.0	-8.035682150615614	-2.8723924278380655	3.1021203737281726	0.8883362639538134	-1.8024991727693394	3.1021203737281726	0.5094684110366623	-3.3680304748283882	4.667651675787236	1.4626047969826872	-1.2328768510925705	3	correct	1.0
99.97176329998183	8.76947910001013	nogo_reward	0.5661624000058509	100.01186529998108	102.06222739999089	104.59778959999699	2.0503621000098065	101.01594519999367	103.57810889999405	107.64756819998752	1.046282199997222	1.0196807000029366	1.1337762000036946	106.63468879999732	0.3648408000008203	105.61963450000644	2	1	13	4	nogo_reward	1	0	1	0	1	0	1	1.0	1.0	0	0.5661624000058509	0.3648408000008203	1037.4394122000083	1137.4512774999894	1138.455357400002	1139.5016395999992	1141.0175211000023	1142.0372018000053	1143.0590467000147	1144.0741010000056	1145.0869803999958	1146.2207565999995	2019-12-21 09:35:46.879027	0.967328411419109	0.0	4.60502313147432	4.33734644246201	5.57235154289342	4.60502313147432	-0.967328411419109	0.0	4.60502313147432	5.57235154289342	4.60502313147432	0.0	-6.559052500062609	-2.8723924278380655	7.7071435052024935	5.2256827064158236	4.2791536092579765	7.7071435052024935	0.5094684110366623	2.713622307198928	9.272674807261556	1.4626047969826872	3.3721462803817497	3	correct	1.0
108.78422420000425	8.556553999980679	go_reward	0.869238100014627	108.8243262000035	110.39015560000576	112.95449099998245	1.565829400002258	109.83212439998192	111.9269588000027	115.99690850000502	0.5580312000238337	1.0275321999797598	1.3839716999791563	114.99183959999982	0.3401737999811303	113.96028679999313	2	1	14	3	go_reward	1	1	0	1	1	1	0	0.0	1.0	1	0.869238100014627	0.3401737999811303	1037.4394122000083	1146.2637384000118	1147.2715365999902	1147.829567800014	1149.366371000011	1150.3939031999907	1151.3996990000014	1152.431251800008	1153.4363207000133	1154.8202923999925	2019-12-21 09:35:46.879027	-0.509301239133896	0.0	0.0	0.0	-0.509301239133896	0.0	0.509301239133896	0.0	0.0	-0.509301239133896	0.0	25.9678555990398	-8.035682150615614	-2.8723924278380655	3.1021203737281726	0.8883362639538134	-1.8024991727693394	3.1021203737281726	26.47732401007646	-3.3680304748283882	4.667651675787236	1.4626047969826872	-1.2328768510925705	3	correct	1.0
117.38004319998436	8.694892100000288	nogo_punish	1.0	117.42014519998361	119.47877679998078	122.00849449998373	2.0586315999971703	118.43186949999676	120.98883210000372	125.06811309998761	1.0469072999840137	1.0196623999800067	1.0469241999962833	124.05492719999188	0.4329077999864239	123.02646449999907	2	1	15	2	nogo_punish	1	-1	0	0	0	1	0	0.0	1.0	0	1.0	0.4329077999864239	1037.4394122000083	1154.859557399992	1155.871281700005	1156.918188999989	1158.428244300012	1159.447906699992	1160.4658767000074	1161.4943394000002	1162.507525299996	1163.5544494999922	2019-12-21 09:35:46.879027	0.509301239133896	0.0	0.0	0.0	-0.509301239133896	0.0	-0.509301239133896	0.0	0.0	0.0	-0.509301239133896	0.0	-7.017079672347823	-2.8723924278380655	3.1021203737281726	0.8883362639538134	-1.8024991727693394	3.1021203737281726	0.5094684110366623	-2.858729235694492	4.15835043665334	1.4626047969826872	-1.2328768510925705	3	correct	1.0
126.11521069999435	9.678222599992296	nogo_punish	1.0	126.1553126999936	128.90006089999247	131.41540619998727	2.7447481999988668	127.1656017999926	130.40522539999802	134.47531919999187	1.7344590999998672	1.0101807999892571	1.3582160999940243	133.46223029997805	0.3411925999971572	132.43432579998648	2	1	16	2	nogo_punish	1	-1	0	0	0	1	0	0.0	1.0	0	1.0	0.3411925999971572	1037.4394122000083	1163.594724900002	1164.605014000001	1166.3394731000008	1167.8446376000063	1168.8548183999956	1169.8737379999948	1170.9016424999863	1171.9147314000002	1173.2729474999942	2019-12-21 09:35:46.879027	0.509301239133896	0.0	0.0	0.0	-0.509301239133896	0.0	-0.509301239133896	0.0	0.0	0.0	-0.509301239133896	0.0	-7.017079672347823	-2.8723924278380655	3.1021203737281726	0.8883362639538134	-1.8024991727693394	3.1021203737281726	0.5094684110366623	-2.858729235694492	4.15835043665334	1.4626047969826872	-1.2328768510925705	3	correct	1.0
135.81965190000483	8.712486399977934	go_punish	1.0	135.85975390000408	138.22994069999572	140.75966779998294	2.370186799991643	136.8695701999825	139.7411549999963	143.79760629998077	1.3603705000132322	1.0185127999866381	0.7746340000012424	142.78825399998482	0.4723711000115145	141.77506640000524	2	1	17	1	go_punish	1	0	-1	1	0	0	0	0.0	1.0	-1	1.0	0.4723711000115145	1037.4394122000083	1173.2991661000124	1174.3089823999908	1175.669352900004	1177.1805672000046	1178.1990799999912	1179.2144786000135	1180.227666199993	1181.237018499989	1182.0116524999903	2019-12-21 09:35:46.879027	1.24748216880638	0.0	-1.93851245932806	-1.93851245932806	-3.18599462813444	-1.93851245932806	-1.24748216880638	-1.93851245932806	0.0	-1.93851245932806	-3.18599462813444	-34.995467647345244	-6.278898742675338	-2.8723924278380655	1.1636079144001126	-1.0501761953742466	-4.479192561769883	1.1636079144001126	-34.48599923630858	-4.797241695022552	1.4816570476527962	-0.47590766234537285	-1.2328768510925705	3	correct	1.0
144.57467269999324	9.262988000002224	go_reward	1.0	144.6147746999925	147.38670479998132	149.9250001999901	2.771930099988822	145.62297460000286	148.90191549999895	152.97799529999634	1.763730199978454	1.0230846999911591	0.8997673999983817	151.9651786999898	0.4957889000070281	150.93668240000284	2	1	18	3	go_reward	0	0	1	1	0	0	0	0.0	1.0	1	1.0	0.4957889000070281	1037.4394122000083	1182.0541869000008	1183.0623868000112	1184.8261169999896	1186.3413277000072	1187.3644123999984	1188.3760946000111	1189.404590899998	1190.4174075000046	1191.317174900003	2019-12-21 09:35:46.879027	-5.40352892141325	2.4584393029123	0.0	2.4584393029123	5.40352892141325	0.0	5.40352892141325	0.0	2.4584393029123	0.0	5.40352892141325	25.9678555990398	-12.929909832894968	-0.4139531249257655	3.1021203737281726	3.346775566866113	4.110330987777807	3.1021203737281726	26.47732401007646	-2.858729235694492	10.071180597200486	1.4626047969826872	1.2255624518197294	3	correct	1.0
153.86001859998214	8.154490000015358	nogo_reward	0.8957886999996845	153.9001205999814	155.2375728999907	157.7999194999868	1.3374523000093177	154.9076080999805	156.7757448999912	160.8412011000039	0.32996480001020245	1.0241745999956038	1.2134094999928493	159.83497219998412	0.8887130999937654	158.81271649998962	2	1	19	4	nogo_reward	0	1	0	0	1	0	0	0.0	1.0	1	0.8957886999996845	0.8887130999937654	1037.4394122000083	1191.3395327999897	1192.3470202999888	1192.676985099999	1194.2151570999995	1195.239331699995	1196.252128699998	1197.2743843999924	1198.2806133000122	1199.494022800005	2019-12-21 09:35:46.879027	0.194554252883579	0.0	4.60502313147432	3.7953657108698	4.79957738435789	4.60502313147432	-0.194554252883579	0.0	4.60502313147432	4.79957738435789	4.60502313147432	25.9678555990398	-7.331826658598139	-2.8723924278380655	7.7071435052024935	4.683701974823613	3.5063794507224464	7.7071435052024935	26.47732401007646	1.9408481486633975	9.272674807261556	1.4626047969826872	3.3721462803817497	3	correct	1.0
162.03863799999795	8.987007099989796	go_punish	1.0	162.0787399999972	164.29773839999712	166.80441829998767	2.2189983999999185	163.08067179998056	165.79901299998187	169.86401029999274	1.217066600016551	1.0054053000058047	1.2017367999942508	168.85193169998843	0.4513560000050347	167.82305129998736	2	1	20	1	go_punish	0	-1	0	1	0	0	0	0.0	1.0	0	1.0	0.4513560000050347	1037.4394122000083	1199.5181522000055	1200.5200839999889	1201.7371506000054	1203.2384251999902	1204.243830499996	1205.2624634999956	1206.2913438999967	1207.303422500001	1208.5051592999953	2019-12-21 09:35:46.879027	1.91222705752369	0.0	-3.69699694370183	-3.69699694370183	-5.60922400122552	-3.69699694370183	-1.91222705752369	-3.69699694370183	0.0	-3.69699694370183	-5.60922400122552	3.69699694370183	-5.614153853958028	-2.8723924278380655	-0.5948765699736573	-2.8086606797480167	-6.902421934860964	-0.5948765699736573	4.2064653547384925	-6.555726179396322	-0.9415723254382842	-2.2343921467191428	-1.2328768510925705	3	correct	1.0
171.04830309998943	8.641744099993957	nogo_reward	0.3851906999771017	171.08840509998868	172.66225389999477	175.2141861999994	1.5738488000060897	172.1004736000034	174.19449900000495	178.26822149998065	0.5617802999913692	1.0196871999944506	1.4619277000019792	177.25499439999135	0.3236324999888893	176.22193339999671	2	1	21	4	nogo_reward	1	0	1	0	1	0	1	0.0	0.0	0	0.3851906999771017	0.3236324999888893	1037.4394122000083	1208.527817299997	1209.5398858000117	1210.101666100003	1211.6339112000132	1212.6535984000077	1213.661345600005	1214.6944065999996	1215.707633699989	1217.169561399991	2019-12-21 09:35:46.879027	5.44486188091298	2.4584393029123	4.60502313147432	5.78796127607591	10.0498850123873	4.60502313147432	-5.44486188091298	2.4584393029123	4.60502313147432	10.0498850123873	4.60502313147432	-2.4584393029123	-2.081519030568738	-0.4139531249257655	7.7071435052024935	6.676297540029723	8.756687078751856	7.7071435052024935	-1.9489708918756377	7.191155776692808	9.272674807261556	3.921044099894987	3.3721462803817497	3	wrong	1.0
179.71269600000255	8.298409399983711	nogo_reward	0.8304587000166066	179.7527980000018	181.11299900000472	183.6651810999906	1.3602010000029168	180.7629661999822	182.64453200000594	186.7294948000058	0.35003280002251813	1.0206490999846665	1.321712599979719	185.7110653999846	0.3144124000100419	184.68291609999164	2	1	22	4	nogo_reward	1	0	1	0	1	0	0	0.0	1.0	0	0.8304587000166066	0.3144124000100419	1037.4394122000083	1217.19221020001	1218.2023783999905	1218.552411200013	1220.0839442000142	1221.104593299999	1222.1223283	1223.1504775999929	1224.168907000014	1225.4906195999938	2019-12-21 09:35:46.879027	4.1184422033276	2.14658382856201	4.60502313147432	5.07504609478329	8.72346533480192	4.60502313147432	-4.1184422033276	2.14658382856201	4.60502313147432	8.72346533480192	4.60502313147432	-2.14658382856201	-3.407938708154118	-0.7258085992760557	7.7071435052024935	5.963382358737103	7.430267401166477	7.7071435052024935	-1.6371154175253475	5.864736099107429	9.272674807261556	3.609188625544697	3.3721462803817497	3	correct	1.0
188.03467619998264	7.9828713000169955	nogo_reward	1.0	188.0747781999819	189.58572109998227	192.1203187000067	1.510942900000373	189.08611199999018	191.09690279999654	195.17749420000496	0.49960909999208525	1.02341590001015	0.8801552999939304	194.16328389997966	0.5278344000107609	193.1365107999884	2	1	23	4	nogo_reward	1	0	1	0	0	1	1	1.0	1.0	1	1.0	0.5278344000107609	1037.4394122000083	1225.5141903999902	1226.5255241999985	1227.0251332999906	1228.5363150000048	1229.559730900015	1230.5759229999967	1231.602696099988	1232.6169064000132	1233.4970617000072	2019-12-21 09:35:46.879027	-2.97983563326195	1.87890713954971	4.60502313147432	4.46150353589381	7.58485876473627	4.60502313147432	2.97983563326195	4.60502313147432	1.87890713954971	4.60502313147432	7.58485876473627	21.362832467565482	-10.506216544743669	-0.9934852882883556	7.7071435052024935	5.349839799847623	6.2916608311008275	7.7071435052024935	21.872300878602143	1.7462938957798282	12.252510440523507	6.067627928457007	0.6460302884571394	3	correct	1.0
196.0425103000016	8.387772999994922	go_punish	1.0	196.08261230000085	197.42746859998465	199.95650909998244	1.3448562999838032	197.08384509998723	198.93260709999618	202.9930661999972	0.34362349999742037	1.0239019999862649	1.4773190999985673	201.97972869998216	0.5089279999956489	200.96552669999096	2	1	24	1	go_punish	1	0	-1	1	0	0	0	0.0	1.0	-1	1.0	0.5089279999956489	1037.4394122000083	1233.5220245000091	1234.5232572999955	1234.866880799993	1236.3720193000045	1237.3959212999907	1238.4049388999993	1239.4191408999905	1240.4324784000055	1241.909797500004	2019-12-21 09:35:46.879027	1.77509485756142	0.0	-3.35931990819367	-3.35931990819367	-5.13441476575509	-3.35931990819367	-1.77509485756142	-3.35931990819367	0.0	-3.35931990819367	-5.13441476575509	-33.574660198479634	-5.751286053920298	-2.8723924278380655	-0.2571995344654976	-2.470983644239857	-6.427612699390533	-0.2571995344654976	-33.06519178744297	-6.218049143888162	-0.4667630899678539	-1.896715111210983	-1.2328768510925705	3	correct	1.0
204.4732137999963	9.013493600010634	nogo_punish	1.0	204.51331579999555	206.52790049999044	209.06357639998942	2.0145846999948844	205.52123240000242	208.0426366000031	212.11151960000302	1.006668099988019	1.0209397999863086	1.4152898000031655	211.10372889999462	0.3433268999797292	210.0802040999988	2	1	25	2	nogo_punish	1	-1	0	0	0	1	0	0.0	1.0	0	1.0	0.3433268999797292	1037.4394122000083	1241.9527280000038	1242.9606446000107	1243.9673126999987	1245.4820488000114	1246.5029885999977	1247.519616300007	1248.543141100003	1249.5509318000113	1250.9662216000145	2019-12-21 09:35:46.879027	0.509301239133896	0.0	0.0	0.0	-0.509301239133896	0.0	-0.509301239133896	0.0	0.0	0.0	-0.509301239133896	0.0	-7.017079672347823	-2.8723924278380655	3.1021203737281726	0.8883362639538134	-1.8024991727693394	3.1021203737281726	0.5094684110366623	-2.858729235694492	4.15835043665334	1.4626047969826872	-1.2328768510925705	3	correct	1.0
213.51283989998046	8.076435599999968	go_punish	1.0	213.55294189997971	214.84210849998658	217.3645386999999	1.2891666000068653	214.56194709998113	216.3481753999954	220.411006199982	0.2801614000054542	1.0163633000045138	1.2183712999976706	219.40613459999463	0.3137084000045433	218.37786529999016	2	1	26	1	go_punish	1	0	-1	1	0	0	1	1.0	1.0	-1	1.0	0.3137084000045433	1037.4394122000083	1250.992354099988	1252.0013592999894	1252.2815206999949	1253.7875876000037	1254.8039509000082	1255.8172774999985	1256.845546800003	1257.8504183999903	1259.068789699988	2019-12-21 09:35:46.879027	2.39416607504754	0.0	-5.00173961441021	-5.00173961441021	-7.39590568945775	-5.00173961441021	-2.39416607504754	-5.00173961441021	0.0	-5.00173961441021	-7.39590568945775	-31.93224049226309	-5.132214836434178	-2.8723924278380655	-1.8996192406820378	-4.113403350456397	-8.689103623093194	-1.8996192406820378	-31.42277208122643	-7.860468850104702	-2.7282540136705142	-3.5391348174275232	-1.2328768510925705	3	correct	1.0
221.63191840000195	8.255009599990672	go_reward	1.0	221.6720204000012	223.3895679999846	225.91433850000635	1.7175475999833907	222.67978779997816	224.90456749999453	228.97993359999987	0.7097802000064348	1.009771000011824	0.9470963999920059	227.96134779998124	0.3250500000140164	226.93240769999124	2	1	27	3	go_reward	1	1	0	1	0	0	0	0.0	1.0	0	1.0	0.3250500000140164	1037.4394122000083	1259.1114326000095	1260.1191999999864	1260.8289801999929	1262.3439797000028	1263.3537507000146	1264.3718198999995	1265.4007599999895	1266.4193458000082	1267.3664422000002	2019-12-21 09:35:46.879027	-5.95386178087007	2.4584393029123	2.4584393029123	4.60502313147432	8.41230108378237	2.4584393029123	5.95386178087007	2.4584393029123	2.4584393029123	2.4584393029123	8.41230108378237	-2.4584393029123	-13.480242692351787	-0.4139531249257655	5.560559676640473	5.493359395428134	7.119103150146927	5.560559676640473	-1.9489708918756377	-0.40028993278219227	13.079952759569608	3.921044099894987	1.2255624518197294	3	correct	1.0
229.92754040000727	8.351440599974012	nogo_punish	1.0	229.96764240000653	231.4735561999846	234.00867119999043	1.5059137999780887	230.9723641999883	232.98878889999492	237.07522389999963	0.5011919999963084	1.0198822999955155	1.2438590999809094	236.06254210000066	0.3986576999886893	235.02689660000055	2	1	28	2	nogo_punish	1	-1	0	0	0	1	0	0.0	1.0	0	1.0	0.3986576999886893	1037.4394122000083	1267.4070546000148	1268.4117763999966	1268.912968399993	1270.4282011000032	1271.4480833999987	1272.4663088000088	1273.501954300009	1274.514636100008	1275.7584951999888	2019-12-21 09:35:46.879027	0.509301239133896	0.0	0.0	0.0	-0.509301239133896	0.0	-0.509301239133896	0.0	0.0	0.0	-0.509301239133896	0.0	-7.017079672347823	-2.8723924278380655	3.1021203737281726	0.8883362639538134	-1.8024991727693394	3.1021203737281726	0.5094684110366623	-2.858729235694492	4.15835043665334	1.4626047969826872	-1.2328768510925705	3	correct	1.0
238.32159039998078	8.822526100004325	go_reward	0.5616943999775685	238.36169239998003	240.34385439998027	242.90648049998003	1.982162000000244	239.36996129999193	241.88131409999937	245.9398418999922	0.9738930999883451	1.0251663999806624	1.2443765999921652	244.93745929998136	0.5543553000024986	243.91820109999412	2	1	29	3	go_reward	1	1	0	1	1	1	1	1.0	1.0	1	0.5616943999775685	0.5543553000024986	1037.4394122000083	1275.8011045999883	1276.8093735000002	1277.7832665999886	1279.3207263000077	1280.3458926999883	1281.3576133000024	1282.3768714999896	1283.3792541000005	1284.6236306999926	2019-12-21 09:35:46.879027	5.438588321978	2.4584393029123	2.14658382856201	4.02549096811172	7.58517215054001	2.14658382856201	-5.438588321978	2.4584393029123	2.14658382856201	7.58517215054001	2.14658382856201	23.5094162961275	-2.087792589503718	-0.4139531249257655	5.248704202290183	4.913827232065533	6.291974216904567	5.248704202290183	24.018884707164162	4.726442914845517	6.814235504349246	3.921044099894987	0.9137069774694393	3	correct	1.0
247.16704430000414	9.430391000001464	nogo_reward	0.8064547999820206	247.2071463000034	249.64000769998552	252.18827429998805	2.43286139998213	248.21959029999562	251.1677879999918	255.24678299998072	1.4204173999899012	1.0204862999962643	1.3907543000241276	254.233952299983	0.3158613999839872	253.20659109999565	2	1	30	4	nogo_reward	1	0	1	0	1	0	0	0.0	1.0	0	0.8064547999820206	0.3158613999839872	1037.4394122000083	1284.6465585000117	1285.659002500004	1287.0794198999938	1288.6072002	1289.6276864999963	1290.646003300004	1291.6733644999913	1292.686195199989	1294.0769495000131	2019-12-21 09:35:46.879027	3.80641654407143	1.87890713954971	6.48393027102402	6.39103551042752	10.2903468150955	6.48393027102402	-3.80641654407143	1.87890713954971	6.48393027102402	10.2903468150955	6.48393027102402	-1.87890713954971	-3.719964367410288	-0.9934852882883556	9.586050644752193	7.2793717743813335	8.997148881460056	9.586050644752193	-1.3694387285130476	7.431617579401008	11.151581946811255	3.341511936532397	5.251053419931449	3	correct	1.0
256.62152389998664	8.688772900000913	go_punish	1.0	256.6616258999859	258.57855259999656	261.0961505000016	1.916926700010663	257.6723546999858	260.0936971000049	264.153831200005	0.9061979000107385	1.0024533999967389	1.1965675999817904	263.141126999981	0.4072354999952949	262.111737200001	2	1	31	1	go_punish	1	0	-1	1	0	0	0	0.0	1.0	-1	1.0	0.4072354999952949	1037.4394122000083	1294.1010380999942	1295.111766899994	1296.0179648000048	1297.5331093000132	1298.53556270001	1299.5511494000093	1300.5805391999893	1301.5932434000133	1302.789810999995	2019-12-21 09:35:46.879027	2.95514121365475	0.0	-6.49985108820942	-6.49985108820942	-9.45499230186417	-6.49985108820942	-2.95514121365475	-6.49985108820942	0.0	-6.49985108820942	-9.45499230186417	-30.434129018463885	-4.571239697826968	-2.8723924278380655	-3.397730714481247	-5.6115148242556065	-10.748190235499614	-3.397730714481247	-29.924660607427224	-9.358580323903912	-4.787340626076934	-5.037246291226733	-1.2328768510925705	3	correct	1.0
265.35331859998405	7.84893910001847	go_reward	1.0	265.3934205999833	266.7203600999785	269.2563167999908	1.3269394999952056	266.3922984999956	268.23515679998695	272.3116293000062	0.3280615999829024	1.0211600000038743	0.930730399995582	271.29754919998254	0.3437633000139612	270.2788123000066	2	1	32	3	go_reward	1	1	0	1	0	0	0	0.0	1.0	0	1.0	0.3437633000139612	1037.4394122000083	1302.8328327999916	1303.831710700004	1304.1597722999868	1305.6745689999952	1306.6957289999991	1307.718224500015	1308.7369613999908	1309.7510415000145	1310.68177190001	2019-12-21 09:35:46.879027	-10.3308973069284	4.60502313147432	2.14658382856201	5.9861283247698	12.4774811354904	2.14658382856201	10.3308973069284	2.14658382856201	4.60502313147432	2.14658382856201	12.4774811354904	-2.14658382856201	-17.857278218410116	1.732630703636255	5.248704202290183	6.8744645887236135	11.184283201854957	5.248704202290183	-1.6371154175253475	-0.7121454071324824	17.145132811277637	3.609188625544697	3.3721462803817497	3	correct	1.0
273.22729949999484	9.446621799987042	go_punish	1.0	273.2674014999941	276.2385845999818	278.7680050999918	2.971183099987684	274.28094209998403	277.7445871999955	281.8047394999887	1.9576424999977462	1.023417899996275	0.9092837999924086	280.7934397000065	1.0	279.7820753999988	2	1	33	1	go_punish	1	0	-1	1	0	0	1	n/a	0.0	-1	1.0	1.0	1037.4394122000083	1310.7068137000024	1311.7203542999923	1313.67799679999	1315.1839994000038	1316.2074173	1317.221487600007	1318.2328519000148	1319.244151699997	1320.1534354999894	2019-12-21 09:35:46.879027	3.46550318806629	0.0	-7.87105699491508	-7.87105699491508	-11.3365601829814	-7.87105699491508	-3.46550318806629	-7.87105699491508	0.0	-7.87105699491508	-11.3365601829814	-29.062923111758224	-4.0608777234154285	-2.8723924278380655	-4.768936621186908	-6.982720730961267	-12.629758116616843	-4.768936621186908	-28.553454700721563	-10.729786230609573	-6.668908507194163	-6.408452197932393	-1.2328768510925705	3	missed	0.0
282.69919399998616	8.774550600006478	go_punish	0.7086837999813724	282.7392959999854	284.6008621999938	287.12914679999835	1.861566200008383	283.75854799998365	286.1061881999776	290.18005249998555	0.8423142000101507	1.0229586000207291	1.3337941000063438	289.16394080000487	0.3340197000070475	288.15052249998575	2	1	34	1	go_punish	1	0	-1	1	1	1	0	0.0	1.0	0	0.7086837999813724	0.3340197000070475	1037.4394122000083	1320.1787081999937	1321.197960199992	1322.040274400002	1323.545600399986	1324.5685590000066	1325.589934699994	1326.6033530000132	1327.6194646999938	1328.9532588000002	2019-12-21 09:35:46.879027	-3.93163280125435	0.0	-9.13033378086627	-9.13033378086627	-13.0619665821206	-9.13033378086627	3.93163280125435	0.0	-9.13033378086627	-13.0619665821206	-9.13033378086627	0.0	-11.458013712736069	-2.8723924278380655	-6.028213407138097	-8.241997516912456	-14.355164515756044	-6.028213407138097	0.5094684110366623	-15.920695817815092	-4.4626821050790335	1.4626047969826872	-10.36321063195884	3	correct	1.0
291.51667189999716	9.302283800003352	go_reward	1.0	291.5567738999964	294.03915189998247	296.5529115999816	2.4823779999860562	292.56391029999963	295.54225669999164	299.5932419000021	1.4752415999828372	1.0106548999899587	1.2658157999976538	298.5835630999936	0.3658075999992434	297.57169270000327	2	1	35	3	go_reward	1	1	0	1	0	0	0	0.0	1.0	0	1.0	0.3658075999992434	1037.4394122000083	1328.9961861000047	1330.003322500008	1331.4785640999908	1332.9816689	1333.99232379999	1335.0111049000116	1336.022975300002	1337.0326541000104	1338.298469900008	2019-12-21 09:35:46.879027	-9.54478754286407	4.60502313147432	1.87890713954971	5.2459805444837	11.4236946824138	1.87890713954971	9.54478754286407	1.87890713954971	4.60502313147432	1.87890713954971	11.4236946824138	-1.87890713954971	-17.071168454345788	1.732630703636255	4.9810275132778825	6.1343168084375135	10.130496748778356	4.9810275132778825	-1.3694387285130476	-0.9798220961447823	16.091346358201037	3.341511936532397	3.3721462803817497	3	correct	1.0
300.85993619999476	8.740857600001846	nogo_punish	0.3937001000158489	300.900038199994	302.56285899999807	305.113060499978	1.6628208000040559	301.9065256000033	304.0933766999808	308.14795719998097	0.6563333999947645	1.0196837999972104	1.4929386000148952	307.1346083999963	0.3845281999965664	306.1202988000007	2	1	36	2	nogo_punish	0	0	-1	0	1	0	0	0.0	1.0	0	0.3937001000158489	0.3845281999965664	1037.4394122000083	1338.3394504000023	1339.3459378000116	1340.0022712000064	1341.532788899989	1342.5524726999863	1343.559711000009	1344.5740206000046	1345.5873693999893	1347.0803080000042	2019-12-21 09:35:46.879027	-0.509301239133896	0.0	0.0	0.0	-0.509301239133896	0.0	0.509301239133896	0.0	0.0	-0.509301239133896	0.0	0.0	-8.035682150615614	-2.8723924278380655	3.1021203737281726	0.8883362639538134	-1.8024991727693394	3.1021203737281726	0.5094684110366623	-3.3680304748283882	4.667651675787236	1.4626047969826872	-1.2328768510925705	3	correct	1.0
309.6228601000039	9.471311999979662	nogo_reward	0.269757700007176	309.66296210000314	312.14881489999266	314.68479749999847	2.485852799989516	310.67469009998626	313.665021699999	317.73466499999654	1.4741248000063933	1.0197757999994792	1.3996090999862645	316.72201840000366	0.3488106000004336	315.70374430000106	2	1	37	4	nogo_reward	1	0	1	0	1	0	0	0.0	1.0	0	0.269757700007176	0.3488106000004336	1037.4394122000083	1347.1023743000114	1348.1141022999946	1349.588227100001	1351.1044339000073	1352.1242097000068	1353.1431565000094	1354.161430600012	1355.1740772000048	1356.573686299991	2019-12-21 09:35:46.879027	2.48557441869508	1.64878188230779	6.48393027102402	5.62244877962014	8.9695046897191	6.48393027102402	-2.48557441869508	1.64878188230779	6.48393027102402	8.9695046897191	6.48393027102402	-1.64878188230779	-5.040806492786638	-1.2236105455302755	9.586050644752193	6.510785043573954	7.676306756083656	9.586050644752193	-1.1393134712711277	6.110775454024608	11.151581946811255	3.111386679290477	5.251053419931449	3	correct	1.0
319.13625389998197	9.636472300015384	nogo_punish	0.276670399995055	319.1763558999812	321.7438981999876	324.29876730000274	2.56754230000638	320.184961399995	323.2744265999936	327.35068979999073	1.5589367999925798	1.0243407000091338	1.4621384000058697	326.3363719999909	0.4037277000024915	325.3116690999889	2	1	38	2	nogo_punish	1	-1	0	0	1	0	1	0.0	0.0	-1	0.276670399995055	0.4037277000024915	1037.4394122000083	1356.6157680999895	1357.6243736000033	1359.183310399996	1360.713838800002	1361.738179500011	1362.7510812999972	1363.7757841999992	1364.790101999999	1366.252240400005	2019-12-21 09:35:46.879027	-0.509301239133896	0.0	0.0	0.0	-0.509301239133896	0.0	0.509301239133896	0.0	0.0	-0.509301239133896	0.0	-36.9339801066733	-8.035682150615614	-2.8723924278380655	3.1021203737281726	0.8883362639538134	-1.8024991727693394	3.1021203737281726	-36.42451169563664	-3.3680304748283882	4.667651675787236	1.4626047969826872	-1.2328768510925705	3	wrong	1.0
328.79782989999535	9.30107159999875	go_punish	1.0	328.8379318999946	331.3609835999962	333.88836029998515	2.523051700001588	329.84808769999677	332.86531090000085	336.94272910000313	1.512895899999421	1.023049399984302	1.196274399990216	335.92502929997886	0.4002868999959901	334.8953051999854	2	1	39	1	go_punish	1	0	-1	1	0	0	0	0.0	1.0	-1	1.0	0.4002868999959901	1037.4394122000083	1366.277344100003	1367.287499900005	1368.8003958000045	1370.3047231000091	1371.3277724999934	1372.3347173999937	1373.3644414999872	1374.3821413000114	1375.5784157000016	2019-12-21 09:35:46.879027	2.84255168061897	0.0	-9.13033378086627	-8.3520839852477	-11.9728854614852	-9.13033378086627	-2.84255168061897	-9.13033378086627	0.0	-9.13033378086627	-11.9728854614852	-27.803646325807033	-4.683829230862749	-2.8723924278380655	-6.028213407138097	-7.463747721293887	-13.266083395120644	-6.028213407138097	-27.294177914770373	-11.989063016560761	-7.305233785697964	-7.667728983883583	-1.2328768510925705	3	correct	1.0
338.12352749999263	9.095549499994377	go_punish	1.0	338.1636294999919	340.34565289999614	342.8686524999798	2.1820234000042547	339.17382599998405	341.85619109999993	345.9156831	1.1718269000120927	1.012461399979884	1.3434958999862374	344.9027611000058	0.4346675999986473	343.883920499997	2	1	40	1	go_punish	1	0	-1	1	0	0	0	0.0	1.0	-1	1.0	0.4346675999986473	1037.4394122000083	1375.6030417000002	1376.6132381999923	1377.7850651000044	1379.2956033000082	1380.308064699988	1381.3233327000053	1382.342173300014	1383.3550953000083	1384.6985911999946	2019-12-21 09:35:46.879027	3.4014009146427	0.0	-10.2905964445758	-9.60452126125626	-13.6919973592185	-10.2905964445758	-3.4014009146427	-10.2905964445758	0.0	-10.2905964445758	-13.6919973592185	-26.643383662097506	-4.124979996839018	-2.8723924278380655	-7.188476070847626	-8.716184997302445	-14.985195292853943	-7.188476070847626	-26.133915251060845	-13.149325680270291	-9.024345683431264	-8.827991647593112	-1.2328768510925705	3	correct	1.0
347.2629680999962	9.597250199993141	nogo_punish	1.0	347.30307009999547	349.9077296000032	352.4304047999906	2.604659500007756	348.3085038999852	351.4071667999963	355.4782504999896	1.5992257000179961	1.0232379999943078	1.422069799999008	354.4734233999918	0.3921727000270039	353.44542370000295	2	1	41	2	nogo_punish	0	0	-1	0	0	1	0	0.0	1.0	-1	1.0	0.3921727000270039	1037.4394122000083	1384.7424823000038	1385.7479160999935	1387.3471418000115	1388.8465790000046	1389.8698169999989	1390.8848359000112	1391.9128356	1392.917662699998	1394.339732499997	2019-12-21 09:35:46.879027	5.1245070874625	-1.93851245932806	0.0	-1.93851245932806	-5.1245070874625	0.0	-5.1245070874625	0.0	-1.93851245932806	0.0	-5.1245070874625	-36.9339801066733	-2.4018738240192183	-4.810904887166125	3.1021203737281726	-1.0501761953742466	-6.417705021097943	3.1021203737281726	-36.42451169563664	-2.858729235694492	-0.45685541167526367	1.4626047969826872	-3.1713893104206305	3	correct	1.0
356.88286700000754	8.011679699993692	nogo_reward	1.0	356.9229690000068	358.5909526000032	361.1097390999787	1.6679835999964325	357.9351377999992	360.09584480000217	364.1804284999964	0.6558148000040092	1.0138942999765277	0.7542202000040561	363.16595110000367	0.4007665000099223	362.12980209998227	2	1	42	4	nogo_reward	1	0	1	0	0	1	0	0.0	1.0	1	1.0	0.4007665000099223	1037.4394122000083	1394.362381200015	1395.3745500000075	1396.0303648000115	1397.5352570000105	1398.549151299987	1399.5692142999906	1400.605363300012	1401.6198407000047	1402.3740609000088	2019-12-21 09:35:46.879027	-1.34921858540374	1.4506148336139	6.48393027102402	4.95967211553621	7.83314885642776	6.48393027102402	1.34921858540374	6.48393027102402	1.4506148336139	6.48393027102402	7.83314885642776	19.48392532801578	-8.875599496885458	-1.4217775942241655	9.586050644752193	5.8480083794900235	6.5399509227923165	9.586050644752193	19.99339373905244	3.625201035329528	12.500800532214996	7.946535068006707	0.21773798252132948	3	correct	1.0
364.91840559997945	9.35437890002504	nogo_reward	0.280053999973461	364.9585075999787	367.6786095999996	370.231143799989	2.7201020000209155	365.96970439999154	369.2101604999916	373.28282480000075	1.7089052000080756	1.020983299997397	1.0300617000029888	372.2699848999914	0.2810393999970983	371.240519199986	2	1	43	4	nogo_reward	1	0	1	0	1	0	0	0.0	1.0	0	0.280053999973461	0.2810393999970983	1037.4394122000083	1402.397919799987	1403.4091165999998	1405.118021800008	1406.6495727	1407.6705559999973	1408.6799313999943	1409.7093970999997	1410.722237000009	1411.752298700012	2019-12-21 09:35:46.879027	2.34640916072859	1.4506148336139	8.13271215333181	6.84558292303904	10.4791213140604	8.13271215333181	-2.34640916072859	1.4506148336139	8.13271215333181	10.4791213140604	8.13271215333181	-1.4506148336139	-5.179971750753128	-1.4217775942241655	11.234832527059982	7.733919186992853	9.185923380424956	11.234832527059982	-0.9411464225772377	7.620392078365908	12.800363829119046	2.913219630596587	6.8998353022392385	3	correct	1.0
374.29802119999636	8.379244699987112	go_punish	1.0	374.3381231999956	375.9018668000065	378.430541399983	1.5637436000108664	375.34885509999026	377.4071271999858	381.47381060000066	0.5530117000162136	1.0234141999972053	1.2435572999820579	380.46417979997955	0.401377499976661	379.4351884000066	2	1	44	1	go_punish	1	0	-1	1	0	0	0	0.0	1.0	-1	1.0	0.401377499976661	1037.4394122000083	1411.777535400004	1412.7882672999986	1413.3412790000148	1414.846539399994	1415.8699535999913	1416.874600600015	1417.9035919999878	1418.913222800009	1420.156780099991	2019-12-21 09:35:46.879027	3.90769290010692	0.0	-11.36300574563	-10.7563918496524	-15.2706986457369	-11.36300574563	-3.90769290010692	-11.36300574563	0.0	-11.36300574563	-15.2706986457369	-25.570974361043305	-3.618688011374798	-2.8723924278380655	-8.260885371901827	-9.868055585698587	-16.563896579372344	-8.260885371901827	-25.061505950006644	-14.221734981324492	-10.603046969949663	-9.900400948647313	-1.2328768510925705	3	correct	1.0
382.71945020000567	9.318519899999956	nogo_punish	1.0	382.7595522000049	385.0482253999801	387.5897295000034	2.2886731999751646	383.7678140999926	386.5698398999814	390.63353839999786	1.2804112999874633	1.0198896000219975	1.444533700007014	389.63081350000016	0.7050654999911785	388.6015620999974	2	1	45	2	nogo_punish	1	-1	0	0	0	1	0	0.0	1.0	0	1.0	0.7050654999911785	1037.4394122000083	1420.1989644000132	1421.207226300001	1422.4876375999884	1424.0092520999897	1425.0291417000117	1426.0409743000057	1427.0702257000085	1428.0729506000062	1429.5174843000132	2019-12-21 09:35:46.879027	5.60922400122552	-1.93851245932806	-1.93851245932806	-3.69699694370183	-7.54773646055358	-1.93851245932806	-5.60922400122552	-1.93851245932806	-1.93851245932806	-1.93851245932806	-7.54773646055358	1.93851245932806	-1.9171569102561978	-4.810904887166125	1.1636079144001126	-2.8086606797480167	-8.840934394189023	1.1636079144001126	2.4479808703647223	-4.797241695022552	-2.8800847847663436	-0.47590766234537285	-3.1713893104206305	3	correct	1.0
392.0777572999941	8.745860600000015	nogo_punish	1.0	392.11785929999337	393.93077929999004	396.44622189999814	1.8129199999966659	393.1332763999819	395.43707669997843	399.5046752000055	0.7975029000081122	1.0091452000197023	1.3590446999878623	398.494598599995	0.3696981000248343	397.46494819998065	2	1	46	2	nogo_punish	1	-1	0	0	0	1	0	0.0	1.0	0	1.0	0.3696981000248343	1037.4394122000083	1429.5572715000017	1430.5726885999902	1431.3701914999983	1432.8764888999867	1433.8856341000064	1434.904360399989	1435.9340108000033	1436.9440874000138	1438.3031321000017	2019-12-21 09:35:46.879027	5.31444274070939	-1.93851245932806	-1.75848448437377	-3.35931990819367	-7.07292722508315	-1.75848448437377	-5.31444274070939	-1.75848448437377	-1.93851245932806	-1.75848448437377	-7.07292722508315	1.75848448437377	-2.211938170772328	-4.810904887166125	1.3436358893544027	-2.470983644239857	-8.366125158718594	1.3436358893544027	2.267952895410432	-4.617213720068262	-2.405275549295914	-0.2958796873910827	-3.1713893104206305	3	correct	1.0
400.8488737999869	8.069422700006044	go_punish	1.0	400.88897579998616	402.57652209998946	405.1168368999788	1.687546300003305	401.8893787999989	404.09202989999926	408.1509493000051	0.6871432999905664	1.0248069999795462	0.8074491999871043	407.1490235999811	0.5085090999782551	406.1300569000018	2	1	47	1	go_punish	1	0	-1	1	0	0	0	0.0	1.0	-1	1.0	0.5085090999782551	1037.4394122000083	1438.3283879999944	1439.3287910000072	1440.0159342999978	1441.5314421000076	1442.556249099987	1443.56946910001	1444.5884357999894	1445.5903615000134	1446.3978107000005	2019-12-21 09:35:46.879027	4.36822869029392	0.0	-12.3572272734723	-11.8192584766863	-16.7254559637662	-12.3572272734723	-4.36822869029392	-12.3572272734723	0.0	-12.3572272734723	-16.7254559637662	-24.576752833201002	-3.158152221187798	-2.8723924278380655	-9.255106899744128	-10.930922212732487	-18.018653897401645	-9.255106899744128	-24.06728442216434	-15.215956509166793	-12.057804287978964	-10.894622476489614	-1.2328768510925705	3	correct	1.0
408.9606259999855	8.506984200008674	nogo_punish	1.0	409.00072799998475	410.8452622999905	413.3599777999916	1.844534300005762	409.9997907999789	412.3402347999802	416.40374079998605	0.8454715000116266	1.019743000011431	1.1039714000073673	415.4012129000041	0.4758799000119325	414.3708051999856	2	1	48	2	nogo_punish	1	-1	0	0	0	1	1	1.0	1.0	0	1.0	0.4758799000119325	1037.4394122000083	1446.440140199993	1447.4392029999872	1448.2846744999988	1449.7796469999885	1450.79939	1451.810217399994	1452.8406251000124	1453.8431529999943	1454.9471244000017	2019-12-21 09:35:46.879027	5.05688933596536	-1.93851245932806	-1.6008354238199	-3.06322715508215	-6.65772475978526	-1.6008354238199	-5.05688933596536	-1.6008354238199	-1.93851245932806	-1.6008354238199	-6.65772475978526	1.6008354238199	-2.469491575516358	-4.810904887166125	1.5012849499082725	-2.174890891128337	-7.9509226934207025	1.5012849499082725	2.1103038348565626	-4.459564659514392	-1.9900730839980234	-0.13823062683721288	-3.1713893104206305	3	correct	1.0
417.4923484000028	9.34219509997638	nogo_reward	0.2286648000008426	417.53245040000206	420.3079244999974	422.8559689999968	2.7754740999953356	418.5426943000059	421.8359975999922	425.9062477999835	1.7652301999914926	1.0199714000045788	0.9683976999949664	424.8932040999937	0.3257001000165473	423.8749475999798	2	1	49	4	nogo_reward	1	0	1	0	1	0	0	0.0	1.0	0	0.2286648000008426	0.3257001000165473	1037.4394122000083	1454.9718626000104	1455.9821065000142	1457.7473367000057	1459.2754098000005	1460.295381200005	1461.314359799988	1462.332616300002	1463.3456599999918	1464.3140576999867	2019-12-21 09:35:46.879027	1.03199239833032	1.27968038391349	8.13271215333181	6.03827517074454	9.16470455166214	8.13271215333181	-1.03199239833032	1.27968038391349	8.13271215333181	9.16470455166214	8.13271215333181	-1.27968038391349	-6.494388513151398	-1.5927120439245754	11.234832527059982	6.926611434698353	7.871506618026697	11.234832527059982	-0.7702119728768277	6.305975315967649	12.800363829119046	2.742285180896177	6.8998353022392385	3	correct	1.0
426.85973419999937	8.335129199986113	go_punish	1.0	426.8998361999986	428.37825879998877	430.898075299978	1.4784225999901537	427.9099851000067	429.88309600000525	433.9444846999834	0.4682736999820918	1.0149792999727651	1.2904807000013534	432.9315633999943	0.4022211999981664	431.90235970000526	2	1	50	1	go_punish	1	0	-1	1	0	0	0	0.0	1.0	-1	1.0	0.4022211999981664	1037.4394122000083	1464.339248400007	1465.349397300015	1465.817670999997	1467.3225082000135	1468.3374874999863	1469.3417719000136	1470.3709756000026	1471.3838968999917	1472.674377599993	2019-12-21 09:35:46.879027	4.78880465554568	0.0	-13.2816502079485	-12.8031098758109	-18.0704548634942	-13.2816502079485	-4.78880465554568	-13.2816502079485	0.0	-13.2816502079485	-18.0704548634942	-23.6523298987248	-2.7375762559360384	-2.8723924278380655	-10.179529834220327	-11.914773611857086	-19.363652797129642	-10.179529834220327	-23.14286148768814	-16.140379443642992	-13.402803187706962	-11.819045410965813	-1.2328768510925705	3	correct	1.0
435.2400772999972	9.021805399999721	nogo_punish	1.0	435.28017929999646	437.24999300000513	439.7909447999848	1.9698137000086717	436.28539400000614	438.7671450999917	442.8082600999917	0.9645989999989979	1.0237996999931056	1.493724600004498	441.80492910000635	0.534265599999344	440.79541779999295	2	1	51	2	nogo_punish	0	0	-1	0	0	1	0	1.0	0.0	-1	1.0	0.534265599999344	1037.4394122000083	1472.7195915000048	1473.7248062000144	1474.6894052000134	1476.2065573	1477.230356999993	1478.2348300000012	1479.2443413000146	1480.2476723	1481.7413969000045	2019-12-21 09:35:46.879027	4.83119026783836	-1.93851245932806	-1.46239173126224	-2.80285414450759	-6.29358199910061	-1.46239173126224	-4.83119026783836	-1.46239173126224	-1.93851245932806	-1.46239173126224	-6.29358199910061	-35.471588375411066	-2.6951906436433584	-4.810904887166125	1.6397286424659325	-1.9145178805537766	-7.586779932736054	1.6397286424659325	-34.9621199643744	-4.321120966956732	-1.6259303233133737	0.00021306572044710315	-3.1713893104206305	3	wrong	1.0
444.28523989999667	8.625588900002185	nogo_reward	1.0	444.3253418999959	446.1959134000065	448.73346419999166	1.8705715000105556	445.33748749998654	447.70952509998483	451.78592199998116	0.8584259000199381	1.023939100006828	1.165008800016949	450.780125599995	0.5271004000096582	449.74658969999314	2	1	52	4	nogo_reward	1	0	1	0	0	1	0	0.0	1.0	1	1.0	0.5271004000096582	1037.4394122000083	1481.7647541000042	1482.7768996999948	1483.6353256000148	1485.1489372999931	1486.1728764	1487.1860019000014	1488.2195378000033	1489.2253341999894	1490.3903430000064	2019-12-21 09:35:46.879027	0.100768675816209	1.13198156273021	8.13271215333181	5.3410608405488	8.03194347751561	8.13271215333181	-0.100768675816209	8.13271215333181	1.13198156273021	8.13271215333181	8.03194347751561	17.835143445707992	-7.425612235665509	-1.7404108651078556	11.234832527059982	6.229397104502613	6.738745543880166	11.234832527059982	18.344611856744653	5.273982917637317	12.699595153302845	9.595316950314496	-0.10089528836236061	3	correct	1.0
452.95354009998846	9.314186100004008	go_reward	1.0	452.9936420999877	455.8341848999846	458.34877879999135	2.8405427999969106	454.00716949999355	457.32691489998274	461.40134419998526	1.827015399991069	1.0218639000086114	0.9064840000064578	460.39764700000546	0.3769497000030242	459.3746699999906	2	1	53	3	go_reward	1	1	0	1	0	0	0	0.0	1.0	0	1.0	0.3769497000030242	1037.4394122000083	1490.433054299996	1491.4465817000018	1493.273597099993	1494.766327099991	1495.7881909999996	1496.814082199999	1497.8370592000138	1498.8407563999936	1499.7472404	2019-12-21 09:35:46.879027	-8.87060022288869	4.60502313147432	1.64878188230779	4.6092023570771	10.5193821051965	1.64878188230779	8.87060022288869	1.64878188230779	4.60502313147432	1.64878188230779	10.5193821051965	-1.64878188230779	-16.396981134370407	1.732630703636255	4.750902256035962	5.497538621030913	9.226184171561057	4.750902256035962	-1.1393134712711277	-1.2099473533867022	15.187033780983736	3.111386679290477	3.3721462803817497	3	correct	1.0
462.30902829999104	9.831142300012289	nogo_punish	1.0	462.3491302999903	465.12051720000477	467.6308127999948	2.771386900014477	463.3584066999906	466.6251829999967	470.68142269999976	1.7621105000141597	1.0056297999981325	1.4988499000028241	469.66614549999963	0.5033047999895643	468.64839630000665	2	1	54	2	nogo_punish	1	-1	0	0	0	1	0	1.0	0.0	0	1.0	0.5033047999895643	1037.4394122000083	1499.7885424999986	1500.797818899999	1502.559929400013	1504.064595200005	1505.0702250000031	1506.087808500015	1507.105557700008	1508.120834900008	1509.6196848000109	2019-12-21 09:35:46.879027	5.37098424311483	-1.93851245932806	-3.27897487257341	-4.51173708672141	-8.64995911568823	-3.27897487257341	-5.37098424311483	-3.27897487257341	-1.93851245932806	-3.27897487257341	-8.64995911568823	3.27897487257341	-2.1553966683668886	-4.810904887166125	-0.17685449884523718	-3.6234008227675965	-9.943157049323673	-0.17685449884523718	3.7884432836100723	-6.1377041082679025	-3.9823074399009935	-1.8163700755907226	-3.1713893104206305	3	wrong	1.0
472.165980699996	8.993188799999189	go_punish	1.0	472.20608269999525	474.6325926999855	477.14864989998773	2.4265099999902304	473.2159423999842	476.1389532999892	480.1991220999919	1.4166503000012654	1.009696599998506	1.000149400002556	479.18639570000255	0.3691066000028513	478.1574212999842	2	1	55	1	go_punish	0	-1	0	1	0	0	0	1.0	0.0	0	1.0	0.3691066000028513	1037.4394122000083	1509.6454949000035	1510.6553545999925	1512.0720048999938	1513.5783654999975	1514.588062099996	1515.5968334999925	1516.6258079000108	1517.6385343000002	1518.6386837000027	2019-12-21 09:35:46.879027	5.17437104846681	0.0	-14.1435722890563	-13.7165942115094	-19.3179433375231	-14.1435722890563	-5.17437104846681	-14.1435722890563	0.0	-14.1435722890563	-19.3179433375231	14.1435722890563	-2.352009863014908	-2.8723924278380655	-11.041451915328127	-12.828257947555587	-20.611141271158544	-11.041451915328127	14.653040700092962	-17.00230152475079	-14.650291661735864	-12.680967492073613	-1.2328768510925705	3	wrong	1.0
481.20288269998855	8.192774700000882	nogo_punish	1.0	481.2429846999878	482.8031608999886	485.3305880999835	1.5601762000007966	482.24108009997894	484.31833909999136	488.3952654000025	0.5620808000096531	1.0122489999921527	1.0404939999862108	487.3825364999941	0.2188452999980654	486.3478736999971	2	1	56	2	nogo_punish	1	-1	0	0	0	1	1	1.0	1.0	0	1.0	0.2188452999980654	1037.4394122000083	1518.682396899996	1519.6804922999872	1520.242573099997	1521.7577512999997	1522.7700002999918	1523.7872859000054	1524.8219487000024	1525.8346776000108	1526.875171599997	2019-12-21 09:35:46.879027	5.12262789260306	-1.93851245932806	-2.99124669852177	-4.12859416645606	-8.11387459112483	-2.99124669852177	-5.12262789260306	-2.99124669852177	-1.93851245932806	-2.99124669852177	-8.11387459112483	2.99124669852177	-2.4037530188786578	-4.810904887166125	0.11087367520640257	-3.240257902502247	-9.407072524760274	0.11087367520640257	3.500715109558432	-5.849975934216262	-3.446222915337594	-1.5286419015390829	-3.1713893104206305	3	correct	1.0
489.4204508999828	8.181458400009433	go_punish	1.0	489.4605528999821	491.307756800001	493.8327859999847	1.8472039000189397	490.46397899999306	492.8136037999941	496.8825416000036	0.8437778000079561	1.0191821999906097	0.7594696999879034	495.8794671999933	0.2474695999990217	494.8511104999927	2	1	57	1	go_punish	0	-1	0	1	0	0	1	1.0	1.0	0	1.0	0.2474695999990217	1037.4394122000083	1526.8999650999904	1527.9033912000014	1528.7471690000093	1530.2530160000024	1531.272198199993	1532.290522700001	1533.3188794000016	1534.321953800012	1535.0814234999998	2019-12-21 09:35:46.879027	4.79098352182867	0.0	-13.0108439663293	-12.6287035446119	-17.801827488158	-13.0108439663293	-4.79098352182867	-13.0108439663293	0.0	-13.0108439663293	-17.801827488158	13.0108439663293	-2.7353973896530484	-2.8723924278380655	-9.908723592601127	-11.740367280658086	-19.095025421793444	-9.908723592601127	13.520312377365963	-15.869573202023792	-13.134175812370763	-11.548239169346614	-1.2328768510925705	3	correct	1.0
497.62699960000464	8.845631699980004	go_punish	1.0	497.6671016000039	500.01024780000466	502.5295157999792	2.343146200000774	498.6741635999938	501.51477739997813	505.5906525999892	1.3360842000108732	1.0147384000010788	0.9220806999946944	504.5718114000049	0.279054000013275	503.54363539998326	2	1	58	1	go_punish	1	0	-1	1	0	0	0	0.0	1.0	-1	1.0	0.279054000013275	1037.4394122000083	1535.1065138000122	1536.113575800002	1537.449660000013	1538.9541895999864	1539.9689279999875	1540.9830475999916	1542.0112236000132	1543.0300647999975	1543.9521454999922	2019-12-21 09:35:46.879027	4.45389273468915	0.0	-12.0075665281725	-11.6645055443202	-16.4614592628616	-12.0075665281725	-4.45389273468915	-12.0075665281725	0.0	-12.0075665281725	-16.4614592628616	-24.926413578500803	-3.072488176792568	-2.8723924278380655	-8.905446154444327	-10.776169280366386	-17.754657196497043	-8.905446154444327	-24.416945167464142	-14.866295763866992	-11.793807587074362	-10.544961731189813	-1.2328768510925705	3	correct	1.0
506.51556199998595	9.518008000013651	nogo_punish	1.0	506.5556639999852	509.1062240999893	511.6138061999811	2.550560100004077	507.56851839998876	510.6142602000036	514.6738951999871	1.5377057000005152	0.9995459999774994	1.3997768000117503	513.6610196999975	0.2516219999815803	512.6330791999937	2	1	59	2	nogo_punish	1	-1	0	0	0	1	0	1.0	0.0	0	1.0	0.2516219999815803	1037.4394122000083	1543.9950761999935	1545.007930599997	1546.5456362999976	1548.053672400012	1549.0532183999894	1550.072491400002	1551.1004319000058	1552.1133073999954	1553.5130842000071	2019-12-21 09:35:46.879027	4.90421735532937	-1.93851245932806	-2.73818289175419	-3.79074535636634	-7.64240024708357	-2.73818289175419	-4.90421735532937	-2.73818289175419	-1.93851245932806	-2.73818289175419	-7.64240024708357	2.73818289175419	-2.6221635561523478	-4.810904887166125	0.36393748197398246	-2.9024090924125265	-8.935598180719014	0.36393748197398246	3.2476513027908522	-5.596912127448682	-2.9747485712963337	-1.275578094771503	-3.1713893104206305	3	wrong	1.0
516.0740604999883	8.23981410000124	nogo_punish	1.0	516.1141624999875	517.7864776999925	520.3226433999955	1.6723152000049595	517.1147163999851	519.3022847999821	523.3760957999914	0.671761300007347	1.0203586000134237	0.9778807999973651	522.3721560999986	0.3117118000227492	521.3379715000049	2	1	60	2	nogo_punish	1	-1	0	0	0	1	0	0.0	1.0	0	1.0	0.3117118000227492	1037.4394122000083	1553.5535746999958	1554.5541285999934	1555.2258899000008	1556.7416969999904	1557.7620556000038	1558.7773837000132	1559.811568300007	1560.8155079999997	1561.793388799997	2019-12-21 09:35:46.879027	4.71152605191573	-1.93851245932806	-2.51495419587439	-3.49194875071495	-7.22648024779013	-2.51495419587439	-4.71152605191573	-2.51495419587439	-1.93851245932806	-2.51495419587439	-7.22648024779013	2.51495419587439	-2.8148548595659886	-4.810904887166125	0.5871661778537827	-2.6036124867611368	-8.519678181425574	0.5871661778537827	3.0244226069110525	-5.373683431568882	-2.558828572002894	-1.0523493988917028	-3.1713893104206305	3	correct	1.0
