onset	duration	trial_type	response_time	cueOnset	targetOnset	fbOnset	cueRT	firstfixOnset	secondfixOnset	waitOnset	firstfixdur	secondfixdur	waitdur	nback_fbOnset	nback_response_time	nback_targetOnset	block	wm	trial	cue	cond	is_common	outcome_go	outcome_nogo	key_correct	key_pressed	is_correct	key_correct_nback	key_pressed_nback	is_correct_nback	outcome	rt	rt_nback	time_scan	time_onset	time_isi1	time_circle	time_isi2	time_feedback	time_same	time_correct	time_iti	time_done	timestamp_scan	DV	Qgo	Qnogo	SV	Wgo	Wnogo	mDV	Qchosen	Qunchosen	Wchosen	Wunchosen	PE	DVC	QgoC	QnogoC	SVC	WgoC	WnogoC	PEC	WchosenC	WunchosenC	QchosenC	QunchosenC	run	outcome_nback	nback_targetResp
0.0	9.6576122000115	nogo_punish	0.3445088000735268	0.011774900020100176	2.6168084000237286	5.168053200003214	2.6050335000036284	1.0067792000481859	4.152505000005476	8.222294299979694	1.6100291999755427	1.0155481999977383	1.4470928000519052	7.213044399977662	0.5835723000345752	6.187667999999121	2	1	61	1	nogo_punish	1	-1	0	0	1	0	0	0.0	1.0	-1	0.3445088000735268	0.5835723000345752	2062.415384800057	2062.427159700077	2063.422164000105	2065.0321932000807	2066.5678898000624	2067.58343800006	2068.603052800056	2069.6284292000346	2070.6376791000366	2072.0847719000885	2020-03-31 16:49:17.226075	-0.886141624278318	-1.59415798603609	0.0	-1.39584721762603	-0.886141624278318	0.0	0.886141624278318	-1.59415798603609	0.0	-0.886141624278318	0.0	-3.1870825914839997	-2.6308675325500825	-2.2622986121678457	-0.15599787705203394	-2.207549722606204	-2.798439161224052	-0.15599787705203394	-4.219721139533762	-2.792652285413084	-0.16178475286300287	-2.4557036586528347	0.037407169432954586	4	correct	1.0
9.701483399956032	9.281144000008226	nogo_reward	0.2888649000087753	9.713258299976133	11.928385899984278	14.471524799941108	2.2151276000081452	10.709334000013769	13.450721599976077	17.516405100002885	1.2190518999705091	1.0208031999650302	1.4779971999814734	16.502884699963033	0.3729718999238685	15.480579799972475	2	1	62	3	nogo_reward	1	0	1	0	1	0	0	0.0	1.0	0	0.2888649000087753	0.3729718999238685	2062.415384800057	2072.128643100033	2073.1247188000707	2074.343770700041	2075.866106400033	2076.886909599998	2077.8959646000294	2078.91826950002	2079.93178990006	2081.4097871000413	2020-03-31 16:49:17.226075	0.0560546342903549	0.510510376046794	1.53558231354435	1.59605189806541	1.5916369478347	1.53558231354435	-0.0560546342903549	0.510510376046794	1.53558231354435	1.5916369478347	1.53558231354435	-0.510510376046794	-1.6886712739814096	-0.15763025008496157	1.379584436492316	0.7843493930852358	-0.3206605891110341	1.379584436492316	-1.5431489240965561	-0.3148737133000661	1.3737975606813473	-0.3510352965699507	1.5729894829773046	4	correct	1.0
19.02707099995996	8.034584000008635	go_punish	0.4708624000195414	19.03884589998006	20.5447254000469	23.101107600028627	1.5058795000668397	20.045081999967806	22.08158160001085	26.158944500028156	0.49964340007909414	1.0195260000177768	0.9144853999605402	25.152351500000805	0.3685455999802798	24.118757499963976	2	1	63	2	go_punish	1	0	-1	1	1	1	0	0.0	1.0	0	0.4708624000195414	0.3685455999802798	2062.415384800057	2081.454230700037	2082.4604668000247	2082.960110200104	2084.496966400068	2085.5164924000856	2086.534142300021	2087.5677363000577	2088.574329300085	2089.4888147000456	2020-03-31 16:49:17.226075	0.778365487559936	-0.65455236221916	-0.675242210304322	-0.930461262127124	0.103123277255614	-0.675242210304322	-0.778365487559936	-0.65455236221916	-0.675242210304322	0.103123277255614	-0.675242210304322	0.65455236221916	-0.9663604207118286	-1.3226929883509155	-0.8312400873563559	-1.7421637671072983	-1.8091742596901201	-0.8312400873563559	-0.37808618583060216	-1.803387383879152	-0.8370269631673248	-1.5160980348359048	-0.6378350408713673	4	correct	1.0
27.088712899945676	8.703644099994563	nogo_punish	1.0	27.100487799965777	28.951652699965052	31.477196299936168	1.8511648999992758	28.10858560004317	30.466969099943526	34.53179879998788	0.8430670999218819	1.0102271999926415	1.2723330999724567	33.52934839995578	0.4058522999985143	32.49548849998973	2	1	64	1	nogo_punish	1	-1	0	0	0	1	0	0.0	1.0	0	1.0	0.4058522999985143	2062.415384800057	2089.5158726000227	2090.5239704001	2091.367037500022	2092.8823539000005	2093.892581099993	2094.9108733000467	2095.9447332000127	2096.947183600045	2098.2195167000173	2020-03-31 16:49:17.226075	1.05511802661481	-1.74643879362276	0.0	-1.56520649495697	-1.05511802661481	0.0	-1.05511802661481	0.0	-1.74643879362276	0.0	-1.05511802661481	0.0	-0.6896078816569546	-2.4145794197545154	-0.15599787705203394	-2.376908999937144	-2.967415563560544	-0.15599787705203394	-1.0326385480497622	-1.9065106611347662	-1.2169027794778127	-0.8615456726167446	-1.7090316241898056	4	correct	1.0
35.81675220001489	7.839107299922034	go_reward	0.4090473001124337	35.82852710003499	37.167241299990565	39.72154860000592	1.3387141999555752	36.8394122000318	38.69842619996007	42.76772540004413	0.3278290999587625	1.0231224000458496	0.8999089999128955	41.75445759994909	0.4085060999495908	40.72488769993606	2	1	65	4	go_reward	1	1	0	1	1	1	0	0.0	1.0	1	0.4090473001124337	0.4085060999495908	2062.415384800057	2098.243911900092	2099.2547970000887	2099.5826261000475	2101.113811000017	2102.136933400063	2103.140272499993	2104.169842400006	2105.183110200101	2106.083019200014	2020-03-31 16:49:17.226075	5.23537356635219	4.29257169743836	0.59615315871703	4.59625124489217	5.83152672506922	0.59615315871703	-5.23537356635219	4.29257169743836	0.59615315871703	5.83152672506922	0.59615315871703	6.56018839030204	3.4906476580804258	3.6244310713066046	0.44015528166499607	3.784548739911996	3.9192291881234858	0.44015528166499607	5.527549842252277	3.9250160639344536	0.43436840585402714	3.4310260248216156	0.6335603281499846	4	correct	1.0
43.68057750002481	8.778076599934138	go_reward	0.4371440999675542	43.69235240004491	46.121053799987294	48.67669290001504	2.4287013999423834	44.702930200030096	47.65230580000207	51.71158000000287	1.4181235999571982	1.024387100012973	0.7588489999761805	50.69709619996138	0.4424003000603989	49.68098599999212	2	1	66	4	go_reward	1	1	0	1	1	1	0	0.0	1.0	1	0.4371440999675542	0.4424003000603989	2062.415384800057	2106.107737200102	2107.118315000087	2108.536438600044	2110.067690600059	2111.092077700072	2112.096370800049	2113.1124810000183	2114.12696480006	2114.885813800036	2020-03-31 16:49:17.226075	5.57970712154235	4.59625124489217	0.59615315871703	4.88149208187818	6.17586028025938	0.59615315871703	-5.57970712154235	4.59625124489217	0.59615315871703	6.17586028025938	0.59615315871703	6.25650884284823	3.834981213270586	3.9281106187604147	0.44015528166499607	4.069789576898006	4.263562743313646	0.44015528166499607	5.223870294798467	4.269349619124614	0.43436840585402714	3.7347055722754257	0.6335603281499846	4	correct	1.0
52.48428570001852	7.867500699940592	nogo_punish	0.3749522999860346	52.49606060003862	53.92733079998288	56.478386700036936	1.4312701999442652	53.50541540002405	55.464213800034486	59.53381960000843	0.4219153999588343	1.0141729000024498	0.8297416999707821	58.521169299958274	0.48242749995552	57.491964900051244	2	1	67	1	nogo_punish	1	-1	0	0	1	0	0	0.0	1.0	-1	0.3749522999860346	0.48242749995552	2062.415384800057	2114.9114454000955	2115.920800200081	2116.34271560004	2117.8795986000914	2118.893771500094	2119.907349700108	2120.936554100015	2121.9492044000654	2122.778946100036	2020-03-31 16:49:17.226075	-1.04287173322496	-1.74643879362276	0.0	-1.46124413628825	-1.04287173322496	0.0	1.04287173322496	-1.74643879362276	0.0	-1.04287173322496	0.0	-3.03480178389733	-2.7875976414967245	-2.4145794197545154	-0.15599787705203394	-2.2729466412684243	-2.9551692701706944	-0.15599787705203394	-4.067440331947092	-2.949382394359726	-0.16178475286300287	-2.607984466239505	0.037407169432954586	4	correct	1.0
60.37869029992726	8.91419590008445	nogo_punish	1.0	60.39046519994736	62.233192799962126	64.76888710004323	1.8427276000147685	61.39011539996136	63.74594569997862	67.81107209995389	0.8430774000007659	1.0229414000646102	1.4935890000779182	66.7932372000073	0.5367864000145346	65.77960210002493	2	1	68	1	nogo_punish	0	0	-1	0	0	1	0	0.0	1.0	-1	1.0	0.5367864000145346	2062.415384800057	2122.8058500000043	2123.8055002000183	2124.648577600019	2126.1613305000355	2127.1842719001	2128.194986900082	2129.208622000064	2130.226456900011	2131.7200459000887	2020-03-31 16:49:17.226075	1.20221875907781	-1.88912499230328	0.0	-1.62826921879291	-1.20221875907781	0.0	-1.20221875907781	0.0	-1.88912499230328	0.0	-1.20221875907781	-4.78124057752009	-0.5425071491939546	-2.5572656184350357	-0.15599787705203394	-2.439971723773084	-3.1145162960235444	-0.15599787705203394	-5.813879125569852	-1.9065106611347662	-1.3640035119408127	-0.8615456726167446	-1.8517178228703255	4	correct	1.0
69.3168302000272	9.241852899896458	go_reward	0.252411900088191	69.3286051000473	71.62692459998652	74.18242980004288	2.2983194999392254	70.34017330000688	73.1577593999682	77.21753779996652	1.2867512999796418	1.0246704000746831	1.352920199977234	76.20444969995924	0.5864240999799222	75.18496700003743	2	1	69	4	go_reward	1	1	0	1	1	1	0	0.0	1.0	1	0.252411900088191	0.5864240999799222	2062.415384800057	2131.743989900104	2132.755558100064	2134.0423094000435	2135.573144200025	2136.5978146001	2137.6003518000944	2138.619834500016	2139.6329226000234	2140.9858428000007	2020-03-31 16:49:17.226075	5.90287162846307	4.88149208187818	0.59615315871703	5.14974295391747	6.4990247871801	0.59615315871703	-5.90287162846307	4.88149208187818	0.59615315871703	6.4990247871801	0.59615315871703	5.971268005862219	4.158145720191306	4.213351455746425	0.44015528166499607	4.338040448937296	4.586727250234366	0.44015528166499607	4.938629457812457	4.592514126045334	0.43436840585402714	4.019946409261435	0.6335603281499846	4	correct	1.0
78.60244619997684	9.356650899979286	go_punish	0.5056633000494912	78.61422109999694	81.14279630000283	83.68138850003015	2.528575200005889	79.62140900001395	82.6794927000301	86.72760949993972	1.5213872999888736	1.0018958000000566	1.2432625000365078	85.7218338999669	0.310424100025557	84.69900749996305	2	1	70	2	go_punish	1	0	-1	1	1	1	0	0.0	1.0	0	0.5056633000494912	0.310424100025557	2062.415384800057	2141.029605900054	2142.036793800071	2143.5581811000598	2145.094877500087	2146.096773300087	2147.11439230002	2148.137218700024	2149.1429942999966	2150.386256800033	2020-03-31 16:49:17.226075	0.826312374753449	-0.612586539577058	-0.675242210304322	-0.874121887252479	0.151070164449127	-0.675242210304322	-0.826312374753449	-0.612586539577058	-0.675242210304322	0.151070164449127	-0.675242210304322	0.612586539577058	-0.9184135335183156	-1.2807271657088135	-0.8312400873563559	-1.6858243922326532	-1.7612273724966072	-0.8312400873563559	-0.4200520084727042	-1.7554404966856392	-0.8370269631673248	-1.4741322121938025	-0.6378350408713673	4	correct	1.0
88.0052880999865	8.096995400032483	nogo_reward	0.3910926999524236	88.0170630000066	89.3022296000272	91.84222550003324	1.2851666000206023	89.02166259998921	90.8202432999392	94.90516510000407	0.2805670000379905	1.021982200094044	1.2088933000350153	93.89066849998198	0.4328480999683961	92.85849050001707	2	1	71	3	nogo_reward	1	0	1	0	1	0	0	0.0	1.0	0	0.3910926999524236	0.4328480999683961	2062.415384800057	2150.4324478000635	2151.437047400046	2151.717614400084	2153.235628099996	2154.25761030009	2155.273875300074	2156.306053300039	2157.320549900061	2158.529443200096	2020-03-31 16:49:17.226075	0.0014012876929399	0.47411326977815	1.53558231354435	1.49077341682026	1.53698360123729	1.53558231354435	-0.0014012876929399	0.47411326977815	1.53558231354435	1.53698360123729	1.53558231354435	-0.47411326977815	-1.7433246205788246	-0.19402735635360552	1.379584436492316	0.6790709118400858	-0.3753139357084443	1.379584436492316	-1.5067518178279122	-0.36952705989747625	1.3737975606813473	-0.38743240283859465	1.5729894829773046	4	correct	1.0
96.12984589999542	8.528112299973145	nogo_punish	1.0	96.14162080001552	98.14832090004347	100.67375349998474	2.006700100027956	97.14935099997092	99.65387559996407	103.72323779994622	0.9989699000725523	1.0198779000206741	0.946495300042443	102.70977119996724	0.5520648999372497	101.69726499996614	2	1	72	1	nogo_punish	1	-1	0	0	0	1	0	0.0	1.0	0	1.0	0.5520648999372497	2062.415384800057	2158.5570056000724	2159.564735800028	2160.5637057001004	2162.069260400021	2163.0891383000417	2164.112649800023	2165.125156000024	2166.138622600003	2167.0851179000456	2020-03-31 16:49:17.226075	0.955621586353935	-1.88912499230328	-0.261786914548733	-1.78375251220779	-1.21740850090267	-0.261786914548733	-0.955621586353935	-0.261786914548733	-1.88912499230328	-0.261786914548733	-1.21740850090267	0.261786914548733	-0.7891043219178295	-2.5572656184350357	-0.4177847916007669	-2.5954550171879642	-3.129706037848404	-0.4177847916007669	-0.7708516335010291	-2.168297575683499	-1.3791932537656728	-1.1233325871654776	-1.8517178228703255	4	correct	1.0
104.70146919996478	9.338423000066541	go_punish	0.2776306000305339	104.71324409998488	107.05177120002918	109.6082435999997	2.3385271000443026	105.7116207999643	108.58318499999586	112.65211989998352	1.3401504000648856	1.025058600003831	1.3995472000679001	111.63898819999304	0.5853759000310674	110.61995760002173	2	1	73	2	go_punish	0	-1	0	1	1	1	0	0.0	1.0	-1	0.2776306000305339	0.5853759000310674	2062.415384800057	2167.128628900042	2168.127005600021	2169.467156000086	2170.998569800053	2172.0236284000566	2173.0353424000787	2174.05437300005	2175.0675047000404	2176.4670519001083	2020-03-31 16:49:17.226075	0.870177939639983	-0.574132471182813	-0.675242210304322	-0.822185863632709	0.194935729335661	-0.675242210304322	-0.870177939639983	-0.574132471182813	-0.675242210304322	0.194935729335661	-0.675242210304322	-4.207108106337277	-0.8745479686317815	-1.2422730973145684	-0.8312400873563559	-1.6338883686128831	-1.7173618076100732	-0.8312400873563559	-5.239746654387039	-1.7115749317991051	-0.8370269631673248	-1.4356781437995576	-0.6378350408713673	4	correct	1.0
114.06386539991945	8.9670582000399	go_reward	0.3004324999637902	114.07564029993955	116.51088830002118	119.06237079994753	2.4352480000816286	115.07747310004197	118.04260050004814	122.12737859995104	1.4334151999792084	1.0197702998993918	0.9153199000284076	121.1146428999491	0.7052286999532953	120.08123110001907	2	1	74	4	go_reward	0	0	1	1	1	1	0	0.0	1.0	0	0.3004324999637902	0.7052286999532953	2062.415384800057	2176.4910250999965	2177.492857900099	2178.926273100078	2180.457985300105	2181.4777556000045	2182.496615900076	2183.530027700006	2184.542763400008	2185.4580833000364	2020-03-31 16:49:17.226075	6.20655841182722	5.14974295391747	0.59615315871703	5.40230673955907	6.80271157054425	0.59615315871703	-6.20655841182722	5.14974295391747	0.59615315871703	6.80271157054425	0.59615315871703	-5.14974295391747	4.461832503555455	4.481602327785715	0.44015528166499607	4.590604234578896	4.890414033598516	0.44015528166499607	-6.182381501967233	4.896200909409483	0.43436840585402714	4.288197281300725	0.6335603281499846	4	correct	1.0
123.07624790002592	9.739380199927837	nogo_reward	1.0	123.08802280004602	125.85395320004318	128.38767620001454	2.76593039999716	124.09368149994407	127.36302429996385	131.43717649998143	1.7602717000991106	1.024651900050685	1.3902264999924228	130.43580259999726	0.4534415999660268	129.40392700000712	2	1	75	3	nogo_reward	1	0	1	0	0	1	0	1.0	0.0	1	1.0	0.4534415999660268	2062.415384800057	2185.503407600103	2186.509066300001	2188.2693380001	2189.778409100021	2190.8030610000715	2191.819311800064	2192.851187400054	2193.8525613000384	2195.242787800031	2020-03-31 16:49:17.226075	0.0478616012056936	0.441212832842672	1.53558231354435	1.39465604066247	1.48772071233865	1.53558231354435	-0.0478616012056936	1.53558231354435	0.441212832842672	1.53558231354435	1.48772071233865	9.31717777419605	-1.696864307066071	-0.22692779328908352	1.379584436492316	0.5829535356822958	-0.42457682460708424	1.379584436492316	8.284539226146288	-0.37092834759041615	1.3259359594756472	0.6740366409276054	0.47862000227562657	4	wrong	1.0
132.84120419993997	8.621898000012152	go_reward	0.8029536000685766	132.85297909996007	134.52443640003912	137.07644810003694	1.6714573000790551	133.85182430001487	136.0523259999468	140.11572660005186	0.6726121000242529	1.0241221000901533	1.3591504999203607	139.1026272999593	0.4898795000044629	138.0895462000044	2	1	76	4	go_reward	1	1	0	1	1	1	1	1.0	1.0	1	0.8029536000685766	0.4898795000044629	2062.415384800057	2195.268363900017	2196.267209100072	2196.939821200096	2198.4677108000037	2199.491832900094	2200.5049310000613	2201.518012100016	2202.531111400109	2203.890261900029	2020-03-31 16:49:17.226075	5.80014701880158	4.80615358084204	0.59615315871703	5.04420596677729	6.39630017751861	0.59615315871703	-5.80014701880158	4.80615358084204	0.59615315871703	6.39630017751861	0.59615315871703	6.046606506898359	4.0554211105298155	4.138012954710285	0.44015528166499607	4.232503461797116	4.484002640572875	0.44015528166499607	5.013967958848597	4.489789516383843	0.43436840585402714	3.944607908225296	0.6335603281499846	4	correct	1.0
141.48755109997	9.402586300042003	go_reward	0.293894000002183	141.4993259999901	144.08657899999525	146.63867589994334	2.5872530000051484	142.50989260000688	145.62407300004315	149.6854032999836	1.5766863999883753	1.0146028999001828	1.216509000048518	148.672301899991	0.4201367000350728	147.6443362999712	2	1	77	4	go_reward	1	1	0	1	1	1	0	0.0	1.0	1	0.293894000002183	0.4201367000350728	2062.415384800057	2203.914710800047	2204.925277400064	2206.501963800052	2208.0394578001	2209.0540607000003	2210.059721100028	2211.087686700048	2212.1007881000405	2213.317297100089	2020-03-31 16:49:17.226075	6.12331345132508	5.08940045777491	0.59615315871703	5.31400559302419	6.71946661004211	0.59615315871703	-6.12331345132508	5.08940045777491	0.59615315871703	6.71946661004211	0.59615315871703	5.76335962996549	4.378587543053316	4.421259831643154	0.44015528166499607	4.502303088044015	4.807169073096375	0.44015528166499607	4.7307210819157275	4.8129559489073435	0.43436840585402714	4.227854785158165	0.6335603281499846	4	correct	1.0
150.93335119995754	8.132291599991731	go_punish	1.0	150.94512609997764	152.73475629999302	155.27092160005122	1.789630200015381	151.95423050003592	154.2505867000441	158.30298090004362	0.780525799957104	1.0203349000071285	0.774436799925752	157.2899625999853	0.4885395000455901	156.27584799996112	2	1	78	2	go_punish	1	0	-1	1	0	0	0	0.0	1.0	-1	1.0	0.4885395000455901	2062.415384800057	2213.3605109000346	2214.369615300093	2215.15014110005	2216.665971500101	2217.686306400108	2218.691232800018	2219.7053474000422	2220.7183657001005	2221.4928025000263	2020-03-31 16:49:17.226075	-0.621118129962243	-0.800596746472699	-0.675242210304322	-1.03600024352752	-0.0541240803420787	-0.675242210304322	0.621118129962243	-0.675242210304322	-0.800596746472699	-0.675242210304322	-0.0541240803420787	-4.105998367215768	-2.3658440382340076	-1.4687373726044544	-0.8312400873563559	-1.847702748507694	-1.9664216172878128	-0.8312400873563559	-5.13863691526553	-2.5817528714390883	-0.21590883320508156	-1.5367878829210666	-0.7631895770397443	4	correct	1.0
159.1075806999579	8.522784300032072	go_punish	0.3211541000055149	159.119355599978	160.56629019998945	163.1219834999647	1.4469346000114456	160.1282034999458	162.10140689997934	166.16817850002553	0.43808670004364103	1.020576599985361	1.473961399984546	165.16270979994442	0.3368147000437602	164.14167299994733	2	1	79	2	go_punish	1	0	-1	1	1	1	0	0.0	1.0	0	0.3211541000055149	0.3368147000437602	2062.415384800057	2221.534740400035	2222.5435883000027	2222.9816750000464	2224.5167917000363	2225.5373683000216	2226.5570578000043	2227.5780946000014	2228.5835633000825	2230.057524700067	2020-03-31 16:49:17.226075	0.814612712700578	-0.800596746472699	-0.889121654916747	-1.23373854899827	-0.0745089422161693	-0.889121654916747	-0.814612712700578	-0.800596746472699	-0.889121654916747	-0.0745089422161693	-0.889121654916747	0.800596746472699	-0.9301131955711865	-1.4687373726044544	-1.045119531968781	-2.0454410539784442	-1.9868064791619036	-1.045119531968781	-0.23204180157706322	-1.9810196033509355	-1.0509064077797499	-1.6621424190894436	-0.8517144854837924	4	correct	1.0
167.67464149999478	8.65996399999085	nogo_reward	1.0	167.68641640001488	169.3480993999401	171.87804820004385	1.6616829999252332	168.692935799947	170.86413370002992	174.93373920000158	0.6551635999931023	1.0139145000139251	1.4126412000041455	173.92098399996758	0.5481432999949902	172.89236529998016	2	1	80	3	nogo_reward	1	0	1	0	0	1	0	0.0	1.0	1	1.0	0.5481432999949902	2062.415384800057	2230.101801200072	2231.108320600004	2231.763484199997	2233.279518500087	2234.293433000101	2235.307750100037	2236.3363688000245	2237.3491240000585	2238.7617652000627	2020-03-31 16:49:17.226075	0.453013022924251	0.441212832842672	2.02198963738465	1.90280884054111	1.5689766144604	2.02198963738465	-0.453013022924251	2.02198963738465	0.441212832842672	2.02198963738465	1.5689766144604	8.83077045035575	-1.2917128853475135	-0.22692779328908352	1.8659917603326162	1.0911063355609358	-0.3433209224853342	1.8659917603326162	7.798131902305988	0.11547897624988379	1.407191861597397	1.1604439647679055	0.47862000227562657	4	correct	1.0
176.3589467999991	8.345715399947949	go_reward	0.3036969000240788	176.3707217000192	178.14873489993624	180.69275609997567	1.7780131999170408	177.381416899967	179.67821980000008	183.73883089993615	0.7673179999692366	1.014536299975589	0.9776062000310048	182.72539959999267	0.4497575999703258	181.69767230004072	2	1	81	4	go_reward	1	1	0	1	1	1	0	0.0	1.0	1	0.3036969000240788	0.4497575999703258	2062.415384800057	2238.786106500076	2239.796801700024	2240.564119699993	2242.093604600057	2243.1081409000326	2244.1130571000976	2245.1407844000496	2246.154215699993	2247.131821900024	2020-03-31 16:49:17.226075	6.42520661071854	5.3544538846968	0.59615315871703	5.56657762568654	7.02135976943557	0.59615315871703	-6.42520661071854	5.3544538846968	0.59615315871703	7.02135976943557	0.59615315871703	5.4983062030436	4.680480702446776	4.686313258565044	0.44015528166499607	4.754875120706365	5.109062232489835	0.44015528166499607	4.465667654993838	5.114849108300803	0.43436840585402714	4.492908212080055	0.6335603281499846	4	correct	1.0
184.7504282000009	8.127372800023295	nogo_reward	1.0	184.762203100021	186.09033379994798	188.62752969993744	1.3281306999269873	185.7587712999666	187.60768929996993	191.67881439998746	0.33156249998137355	1.0198403999675065	1.210761500056833	190.67351680004504	0.3394741000374779	189.6449985000072	2	1	82	3	nogo_reward	0	1	0	0	0	1	1	1.0	1.0	0	1.0	0.3394741000374779	2062.415384800057	2247.177587900078	2248.1741561000235	2248.505718600005	2250.023074100027	2251.0429144999944	2252.060383300064	2253.088901600102	2254.0941992000444	2255.304960700101	2020-03-31 16:49:17.226075	0.830981924303666	0.441212832842672	2.47379553962043	2.37299494157764	1.64281361531676	2.47379553962043	-0.830981924303666	2.47379553962043	0.441212832842672	2.47379553962043	1.64281361531676	-2.47379553962043	-0.9137439839680985	-0.22692779328908352	2.3177976625683963	1.561292436597466	-0.26948392162897417	2.3177976625683963	-3.5064340876701925	0.5672848784856639	1.481028862453757	1.6122498670036856	0.47862000227562657	4	correct	1.0
192.9018880999647	9.49004069995135	go_reward	0.3690895000472665	192.9136629999848	195.35131920001004	197.91637039999523	2.4376562000252306	193.9246565999929	196.89636719995178	200.95041659998287	1.4266626000171527	1.0200032000434476	1.453287099953286	199.94786229997408	0.4428460000781342	198.93480399996042	2	1	83	4	go_reward	0	0	1	1	1	1	1	1.0	1.0	0	0.3690895000472665	0.4428460000781342	2062.415384800057	2255.3290478000417	2256.34004140005	2257.766704000067	2259.3117520000087	2260.331755200052	2261.3501888000173	2262.363247100031	2263.36580140004	2264.819088499993	2020-03-31 16:49:17.226075	6.70785757080094	5.60297473195518	0.59615315871703	5.80349593815419	7.30401072951797	0.59615315871703	-6.70785757080094	5.60297473195518	0.59615315871703	7.30401072951797	0.59615315871703	-5.60297473195518	4.963131662529175	4.934834105823424	0.44015528166499607	4.991793433174015	5.391713192572237	0.44015528166499607	-6.635613280004942	5.397500068383204	0.43436840585402714	4.741429059338435	0.6335603281499846	4	correct	1.0
202.41514519997918	8.263236999976925	go_reward	0.4029148999834433	202.42692009999928	203.90751940000337	206.44368260004558	1.4805993000040871	203.43873900000472	205.4284015999874	209.4939284999855	0.46878039999864995	1.0152810000581667	1.196228599990718	208.4798275999492	0.6925653000362217	207.45691369997803	2	1	84	4	go_reward	1	1	0	1	1	1	0	0.0	1.0	1	0.4029148999834433	0.6925653000362217	2062.415384800057	2264.842304900056	2265.8541238000616	2266.3229042000603	2267.8437864000443	2268.8590674001025	2269.872298500035	2270.895212400006	2271.9093133000424	2273.105541900033	2020-03-31 16:49:17.226075	6.28086199611177	5.24024321637264	0.59615315871703	5.42996344898925	6.8770151548288	0.59615315871703	-6.28086199611177	5.24024321637264	0.59615315871703	6.8770151548288	0.59615315871703	5.61251687136776	4.536136087840005	4.572102590240885	0.44015528166499607	4.618260944009076	4.964717617883066	0.44015528166499607	4.579878323317997	4.970504493694033	0.43436840585402714	4.378697543755895	0.6335603281499846	4	correct	1.0
210.70825549995106	8.759568699984356	nogo_punish	0.2821063000010326	210.72003039997117	212.66222589998506	215.21581960003823	1.942195500013895	211.72899420000613	214.19037259998686	218.2677022999851	0.9332316999789327	1.025447000051372	1.2118967999704182	217.25450659997296	0.4637722999323159	216.2267661000369	2	1	85	1	nogo_punish	1	-1	0	0	1	0	0	0.0	1.0	-1	0.2821063000010326	0.4637722999323159	2062.415384800057	2273.135415200028	2274.144379000063	2275.077610700042	2276.605757400044	2277.631204400095	2278.642150900094	2279.66989140003	2280.683087100042	2281.8949839000124	2020-03-31 16:49:17.226075	-0.961682478079546	-1.88912499230328	-0.242131465292784	-1.66701713905022	-1.20381394337233	-0.242131465292784	0.961682478079546	-1.88912499230328	-0.242131465292784	-1.20381394337233	-0.242131465292784	-2.8921155852168097	-2.7064083863513106	-2.5572656184350357	-0.39812934234481795	-2.4787196440303942	-3.1161114803180645	-0.39812934234481795	-3.924754133266572	-3.1103246045070962	-0.4039162181557869	-2.7506706649200248	-0.20472429585982943	4	correct	1.0
219.49457410001196	7.977520999964327	nogo_punish	1.0	219.50634900003206	220.90509390004445	223.43338389997325	1.3987449000123888	220.51525499997615	222.41351380001288	226.47472649998963	0.38983890006829824	1.0198700999603716	1.0091435000067577	225.46956080000382	0.4067156000528484	224.4507406000048	2	1	86	1	nogo_punish	1	-1	0	0	0	1	0	0.0	1.0	0	1.0	0.4067156000528484	2062.415384800057	2281.921733800089	2282.930639800033	2283.3204787001014	2284.82889860007	2285.84876870003	2286.8661254000617	2287.8849456000607	2288.8901113000466	2289.8992548000533	2020-03-31 16:49:17.226075	1.11100793731143	-2.02300512470221	-0.242131465292784	-1.82225128152973	-1.35313940260421	-0.242131465292784	-1.11100793731143	-0.242131465292784	-2.02300512470221	-0.242131465292784	-1.35313940260421	0.242131465292784	-0.6337179709603344	-2.6911457508339653	-0.39812934234481795	-2.6339537865099043	-3.2654369395499443	-0.39812934234481795	-0.7905070827569782	-2.1486421264275504	-1.514924155467213	-1.1036771379095287	-1.9855979552692553	4	correct	1.0
227.5188643999868	8.023842599940963	nogo_reward	1.0	227.5306393000069	229.03397430002224	231.547304000007	1.5033350000153405	228.53468090004753	230.53142839996144	234.602766099968	0.4992933999747038	1.015875600045547	0.9517157999798656	233.589445300051	0.4675196999451145	232.561972699943	2	1	87	3	nogo_reward	1	0	1	0	0	1	0	0.0	1.0	1	1.0	0.4675196999451145	2062.415384800057	2289.946024100064	2290.9500657001045	2291.449359100079	2292.9468132000184	2293.962688800064	2294.9773575	2296.004830100108	2297.018150900025	2297.969866700005	2020-03-31 16:49:17.226075	0.683976017925401	0.441212832842672	2.29821349001893	2.21304342989477	1.61423747209353	2.29821349001893	-0.683976017925401	2.29821349001893	0.441212832842672	2.29821349001893	1.61423747209353	8.554546597721469	-1.0607498903463637	-0.22692779328908352	2.142215612966896	1.4013409249145958	-0.29806006485220427	2.142215612966896	7.521908049671707	0.39170282888416375	1.4524527192305272	1.4366678174021854	0.47862000227562657	4	correct	1.0
235.58675569994375	8.645749700023316	go_punish	0.303637099917978	235.59853059996385	237.76886019995482	240.32983509998303	2.170329599990964	236.597842499963	239.30553829995915	243.37557269993704	1.1710176999918076	1.0242968000238761	0.8687076000501293	242.36269049998373	0.5591651999857277	241.333369400003	2	1	88	2	go_punish	0	-1	0	1	1	1	0	0.0	1.0	-1	0.303637099917978	0.5591651999857277	2062.415384800057	2298.013915400021	2299.01322730002	2300.1842450000117	2301.720923100016	2302.74521990004	2303.74875420006	2304.7780753000407	2305.790957499994	2306.659665100044	2020-03-31 16:49:17.226075	0.875802522110201	-0.748422724961656	-0.889121654916747	-1.15530189263687	-0.0133191328065458	-0.889121654916747	-0.875802522110201	-0.748422724961656	-0.889121654916747	-0.0133191328065458	-0.889121654916747	-4.032817852558434	-0.8689233861615635	-1.4165633510934115	-1.045119531968781	-1.9670043976170444	-1.92561666975228	-1.045119531968781	-5.065456400608197	-1.919829793941312	-1.0509064077797499	-1.6099683975784007	-0.8517144854837924	4	correct	1.0
244.26354670000728	7.987333299941383	nogo_punish	1.0	244.27532160002738	245.6407985000401	248.17660540004726	1.365476900012709	245.29308560001664	247.1533234999515	251.20570609997958	0.3477129000234527	1.0232819000957534	1.0569487999891862	250.2035263000289	0.4764459000434726	249.19102160003968	2	1	89	1	nogo_punish	0	0	-1	0	0	1	0	1.0	0.0	-1	1.0	0.4764459000434726	2062.415384800057	2306.6907064000843	2307.7084704000736	2308.056183300097	2309.5687083000084	2310.591990200104	2311.6064064000966	2312.618911100086	2313.6210909000365	2314.6780397000257	2020-03-31 16:49:17.226075	1.11521754633537	-2.02300512470221	-0.224501316538945	-1.70503705943221	-1.33971886287432	-0.224501316538945	-1.11521754633537	-0.224501316538945	-2.02300512470221	-0.224501316538945	-1.33971886287432	-4.556739260981145	-0.6295083619363946	-2.6911457508339653	-0.38049919359097895	-2.5167395644123842	-3.252016399820054	-0.38049919359097895	-5.589377809030907	-2.1310119776737113	-1.501503615737323	-1.0860469891556896	-1.9855979552692553	4	wrong	1.0
252.2950933999382	9.175175299984858	go_punish	0.2787529000779614	252.3068682999583	254.85966600000393	257.42857899994124	2.5527977000456303	253.31361359998118	256.403105400037	260.46669200004544	1.5460524000227451	1.0254735999042168	1.0153515998977127	259.4546380999964	0.489181499928236	258.44030469993595	2	1	90	2	go_punish	0	-1	0	1	1	1	1	0.0	0.0	-1	0.2787529000779614	0.489181499928236	2062.415384800057	2314.722253100015	2315.728998400038	2317.275050800061	2318.818490200094	2319.843963799998	2320.855689499993	2321.8700229000533	2322.8820768001024	2323.8974284	2020-03-31 16:49:17.226075	0.642139702676239	-0.962581184855249	-0.889121654916747	-1.34536024847005	-0.246981952240509	-0.889121654916747	-0.642139702676239	-0.962581184855249	-0.889121654916747	-0.246981952240509	-0.889121654916747	-3.818659392664841	-1.1025862055955256	-1.6307218109870045	-1.045119531968781	-2.1570627534502242	-2.1592794891862432	-1.045119531968781	-4.851297940714603	-2.153492613375275	-1.0509064077797499	-1.8241268574719935	-0.8517144854837924	4	wrong	1.0
261.4954167000251	8.159922499908134	go_reward	0.3535638999892398	261.5071916000452	262.82695080002304	265.37181179993786	1.3197591999778524	262.507853899966	264.34829230001196	268.42376429995056	0.3190969000570476	1.0235194999258965	1.2433498000027612	267.4117996999994	0.4803994999965653	266.38315110001713	2	1	91	4	go_reward	1	1	0	1	1	1	0	0.0	1.0	1	0.3535638999892398	0.4803994999965653	2062.415384800057	2323.922576400102	2324.923238700023	2325.24233560008	2326.763677100069	2327.787196599995	2328.798535900074	2329.8271845000563	2330.8391491000075	2332.0824989000103	2020-03-31 16:49:17.226075	6.58403170319519	5.50501316226637	0.59615315871703	5.68466506110866	7.18018486191222	0.59615315871703	-6.58403170319519	5.50501316226637	0.59615315871703	7.18018486191222	0.59615315871703	5.34774692547403	4.839305794923425	4.8368725361346145	0.44015528166499607	4.872962556128486	5.267887324966486	0.44015528166499607	4.315108377424267	5.273674200777454	0.43436840585402714	4.643467489649625	0.6335603281499846	4	correct	1.0
269.68225990002975	9.627261999994516	nogo_punish	1.0	269.69403480004985	272.6611003000289	275.18722169997636	2.9670654999790713	270.7023603999992	274.176813099999	278.21724329993594	1.958739900029741	1.0104085999773815	1.1040535001084208	277.2154932999988	0.4013974000699818	276.2001971999416	2	1	92	1	nogo_punish	1	-1	0	0	0	1	0	0.0	1.0	0	1.0	0.4013974000699818	2062.415384800057	2332.109419600107	2333.117745200056	2335.076485100086	2336.592197900056	2337.6026065000333	2338.6155819999985	2339.6308781000557	2340.632628099993	2341.7366816001013	2020-03-31 16:49:17.226075	0.884882750760311	-2.02300512470221	-0.470396343021326	-1.85962683352986	-1.35527909378164	-0.470396343021326	-0.884882750760311	-0.470396343021326	-2.02300512470221	-0.470396343021326	-1.35527909378164	0.470396343021326	-0.8598431575114536	-2.6911457508339653	-0.6263942200733599	-2.6713293385100343	-3.2675766307273744	-0.6263942200733599	-0.5622422050284361	-2.376907004156092	-1.5170638466446427	-1.3319420156380706	-1.9855979552692553	4	correct	1.0
279.3364176999312	9.39300430007279	go_reward	0.3514967999653891	279.3481925999513	282.1029891000362	284.6540280999616	2.7547965000849217	280.37720710004214	283.6340128999441	287.69439129997045	1.7257819999940693	1.0200152000174967	1.0468056000536308	286.6807605000213	0.4354957001050934	285.66193379997276	2	1	93	4	go_reward	0	0	1	1	1	1	1	1.0	1.0	0	0.3514967999653891	0.4354957001050934	2062.415384800057	2341.763577400008	2342.792591900099	2344.518373900093	2346.049397700001	2347.0694129000185	2348.0773186000297	2349.096145300078	2350.1097761000274	2351.156581700081	2020-03-31 16:49:17.226075	6.86659819393592	5.75229696049756	0.59615315871703	5.9225515169369	7.46275135265295	0.59615315871703	-6.86659819393592	5.75229696049756	0.59615315871703	7.46275135265295	0.59615315871703	-5.75229696049756	5.121872285664156	5.0841563343658045	0.44015528166499607	5.110849011956725	5.5504538157072165	0.44015528166499607	-6.784935508547322	5.556240691518184	0.43436840585402714	4.890751287880815	0.6335603281499846	4	correct	1.0
288.75290429999586	9.155714499996975	go_reward	0.4261407000012696	288.76467920001596	290.82259170000907	293.3670316999778	2.057912499993108	289.7764408000512	292.3435055000009	296.4270224999641	1.0461508999578655	1.0235261999769136	1.4933712000488413	295.41158499999483	0.4929450999479741	294.3805734999478	2	1	94	4	go_reward	1	1	0	1	1	1	0	0.0	1.0	1	0.4261407000012696	0.4929450999479741	2062.415384800057	2351.180064000073	2352.191825600108	2353.237976500066	2354.758890300058	2355.7824165000347	2356.7959583000047	2357.8269698000518	2358.842407300021	2360.33577850007	2020-03-31 16:49:17.226075	6.43850115820206	5.38762075293166	0.59615315871703	5.54909365385558	7.03465431691909	0.59615315871703	-6.43850115820206	5.38762075293166	0.59615315871703	7.03465431691909	0.59615315871703	5.46513933480874	4.693775249930296	4.719480126799905	0.44015528166499607	4.737391148875406	5.122356779973355	0.44015528166499607	4.432500786758977	5.128143655784323	0.43436840585402714	4.526075080314915	0.6335603281499846	4	correct	1.0
297.9330540000228	8.516914899926633	go_reward	0.4226239999989047	297.9448289000429	299.8648482999997	302.4110651999945	1.9200193999568	298.9597705999622	301.38591630000155	305.4551956000505	0.9050777000375092	1.025148899992928	1.0065481999190524	304.4423704999499	0.6503067000303417	303.42519229999743	2	1	95	4	go_reward	1	1	0	1	1	1	1	1.0	1.0	1	0.4226239999989047	0.6503067000303417	2062.415384800057	2360.3602137001	2361.375155400019	2362.2802331000566	2363.8013011000585	2364.8264500000514	2365.8405771000544	2366.857755300007	2367.8705804001074	2368.8771286000265	2020-03-31 16:49:17.226075	6.73980596438985	5.64992114385735	0.59615315871703	5.80317832850808	7.33595912310688	0.59615315871703	-6.73980596438985	5.64992114385735	0.59615315871703	7.33595912310688	0.59615315871703	5.20283894388305	4.995080056118086	4.9817805177255945	0.44015528166499607	4.991475823527906	5.4236615861611455	0.44015528166499607	4.170200395833287	5.429448461972114	0.43436840585402714	4.788375471240605	0.6335603281499846	4	correct	1.0
306.493064199924	8.858361500082083	go_punish	1.0	306.5048390999441	308.8438692999771	311.37039759999607	2.339030200032994	307.5127712000394	310.35080629994627	314.40121000004	1.3310980999376625	1.0195913000497967	0.9619905999861658	313.38790019997396	0.5509716999949887	312.3736225999892	2	1	96	2	go_punish	1	0	-1	1	0	0	0	0.0	1.0	-1	1.0	0.5509716999949887	2062.415384800057	2368.920223900001	2369.9281560000964	2371.259254100034	2372.766191100003	2373.785782400053	2374.789007400046	2375.803285000031	2376.816594800097	2377.778585400083	2020-03-31 16:49:17.226075	-0.425921399535636	-1.1610951693287	-0.889121654916747	-1.52168876154591	-0.463200255381111	-0.889121654916747	0.425921399535636	-0.889121654916747	-1.1610951693287	-0.889121654916747	-0.463200255381111	-3.892118922603343	-2.1706473078074007	-1.8292357954604554	-1.045119531968781	-2.333391266526084	-2.375497792326845	-1.045119531968781	-4.924757470653105	-2.7956323160515133	-0.6249850082441138	-1.7506673275334916	-1.1236879998957454	4	correct	1.0
315.37916459992994	9.117743100039661	nogo_punish	1.0	315.39093949995004	318.1597046999959	320.6951790000312	2.768765200045891	316.39369099994656	319.6753823000472	323.73350139998365	1.7660137000493705	1.0197966999839991	0.7751812000060454	322.72139560000505	0.4490546000888571	321.70166509994306	2	1	97	1	nogo_punish	1	-1	0	0	0	1	0	0.0	1.0	0	1.0	0.4490546000888571	2062.415384800057	2377.806324300007	2378.8090758000035	2380.575089500053	2382.090767100104	2383.110563800088	2384.1170499	2385.136780400062	2386.1488862000406	2386.9240674000466	2020-03-31 16:49:17.226075	0.905574494311405	-2.02300512470221	-0.436355460649259	-1.74164970164794	-1.34192995496066	-0.436355460649259	-0.905574494311405	-0.436355460649259	-2.02300512470221	-0.436355460649259	-1.34192995496066	0.436355460649259	-0.8391514139603595	-2.6911457508339653	-0.592353337701293	-2.553352206628114	-3.254227491906394	-0.592353337701293	-0.5962830874005032	-2.3428661217840254	-1.5037147078236628	-1.2979011332660035	-1.9855979552692553	4	correct	1.0
324.52310280001257	8.954812399926595	nogo_punish	1.0	324.53487770003267	327.02550310001243	329.5399441999616	2.4906253999797627	325.5490896999836	328.529866799945	332.59021419996816	1.4764134000288323	1.0100774000165984	0.8994758999911028	331.57705059996806	0.4398746000370011	330.5577503000386	2	1	98	1	nogo_punish	1	-1	0	0	0	1	0	0.0	1.0	0	1.0	0.4398746000370011	2062.415384800057	2386.9502625000896	2387.9644745000405	2389.4408879000694	2390.945251600002	2391.9553290000185	2392.9731351000955	2393.992435400025	2395.005599000025	2395.905074900016	2020-03-31 16:49:17.226075	0.924364791580201	-2.02300512470221	-0.4056559426298	-1.63360606059303	-1.33002073421	-0.4056559426298	-0.924364791580201	-0.4056559426298	-2.02300512470221	-0.4056559426298	-1.33002073421	0.4056559426298	-0.8203611166915635	-2.6911457508339653	-0.5616538196818339	-2.445308565573204	-3.2423182711557343	-0.5616538196818339	-0.6269826054199622	-2.3121666037645663	-1.491805487073003	-1.2672016152465446	-1.9855979552692553	4	correct	1.0
333.5044929999858	8.635801199940033	nogo_punish	0.6099115000106394	333.5162679000059	335.07870439998806	337.6315161000239	1.562436499982141	334.51683940005023	336.6209256999432	340.68474970001216	0.5618649999378249	1.0105904000806731	1.4673193999337855	339.66617640003096	0.5079623999772593	338.6495921999449	2	1	99	1	nogo_punish	0	0	-1	0	1	0	1	0.0	0.0	0	0.6099115000106394	0.5079623999772593	2062.415384800057	2395.931652700063	2396.932224200107	2397.494089200045	2399.0363105	2400.046900900081	2401.064977000002	2402.081561200088	2403.100134500069	2404.567453900003	2020-03-31 16:49:17.226075	-0.941483691737563	-2.02300512470221	-0.377852168139258	-1.53438062896643	-1.31933585987682	-0.377852168139258	0.941483691737563	-2.02300512470221	-0.377852168139258	-1.31933585987682	-0.377852168139258	2.02300512470221	-2.6862096000093274	-2.6911457508339653	-0.533850045191292	-2.346083133946604	-3.231633396822554	-0.533850045191292	0.9903665766524476	-3.225846521011586	-0.5396369210022609	-2.8845507973189544	-0.3404449987063034	4	wrong	1.0
342.1665061999811	9.662185400025919	go_reward	0.2710399000206962	342.1782811000012	345.01857539999764	347.54996720002964	2.840294299996458	343.1891607999569	346.53485479997516	350.5895732999779	1.8294146000407636	1.015112400054477	1.2508932000491768	349.58148809999693	0.5492350999265909	348.5653518999461	2	1	100	4	go_reward	1	1	0	1	1	1	0	0.0	1.0	1	0.2710399000206962	0.5492350999265909	2062.415384800057	2404.593665900058	2405.604545600014	2407.4339602000546	2408.950239600032	2409.9653520000866	2410.980736700003	2411.996872900054	2413.004958100035	2414.255851300084	2020-03-31 16:49:17.226075	7.01993483141331	5.89434887236064	0.59615315871703	6.03991141829717	7.61608799013034	0.59615315871703	-7.01993483141331	5.89434887236064	0.59615315871703	7.61608799013034	0.59615315871703	4.95841121537976	5.2752089231415455	5.226208246228884	0.44015528166499607	5.228208913316996	5.703790453184606	0.44015528166499607	3.9257726673299977	5.709577328995573	0.43436840585402714	5.032803199743895	0.6335603281499846	4	correct	1.0
351.874749599956	8.37370960006956	go_punish	0.2811970000620931	351.8865244999761	353.34741950000125	355.9010986000071	1.4608950000251752	352.8909568999661	354.8863830999471	358.9483865000075	0.45646260003513817	1.0147155000599923	1.3118476000381634	357.9351856999565	0.6222508000209928	356.9063015000429	2	1	101	2	go_punish	0	-1	0	1	1	1	0	0.0	1.0	-1	0.2811970000620931	0.6222508000209928	2062.415384800057	2414.301909300033	2415.306341700023	2415.762804300058	2417.301767900004	2418.316483400064	2419.3216863001	2420.3505705000134	2421.3637713000644	2422.6756189001026	2020-03-31 16:49:17.226075	0.608559272230598	-1.1610951693287	-1.08790642976144	-1.68565605615602	-0.479347157530842	-1.08790642976144	-0.608559272230598	-1.1610951693287	-1.08790642976144	-0.479347157530842	-1.08790642976144	-3.62014540819139	-1.1361666360411666	-1.8292357954604554	-1.2439043068134739	-2.497358561136194	-2.391644694476576	-1.2439043068134739	-4.652783956241152	-2.3858578186656083	-1.249691182624443	-2.0226408419454445	-1.0504992603284855	4	correct	1.0
360.2767106000101	9.252223699935712	nogo_punish	1.0	360.2884855000302	362.9879555000225	365.52333150000777	2.6994699999922886	361.29530799994245	364.5036760000512	368.57923609996215	1.6926475000800565	1.0196554999565706	0.9614731000037864	367.56568220001645	0.3277494000503793	366.534809499979	2	1	102	1	nogo_punish	1	-1	0	0	0	1	0	1.0	0.0	0	1.0	0.3277494000503793	2062.415384800057	2422.703870300087	2423.7106927999994	2425.4033403000794	2426.919060800108	2427.9387163000647	2428.950194300036	2429.9810670000734	2430.994620900019	2431.956094000023	2020-03-31 16:49:17.226075	0.795842967782012	-1.88699680377899	-0.377852168139258	-1.44302619244651	-1.17369513592127	-0.377852168139258	-0.795842967782012	-0.377852168139258	-1.88699680377899	-0.377852168139258	-1.17369513592127	0.377852168139258	-0.9488829404897525	-2.5551374299107454	-0.533850045191292	-2.254728697426684	-3.085992672867004	-0.533850045191292	-0.6547863799105043	-2.2843628292740243	-1.3354798887842727	-1.2393978407560027	-1.8495896343460354	4	wrong	1.0
369.55652620003093	8.920488499919884	nogo_punish	1.0	369.56830110005103	371.5369278000435	374.06481569993775	1.9686266999924555	370.5794885000214	373.05398880003486	377.10499899997376	0.957439300022088	1.010826899902895	1.3837905999971554	376.10149240004785	0.2888366999104619	375.0829489999451	2	1	103	1	nogo_punish	1	-1	0	0	0	1	0	0.0	1.0	0	1.0	0.2888366999104619	2062.415384800057	2431.983685900108	2432.9948733000783	2433.9523126001004	2435.469373600092	2436.4802004999947	2437.498333800002	2438.516877200105	2439.5203838000307	2440.904174400028	2020-03-31 16:49:17.226075	0.812396931011743	-1.88699680377899	-0.352578697138788	-1.35872988453274	-1.16497562815053	-0.352578697138788	-0.812396931011743	-0.352578697138788	-1.88699680377899	-0.352578697138788	-1.16497562815053	0.352578697138788	-0.9323289772600215	-2.5551374299107454	-0.5085765741908219	-2.1704323895129143	-3.077273165096264	-0.5085765741908219	-0.6800598509109742	-2.2590893582735543	-1.3267603810135329	-1.2141243697555326	-1.8495896343460354	4	correct	1.0
378.50414079998154	8.689369400031865	nogo_punish	1.0	378.51591570000164	380.2961191999493	382.81233300000895	1.7802034999476746	379.51458349998575	381.80081429996017	385.8619885999942	0.7815356999635696	1.0115187000487822	1.343296500039287	384.85772289999295	0.3077643000287935	383.8288182000397	2	1	104	1	nogo_punish	1	-1	0	0	0	1	1	1.0	1.0	0	1.0	0.3077643000287935	2062.415384800057	2440.9313005000586	2441.9299683000427	2442.7115040000062	2444.216199100017	2445.227717800066	2446.2442030000966	2447.27310770005	2448.277373400051	2449.6206699000904	2020-03-31 16:49:17.226075	0.827522495048444	-1.88699680377899	-0.329531419734056	-1.28078813823577	-1.1570539147825	-0.329531419734056	-0.827522495048444	-0.329531419734056	-1.88699680377899	-0.329531419734056	-1.1570539147825	0.329531419734056	-0.9172034132233206	-2.5551374299107454	-0.4855292967860899	-2.0924906432159442	-3.0693514517282345	-0.4855292967860899	-0.7031071283157062	-2.236042080868822	-1.3188386676455028	-1.1910770923508007	-1.8495896343460354	4	correct	1.0
387.23841789993503	9.006005700095102	nogo_reward	1.0	387.25019279995513	389.3034934999887	391.82841329998337	2.05330070003356	388.2563342000358	390.8038786000111	394.86037270003	1.0471592999529094	1.0245346999722642	1.3958258000202477	393.85152310004923	0.4664211999624967	392.8322696000105	2	1	105	3	nogo_reward	1	0	1	0	0	1	0	0.0	1.0	1	1.0	0.4664211999624967	2062.415384800057	2449.665577600012	2450.6717190000927	2451.7188783000456	2453.219263400068	2454.2437981000403	2455.2476544000674	2456.266907900106	2457.275757500087	2458.671583300107	2020-03-31 16:49:17.226075	1.05079876071504	0.441212832842672	2.73565713235577	2.66384514564758	1.68485837164073	2.73565713235577	-1.05079876071504	2.73565713235577	0.441212832842672	2.73565713235577	1.68485837164073	8.11710295538463	-0.6939271475567246	-0.22692779328908352	2.5796592553037363	1.852142640667406	-0.2274391653050043	2.5796592553037363	7.084464407334867	0.8291464712210039	1.523073618777727	1.8741114597390256	0.47862000227562657	4	correct	1.0
396.28833969996776	8.554179499973543	go_punish	1.0	396.30011459998786	397.9697319000261	400.50990549998824	1.669617300038226	397.3139902999392	399.48546400002715	403.56425739999395	0.6557416000869125	1.0244414999610854	1.2900366999674588	402.5512287999736	0.5486942999996245	401.5218550999416	2	1	106	2	go_punish	1	0	-1	1	0	0	0	0.0	1.0	-1	1.0	0.5486942999996245	2062.415384800057	2458.715499400045	2459.729375099996	2460.385116700083	2461.900848800084	2462.925290300045	2463.9372398999985	2464.9666136000305	2465.979642200051	2467.2696789000183	2020-03-31 16:49:17.226075	-0.409327125935869	-1.34554108008432	-1.08790642976144	-1.83844216590225	-0.678579303825572	-1.08790642976144	0.409327125935869	-1.08790642976144	-1.34554108008432	-1.08790642976144	-0.678579303825572	-3.69333414775865	-2.1540530342076334	-2.0136817062160755	-1.2439043068134739	-2.6501446708824243	-2.590876840771306	-1.2439043068134739	-4.725972695808412	-2.9944170908962064	-0.8403640566885748	-1.9494521023781846	-1.3081339106513654	4	correct	1.0
404.8675762999337	7.9374887000303715	go_reward	0.3360315000172704	404.8793511999538	406.2385832000291	408.78617630002555	1.3592320000752807	405.8786548000062	407.7690140999621	411.82346929993946	0.35992840002290905	1.017162200063467	0.9933706000447273	410.82027050002944	0.3300262000411749	409.79163330001757	2	1	107	4	go_reward	1	1	0	1	1	1	0	0.0	1.0	1	0.3360315000172704	0.3300262000411749	2062.415384800057	2467.2947360000107	2468.294039600063	2468.653968000086	2470.184398900019	2471.2015611000825	2472.2070181000745	2473.2356553000864	2474.2388540999964	2475.232224700041	2020-03-31 16:49:17.226075	7.28111140076005	6.12268946211902	0.59615315871703	6.26103789632274	7.87726455947708	0.59615315871703	-7.28111140076005	6.12268946211902	0.59615315871703	7.87726455947708	0.59615315871703	4.73007062562138	5.536385492488286	5.454548835987264	0.44015528166499607	5.449335391342566	5.964967022531345	0.44015528166499607	3.6974320775716176	5.970753898342314	0.43436840585402714	5.261143789502275	0.6335603281499846	4	correct	1.0
412.83238759997766	7.917171300039627	nogo_punish	1.0	412.84416249999776	414.38930479995906	416.8960833000019	1.5451422999612987	413.85207409993745	415.88437640003394	419.9556475999998	0.5372307000216097	1.011706899967976	0.8056862000375986	418.9430184999951	0.4239668000955134	417.91366239998024	2	1	108	1	nogo_punish	1	-1	0	0	0	1	0	0.0	1.0	0	1.0	0.4239668000955134	2062.415384800057	2475.2595473000547	2476.2674588999944	2476.804689600016	2478.299761200091	2479.311468100059	2480.329047200037	2481.358403300052	2482.3710324000567	2483.1767186000943	2020-03-31 16:49:17.226075	0.841379674185679	-1.88699680377899	-0.308454177987719	-1.20858761596183	-1.1498338521734	-0.308454177987719	-0.841379674185679	-0.308454177987719	-1.88699680377899	-0.308454177987719	-1.1498338521734	0.308454177987719	-0.9033462340860855	-2.5551374299107454	-0.46445205503975295	-2.020290120942004	-3.062131389119134	-0.46445205503975295	-0.7241843700620432	-2.2149648391224854	-1.311618605036403	-1.1699998506044635	-1.8495896343460354	4	correct	1.0
420.7746139999945	8.25354810000863	go_reward	0.4291059999959543	420.7863889000146	422.4745066999458	425.0301625999855	1.6881177999312058	421.78786809998564	424.00587300001644	428.0777188000502	0.6866385999601334	1.0242895999690518	0.9622181999729946	427.0646530999802	0.573491399991326	426.0422127000056	2	1	109	4	go_reward	1	1	0	1	1	1	1	0.0	0.0	1	0.4291059999959543	0.573491399991326	2062.415384800057	2483.2017737000715	2484.2032529000426	2484.8898915000027	2486.4212578000734	2487.4455474000424	2488.4575975000625	2489.480037900037	2490.493103600107	2491.45532180008	2020-03-31 16:49:17.226075	7.52520469486077	6.33646115528839	0.59615315871703	6.4680392703187	8.1213578535778	0.59615315871703	-7.52520469486077	6.33646115528839	0.59615315871703	8.1213578535778	0.59615315871703	4.51629893245201	5.780478786589006	5.6683205291566345	0.44015528166499607	5.6563367653385255	6.2090603166320655	0.44015528166499607	3.4836603844022473	6.214847192443034	0.43436840585402714	5.474915482671645	0.6335603281499846	4	wrong	1.0
429.05211639998015	7.899587500025518	go_reward	0.5324695999734104	429.06389130000025	430.6371657999698	433.1820363999577	1.573274499969557	430.0753969999496	432.1586399000371	436.2139499000041	0.5617688000202179	1.0233964999206364	0.7495289000216872	435.20924769993917	0.4457605999195948	434.19582849997096	2	1	110	4	go_reward	1	1	0	1	1	1	0	0.0	1.0	1	0.5324695999734104	0.4457605999195948	2062.415384800057	2491.479276100057	2492.4907818000065	2493.0525506000267	2494.574024700094	2495.5974212000147	2496.611213300028	2497.624632499996	2498.629334700061	2499.3788636000827	2020-03-31 16:49:17.226075	7.75381106869135	6.5369730387602	0.59615315871703	6.66219128089539	8.34996422740838	0.59615315871703	-7.75381106869135	6.5369730387602	0.59615315871703	8.34996422740838	0.59615315871703	4.3157870489802	6.009085160419586	5.868832412628445	0.44015528166499607	5.850488775915215	6.437666690462645	0.44015528166499607	3.2831485009304373	6.443453566273614	0.43436840585402714	5.675427366143455	0.6335603281499846	4	correct	1.0
436.99452059995383	8.327207700000145	go_punish	0.322188499965705	437.00629549997393	438.8566661999794	441.39938259997916	1.850370700005442	438.01430719997734	440.38872789999004	444.4493536000373	0.842359000002034	1.010654699989118	0.8841495999367908	443.4366613000161	0.7387996999314055	442.4139323999407	2	1	111	2	go_punish	1	0	-1	1	1	1	0	0.0	1.0	0	0.322188499965705	0.7387996999314055	2062.415384800057	2499.421680300031	2500.4296920000343	2501.2720510000363	2502.804112700047	2503.814767400036	2504.8293171999976	2505.852046100073	2506.864738400094	2507.748888000031	2020-03-31 16:49:17.226075	0.580873864978928	-1.34554108008432	-1.27304105749446	-1.98107400257888	-0.69216719251553	-1.27304105749446	-0.580873864978928	-1.34554108008432	-1.27304105749446	-0.69216719251553	-1.27304105749446	1.34554108008432	-1.1638520432928365	-2.0136817062160755	-1.4290389345464938	-2.7927765075590543	-2.6044647294612644	-1.4290389345464938	0.31290253203455776	-2.598677853650296	-1.434825810357463	-2.2070867527010645	-1.2356338880615054	4	correct	1.0
445.3673101000022	8.49140840000473	nogo_reward	1.0	445.3790850000223	446.93539899995085	449.46650910004973	1.556313999928534	446.3829383000266	448.44102709996514	452.51785870001186	0.5524606999242678	1.025482000084594	1.3526347000151873	451.4968982000137	0.6661654999479651	450.47965690004685	2	1	112	3	nogo_reward	1	0	1	0	0	1	0	0.0	1.0	1	1.0	0.6661654999479651	2062.415384800057	2507.7944698000792	2508.7983231000835	2509.350783800008	2510.856411900022	2511.8818939001067	2512.895041700104	2513.9122830000706	2514.933243500069	2516.285878200084	2020-03-31 16:49:17.226075	1.39323107501374	0.441212832842672	3.14257679864295	3.08222713101571	1.74934572362921	3.14257679864295	-1.39323107501374	3.14257679864295	0.441212832842672	3.14257679864295	1.74934572362921	7.71018328909745	-0.35149483325802455	-0.22692779328908352	2.986578921590916	2.270524626035536	-0.1629518133165242	2.986578921590916	6.677544741047687	1.2360661375081838	1.5875609707662073	2.2810311260262055	0.47862000227562657	4	correct	1.0
453.88472720002756	8.839013599907503	nogo_punish	1.0	453.89650210004766	455.76267620001454	458.2799413000471	1.8661740999668837	454.90311439998914	457.2673907999415	461.33018729998685	0.8595618000254035	1.01255050010559	1.4053283999683117	460.3237191999797	0.5349241000367329	459.29472300002817	2	1	113	1	nogo_punish	0	0	-1	0	0	1	0	1.0	0.0	-1	1.0	0.5349241000367329	2062.415384800057	2516.3118869001046	2517.318499200046	2518.1780610000715	2519.6827755999984	2520.695326100104	2521.710107800085	2522.7391040000366	2523.745572100044	2525.150900500012	2020-03-31 16:49:17.226075	0.854105248143594	-1.88699680377899	-0.28912901403864	-1.14159037807588	-1.14323426218223	-0.28912901403864	-0.854105248143594	-0.28912901403864	-1.88699680377899	-0.28912901403864	-1.14323426218223	-4.4921115634814495	-0.8906206601281705	-2.5551374299107454	-0.44512689109067394	-1.9532928830560543	-3.055531799127964	-0.44512689109067394	-5.524750111531212	-2.195639675173406	-1.3050190150452328	-1.1506746866553845	-1.8495896343460354	4	wrong	1.0
462.7669720000122	8.557641499908641	nogo_reward	1.0	462.7787469000323	464.5888266999973	467.10846569994465	1.810079799965024	463.77544280001894	466.0945785000222	470.1487882999936	0.813383899978362	1.0138871999224648	1.1876000999473035	469.135984399938	0.4893830999499187	468.12228350003716	2	1	114	3	nogo_reward	1	0	1	0	0	1	1	0.0	0.0	1	1.0	0.4893830999499187	2062.415384800057	2525.194131700089	2526.190827600076	2527.004211500054	2528.509963300079	2529.5238505000016	2530.537668300094	2531.551369199995	2532.5641731000505	2533.751773199998	2020-03-31 16:49:17.226075	1.71343560372645	0.441212832842672	3.5219066350625	3.47142545548663	1.80847103133605	3.5219066350625	-1.71343560372645	3.5219066350625	0.441212832842672	3.5219066350625	1.80847103133605	7.3308534526779	-0.03129030454531456	-0.22692779328908352	3.365908758010466	2.659722950506456	-0.10382650560968432	3.365908758010466	6.2982149046281375	1.6153959739277337	1.6466862784730472	2.6603609624457554	0.47862000227562657	4	wrong	1.0
471.36802749999333	8.375017800018668	go_punish	1.0	471.37980240001343	472.9356205000081	475.45860959996935	1.5558180999946671	472.3781714000511	474.44338850001805	478.51162619993556	0.5574490999570116	1.0152210999513045	1.243194000096537	477.49952259997326	0.5964750999119133	476.46512249996886	2	1	115	2	go_punish	1	0	-1	1	0	0	0	0.0	1.0	-1	1.0	0.5964750999119133	2062.415384800057	2533.7951872000704	2534.793556200108	2535.351005300065	2536.858773300075	2537.8739944000263	2538.880507300026	2539.91490740003	2540.9270109999925	2542.170205000089	2020-03-31 16:49:17.226075	-0.685909417647581	-1.25548859277613	-1.27304105749446	-1.85266518273394	-0.587131639846877	-1.27304105749446	0.685909417647581	-1.27304105749446	-1.25548859277613	-1.27304105749446	-0.587131639846877	-3.50819952002563	-2.4306353259193454	-1.9236292189078854	-1.4290389345464938	-2.664367687714114	-2.4994291767926113	-1.4290389345464938	-4.540838068075392	-3.1795517186292264	-0.7489163927098799	-2.1345867301112045	-1.2180814233431754	4	correct	1.0
479.784880099935	8.498041599988483	go_punish	0.2699696000199765	479.7966549999551	481.7786990000168	484.3270367999794	1.9820440000617054	480.80575049994513	483.30366570001934	487.3636645999509	0.9729485000716522	1.023371099960059	0.9310319999926833	486.3596880999394	0.5290373999159783	485.34082229994283	2	1	116	2	go_punish	0	-1	0	1	1	1	0	0.0	1.0	-1	0.2699696000199765	0.5290373999159783	2062.415384800057	2542.212039800012	2543.221135300002	2544.1940838000737	2545.7190505000763	2546.7424216000363	2547.7562070999998	2548.7750728999963	2549.779049400008	2550.7100814000005	2020-03-31 16:49:17.226075	0.844422013272942	-1.25548859277613	-1.44578119239289	-1.99723978269613	-0.601359179119945	-1.44578119239289	-0.844422013272942	-1.25548859277613	-1.44578119239289	-0.601359179119945	-1.44578119239289	-3.52575198474396	-0.9003038949988226	-1.9236292189078854	-1.601779069444924	-2.808942287676304	-2.5136567160656793	-1.601779069444924	-4.558390532793722	-2.507869840254711	-1.6075659452558928	-2.1170342653928746	-1.4083740229599355	4	correct	1.0
488.3287010999629	9.506430699956127	nogo_reward	1.0	488.340475999983	490.8287605999508	493.34106949996203	2.4882845999677556	489.34569680003915	492.32852430001367	496.37879919994157	1.4830637999116334	1.012545199948363	1.4681074999975863	495.37478599999986	0.6209642000030726	494.34671509999316	2	1	117	3	nogo_reward	1	0	1	0	0	1	0	0.0	1.0	1	1.0	0.6209642000030726	2062.415384800057	2550.75586080004	2551.761081600096	2553.2441454000077	2554.7439091000706	2555.756454300019	2556.76209990005	2557.790170800057	2558.7941839999985	2560.262291499996	2020-03-31 16:49:17.226075	2.01331666908494	0.441212832842672	3.87618415303883	3.83422268423596	1.86286748395389	3.87618415303883	-2.01331666908494	3.87618415303883	0.441212832842672	3.87618415303883	1.86286748395389	6.97657593470157	0.26859076081317546	-0.22692779328908352	3.720186275986796	3.022520179255786	-0.04943005299184433	3.720186275986796	5.9439373866518075	1.9696734919040637	1.701082731090887	3.0146384804220854	0.47862000227562657	4	correct	1.0
497.87807739991695	8.091625200002454	nogo_reward	1.0	497.88985229993705	499.25660670001525	501.78521909995516	1.3667544000782073	498.8979280999629	500.7719729000237	504.8419344000281	0.3586786000523716	1.0132461999314728	1.139543099911407	503.82867099996656	0.5422976999543607	502.80042999994475	2	1	118	3	nogo_reward	1	0	1	0	0	1	0	0.0	1.0	1	1.0	0.5422976999543607	2062.415384800057	2560.305237099994	2561.31331290002	2561.671991500072	2563.1873577000806	2564.200603900012	2565.2158148000017	2566.2440558000235	2567.257319200085	2568.3968622999964	2020-03-31 16:49:17.226075	2.29456242439913	0.441212832842672	4.20762619639766	4.17303666910416	1.91306377199854	4.20762619639766	-2.29456242439913	4.20762619639766	0.441212832842672	4.20762619639766	1.91306377199854	6.64513389134274	0.5498365161273655	-0.22692779328908352	4.051628319345626	3.3613341641239862	0.0007662350528057082	4.051628319345626	5.612495343292977	2.301115535262894	1.751279019135537	3.3460805237809157	0.47862000227562657	4	correct	1.0
505.9941842999542	9.530733400024928	go_reward	0.3076478999573737	506.0059591999743	508.7681305999872	511.32079999998723	2.762171400012903	507.0112956999801	510.3010637999978	514.3712165999459	1.7568349000071066	1.0197361999894383	1.1654760000533315	513.358577099978	0.3874148000031709	512.3303446000209	2	1	119	4	go_reward	0	0	1	1	1	1	0	0.0	1.0	0	0.3076478999573737	0.3874148000031709	2062.415384800057	2568.4213440000312	2569.426680500037	2571.183515400044	2572.7164486000547	2573.736184800044	2574.745729400078	2575.773961900035	2576.786601400003	2577.952077400056	2020-03-31 16:49:17.226075	7.96831134491427	6.72536635129063	0.59615315871703	6.84460483705461	8.5644645036313	0.59615315871703	-7.96831134491427	6.72536635129063	0.59615315871703	8.5644645036313	0.59615315871703	-6.72536635129063	6.223585436642506	6.057225725158874	0.44015528166499607	6.0329023320744355	6.652166966685565	0.44015528166499607	-7.758004899340392	6.657953842496533	0.43436840585402714	5.863820678673885	0.6335603281499846	4	correct	1.0
515.570527200005	8.734730000026047	nogo_reward	0.4005450999829918	515.5823021000251	517.287190199946	519.8431941999593	1.704888099920936	516.5787933999673	518.8235090000089	522.9092380000511	0.7083967999788001	1.0196851999503451	1.4077941000000465	521.8945621999446	0.5265606999164447	520.8611408999423	2	1	120	3	nogo_reward	1	0	1	0	1	0	1	0.0	0.0	0	0.4005450999829918	0.5265606999164447	2062.415384800057	2577.997686900082	2578.994178200024	2579.702575000003	2581.238893800066	2582.258579000016	2583.276525699999	2584.3099470000016	2585.324622800108	2586.732416900108	2020-03-31 16:49:17.226075	-2.55867765472253	0.441212832842672	4.51818510893175	4.48998611226481	1.95950745420922	4.51818510893175	2.55867765472253	0.441212832842672	4.51818510893175	1.95950745420922	4.51818510893175	-0.441212832842672	-4.303403562994294	-0.22692779328908352	4.362187231879716	3.678283607284636	0.04720991726348567	4.362187231879716	-1.4738513808924343	0.05299679307445371	4.356400356068747	-0.42033283977407265	4.5555922783647045	4	wrong	1.0
