onset	duration	trial_type	response_time	cueOnset	targetOnset	fbOnset	cueRT	firstfixOnset	secondfixOnset	waitOnset	firstfixdur	secondfixdur	waitdur	nback_fbOnset	nback_response_time	nback_targetOnset	block	wm	trial	cue	cond	is_common	outcome_go	outcome_nogo	key_correct	key_pressed	is_correct	key_correct_nback	key_pressed_nback	is_correct_nback	outcome	rt	rt_nback	time_scan	time_onset	time_isi1	time_circle	time_isi2	time_feedback	time_same	time_correct	time_iti	time_done	timestamp_scan	DV	Qgo	Qnogo	SV	Wgo	Wnogo	mDV	Qchosen	Qunchosen	Wchosen	Wunchosen	PE	DVC	QgoC	QnogoC	SVC	WgoC	WnogoC	PEC	WchosenC	WunchosenC	QchosenC	QunchosenC	run	outcome_nback	nback_targetResp
0.0	6.650472400011495	nogo_reward	1.0	0.06941170000936836	1.7625867000315338	4.307707200059667	1.6931750000221655	1.0730745000764728	3.2811915000202134	5.304628700017929	0.6895121999550611	1.0265157000394538	1.415255400002934	n/a	1.0	n/a	1	0	1	3	nogo_reward	1	0	1	0	0	1	0	n/a	n/a	1	1.0	1.0	513.9220122999977	513.9914240000071	514.9950868000742	515.6845990000293	517.203203800018	518.2297195000574	n/a	n/a	519.2266410000157	520.6418964000186	2020-03-31 16:23:28.730607	-0.84241320755583	0.0	0.0	0.0	0.84241320755583	0.0	0.84241320755583	0.0	0.0	0.0	0.84241320755583	10.8527600877404	-2.5871391158275947	-0.6681406261317555	-0.15599787705203394	-0.8117025049801742	-1.0698843293899043	-0.15599787705203394	9.820121539690637	-1.9065106611347662	0.6806284546928272	-0.8615456726167446	0.037407169432954586	1	missed	0.0
6.694845900055952	6.303587700007483	nogo_punish	1.0	6.764257600065321	8.67919720010832	11.223291300004348	1.9149396000429988	7.767631200025789	10.197686100029387	12.222986200009473	0.9115660000825301	1.0256051999749616	0.8448591000633314	n/a	1.0	n/a	1	0	2	1	nogo_punish	1	-1	0	0	0	1	0	n/a	n/a	0	1.0	1.0	513.9220122999977	520.686269900063	521.6896435000235	522.601209500106	524.1196984000271	525.1453036000021	n/a	n/a	526.1449985000072	526.9898576000705	2020-03-31 16:23:28.730607	-0.84241320755583	0.0	0.0	0.0	0.84241320755583	0.0	0.84241320755583	0.0	0.0	0.0	0.84241320755583	0.0	-2.5871391158275947	-0.6681406261317555	-0.15599787705203394	-0.8117025049801742	-1.0698843293899043	-0.15599787705203394	-1.0326385480497622	-1.9065106611347662	0.6806284546928272	-0.8615456726167446	0.037407169432954586	1	missed	0.0
13.035798000055365	7.5127896999474615	go_reward	1.0	13.105209700064734	15.636706000077538	18.1690901000984	2.5314963000128046	14.096140000037849	17.15104120003525	19.183333900058642	1.5405660000396892	1.0180489000631496	1.434665499953553	n/a	1.0	n/a	1	0	3	4	go_reward	1	1	0	1	0	0	0	n/a	n/a	0	1.0	1.0	513.9220122999977	527.0272220000625	528.0181523000356	529.5587183000753	531.073053500033	532.0911024000961	n/a	n/a	533.1053462000564	534.5400117000099	2020-03-31 16:23:28.730607	-0.84241320755583	0.0	0.0	0.0	0.84241320755583	0.0	0.84241320755583	0.0	0.0	0.0	0.84241320755583	0.0	-2.5871391158275947	-0.6681406261317555	-0.15599787705203394	-0.8117025049801742	-1.0698843293899043	-0.15599787705203394	-1.0326385480497622	-1.9065106611347662	0.6806284546928272	-0.8615456726167446	0.037407169432954586	1	missed	0.0
20.581820500083268	7.0821424999739975	nogo_punish	1.0	20.651232200092636	23.222813000087626	25.75805110007059	2.5715807999949902	21.654873799998313	24.738293900038116	26.771082100109197	1.567939200089313	1.0197572000324726	0.9622925999574363	n/a	1.0	n/a	1	0	4	1	nogo_punish	1	-1	0	0	0	1	1	n/a	n/a	0	1.0	1.0	513.9220122999977	534.5732445000904	535.576886099996	537.1448253000854	538.6603062000358	539.6800634000683	n/a	n/a	540.6930944001069	541.6553870000644	2020-03-31 16:23:28.730607	-0.84241320755583	0.0	0.0	0.0	0.84241320755583	0.0	0.84241320755583	0.0	0.0	0.0	0.84241320755583	0.0	-2.5871391158275947	-0.6681406261317555	-0.15599787705203394	-0.8117025049801742	-1.0698843293899043	-0.15599787705203394	-1.0326385480497622	-1.9065106611347662	0.6806284546928272	-0.8615456726167446	0.037407169432954586	1	missed	0.0
27.696665700059384	7.766073300037533	nogo_punish	1.0	27.766077400068752	30.52529930009041	33.051383900106885	2.7592219000216573	28.764696500031278	32.04202250007074	34.0608853000449	1.7606028000591323	1.0093614000361413	1.4712654000613838	n/a	1.0	n/a	1	0	5	1	nogo_punish	1	-1	0	0	0	1	0	n/a	n/a	0	1.0	1.0	513.9220122999977	541.6880897000665	542.686708800029	544.4473116000881	545.9640348000685	546.9733962001046	n/a	n/a	547.9828976000426	549.454163000104	2020-03-31 16:23:28.730607	-0.84241320755583	0.0	0.0	0.0	0.84241320755583	0.0	0.84241320755583	0.0	0.0	0.0	0.84241320755583	0.0	-2.5871391158275947	-0.6681406261317555	-0.15599787705203394	-0.8117025049801742	-1.0698843293899043	-0.15599787705203394	-1.0326385480497622	-1.9065106611347662	0.6806284546928272	-0.8615456726167446	0.037407169432954586	1	missed	0.0
35.509130600024946	6.494871800066903	go_punish	1.0	35.578542300034314	37.08281240006909	39.60737490002066	1.5042701000347733	36.58297340001445	38.587577100028284	40.61025630007498	0.4998390000546351	1.019797799992375	1.463157800026238	n/a	1.0	n/a	1	0	6	2	go_punish	0	-1	0	1	0	0	0	n/a	n/a	0	1.0	1.0	513.9220122999977	549.500554600032	550.5049857000122	551.0048247000668	552.509589400026	553.5293872000184	n/a	n/a	554.5322686000727	555.995426400099	2020-03-31 16:23:28.730607	-0.84241320755583	0.0	0.0	0.0	0.84241320755583	0.0	0.84241320755583	0.0	0.0	0.0	0.84241320755583	0.0	-2.5871391158275947	-0.6681406261317555	-0.15599787705203394	-0.8117025049801742	-1.0698843293899043	-0.15599787705203394	-1.0326385480497622	-1.9065106611347662	0.6806284546928272	-0.8615456726167446	0.037407169432954586	1	missed	0.0
42.039718899992295	6.605549500091001	go_reward	0.5001077000051737	42.10913060000166	43.762328600045294	46.32413840002846	1.6531980000436306	43.10470930009615	45.30635840003379	47.32459790003486	0.6576192999491468	1.0177799999946728	1.3900822000578046	n/a	1.0	n/a	1	0	7	4	go_reward	1	1	0	1	1	1	0	n/a	n/a	1	0.5001077000051737	1.0	513.9220122999977	556.0311428999994	557.0267216000939	557.684340900043	559.2283707000315	560.2461507000262	n/a	n/a	561.2466102000326	562.6366924000904	2020-03-31 16:23:28.730607	0.84241320755583	0.0	0.0	0.0	0.84241320755583	0.0	-0.84241320755583	0.0	0.0	0.84241320755583	0.0	10.8527600877404	-0.9023127007159345	-0.6681406261317555	-0.15599787705203394	-0.8117025049801742	-1.0698843293899043	-0.15599787705203394	9.820121539690637	-1.064097453578936	-0.16178475286300287	-0.8615456726167446	0.037407169432954586	1	missed	0.0
48.67835549998563	5.9610959000419825	nogo_punish	1.0	48.747767199994996	50.42426220001653	52.94420950009953	1.6764950000215322	49.75158470007591	51.926819600048475	53.958164900075644	0.6726774999406189	1.0173899000510573	0.7506981999613345	n/a	1.0	n/a	1	0	8	1	nogo_punish	0	0	-1	0	0	1	0	n/a	n/a	-1	1.0	1.0	513.9220122999977	562.6697794999927	563.6735970000736	564.3462745000143	565.8488319000462	566.8662218000973	n/a	n/a	567.8801772000734	568.6308754000347	2020-03-31 16:23:28.730607	-0.84241320755583	0.0	0.0	0.0	0.84241320755583	0.0	0.84241320755583	0.0	0.0	0.0	0.84241320755583	-4.78124057752009	-2.5871391158275947	-0.6681406261317555	-0.15599787705203394	-0.8117025049801742	-1.0698843293899043	-0.15599787705203394	-5.813879125569852	-1.9065106611347662	0.6806284546928272	-0.8615456726167446	0.037407169432954586	1	missed	0.0
54.678744000033475	6.72983009996824	nogo_reward	1.0	54.748155700042844	56.60390050010756	59.11886909999885	1.8557448000647128	55.7517097000964	58.10268230002839	60.12755410000682	0.852190800011158	1.0161867999704555	1.3504317000042647	n/a	1.0	n/a	1	0	9	3	nogo_reward	1	0	1	0	0	1	0	n/a	n/a	1	1.0	1.0	513.9220122999977	568.6701680000406	569.6737220000941	570.5259128001053	572.0246946000261	573.0408813999966	n/a	n/a	574.0495664000046	575.3999981000088	2020-03-31 16:23:28.730607	-0.756513048314131	0.0	0.597741653029775	0.597741653029775	1.35425470134391	0.597741653029775	0.756513048314131	0.597741653029775	0.0	0.597741653029775	1.35425470134391	10.255018434710625	-2.5012389565858957	-0.6681406261317555	0.44174377597774106	-0.21396085195039916	-0.5580428356018243	0.44174377597774106	9.222379886660862	-1.3087690081049912	1.1924699484809071	-0.26380401958696964	0.037407169432954586	1	missed	0.0
61.44735890009906	6.7223485999275	go_reward	0.2451739000389352	61.51677060010843	63.67641900002491	66.22755700000562	2.1596483999164775	62.523803000105545	65.2077632000437	67.2538786000805	1.1526159999193624	1.019793799961917	0.9852405999554321	n/a	1.0	n/a	1	0	10	4	go_reward	0	0	1	1	1	1	0	n/a	n/a	0	0.2451739000389352	1.0	513.9220122999977	575.4387829001062	576.4458153001033	577.5984313000226	579.1297755000414	580.1495693000033	n/a	n/a	581.1758909000782	582.1611315000337	2020-03-31 16:23:28.730607	1.95199635437368	0.597741653029775	0.0	0.597741653029775	1.95199635437368	0.0	-1.95199635437368	0.597741653029775	0.0	1.95199635437368	0.0	-0.597741653029775	0.20727044610191547	-0.07039897310198051	-0.15599787705203394	-0.21396085195039916	0.03969881742794579	-0.15599787705203394	-1.6303802010795372	0.04548569323891383	-0.16178475286300287	-0.26380401958696964	0.037407169432954586	1	missed	0.0
68.20394220005255	5.952697000000626	go_reward	0.5569869000464678	68.27335390006192	69.5976102000568	72.16271450009663	1.324256299994886	69.28037540009245	71.13557700009551	73.17925760010257	0.31723479996435344	1.0271375000011176	1.0467932999599725	n/a	1.0	n/a	1	0	11	4	go_reward	1	1	0	1	1	1	0	n/a	n/a	1	0.5569869000464678	1.0	513.9220122999977	582.1953662000597	583.2023877000902	583.5196225000545	585.0575893000932	586.0847268000944	n/a	n/a	587.1012699001003	588.1480632000603	2020-03-31 16:23:28.730607	1.87596223325729	0.557357741190113	0.0	0.557357741190113	1.87596223325729	0.0	-1.87596223325729	0.557357741190113	0.0	1.87596223325729	0.0	10.295402346550286	0.1312363249855255	-0.11078288494164246	-0.15599787705203394	-0.2543447637900611	-0.036335303688444176	-0.15599787705203394	9.262763798500524	-0.030548427877476136	-0.16178475286300287	-0.3041879314266316	0.037407169432954586	1	missed	0.0
74.18860410002526	6.9307955000549555	go_punish	1.0	74.25801580003463	76.69870530010667	79.22663040005136	2.4406895000720397	75.26124280004296	78.20891940000001	80.2358050000621	1.4374625000637025	1.0177110000513494	0.9530063000274822	n/a	1.0	n/a	1	0	12	2	go_punish	1	0	-1	1	0	0	0	n/a	n/a	-1	1.0	1.0	513.9220122999977	588.1800281000324	589.1832551000407	590.6207176001044	592.1309316999977	593.1486427000491	n/a	n/a	594.1578173000598	595.1108236000873	2020-03-31 16:23:28.730607	-0.84241320755583	0.0	0.0	0.0	0.84241320755583	0.0	0.84241320755583	0.0	0.0	0.0	0.84241320755583	-4.78124057752009	-2.5871391158275947	-0.6681406261317555	-0.15599787705203394	-0.8117025049801742	-1.0698843293899043	-0.15599787705203394	-5.813879125569852	-1.9065106611347662	0.6806284546928272	-0.8615456726167446	0.037407169432954586	1	missed	0.0
81.15503500006162	7.292897199979052	nogo_punish	0.5469989000121132	81.22444670007098	83.55844310007524	86.10864130000118	2.333996400004253	82.2305759000592	85.08499870006926	87.11760650004726	1.327867200016044	1.023642599931918	1.3997374000027776	n/a	1.0	n/a	1	0	13	1	nogo_punish	1	-1	0	0	1	0	0	n/a	n/a	-1	0.5469989000121132	1.0	513.9220122999977	595.1464590000687	596.1525882000569	597.480455400073	599.007011000067	600.0306535999989	n/a	n/a	601.039618800045	602.4393562000478	2020-03-31 16:23:28.730607	0.887171116544072	0.0	-0.257499689697473	-0.257499689697473	0.629671426846599	-0.257499689697473	-0.887171116544072	0.0	-0.257499689697473	0.629671426846599	-0.257499689697473	-4.78124057752009	-0.8575547917276926	-0.6681406261317555	-0.41349756674950694	-1.069202194677647	-1.2826261100991352	-0.41349756674950694	-5.813879125569852	-1.2768392342881671	-0.41928444256047587	-0.8615456726167446	-0.22009252026451842	1	missed	0.0
88.48077080002986	6.3236267999745905	nogo_punish	1.0	88.55018250003923	89.91799950005952	92.45532720000483	1.3678170000202954	89.55853190005291	91.43512240005657	93.46811940008774	0.35946760000661016	1.0202047999482602	1.4056898999260738	n/a	1.0	n/a	1	0	14	1	nogo_punish	1	-1	0	0	0	1	0	n/a	n/a	0	1.0	1.0	513.9220122999977	602.472194800037	603.4805442000506	603.8400118000573	605.3571347000543	606.3773395000026	n/a	n/a	607.3901317000855	608.7958216000115	2020-03-31 16:23:28.730607	-0.431474984086488	-0.257499689697473	-0.257499689697473	-0.497910678572616	0.173975294389015	-0.257499689697473	0.431474984086488	-0.257499689697473	-0.257499689697473	-0.257499689697473	0.173975294389015	0.257499689697473	-2.1762008923582528	-0.9256403158292286	-0.41349756674950694	-1.3096131835527902	-1.7383222425567193	-0.41349756674950694	-0.7751388583522891	-2.164010350832239	0.012190541526012122	-1.1190453623142176	-0.22009252026451842	1	missed	0.0
94.83855520002544	7.224962400039658	nogo_punish	1.0	94.90796690003481	97.20243950001895	99.72979330003727	2.2944725999841467	95.92044410004746	98.71933340001851	100.7322656000033	1.2819953999714926	1.010459900018759	1.4006637000711635	n/a	1.0	n/a	1	0	15	1	nogo_punish	1	-1	0	0	0	1	1	n/a	n/a	0	1.0	1.0	513.9220122999977	608.8299792000325	609.8424564000452	611.1244518000167	612.6413457000162	613.651805600035	n/a	n/a	614.654277900001	616.0549416000722	2020-03-31 16:23:28.730607	-0.442292108066218	-0.257499689697473	-0.240410988875143	-0.465085925371878	0.201881119191075	-0.240410988875143	0.442292108066218	-0.240410988875143	-0.257499689697473	-0.240410988875143	0.201881119191075	0.240410988875143	-2.1870180163379827	-0.9256403158292286	-0.39640886592717695	-1.276788430352052	-1.7104164177546592	-0.39640886592717695	-0.7922275591746192	-2.1469216500099093	0.04009636632807212	-1.1019566614918876	-0.22009252026451842	1	missed	0.0
102.10547770000994	6.549340300029144	nogo_reward	1.0	102.17488940001931	104.23551500006579	106.76471460005268	2.060625600046478	103.18367180007044	105.74498820002191	107.7776567999972	1.0518431999953464	1.0197264000307769	0.946572900051251	n/a	1.0	n/a	1	0	16	3	nogo_reward	0	1	0	0	0	1	0	n/a	n/a	0	1.0	1.0	513.9220122999977	616.096901700017	617.1056841000682	618.1575273000635	619.6670005000196	620.6867269000504	n/a	n/a	621.6996690999949	622.6462420000462	2020-03-31 16:23:28.730607	-0.675346591635362	0.0	1.15509939421989	1.15509939421989	1.83044598585525	1.15509939421989	0.675346591635362	1.15509939421989	0.0	1.15509939421989	1.83044598585525	-1.15509939421989	-2.4200724999071266	-0.6681406261317555	0.999101517167856	0.3433968892397158	-0.08185155109048425	0.999101517167856	-2.187737942269652	-0.7514112669148763	1.668661232992247	0.2935537216031453	0.037407169432954586	1	missed	0.0
108.69022170000244	6.900120800011791	go_reward	0.2728219999698922	108.75963340001181	111.37159230001271	113.89558550005313	2.6119589000009	109.76501380000263	112.90049950010143	114.90059930004645	1.6065785000100732	0.9950859999516979	0.7591548999771476	n/a	1.0	n/a	1	0	17	4	go_reward	0	0	1	1	1	1	0	n/a	n/a	0	0.2728219999698922	1.0	513.9220122999977	622.6816457000095	623.6870261000004	625.2936046000104	626.8225118000992	627.8175978000509	n/a	n/a	628.8226116000442	629.5817665000213	2020-03-31 16:23:28.730607	2.91567349602041	1.11794380472979	0.0	1.11794380472979	2.91567349602041	0.0	-2.91567349602041	1.11794380472979	0.0	2.91567349602041	0.0	-1.11794380472979	1.1709475877486455	0.44980317859803454	-0.15599787705203394	0.3062412997496159	1.0033759590746758	-0.15599787705203394	-2.1505823527795522	1.0091628348856438	-0.16178475286300287	0.2563981321130454	0.037407169432954586	1	missed	0.0
115.6248246000614	7.418147100019269	go_punish	1.0	115.69423630007077	118.22634990001097	120.74960640002973	2.532113599940203	116.71046190010384	119.7360430000117	121.75966820004396	1.515887999907136	1.013563400018029	1.3527152000460774	n/a	1.0	n/a	1	0	18	2	go_punish	1	0	-1	1	0	0	0	n/a	n/a	-1	1.0	1.0	513.9220122999977	629.6162486000685	630.6324742001016	632.1483622000087	633.6580553000094	634.6716187000275	n/a	n/a	635.6816805000417	637.0343957000878	2020-03-31 16:23:28.730607	-0.887171116544072	0.0	-0.257499689697473	-0.257499689697473	0.629671426846599	-0.257499689697473	0.887171116544072	-0.257499689697473	0.0	-0.257499689697473	0.629671426846599	-4.523740887822617	-2.6318970248158364	-0.6681406261317555	-0.41349756674950694	-1.069202194677647	-1.2826261100991352	-0.41349756674950694	-5.55637943587238	-2.164010350832239	0.4678866739835962	-1.1190453623142176	0.037407169432954586	1	missed	0.0
123.0786897999933	6.904641600092873	nogo_punish	0.614347800030373	123.14810150000267	125.133339800057	127.6784639999969	1.985238300054334	124.15418260009028	126.65313150000293	128.6784741000738	0.9791571999667212	1.025332499993965	1.3742690000217408	n/a	1.0	n/a	1	0	19	1	nogo_punish	1	-1	0	0	1	0	0	n/a	n/a	-1	0.614347800030373	1.0	513.9220122999977	637.0701138000004	638.076194900088	639.0553521000547	640.5751438000007	641.6004762999946	n/a	n/a	642.6004864000715	643.9747554000933	2020-03-31 16:23:28.730607	0.452204226390847	-0.257499689697473	-0.224674936496735	-0.434841925193909	0.227529289894111	-0.224674936496735	-0.452204226390847	-0.257499689697473	-0.224674936496735	0.227529289894111	-0.224674936496735	-4.523740887822617	-1.2925216818809175	-0.9256403158292286	-0.3806728135487689	-1.2465444301740831	-1.6847682470516232	-0.3806728135487689	-5.55637943587238	-1.6789813712406552	-0.38645968935973785	-1.1190453623142176	-0.18726776706378043	1	missed	0.0
130.01935900002718	6.991197100025602	go_punish	0.3042849000776186	130.08877070003655	132.3142363000661	134.8741998000769	2.2254656000295654	131.09502080001403	133.849234500085	135.88343560008798	1.219215500052087	1.0249652999918908	1.1965321999741718	n/a	1.0	n/a	1	0	20	2	go_punish	0	-1	0	1	1	1	1	n/a	n/a	-1	0.3042849000776186	1.0	513.9220122999977	644.0107830000343	645.0170331000118	646.2362486000638	647.7712468000827	648.7962121000746	n/a	n/a	649.8054479000857	651.0019801000599	2020-03-31 16:23:28.730607	0.929385662659104	0.0	-0.497910678572616	-0.497910678572616	0.431474984086488	-0.497910678572616	-0.929385662659104	0.0	-0.497910678572616	0.431474984086488	-0.497910678572616	-4.78124057752009	-0.8153402456126605	-0.6681406261317555	-0.65390855562465	-1.3096131835527902	-1.4808225528592462	-0.65390855562465	-5.813879125569852	-1.4750356770482782	-0.6596954314356189	-0.8615456726167446	-0.4605035091396614	1	missed	0.0
137.04672240000218	7.002533900085837	go_punish	1.0	137.11613410001155	139.5590939000249	142.0875551000936	2.442959800013341	138.13094960001763	141.06446370005142	143.08625650010072	1.4281443000072613	1.0230914000421762	1.0324114999966696	n/a	1.0	n/a	1	0	21	2	go_punish	1	0	-1	1	0	0	0	n/a	n/a	-1	1.0	1.0	513.9220122999977	651.0381464000093	652.0529619000154	653.4811062000226	654.9864760000492	656.0095674000913	n/a	n/a	657.0082688000984	658.0406803000951	2020-03-31 16:23:28.730607	-0.48705001705446	-0.257499689697473	-0.497910678572616	-0.722585615069351	-0.010860661518156	-0.497910678572616	0.48705001705446	-0.497910678572616	-0.257499689697473	-0.497910678572616	-0.010860661518156	-4.283329898947474	-2.2317759253262244	-0.9256403158292286	-0.65390855562465	-1.534288120049525	-1.9231581984638901	-0.65390855562465	-5.315968446997236	-2.4044213397073824	-0.17264541438115888	-1.3594563511893607	-0.22009252026451842	1	missed	0.0
144.09069089998957	6.50021490000654	go_reward	1.0	144.16010259999894	145.73781280010007	148.27391700004227	1.5777102001011372	145.17513970006257	147.25294400006533	149.276330600027	0.5626731000375003	1.020972999976948	1.3839868999784812	n/a	1.0	n/a	1	0	22	4	go_reward	1	1	0	1	0	0	0	n/a	n/a	0	1.0	1.0	513.9220122999977	658.0821148999967	659.0971520000603	659.6598251000978	661.1749563000631	662.19592930004	n/a	n/a	663.1983429000247	664.5823298000032	2020-03-31 16:23:28.730607	-2.77535559193136	1.04333568710298	0.0	1.04333568710298	2.77535559193136	0.0	2.77535559193136	0.0	1.04333568710298	0.0	2.77535559193136	0.0	-4.5200815002031245	0.37519506097122446	-0.15599787705203394	0.23163318212280581	0.8630580549856259	-0.15599787705203394	-1.0326385480497622	-1.9065106611347662	2.613570839068357	-0.8615456726167446	1.0807428565359345	1	missed	0.0
150.62667290004902	7.48894820001442	go_punish	1.0	150.69608460005838	153.40383419999853	155.92850900010671	2.7077495999401435	151.70110710000154	154.90867670008447	156.9419325001072	1.7027270999969915	1.0198323000222445	1.2431002999655902	n/a	1.0	n/a	1	0	23	2	go_punish	0	-1	0	1	0	0	1	n/a	n/a	0	1.0	1.0	513.9220122999977	664.6180969000561	665.6231193999993	667.3258464999963	668.8306890000822	669.8505213001044	n/a	n/a	670.863944800105	672.1070451000705	2020-03-31 16:23:28.730607	-0.539176681494121	-0.257499689697473	-0.722585615069351	-0.932752603766524	-0.183408933575231	-0.722585615069351	0.539176681494121	-0.722585615069351	-0.257499689697473	-0.722585615069351	-0.183408933575231	0.722585615069351	-2.2839025897658853	-0.9256403158292286	-0.878583492121385	-1.7444551087466982	-2.095706470520965	-0.878583492121385	-0.31005293298041114	-2.629096276204117	-0.3451936864382339	-1.5841312876860956	-0.22009252026451842	1	missed	0.0
158.15303130005486	6.791742500034161	go_punish	0.3301112001063302	158.22244300006423	160.6883629000513	163.2445699000964	2.465919899987057	159.22640120005235	162.22446410008706	164.2482208000729	1.4619616999989375	1.0201058000093326	0.7659647000255063	n/a	1.0	n/a	1	0	24	2	go_punish	1	0	-1	1	1	1	0	n/a	n/a	0	0.3301112001063302	1.0	513.9220122999977	672.144455300062	673.1484135000501	674.610375200049	676.1464764000848	677.1665822000941	n/a	n/a	678.1702331000706	678.9361978000961	2020-03-31 16:23:28.730607	0.543352318520533	-0.257499689697473	-0.675252914069052	-0.872028640573022	-0.131900595548519	-0.675252914069052	-0.543352318520533	-0.257499689697473	-0.675252914069052	-0.131900595548519	-0.675252914069052	0.257499689697473	-1.2013735897512317	-0.9256403158292286	-0.8312507911210859	-1.683731145553196	-2.044198132494253	-0.8312507911210859	-0.7751388583522891	-2.0384112566832853	-0.8370376669320548	-1.1190453623142176	-0.6378457446360973	1	missed	0.0
164.98833620001096	7.986791600007564	nogo_reward	1.0	165.05774790002033	168.0339845000999	170.5622956000734	2.9762366000795737	166.06516820006073	169.53825250000227	171.5656826000195	1.9688163000391796	1.0240431000711396	1.4788569000083953	n/a	1.0	n/a	1	0	25	3	nogo_reward	1	0	1	0	0	1	0	n/a	n/a	1	1.0	1.0	513.9220122999977	678.9797602000181	679.9871805000585	681.9559968000976	683.4602648	684.4843079000711	n/a	n/a	685.4876949000172	686.9665518000256	2020-03-31 16:23:28.730607	-0.684519589123764	0.0	1.07755989289013	1.07755989289013	1.76207948201389	1.07755989289013	0.684519589123764	1.07755989289013	0.0	1.07755989289013	1.76207948201389	9.77520019485027	-2.4292454973955286	-0.6681406261317555	0.921562015838096	0.26585738790995583	-0.15021805493184415	0.921562015838096	8.742561646800507	-0.8289507682446362	1.600294729150887	0.21601422027338535	0.037407169432954586	1	missed	0.0
173.01199650007766	6.390318699995987	go_reward	1.0	173.08140820008703	174.9341115000425	177.458892500028	1.852703299955465	174.08892130001914	176.43904330010992	178.47169890010264	0.8451902000233531	1.0198491999180987	1.0000279999803752	n/a	1.0	n/a	1	0	26	4	go_reward	1	1	0	1	0	0	0	n/a	n/a	0	1.0	1.0	513.9220122999977	687.0034205000848	688.0109336000169	688.8561238000402	690.3610556001076	691.3809048000257	n/a	n/a	692.3937112001004	693.3937392000807	2020-03-31 16:23:28.730607	-2.71498874564763	1.04333568710298	0.0	0.974621178734633	2.71498874564763	0.0	2.71498874564763	0.0	1.04333568710298	0.0	2.71498874564763	0.0	-4.459714653919394	0.37519506097122446	-0.15599787705203394	0.1629186737544589	0.8026912087018956	-0.15599787705203394	-1.0326385480497622	-1.9065106611347662	2.553203992784627	-0.8615456726167446	1.0807428565359345	1	missed	0.0
179.43675730004907	6.196210899972357	go_reward	1.0	179.50616900005843	181.24787010008004	183.78803180006798	1.7417011000216007	180.52261060010642	182.76400730002206	184.8028296000557	0.7252594999736175	1.0240245000459254	0.8995502999750897	n/a	1.0	n/a	1	0	27	4	go_reward	0	0	1	1	0	0	0	n/a	n/a	1	1.0	1.0	513.9220122999977	693.4281813000562	694.4446229001042	695.1698824000778	696.6860196000198	697.7100441000657	n/a	n/a	698.7248419000534	699.6243922000285	2020-03-31 16:23:28.730607	-2.65946595434669	1.04333568710298	0.0	0.911264505373344	2.65946595434669	0.0	2.65946595434669	0.0	1.04333568710298	0.0	2.65946595434669	10.8527600877404	-4.404191862618455	0.37519506097122446	-0.15599787705203394	0.09956200039316987	0.7471684174009559	-0.15599787705203394	9.820121539690637	-1.9065106611347662	2.497681201483687	-0.8615456726167446	1.0807428565359345	1	missed	0.0
185.66936480009463	6.819721499923617	go_punish	1.0	185.738776500104	187.79136940010358	190.30878840002697	2.0525928999995813	186.75322440010495	189.28356750006787	191.30915360001381	1.0381449999986216	1.0252208999590948	1.249344400013797	n/a	1.0	n/a	1	0	28	2	go_punish	1	0	-1	1	0	0	0	n/a	n/a	-1	1.0	1.0	513.9220122999977	699.6607888001017	700.6752367001027	701.7133817001013	703.2055798000656	704.2308007000247	n/a	n/a	705.2311659000115	706.4805103000253	2020-03-31 16:23:28.730607	-0.607835322321021	-0.240410988875143	-0.675252914069052	-0.816018937168227	-0.0674175917480304	-0.675252914069052	0.607835322321021	-0.675252914069052	-0.240410988875143	-0.675252914069052	-0.0674175917480304	-4.105987663451038	-2.3525612305927854	-0.9085516150068985	-0.8312507911210859	-1.6277214421484012	-1.9797151286937646	-0.8312507911210859	-5.1386262115008	-2.5817635752038184	-0.22920234461103328	-1.5367985866857965	-0.20300381944218843	1	missed	0.0
192.52529170003254	5.872584299999289	go_punish	1.0	192.5947034000419	194.01107860007323	196.54267110000364	1.4163752000313252	193.5981077000033	195.51918930001557	197.55208730010781	0.4129709000699222	1.023481799988076	0.9152003999333829	n/a	1.0	n/a	1	0	29	2	go_punish	1	0	-1	1	0	0	0	n/a	n/a	-1	1.0	1.0	513.9220122999977	706.5167157000396	707.520120000001	707.933090900071	709.4412016000133	710.4646834000014	n/a	n/a	711.4740996001055	712.3893000000389	2020-03-31 16:23:28.730607	-0.652619544219432	-0.240410988875143	-0.889117341395352	-1.02179768837501	-0.236497797175919	-0.889117341395352	0.652619544219432	-0.889117341395352	-0.240410988875143	-0.889117341395352	-0.236497797175919	-3.8921232361247378	-2.3973454524911966	-0.9085516150068985	-1.045115218447386	-1.8335001933551842	-2.1487953341216532	-1.045115218447386	-4.9247617841745	-2.795628002530118	-0.3982825500389219	-1.7506630140120967	-0.20300381944218843	1	missed	0.0
198.43164670001715	6.353047400014475	go_reward	0.2154815999092534	198.50105840002652	200.29420380003285	202.86149030004162	1.793145400006324	199.5088262000354	201.8375191000523	203.8702545000706	0.7853775999974459	1.0239711999893188	0.9838512999704108	n/a	1.0	n/a	1	0	30	4	go_reward	1	1	0	1	1	1	0	n/a	n/a	1	0.2154815999092534	1.0	513.9220122999977	712.4230707000243	713.4308385000331	714.2162161000306	715.75953140005	716.7835026000394	n/a	n/a	717.7922668000683	718.7761181000387	2020-03-31 16:23:28.730607	2.52244064274075	1.04333568710298	0.597741653029775	1.45052653110019	3.12018229577052	0.597741653029775	-2.52244064274075	1.04333568710298	0.597741653029775	3.12018229577052	0.597741653029775	9.80942440063742	0.7777147344689854	0.37519506097122446	0.44174377597774106	0.6388240261200159	1.2078847588247856	0.44174377597774106	8.776785852587658	1.2136716346357537	0.43595690016677213	0.18179001448623533	0.6351488224627296	1	missed	0.0
204.8217676000204	6.945261200075038	nogo_punish	0.6004695000592619	204.89117930002976	207.39002410008106	209.93010370002594	2.4988448000513017	205.90300680010114	208.9262392000528	210.92976550001185	1.4870172999799252	1.0038644999731332	0.906675000092946	n/a	1.0	n/a	1	0	31	1	nogo_punish	1	-1	0	0	1	0	0	n/a	n/a	-1	0.6004695000592619	1.0	513.9220122999977	718.8131916000275	719.8250191000989	721.3120364000788	722.8482515000505	723.8521160000237	n/a	n/a	724.8517778000096	725.7584528001025	2020-03-31 16:23:28.730607	0.0226539700311255	-0.497910678572616	-0.224674936496735	-0.664442404898617	-0.20202096646561	-0.224674936496735	-0.0226539700311255	-0.497910678572616	-0.224674936496735	-0.20202096646561	-0.224674936496735	-4.283329898947474	-1.722071938240639	-1.1660513047043715	-0.3806728135487689	-1.476144909878791	-2.114318503411344	-0.3806728135487689	-5.315968446997236	-2.1085316276003763	-0.38645968935973785	-1.3594563511893607	-0.18726776706378043	1	missed	0.0
211.8016127999872	6.410256000002846	go_punish	0.4248082999838516	211.87102449999657	213.37787800002843	215.91536800004542	1.5068535000318661	212.87791730009485	214.8989264999982	216.92871490004472	0.49996069993358105	1.0164415000472218	1.352565599954687	n/a	1.0	n/a	1	0	32	2	go_punish	1	0	-1	1	1	1	0	n/a	n/a	0	0.4248082999838516	1.0	513.9220122999977	725.7930367999943	726.7999296000926	727.2998903000262	728.8209387999959	729.8373803000432	n/a	n/a	730.8507272000425	732.2032927999971	2020-03-31 16:23:28.730607	0.694830286587359	-0.240410988875143	-1.08925467924411	-1.21439490443453	-0.394424392656749	-1.08925467924411	-0.694830286587359	-0.240410988875143	-1.08925467924411	-0.394424392656749	-1.08925467924411	0.240410988875143	-1.0498956216844055	-0.9085516150068985	-1.245252556296144	-2.026097409414704	-2.3067219296024835	-1.245252556296144	-0.7922275591746192	-2.300935053791515	-1.2510394321071128	-1.1019566614918876	-1.0518475098111555	1	missed	0.0
218.24702400004026	7.273051199968904	go_punish	0.2434657000703737	218.31643570004962	220.75211550004315	223.2735066000605	2.4356797999935225	219.32305380003527	222.2707162000006	224.27693920000456	1.4290617000078782	1.0027904000598937	1.3125477000139654	n/a	1.0	n/a	1	0	33	2	go_punish	1	0	-1	1	1	1	0	n/a	n/a	0	0.2434657000703737	1.0	513.9220122999977	732.2384480000474	733.245066100033	734.6741278000409	736.1927284999983	737.1955189000582	n/a	n/a	738.1989515000023	739.5114992000163	2020-03-31 16:23:28.730607	0.775655789148231	-0.224674936496735	-1.08925467924411	-1.13732071068401	-0.313598890095877	-1.08925467924411	-0.775655789148231	-0.224674936496735	-1.08925467924411	-0.313598890095877	-1.08925467924411	0.224674936496735	-0.9690701191235336	-0.8928155626284905	-1.245252556296144	-1.9490232156641842	-2.225896427041611	-1.245252556296144	-0.8079636115530272	-2.2201095512306432	-1.2510394321071128	-1.0862206091134796	-1.0518475098111555	1	missed	0.0
225.5549069000408	7.075520599959418	nogo_punish	1.0	225.62431860005017	228.39661860000342	230.9146633000346	2.7722999999532476	226.63085290009622	229.9009710000828	231.92484680004418	1.765765699907206	1.0136922999517992	0.7749923999654129	n/a	1.0	n/a	1	0	34	1	nogo_punish	0	0	-1	0	0	1	0	n/a	n/a	-1	1.0	1.0	513.9220122999977	739.5463309000479	740.552865200094	742.3186309000012	743.8229833000805	744.8366756000323	n/a	n/a	745.8468591000419	746.6218515000073	2020-03-31 16:23:28.730607	0.378471276950599	-0.722585615069351	-0.224674936496735	-0.879087690546934	-0.603146213447334	-0.224674936496735	-0.378471276950599	-0.224674936496735	-0.722585615069351	-0.224674936496735	-0.603146213447334	-4.556565641023355	-1.3662546313211656	-1.3907262412011065	-0.3806728135487689	-1.690790195527108	-2.515443750393068	-0.3806728135487689	-5.589204189073118	-2.131185597631501	-0.7649309663103369	-1.0862206091134796	-0.6851784456363964	1	missed	0.0
232.67139010003302	6.970355299999937	nogo_reward	0.2630631000502035	232.7408018000424	235.09981340006925	237.65181970002595	2.359011600026861	233.7505118000554	236.63131690002047	238.66407940001227	1.3493016000138596	1.020502800005488	1.0470777000300586	n/a	1.0	n/a	1	0	35	3	nogo_reward	1	0	1	0	1	0	0	n/a	n/a	0	0.2630631000502035	1.0	513.9220122999977	746.6628141000401	747.6725241000531	749.021825700067	750.5533292000182	751.5738320000237	n/a	n/a	752.58609170001	753.6331694000401	2020-03-31 16:23:28.730607	0.607223353409175	0.0	1.60392175064266	1.60392175064266	2.21114510405183	1.60392175064266	-0.607223353409175	0.0	1.60392175064266	2.21114510405183	1.60392175064266	0.0	-1.1375025548625897	-0.6681406261317555	1.447923873590626	0.7922192456624858	0.2988475671060957	1.447923873590626	-1.0326385480497622	0.30463444291706376	1.4421369977796572	-0.8615456726167446	1.6413289200756145	1	missed	0.0
239.6824492000742	6.6940821999451146	nogo_reward	0.3639622000046074	239.75186090008356	241.61765160004143	244.15722090005875	1.86579069995787	240.7615390000865	243.14854950003792	245.1711679000873	0.8561125999549404	1.0086714000208303	1.2747751999413595	n/a	1.0	n/a	1	0	36	3	nogo_reward	1	0	1	0	1	0	0	n/a	n/a	0	0.3639622000046074	1.0	513.9220122999977	753.6738732000813	754.6835513000842	755.5396639000392	757.0705618000356	758.0792332000565	n/a	n/a	759.093180200085	760.3679554000264	2020-03-31 16:23:28.730607	0.51386301522783	0.0	1.60392175064266	1.4977547141376	2.11778476587049	1.60392175064266	-0.51386301522783	0.0	1.60392175064266	2.11778476587049	1.60392175064266	0.0	-1.2308628930439345	-0.6681406261317555	1.447923873590626	0.6860522091574258	0.2054872289247558	1.447923873590626	-1.0326385480497622	0.21127410473572383	1.4421369977796572	-0.8615456726167446	1.6413289200756145	1	missed	0.0
246.41494690009858	6.386159999994561	go_reward	0.3641174000222236	246.48435860010795	247.85643929999787	250.39253530011047	1.3720806998899207	247.49690250004642	249.36886630009394	251.39287160011008	0.3595367999514565	1.0236690000165254	1.4776469999924302	n/a	1.0	n/a	1	0	37	4	go_reward	1	1	0	1	1	1	0	n/a	n/a	1	0.3641174000222236	1.0	513.9220122999977	760.4063709001057	761.4189148000441	761.7784515999956	763.2908786000917	764.3145476001082	n/a	n/a	765.3148839001078	766.7925309001002	2020-03-31 16:23:28.730607	3.48053146373556	1.57236283176441	0.597741653029775	1.95384958531413	4.07827311676534	0.597741653029775	-3.48053146373556	1.57236283176441	0.597741653029775	4.07827311676534	0.597741653029775	9.28039725597599	1.7358055554637957	0.9042222056326545	0.44174377597774106	1.142147080333956	2.1659755798196056	0.44174377597774106	8.247758707926227	2.1717624556305735	0.43595690016677213	0.7108171591476654	0.6351488224627296	1	missed	0.0
252.83666230004746	5.834055199986324	go_reward	0.4243480999721214	252.90607400005683	254.25423400010914	256.80652380001266	1.348160000052303	253.92096960009076	255.7857850000728	257.8092599000083	0.3332644000183791	1.0207387999398634	0.9308693000348285	n/a	1.0	n/a	1	0	38	4	go_reward	0	0	1	1	1	1	0	n/a	n/a	0	0.4243480999721214	1.0	513.9220122999977	766.8280863000546	767.8429819000885	768.1762463001069	769.7077973000705	770.7285361000104	n/a	n/a	771.7312722000061	772.6621415000409	2020-03-31 16:23:28.730607	4.37451833469727	2.06636389959323	0.597741653029775	2.4240730690462	4.97225998772705	0.597741653029775	-4.37451833469727	2.06636389959323	0.597741653029775	4.97225998772705	0.597741653029775	-2.06636389959323	2.6297924264255057	1.3982232734614746	0.44174377597774106	1.6123705640660257	3.0599624507813155	0.44174377597774106	-3.0990024476429925	3.0657493265922833	0.43595690016677213	1.2048182269764856	0.6351488224627296	1	missed	0.0
258.705551900086	6.323261799989268	go_reward	0.3034902999643236	258.77496360009536	260.32407530001365	262.870793600101	1.549111699918285	259.7722613000078	261.84709809999913	263.8801779000787	0.5518140000058338	1.0236955001018941	1.2180475000059232	n/a	1.0	n/a	1	0	39	4	go_reward	1	1	0	1	1	1	1	n/a	n/a	1	0.3034902999643236	1.0	513.9220122999977	772.6969759000931	773.6942736000055	774.2460876000114	775.7691103999969	776.7928059000988	n/a	n/a	777.8021902000764	779.0202377000824	2020-03-31 16:23:28.730607	4.09989954310671	1.93034477096054	0.597741653029775	2.26603616674387	4.69764119613649	0.597741653029775	-4.09989954310671	1.93034477096054	0.597741653029775	4.69764119613649	0.597741653029775	8.92241531677986	2.3551736348349452	1.2622041448287844	0.44174377597774106	1.454333661763696	2.785343659190756	0.44174377597774106	7.889776768730098	2.7911305350017237	0.43595690016677213	1.0687990983437952	0.6351488224627296	1	missed	0.0
265.0721720000729	6.341530399979092	nogo_reward	0.412364499992691	265.14158370008226	266.4302164000692	268.9814245000016	1.2886326999869198	266.14913100004196	267.96124920004513	270.0001648000907	0.28108540002722293	1.0201752999564633	1.4829492999706417	n/a	1.0	n/a	1	0	40	3	nogo_reward	1	0	1	0	1	0	0	n/a	n/a	0	0.412364499992691	1.0	513.9220122999977	779.06359600008	780.0711433000397	780.3522287000669	781.8832615000429	782.9034367999993	n/a	n/a	783.9221771000884	785.4051264000591	2020-03-31 16:23:28.730607	0.428032954828664	0.0	1.60392175064266	1.39990773819511	2.03195470547132	1.60392175064266	-0.428032954828664	0.0	1.60392175064266	2.03195470547132	1.60392175064266	0.0	-1.3166929534431007	-0.6681406261317555	1.447923873590626	0.5882052332149358	0.11965716852558561	1.447923873590626	-1.0326385480497622	0.12544404433655365	1.4421369977796572	-0.8615456726167446	1.6413289200756145	1	missed	0.0
271.4527910000179	6.7465008000144735	nogo_reward	0.2698891999898478	271.52220270002726	273.4957352000056	276.0475392000517	1.9735324999783188	272.5342528000474	275.0236934000859	277.0562321000034	0.9614823999581859	1.023845799965784	1.2124714000383392	n/a	1.0	n/a	1	0	41	3	nogo_reward	0	1	0	0	1	0	0	n/a	n/a	1	0.2698891999898478	1.0	513.9220122999977	785.444215000025	786.4562651000451	787.4177475000033	788.9457057000836	789.9695515000494	n/a	n/a	790.9782444000011	792.1907158000395	2020-03-31 16:23:28.730607	0.349035562882582	0.0	1.60392175064266	1.30963035640913	1.95295731352524	1.60392175064266	-0.349035562882582	0.0	1.60392175064266	1.95295731352524	1.60392175064266	10.8527600877404	-1.3956903453891827	-0.6681406261317555	1.447923873590626	0.4979278514289559	0.04065977657950581	1.447923873590626	9.820121539690637	0.04644665239047385	1.4421369977796572	-0.8615456726167446	1.6413289200756145	1	missed	0.0
278.23565150005743	6.596077400026843	go_reward	0.3315499000018462	278.3050632000668	280.12199940008577	282.6578911000397	1.8169362000189722	279.30866560002323	281.6325820001075	283.6651554000564	0.8133338000625372	1.0253090999322012	1.2359852000372484	n/a	1.0	n/a	1	0	42	4	go_reward	1	1	0	1	1	1	0	n/a	n/a	1	0.3315499000018462	1.0	513.9220122999977	792.2270755000645	793.230677900021	794.0440117000835	795.5545943001052	796.5799034000374	n/a	n/a	797.5871677000541	798.8231529000914	2020-03-31 16:23:28.730607	4.95649321867635	2.40267194173689	0.597741653029775	2.71795499634746	5.55423487170612	0.597741653029775	-4.95649321867635	2.40267194173689	0.597741653029775	5.55423487170612	0.597741653029775	8.450088146003509	3.2117673104045856	1.7345313156051345	0.44174377597774106	1.9062524913672858	3.6419373347603856	0.44174377597774106	7.4174495979537465	3.6477242105713534	0.43595690016677213	1.5411262691201455	0.6351488224627296	1	missed	0.0
284.8723839999875	7.879759900039062	nogo_reward	0.273650599992834	284.9417956999969	287.7838463000953	290.3230305000907	2.842050600098446	285.9521139001008	289.30345700006	291.32793160004076	1.8317323999945074	1.019573500030674	1.4936239999951795	n/a	1.0	n/a	1	0	43	3	nogo_reward	1	0	1	0	1	0	1	n/a	n/a	0	0.273650599992834	1.0	513.9220122999977	798.8638079999946	799.8741262000985	801.705858600093	803.2254693000577	804.2450428000884	n/a	n/a	805.2499439000385	806.7435679000337	2020-03-31 16:23:28.730607	1.38582916327367	0.597741653029775	1.60392175064266	1.82399016273395	2.98975091391633	1.60392175064266	-1.38582916327367	0.597741653029775	1.60392175064266	2.98975091391633	1.60392175064266	-0.597741653029775	-0.35889674499809465	-0.07039897310198051	1.447923873590626	1.012287657753776	1.0774533769705958	1.447923873590626	-1.6303802010795372	1.0832402527815639	1.4421369977796572	-0.26380401958696964	1.6413289200756145	1	missed	0.0
292.78700340003707	6.416826599976048	nogo_punish	1.0	292.85641510004643	294.69604640000034	297.23055940004997	1.8396312999539077	293.86159530002624	296.21091960009653	298.24349270004313	0.8344510999741033	1.0196397999534383	1.029748999979347	n/a	1.0	n/a	1	0	44	1	nogo_punish	1	-1	0	0	0	1	0	n/a	n/a	0	1.0	1.0	513.9220122999977	806.7784274000442	807.783607600024	808.6180586999981	810.1329319000943	811.1525717000477	n/a	n/a	812.1655050000409	813.1952540000202	2020-03-31 16:23:28.730607	0.300256428903171	-0.722585615069351	-0.467666678394646	-1.07994089854575	-0.767923107297817	-0.467666678394646	-0.300256428903171	-0.467666678394646	-0.722585615069351	-0.467666678394646	-0.767923107297817	0.467666678394646	-1.4444694793685935	-1.3907262412011065	-0.62366455544668	-1.891643403525924	-2.680220644243551	-0.62366455544668	-0.5649718696551163	-2.374177339529412	-0.9297078601608199	-1.3292123510113907	-0.6851784456363964	1	missed	0.0
299.2435582000762	6.003877399954945	nogo_reward	0.3258477000053972	299.3129699000856	300.79690020007547	303.3511936001014	1.4839302999898791	300.32522920006886	302.3315100000473	304.35345650010277	0.47167100000660866	1.0196836000541225	0.9633907999377698	n/a	1.0	n/a	1	0	45	3	nogo_reward	1	0	1	0	1	0	1	n/a	n/a	0	0.3258477000053972	1.0	513.9220122999977	813.2349822000833	814.2472415000666	814.7189125000732	816.253522300045	817.2732059000991	n/a	n/a	818.2754688001005	819.2388596000383	2020-03-31 16:23:28.730607	1.24265284781063	0.557357741190113	1.60392175064266	1.70651360437486	2.84657459845328	1.60392175064266	-1.24265284781063	0.557357741190113	1.60392175064266	2.84657459845328	1.60392175064266	-0.557357741190113	-0.5020730604611345	-0.11078288494164246	1.447923873590626	0.894811099394686	0.934277061507546	1.447923873590626	-1.5899962892398753	0.940063937318514	1.4421369977796572	-0.3041879314266316	1.6413289200756145	1	missed	0.0
305.2880809000926	6.278612799942493	go_punish	0.2869037999771535	305.357492600102	307.2636329000816	309.8238811000483	1.9061402999795973	306.36736310005654	308.80230760003906	310.8273463000078	0.8962698000250384	1.0215735000092536	0.8087591000366956	n/a	1.0	n/a	1	0	46	2	go_punish	0	-1	0	1	1	1	0	n/a	n/a	-1	0.2869037999771535	1.0	513.9220122999977	819.2795049000997	820.2893754000543	821.1856452000793	822.7243199000368	823.745893400046	n/a	n/a	824.7493586000055	825.5581177000422	2020-03-31 16:23:28.730607	0.850183490965613	-0.210166988697173	-1.08925467924411	-1.06608308171864	-0.239071188278494	-1.08925467924411	-0.850183490965613	-0.210166988697173	-1.08925467924411	-0.239071188278494	-1.08925467924411	-4.571073588822917	-0.8945424173061516	-0.8783076148289285	-1.245252556296144	-1.8777855866988142	-2.1513687252242284	-1.245252556296144	-5.603712136872679	-2.14558184941326	-1.2510394321071128	-1.0717126613139176	-1.0518475098111555	1	missed	0.0
311.60143800009973	6.268398199928924	go_reward	0.4104163999436423	311.6708497001091	313.1561426999979	315.6915560000343	1.4852929998887703	312.6870392001001	314.6763885000255	316.69608000002336	0.4691034998977557	1.015167500008829	1.2431679000146687	n/a	1.0	n/a	1	0	47	4	go_reward	1	1	0	1	1	1	0	n/a	n/a	1	0.4104163999436423	1.0	513.9220122999977	825.5928620001068	826.6090515000978	827.0781549999956	828.5984008000232	829.6135683000321	n/a	n/a	830.6180923000211	831.8612602000358	2020-03-31 16:23:28.730607	5.75672162653298	2.84426789029368	0.597741653029775	3.1406161911742	6.35446327956276	0.597741653029775	-5.75672162653298	2.84426789029368	0.597741653029775	6.35446327956276	0.597741653029775	8.00849219744672	4.011995718261216	2.1761272641619245	0.44174377597774106	2.328913686194026	4.442165742617025	0.44174377597774106	6.975853649396958	4.447952618427993	0.43595690016677213	1.9827222176769355	0.6351488224627296	1	missed	0.0
317.9115741000278	6.436714600073174	nogo_reward	0.3092259999830276	317.98098580003716	319.6524263001047	322.1814901001053	1.671440500067547	318.9901030000765	321.16825270000845	323.1852393000154	0.6623233000282198	1.0132374000968412	1.2324611000949517	n/a	1.0	n/a	1	0	48	3	nogo_reward	1	0	1	0	1	0	0	n/a	n/a	0	0.3092259999830276	1.0	513.9220122999977	831.9029981000349	832.9121153000742	833.5744386001024	835.0902650000062	836.103502400103	n/a	n/a	837.1072516000131	838.3397127001081	2020-03-31 16:23:28.730607	1.11078258907359	0.520202151700012	1.60392175064266	1.59800837113342	2.71470433971625	1.60392175064266	-1.11078258907359	0.520202151700012	1.60392175064266	2.71470433971625	1.60392175064266	-0.520202151700012	-0.6339433191981745	-0.14793847443174346	1.447923873590626	0.7863058661532459	0.8024068027705158	1.447923873590626	-1.5528406997497743	0.8081936785814838	1.4421369977796572	-0.3413435209167326	1.6413289200756145	1	missed	0.0
324.38855560007505	6.210610499954782	go_punish	1.0	324.4579673000844	325.78784220002126	328.3158339000074	1.32987489993684	325.4693319000071	327.2926697001094	329.3145002000965	0.318510300014168	1.0231641998980194	1.3540775999426842	n/a	1.0	n/a	1	0	49	2	go_punish	1	0	-1	1	0	0	0	n/a	n/a	-1	1.0	1.0	513.9220122999977	838.3799796000822	839.3913442000048	839.709854500019	841.2146820001071	842.2378462000052	n/a	n/a	843.2365125000942	844.5905901000369	2020-03-31 16:23:28.730607	-0.448741808765052	-0.454275416201443	-1.08925467924411	-1.25766766009586	-0.640512870479055	-1.08925467924411	0.448741808765052	-1.08925467924411	-0.454275416201443	-1.08925467924411	-0.640512870479055	-3.6919858982759797	-2.1934677170368166	-1.1224160423331986	-1.245252556296144	-2.0693701650760343	-2.552810407424789	-1.245252556296144	-4.724624446325742	-2.995765340378876	-0.8022976233420579	-1.9508003518608548	-0.41686824676848844	1	missed	0.0
330.6346327000065	7.239657100057229	go_reward	0.2885511999484151	330.70404440001585	333.47408870002255	336.0355922000017	2.7700443000067025	331.71040980005637	335.0110717000207	337.04387730010785	1.7636788999661803	1.0245204999810085	0.8998241999652237	n/a	1.0	n/a	1	0	50	4	go_reward	1	1	0	1	1	1	0	n/a	n/a	1	0.2885511999484151	1.0	513.9220122999977	844.6260567000136	845.6324221000541	847.3961010000203	848.9330840000184	849.9576044999994	n/a	n/a	850.9658896001056	851.8657138000708	2020-03-31 16:23:28.730607	6.50498700762514	3.25750546035587	0.597741653029775	3.5362697147327	7.10272866065492	0.597741653029775	-6.50498700762514	3.25750546035587	0.597741653029775	7.10272866065492	0.597741653029775	7.59525462738453	4.760261099353376	2.5893648342241145	0.44174377597774106	2.724567209752526	5.190431123709185	0.44174377597774106	6.562616079334767	5.196217999520154	0.43595690016677213	2.3959597877391254	0.6351488224627296	1	missed	0.0
337.91034480009694	5.875851199962199	go_reward	0.3436656999401748	337.9797565001063	339.4321403000504	341.9781405000249	1.452383799944073	338.990171500016	340.96398720005527	342.98720410000533	0.441968800034374	1.014153299969621	0.868403600063175	n/a	1.0	n/a	1	0	51	4	go_reward	1	1	0	1	1	1	0	n/a	n/a	1	0.3436656999401748	1.0	513.9220122999977	851.901768800104	852.9121838000137	853.3541526000481	854.885999500053	855.9001528000226	n/a	n/a	856.9092164000031	857.7776200000662	2020-03-31 16:23:28.730607	7.20529507751719	3.64454612099922	0.597741653029775	3.90696574043409	7.80303673054697	0.597741653029775	-7.20529507751719	3.64454612099922	0.597741653029775	7.80303673054697	0.597741653029775	7.20821396674118	5.460569169245425	2.9764054948674645	0.44174377597774106	3.095263235453916	5.890739193601236	0.44174377597774106	6.175575418691418	5.896526069412204	0.43595690016677213	2.7830004483824755	0.6351488224627296	1	missed	0.0
343.82935900008306	6.120053199934773	nogo_reward	0.2497308999300003	343.8987707000924	345.29883260000497	347.8498798001092	1.4000618999125436	344.9069620000664	346.83011790004093	348.8628391000675	0.39187059993855655	1.0197619000682607	1.1559847999596968	n/a	1.0	n/a	1	0	52	3	nogo_reward	1	0	1	0	1	0	0	n/a	n/a	0	0.2497308999300003	1.0	513.9220122999977	857.8207830000902	858.8289743000641	859.2208449000027	860.7521302000387	861.7718921001069	n/a	n/a	862.7848514000652	863.9408362000249	2020-03-31 16:23:28.730607	0.989191244813078	0.485977945912868	1.60392175064266	1.49768482043342	2.59311299545573	1.60392175064266	-0.989191244813078	0.485977945912868	1.60392175064266	2.59311299545573	1.60392175064266	-0.485977945912868	-0.7555346634586866	-0.18216268021888748	1.447923873590626	0.685982315453246	0.6808154585099957	1.447923873590626	-1.51861649396263	0.6866023343209637	1.4421369977796572	-0.3755677267038766	1.6413289200756145	1	missed	0.0
349.98777740006335	6.0104814999504015	go_reward	0.3645024000434205	350.0571891000727	351.4191788000753	353.95809840003494	1.3619897000025958	351.0693813000107	352.9348473000573	354.9585203001043	0.34979750006459653	1.0232510999776423	1.1091502999188378	n/a	1.0	n/a	1	0	53	4	go_reward	1	1	0	1	1	1	1	n/a	n/a	1	0.3645024000434205	1.0	513.9220122999977	863.9792014000705	864.9913936000085	865.341191100073	866.856859600055	867.8801107000327	n/a	n/a	868.880532600102	869.9896829000209	2020-03-31 16:23:28.730607	7.86129540544285	4.00736126608329	0.597741653029775	4.25457473356853	8.45903705847263	0.597741653029775	-7.86129540544285	4.00736126608329	0.597741653029775	8.45903705847263	0.597741653029775	6.84539882165711	6.116569497171086	3.3392206399515345	0.44174377597774106	3.442872228588356	6.546739521526895	0.44174377597774106	5.812760273607347	6.552526397337863	0.43595690016677213	3.1458155934665455	0.6351488224627296	1	missed	0.0
356.03747400001157	6.275662400061265	nogo_reward	0.269022100022994	356.10688570002094	357.8895531001035	360.4202720000176	1.7826674000825733	357.10775240010116	359.3951564000454	361.42017590010073	0.7818007000023499	1.025115599972196	0.9623721999814734	n/a	1.0	n/a	1	0	54	3	nogo_reward	0	1	0	0	1	0	1	n/a	n/a	1	0.269022100022994	1.0	513.9220122999977	870.0288980000187	871.0297647000989	871.8115654001012	873.3171687000431	874.3422843000153	n/a	n/a	875.3421882000985	876.3045604000799	2020-03-31 16:23:28.730607	0.876956914367205	0.454419027034621	1.60392175064266	1.40483181394404	2.48087866500986	1.60392175064266	-0.876956914367205	0.454419027034621	1.60392175064266	2.48087866500986	1.60392175064266	10.398341060705778	-0.8677689939045595	-0.2137215990971345	1.447923873590626	0.593129308963866	0.568581128064126	1.447923873590626	9.365702512656016	0.574368003875094	1.4421369977796572	-0.40712664558212364	1.6413289200756145	1	missed	0.0
362.35706010006834	6.2575722999172285	nogo_reward	0.3283195000840351	362.4264718000777	363.98034570005257	366.5384718000423	1.5538738999748603	363.43318040005397	365.5170244000619	367.55026270006783	0.5471652999985963	1.0214473999803886	1.133781399927102	n/a	1.0	n/a	1	0	55	3	nogo_reward	1	0	1	0	1	0	0	n/a	n/a	0	0.3283195000840351	1.0	513.9220122999977	876.3484841000754	877.3551927000517	877.9023580000503	879.4390367000597	880.46048410004	n/a	n/a	881.4722750000656	882.6060563999927	2020-03-31 16:23:28.730607	1.88283406422382	1.02302821249025	1.60392175064266	1.91654966173882	3.48675581486647	1.60392175064266	-1.88283406422382	1.02302821249025	1.60392175064266	3.48675581486647	1.60392175064266	-1.02302821249025	0.1381081559520554	0.3548875863584946	1.447923873590626	1.104847156758646	1.5744582779207357	1.447923873590626	-2.0556667605400123	1.5802451537317037	1.4421369977796572	0.16148253987350547	1.6413289200756145	1	missed	0.0
368.6528391999891	6.4286025000037625	nogo_reward	0.3037941000657156	368.72225089999847	370.72592880006414	373.2618099000538	2.003677900065668	369.7263268000679	372.23785340006	374.2764642999973	0.99960199999623	1.0239564999938011	0.8743891000049189	n/a	1.0	n/a	1	0	56	3	nogo_reward	0	1	0	0	1	0	1	n/a	n/a	1	0.3037941000657156	1.0	513.9220122999977	882.6442631999962	883.6483391000656	884.6479411000619	886.1598657000577	887.1838222000515	n/a	n/a	888.198476599995	889.0728657	2020-03-31 16:23:28.730607	1.71087632123408	0.955723592225905	1.60392175064266	1.79639196173986	3.31479807187673	1.60392175064266	-1.71087632123408	0.955723592225905	1.60392175064266	3.31479807187673	1.60392175064266	9.897036495514495	-0.03384958703768448	0.28758296609414946	1.447923873590626	0.9846894567596859	1.4025005349309958	1.447923873590626	8.864397947464733	1.4082874107419638	1.4421369977796572	0.09417791960916033	1.6413289200756145	1	missed	0.0
375.1178516000509	6.400097799953073	nogo_punish	1.0	375.1872633000603	376.7544467000989	379.2870893001091	1.5671834000386298	376.19056500005536	378.2694352000253	380.3059447000269	0.5638817000435665	1.017654100083746	1.2814163999864832	n/a	1.0	n/a	1	0	57	1	nogo_punish	1	-1	0	0	0	1	0	n/a	n/a	0	1.0	1.0	513.9220122999977	889.109275600058	890.1125773000531	890.6764590000967	892.1914475000231	893.2091016001068	n/a	n/a	894.2279570000246	895.5093734000111	2020-03-31 16:23:28.730607	0.272019168262387	-0.722585615069351	-0.437186715379114	-1.01056012795665	-0.709205883641501	-0.437186715379114	-0.272019168262387	-0.437186715379114	-0.722585615069351	-0.437186715379114	-0.709205883641501	0.437186715379114	-1.4727067400093776	-1.3907262412011065	-0.593184592431148	-1.8222626329368241	-2.621503420587235	-0.593184592431148	-0.5954518326706482	-2.34369737651388	-0.8709906365045038	-1.2987323879958588	-0.6851784456363964	1	missed	0.0
381.5583267000038	6.557921200059468	go_reward	0.3190738999983296	381.6277384000132	383.4037284000078	385.9644044000888	1.7759899999946356	382.63828549999744	384.9407357000746	386.97338370000944	0.7654429000103846	1.023668700014241	1.2122759000632186	n/a	1.0	n/a	1	0	58	4	go_reward	1	1	0	1	1	1	0	n/a	n/a	1	0.3190738999983296	1.0	513.9220122999977	895.5497507000109	896.5602977999952	897.3257407000056	898.8627480000723	899.8864167000866	n/a	n/a	900.8953960000072	902.1076719000704	2020-03-31 16:23:28.730607	8.47631719805972	4.34775111333404	0.597741653029775	4.5808052745087	9.0740588510895	0.597741653029775	-8.47631719805972	4.34775111333404	0.597741653029775	9.0740588510895	0.597741653029775	6.50500897440636	6.731591289787955	3.679610487202284	0.44174377597774106	3.769102769528526	7.1617613141437655	0.44174377597774106	5.472370426356598	7.167548189954734	0.43595690016677213	3.486205440717295	0.6351488224627296	1	missed	0.0
388.1586666000077	6.6111302999778445	nogo_reward	0.2715198999503627	388.22807830001705	389.7991205001017	392.32648200006224	1.571042200084662	389.24166790000163	391.3054058999986	393.3396179000847	0.5574526001000777	1.021076100063624	1.4995906999101862	n/a	1.0	n/a	1	0	59	3	nogo_reward	1	0	1	0	1	0	0	n/a	n/a	0	0.2715198999503627	1.0	513.9220122999977	902.1500906000148	903.1636801999994	903.7211328000994	905.2274181999964	906.24849430006	n/a	n/a	907.2616302000824	908.7612208999926	2020-03-31 16:23:28.730607	2.66177391159929	1.49140743636355	1.60392175064266	2.2829305180737	4.26569566224195	1.60392175064266	-2.66177391159929	1.49140743636355	1.60392175064266	4.26569566224195	1.60392175064266	-1.49140743636355	0.9170480033275255	0.8232668102317946	1.447923873590626	1.4712280130935258	2.353398125296216	1.447923873590626	-2.5240459844133123	2.3591850011071838	1.4421369977796572	0.6298617637468055	1.6413289200756145	1	missed	0.0
394.80809599999327	7.488032700028384	go_punish	0.4381197999464348	394.87750770000264	397.62455609999586	400.1655843000626	2.7470483999932185	395.8898543000687	399.15456660010386	401.17857540003024	1.7347017999271657	1.0110176999587566	1.1869650000007823	n/a	1.0	n/a	1	0	60	2	go_punish	1	0	-1	1	1	1	0	n/a	n/a	0	0.4381197999464348	1.0	513.9220122999977	908.7995200000004	909.8118666000664	911.5465683999936	913.0765789001016	914.0875966000604	n/a	n/a	915.100587700028	916.2875527000288	2020-03-31 16:23:28.730607	0.489215799285276	-0.454275416201443	-1.27671662504972	-1.43702373940857	-0.787500825764442	-1.27671662504972	-0.489215799285276	-0.454275416201443	-1.27671662504972	-0.787500825764442	-1.27671662504972	0.454275416201443	-1.2555101089864886	-1.1224160423331986	-1.4327145021017538	-2.2487262443887444	-2.699798362710176	-1.4327145021017538	-0.5783631318483191	-2.694011486899208	-1.438501377912723	-1.3158210888181876	-1.2393094556167654	1	missed	0.0
