onset	duration	trial_type	response_time	cueOnset	targetOnset	fbOnset	cueRT	firstfixOnset	secondfixOnset	waitOnset	firstfixdur	secondfixdur	waitdur	nback_fbOnset	nback_response_time	nback_targetOnset	block	wm	trial	cue	cond	is_common	outcome_go	outcome_nogo	key_correct	key_pressed	is_correct	key_correct_nback	key_pressed_nback	is_correct_nback	outcome	rt	rt_nback	time_scan	time_onset	time_isi1	time_circle	time_isi2	time_feedback	time_same	time_correct	time_iti	time_done	timestamp_scan	DV	Qgo	Qnogo	SV	Wgo	Wnogo	mDV	Qchosen	Qunchosen	Wchosen	Wunchosen	PE	DVC	QgoC	QnogoC	SVC	WgoC	WnogoC	PEC	WchosenC	WunchosenC	QchosenC	QunchosenC	run	outcome_nback	nback_targetResp
0.0	8.557081099948846	go_punish	1.0	0.04599280003435524	1.7511964000293574	4.286220900015678	1.7052035999950022	1.0629007000241018	3.2615148000184035	7.321947699994553	0.6882957000052556	1.0247060999972746	1.2811261999886483	6.308418400003347	1.0	5.300212100031558	2	1	1	2	go_punish	1	0	-1	1	0	0	0	n/a	0.0	-1	1.0	1.0	1469.9326891000385	1469.9786819000728	1470.9955898000626	1471.6838855000678	1473.194203900057	1474.2189100000542	1475.23290120007	1476.2411075000418	1477.254636800033	1478.5357630000217	2020-03-31 16:39:24.731603	-0.84241320755583	0.0	0.0	0.0	0.84241320755583	0.0	0.84241320755583	0.0	0.0	0.0	0.84241320755583	-4.78124057752009	-2.5871391158275947	-0.6681406261317555	-0.15599787705203394	-0.8117025049801742	-1.0698843293899043	-0.15599787705203394	-5.813879125569852	-1.9065106611347662	0.6806284546928272	-0.8615456726167446	0.037407169432954586	3	missed	0.0
8.590773799922317	9.75755930005107	go_reward	0.3036195000167936	8.636766599956673	11.388910799985524	13.933929400052648	2.7521442000288516	9.632889800006296	12.909975799964513	16.979608100023825	1.7560209999792278	1.0239536000881344	1.4147177999839187	15.973391000064794	0.824745999998413	14.937758699990582	2	1	2	4	go_reward	1	1	0	1	1	1	0	0.0	1.0	1	0.3036195000167936	0.824745999998413	1469.9326891000385	1478.5694556999952	1479.5655789000448	1481.321599900024	1482.842664900003	1483.8666185000911	1484.870447800029	1485.9060801001033	1486.9122972000623	1488.3270150000462	2020-03-31 16:39:24.731603	0.84241320755583	0.0	0.0	0.0	0.84241320755583	0.0	-0.84241320755583	0.0	0.0	0.84241320755583	0.0	10.8527600877404	-0.9023127007159345	-0.6681406261317555	-0.15599787705203394	-0.8117025049801742	-1.0698843293899043	-0.15599787705203394	9.820121539690637	-1.064097453578936	-0.16178475286300287	-0.8615456726167446	0.037407169432954586	3	correct	1.0
18.371429699938744	9.185933800064731	go_reward	0.4641950000077486	18.4174224999731	20.97323190001748	23.52897129999451	2.5558094000443816	19.429968400043208	22.505230200011056	26.55481300002407	1.5432634999742731	1.0237410999834538	1.0485433000137618	25.551970000029314	0.5829602000303566	24.534574900055077	2	1	3	4	go_reward	1	1	0	1	1	1	0	0.0	1.0	1	0.4641950000077486	0.5829602000303566	1469.9326891000385	1488.3501116000116	1489.3626575000817	1490.905921000056	1492.4379193000495	1493.461660400033	1494.4672640000936	1495.4846591000678	1496.4875021000626	1497.5360454000763	2020-03-31 16:39:24.731603	1.53455134276694	0.59615315871703	0.0	0.59615315871703	1.53455134276694	0.0	-1.53455134276694	0.59615315871703	0.0	1.53455134276694	0.0	10.25660692902337	-0.2101745655048246	-0.0719874674147255	-0.15599787705203394	-0.21554934626314415	-0.3777461941787943	-0.15599787705203394	9.223968380973607	-0.37195931836782625	-0.16178475286300287	-0.26539251389971463	0.037407169432954586	3	correct	1.0
27.599672199925635	8.702588400104787	go_punish	0.4608012000098824	27.64566499995999	29.622697400045354	32.16511209995929	1.9770324000853634	28.654137799981754	31.144203500007052	35.21385309996526	0.9685596000635996	1.0209085999522358	1.1344003000995144	34.2108736999794	0.5413678000913933	33.1824381999902	2	1	4	2	go_punish	1	0	-1	1	1	1	0	0.0	1.0	0	0.4608012000098824	0.5413678000913933	1469.9326891000385	1497.5783540999985	1498.5868269000202	1499.5553865000838	1501.0768926000455	1502.0978011999978	1503.1151273000287	1504.143562800018	1505.1465422000038	1506.2809425001033	2020-03-31 16:39:24.731603	1.07669167201031	0.0	-0.261786914548733	-0.261786914548733	0.814904757461575	-0.261786914548733	-1.07669167201031	0.0	-0.261786914548733	0.814904757461575	-0.261786914548733	0.0	-0.6680342362614546	-0.6681406261317555	-0.4177847916007669	-1.073489419528907	-1.0973927794841591	-0.4177847916007669	-1.0326385480497622	-1.0916059036731913	-0.42357166741173585	-0.8615456726167446	-0.2243797451157784	3	correct	1.0
36.3241088000359	8.015561099979095	go_reward	0.4388521999353543	36.37010160007026	37.8106595999559	40.356592700001556	1.440557999885641	37.374010400031466	39.34229990001745	43.407650699955184	0.43664919992443174	1.014292799984105	0.9780120000941679	42.39899819996185	0.4299637000076473	41.37551990000043	2	1	5	4	go_reward	1	1	0	1	1	1	1	0.0	0.0	1	0.4388521999353543	0.4299637000076473	1469.9326891000385	1506.3027907001087	1507.30669950007	1507.7433486999944	1509.274989000056	1510.28928180004	1511.308209000039	1512.3316873000003	1513.3403397999937	1514.3183518000878	2020-03-31 16:39:24.731603	2.17265648215438	1.14711182643643	0.0	1.14711182643643	2.17265648215438	0.0	-2.17265648215438	1.14711182643643	0.0	2.17265648215438	0.0	9.70564826130397	0.42793057388261535	0.47897120030467444	-0.15599787705203394	0.3354093214562558	0.26035894520864566	-0.15599787705203394	8.673009713254208	0.2661458210196137	-0.16178475286300287	0.2855661538196853	0.037407169432954586	3	wrong	1.0
44.37256799999159	8.651348999934271	nogo_punish	0.6629751999862492	44.41856080002594	46.23650040000189	48.780958199989755	1.8179395999759436	45.42405969998799	47.75701060006372	51.82647690002318	0.8124407000138945	1.0239475999260321	1.2434328999370337	50.81332670000825	0.7949960998957977	49.78347939997889	2	1	6	1	nogo_punish	1	-1	0	0	1	0	0	0.0	1.0	-1	0.6629751999862492	0.7949960998957977	1469.9326891000385	1514.3512499000644	1515.3567488000265	1516.1691895000404	1517.6896997001022	1518.7136473000282	1519.7161685000174	1520.7460158000467	1521.7591660000617	1523.0025988999987	2020-03-31 16:39:24.731603	0.84241320755583	0.0	0.0	0.0	0.84241320755583	0.0	-0.84241320755583	0.0	0.0	0.84241320755583	0.0	-4.78124057752009	-0.9023127007159345	-0.6681406261317555	-0.15599787705203394	-0.8117025049801742	-1.0698843293899043	-0.15599787705203394	-5.813879125569852	-1.064097453578936	-0.16178475286300287	-0.8615456726167446	0.037407169432954586	3	correct	1.0
53.07540189998667	9.692414699937444	nogo_reward	0.2644901999738067	53.12139470002103	55.86474620003696	58.412699799984466	2.743351500015933	54.13958650000836	57.39222360006511	61.46112860005792	1.7251597000285983	1.020476199919358	1.3526807999005541	60.447610100032534	0.6440432999515906	59.4304569000376	2	1	7	3	nogo_reward	1	0	1	0	1	0	0	0.0	1.0	0	0.2644901999738067	0.6440432999515906	1469.9326891000385	1523.0540838000595	1524.0722756000469	1525.7974353000754	1527.3249127001036	1528.345388900023	1529.363146000076	1530.380299200071	1531.3938177000964	1532.746498499997	2020-03-31 16:39:24.731603	0.84241320755583	0.0	0.0	0.0	0.84241320755583	0.0	-0.84241320755583	0.0	0.0	0.84241320755583	0.0	0.0	-0.9023127007159345	-0.6681406261317555	-0.15599787705203394	-0.8117025049801742	-1.0698843293899043	-0.15599787705203394	-1.0326385480497622	-1.064097453578936	-0.16178475286300287	-0.8615456726167446	0.037407169432954586	3	correct	1.0
62.80960049992427	9.148215700057335	nogo_reward	0.2531395999249071	62.85559329995863	65.6224271999672	68.16456950001862	2.766833900008578	63.864959900034364	67.14400079997722	71.22924210003089	1.7574672999328413	1.0205687000413945	0.774566899985075	70.21642800001382	0.3521541999652982	69.18240080005467	2	1	8	3	nogo_reward	1	0	1	0	1	0	0	1.0	0.0	0	0.2531395999249071	0.3521541999652982	1469.9326891000385	1532.7882823999971	1533.7976490000729	1535.5551163000057	1537.0766899000157	1538.097258600057	1539.1150899000932	1540.1491171000523	1541.1619312000694	1541.9364981000545	2020-03-31 16:39:24.731603	0.84241320755583	0.0	0.0	0.0	0.84241320755583	0.0	-0.84241320755583	0.0	0.0	0.84241320755583	0.0	0.0	-0.9023127007159345	-0.6681406261317555	-0.15599787705203394	-0.8117025049801742	-1.0698843293899043	-0.15599787705203394	-1.0326385480497622	-1.064097453578936	-0.16178475286300287	-0.8615456726167446	0.037407169432954586	3	wrong	1.0
72.00138479995076	9.402376000070717	nogo_reward	0.2397588000167161	72.04737759998511	74.37573760002829	76.92231509997487	2.328360000043176	73.05431969999313	75.911209200043	79.97098129999335	1.3214179000351578	1.011105899931863	1.4787723000624737	78.96846939995862	0.3915440000128001	77.94196850003186	2	1	9	3	nogo_reward	1	0	1	0	1	0	1	1.0	1.0	0	0.2397588000167161	0.3915440000128001	1469.9326891000385	1541.9800667000236	1542.9870088000316	1544.3084267000668	1545.8438983000815	1546.8550042000134	1547.8746576000703	1548.901158499997	1549.9036704000318	1551.3824427000943	2020-03-31 16:39:24.731603	0.84241320755583	0.0	0.0	0.0	0.84241320755583	0.0	-0.84241320755583	0.0	0.0	0.84241320755583	0.0	0.0	-0.9023127007159345	-0.6681406261317555	-0.15599787705203394	-0.8117025049801742	-1.0698843293899043	-0.15599787705203394	-1.0326385480497622	-1.064097453578936	-0.16178475286300287	-0.8615456726167446	0.037407169432954586	3	correct	1.0
81.44424420001451	9.053702099947259	go_punish	1.0	81.49023700004886	83.98523760004878	86.50325169996336	2.495000599999912	82.50075780006568	85.49037270003441	89.55380470003001	1.4844797999830917	1.0128789999289438	0.9901343999661094	88.54140680003889	0.5914832999696955	87.51207669998962	2	1	10	2	go_punish	1	0	-1	1	0	0	0	0.0	1.0	-1	1.0	0.5914832999696955	1469.9326891000385	1551.4229261000874	1552.4334469001042	1553.9179267000873	1555.423061800073	1556.4359408000018	1557.444765800028	1558.4740959000774	1559.4864938000685	1560.4766282000346	2020-03-31 16:39:24.731603	-1.0793412846514	0.0	-0.261786914548733	-0.242131465292784	0.817554370102669	-0.261786914548733	1.0793412846514	-0.261786914548733	0.0	-0.261786914548733	0.817554370102669	-4.519453662971357	-2.8240671929231644	-0.6681406261317555	-0.4177847916007669	-1.0538339702729582	-1.0947431668430654	-0.4177847916007669	-5.55209221102112	-2.168297575683499	0.6557696172396661	-1.1233325871654776	0.037407169432954586	3	correct	1.0
90.52207189996284	8.686439300072152	nogo_punish	0.3017009999603033	90.5680646999972	92.47596619999945	95.0128601000174	1.9079015000022537	91.57008950004797	93.99844830005873	98.05798619997199	0.9058766999514773	1.0144117999586797	1.1965178000973538	97.04497970000352	0.5573079000459984	96.0272287999976	2	1	11	1	nogo_punish	1	-1	0	0	1	0	0	0.0	1.0	-1	0.3017009999603033	0.5573079000459984	1469.9326891000385	1560.5007538000357	1561.5027786000865	1562.408655300038	1563.9311374000972	1564.945549200056	1565.959917900036	1566.977668800042	1567.9906753000105	1569.1871931001078	2020-03-31 16:39:24.731603	0.553117842912842	-0.261786914548733	0.0	-0.261786914548733	0.553117842912842	0.0	-0.553117842912842	-0.261786914548733	0.0	0.553117842912842	0.0	-4.519453662971357	-1.1916080653589225	-0.9299275406804886	-0.15599787705203394	-1.073489419528907	-1.3591796940328922	-0.15599787705203394	-5.55209221102112	-1.3533928182219241	-0.16178475286300287	-1.1233325871654776	0.037407169432954586	3	correct	1.0
99.24902170000132	8.356912599992938	go_punish	0.3984837000025436	99.29501450003568	101.14014310005541	103.69183769996721	1.8451286000197342	100.29613500006963	102.67093210003782	106.75257280003257	0.8440080999857855	1.0209055999293923	0.8993542999960482	105.7417405999729	0.4815747999818995	104.7109579000387	2	1	12	2	go_punish	1	0	-1	1	1	1	1	0.0	0.0	0	0.3984837000025436	0.4815747999818995	1469.9326891000385	1569.2277036000742	1570.228824100108	1571.072832200094	1572.6036212000763	1573.6245268000057	1574.6436470000772	1575.6744297000114	1576.685261900071	1577.584616200067	2020-03-31 16:39:24.731603	1.2962448600643	0.0	-0.503918379841517	-0.486288231087678	0.792326480222781	-0.503918379841517	-1.2962448600643	0.0	-0.503918379841517	0.792326480222781	-0.503918379841517	0.0	-0.4484810482074646	-0.6681406261317555	-0.6599162568935509	-1.2979907360678522	-1.1199710567229533	-0.6599162568935509	-1.0326385480497622	-1.1141841809119852	-0.6657031327045199	-0.8615456726167446	-0.4665112104085624	3	wrong	1.0
107.64818359992933	7.990440400084481	go_punish	0.3269170999992639	107.69417639996368	109.20342879998475	111.73520300001815	1.5092524000210688	108.70289099996421	110.72480089997384	114.77924730000063	0.5005378000205383	1.0104021000443026	0.9053695000475273	113.76629810000281	0.4423369000433013	112.75318470003526	2	1	13	2	go_punish	1	0	-1	1	1	1	0	1.0	0.0	0	0.3269170999992639	0.4423369000433013	1469.9326891000385	1577.6268655000022	1578.6355801000027	1579.1361179000232	1580.6574900000123	1581.6678921000566	1582.6858738000738	1583.6989872000413	1584.7119364000391	1585.6173059000866	2020-03-31 16:39:24.731603	1.30087750903695	0.0	-0.503918379841517	-0.450740893765377	0.796959129195437	-0.503918379841517	-1.30087750903695	0.0	-0.503918379841517	0.796959129195437	-0.503918379841517	0.0	-0.44384839923481456	-0.6681406261317555	-0.6599162568935509	-1.2624433987455512	-1.1153384077502972	-0.6599162568935509	-1.0326385480497622	-1.1095515319393292	-0.6657031327045199	-0.8615456726167446	-0.4665112104085624	3	wrong	1.0
115.6821916999761	8.596434599952545	nogo_reward	0.3826793999178335	115.72818450001046	117.27388110000152	119.82410139997933	1.5456965999910608	116.72527830000013	118.80420809995826	122.8798651000252	0.5486028000013903	1.0198933000210673	1.4447539999378023	121.87646759999893	0.371896700002253	120.84868419996906	2	1	14	3	nogo_reward	1	0	1	0	1	0	0	0.0	1.0	0	0.3826793999178335	0.371896700002253	1469.9326891000385	1585.660873600049	1586.6579674000386	1587.20657020004	1588.7368971999967	1589.7567905000178	1590.7813733000075	1591.8091567000374	1592.8125542000637	1594.2573082000015	2020-03-31 16:39:24.731603	0.84241320755583	0.0	0.0	0.0	0.84241320755583	0.0	-0.84241320755583	0.0	0.0	0.84241320755583	0.0	0.0	-0.9023127007159345	-0.6681406261317555	-0.15599787705203394	-0.8117025049801742	-1.0698843293899043	-0.15599787705203394	-1.0326385480497622	-1.064097453578936	-0.16178475286300287	-0.8615456726167446	0.037407169432954586	3	correct	1.0
124.30604099994525	9.530293900053948	nogo_punish	1.0	124.35203379997961	126.82613329996798	129.3607121000532	2.4740994999883696	125.35054580005794	128.34083120000992	132.42009729996767	1.4755874999100342	1.0198809000432902	1.4622304000658914	131.4068573999682	0.581914099981077	130.3776356000451	2	1	15	1	nogo_punish	1	-1	0	0	0	1	0	0.0	1.0	0	1.0	0.581914099981077	1469.9326891000385	1594.284722900018	1595.2832349000964	1596.7588224000065	1598.2735203000484	1599.2934012000917	1600.3103247000836	1601.3395465000067	1602.3527864000062	1603.815016800072	2020-03-31 16:39:24.731603	-0.286127540166898	-0.503918379841517	0.0	-0.503918379841517	0.286127540166898	0.0	0.286127540166898	0.0	-0.503918379841517	0.0	0.286127540166898	0.0	-2.0308534484386627	-1.1720590059732725	-0.15599787705203394	-1.315620884821691	-1.6261699967788363	-0.15599787705203394	-1.0326385480497622	-1.9065106611347662	0.12434278730389514	-0.8615456726167446	-0.4665112104085624	3	correct	1.0
133.85912389995065	8.306836400064412	go_reward	0.2707753999857232	133.905116699985	135.57974269997771	138.1410238000094	1.6746259999927133	134.91717160004168	137.1168904000658	141.18746200005967	0.6625710999360308	1.0241333999435938	1.0244910999897456	140.17268089996628	0.5626716000260785	139.14589739998314	2	1	16	4	go_reward	1	1	0	1	1	1	0	0.0	1.0	1	0.2707753999857232	0.5626716000260785	1469.9326891000385	1603.8378058000235	1604.8498607000802	1605.5124318000162	1607.0495795001043	1608.073712900048	1609.0785865000216	1610.1053700000048	1611.1201511000982	1612.144642200088	2020-03-31 16:39:24.731603	2.76264333077158	1.65762220248323	0.0	1.65762220248323	2.76264333077158	0.0	-2.76264333077158	1.65762220248323	0.0	2.76264333077158	0.0	9.19513788525717	1.0179174224998155	0.9894815763514744	-0.15599787705203394	0.8459196975030557	0.8503457938258459	-0.15599787705203394	8.162499337207407	0.8561326696368139	-0.16178475286300287	0.7960765298664852	0.037407169432954586	3	correct	1.0
142.18919449998066	8.424046200001612	go_reward	0.3580472000176087	142.235187300015	143.80141229997366	146.3662128000285	1.5662249999586493	143.23525789997052	145.3556021000254	149.40856750006742	0.5661544000031427	1.0106107000030988	1.2506659999492058	148.40867060003802	0.497632100014016	147.3738529999971	2	1	17	4	go_reward	0	0	1	1	1	1	0	1.0	0.0	0	0.3580472000176087	0.497632100014016	1469.9326891000385	1612.1678764000535	1613.167947000009	1613.7341014000122	1615.288291200064	1616.298901900067	1617.3065421000356	1618.3413597000765	1619.341256600106	1620.591922600055	2020-03-31 16:39:24.731603	3.30951423349609	2.13173547226138	0.0	2.13173547226138	3.30951423349609	0.0	-3.30951423349609	2.13173547226138	0.0	3.30951423349609	0.0	-2.13173547226138	1.5647883252243255	1.4635948461296246	-0.15599787705203394	1.3200329672812061	1.3972166965503559	-0.15599787705203394	-3.1643740203111426	1.403003572361324	-0.16178475286300287	1.2701897996446356	0.037407169432954586	3	wrong	1.0
150.63913699996192	8.112294299993664	nogo_punish	0.4460531999357044	150.68512979999628	152.46357649995457	155.0061770000027	1.7784466999582946	151.69569860002935	153.99046660005092	158.038639600039	0.7678778999252245	1.0157103999517858	0.7587844999509343	157.0268030000152	0.5754332999931648	156.01122260000534	2	1	18	1	nogo_punish	1	-1	0	0	1	0	0	0.0	1.0	-1	0.4460531999357044	0.5754332999931648	1469.9326891000385	1620.6178189000348	1621.6283877000678	1622.396265599993	1623.9231557000894	1624.9388661000412	1625.9439117000438	1626.9594921000537	1627.9713287000775	1628.7301132000284	2020-03-31 16:39:24.731603	0.291057713022359	-0.503918379841517	0.0	-0.466632781831729	0.291057713022359	0.0	-0.291057713022359	-0.503918379841517	0.0	0.291057713022359	0.0	-4.277322197678573	-1.4536681952494055	-1.1720590059732725	-0.15599787705203394	-1.2783352868119031	-1.6212398239233752	-0.15599787705203394	-5.309960745728335	-1.6154529481124071	-0.16178475286300287	-1.3654640524582615	0.037407169432954586	3	correct	1.0
158.79381810000632	8.040011000004597	go_punish	0.5071295000379905	158.83981090004067	160.13445360003948	162.68167820002395	1.2946426999988034	159.8518923000663	161.66634140000656	165.72344199998747	0.2825612999731675	1.0153368000173941	1.1563799000578001	164.71075830003224	0.6555385999381542	163.687062600045	2	1	19	2	go_punish	0	-1	0	1	1	1	0	0.0	1.0	-1	0.5071295000379905	0.6555385999381542	1469.9326891000385	1628.7725000000792	1629.7845814001048	1630.067142700078	1631.599030500045	1632.6143673000624	1633.6197517000835	1634.6434474000707	1635.656131100026	1636.8125110000838	2020-03-31 16:39:24.731603	1.30489695858067	0.0	-0.503918379841517	-0.418725311895421	0.800978578739154	-0.503918379841517	-1.30489695858067	0.0	-0.503918379841517	0.800978578739154	-0.503918379841517	-4.78124057752009	-0.43982894969109454	-0.6681406261317555	-0.6599162568935509	-1.230427816875595	-1.11131895820658	-0.6599162568935509	-5.813879125569852	-1.1055320823956123	-0.6657031327045199	-0.8615456726167446	-0.4665112104085624	3	correct	1.0
166.8554962000344	8.741227299906313	go_reward	0.2732674999861046	166.90148900006875	168.9363305000586	171.49621100001946	2.0348414999898523	167.89758560003224	170.47205680003367	174.53057169995714	1.0387449000263587	1.0241541999857873	1.1121446000179276	173.53638860001183	0.851816099951975	172.5118309999816	2	1	20	4	go_reward	1	1	0	1	1	1	0	0.0	1.0	1	0.2732674999861046	0.851816099951975	1469.9326891000385	1636.8341781001072	1637.8302747000707	1638.869019600097	1640.4047459000722	1641.428900100058	1642.44452010002	1643.4690777000503	1644.4632607999956	1645.5754054000136	2020-03-31 16:39:24.731603	3.125415868767	1.97679514638702	0.0	1.97679514638702	3.125415868767	0.0	-3.125415868767	1.97679514638702	0.0	3.125415868767	0.0	8.87596494135338	1.3806899604952354	1.3086545202552644	-0.15599787705203394	1.1650926414068459	1.2131183318212657	-0.15599787705203394	7.843326393303618	1.2189052076322338	-0.16178475286300287	1.1152494737702754	0.037407169432954586	3	correct	1.0
175.64153679995798	7.975212199962698	go_punish	0.3052464000647887	175.68752959999233	177.15642090002052	179.70910139998864	1.46889130002819	176.68575030006446	178.69435859995383	182.74940660002153	0.4706705999560654	1.01474280003481	0.9133351999334991	181.73904670006573	0.6386769999517128	180.71698060003087	2	1	21	2	go_punish	0	-1	0	1	1	1	1	0.0	0.0	-1	0.3052464000647887	0.6386769999517128	1469.9326891000385	1645.6202187000308	1646.618439400103	1647.089110000059	1648.6270476999923	1649.6417905000271	1650.6496697000694	1651.6717358001042	1652.68209570006	1653.5954308999935	2020-03-31 16:39:24.731603	1.01912019217967	-0.261786914548733	-0.503918379841517	-0.651550969112181	0.515201812338158	-0.503918379841517	-1.01912019217967	-0.261786914548733	-0.503918379841517	0.515201812338158	-0.503918379841517	-4.519453662971357	-0.7256057160920946	-0.9299275406804886	-0.6599162568935509	-1.463253474092355	-1.3970957246075764	-0.6599162568935509	-5.55209221102112	-1.391308848796608	-0.6657031327045199	-1.1233325871654776	-0.4665112104085624	3	wrong	1.0
183.65950880001765	8.669708499917988	nogo_reward	0.2690871999366209	183.705501600052	185.37354359996948	187.90811910002935	1.6680419999174774	184.71445389999985	186.88597159995675	190.95407039998076	0.659089699969627	1.022147500072606	1.4211396999892258	189.95005530002504	0.4062735000625253	188.91634300001874	2	1	22	3	nogo_reward	1	0	1	0	1	0	0	1.0	0.0	0	0.2690871999366209	0.4062735000625253	1469.9326891000385	1653.6381907000905	1654.6471430000383	1655.306232700008	1656.8186606999952	1657.8408082000678	1658.8490321000572	1659.8827444000635	1660.8867595000193	1662.3078992000085	2020-03-31 16:39:24.731603	0.84241320755583	0.0	0.0	0.0	0.84241320755583	0.0	-0.84241320755583	0.0	0.0	0.84241320755583	0.0	0.0	-0.9023127007159345	-0.6681406261317555	-0.15599787705203394	-0.8117025049801742	-1.0698843293899043	-0.15599787705203394	-1.0326385480497622	-1.064097453578936	-0.16178475286300287	-0.8615456726167446	0.037407169432954586	3	wrong	1.0
192.37183530000038	7.856719599920325	nogo_reward	0.2990195999154821	192.41782810003474	193.77681449998613	196.30878129997268	1.358986399951391	193.41713279997907	195.29808560002107	199.33965930005047	0.3596817000070587	1.0106956999516115	0.9348883999045938	198.33619259996317	0.44339539995417	197.32119270006638	2	1	23	3	nogo_reward	1	0	1	0	1	0	0	0.0	1.0	0	0.2990195999154821	0.44339539995417	1469.9326891000385	1662.3505172000732	1663.3498219000176	1663.7095036000246	1665.2307747000596	1666.2414704000112	1667.2538818001049	1668.2688817000017	1669.272348400089	1670.2072367999936	2020-03-31 16:39:24.731603	0.84241320755583	0.0	0.0	0.0	0.84241320755583	0.0	-0.84241320755583	0.0	0.0	0.84241320755583	0.0	0.0	-0.9023127007159345	-0.6681406261317555	-0.15599787705203394	-0.8117025049801742	-1.0698843293899043	-0.15599787705203394	-1.0326385480497622	-1.064097453578936	-0.16178475286300287	-0.8615456726167446	0.037407169432954586	3	correct	1.0
200.27069069992285	8.673971900017932	nogo_reward	0.3621202999493107	200.3166834999572	202.1054719999663	204.66964850004274	1.7887885000091046	201.3218365999635	203.64973970002006	207.74475099996175	0.7836354000028223	1.0199088000226766	1.2459044000133872	206.7313856000544	0.2992198999272659	205.6925621000114	2	1	24	3	nogo_reward	1	0	1	0	1	0	1	0.0	0.0	0	0.3621202999493107	0.2992198999272659	1469.9326891000385	1670.2493725999957	1671.254525700002	1672.0381611000048	1673.5824288000586	1674.6023376000812	1675.62525120005	1676.664074700093	1677.6774401000002	1678.9233445000136	2020-03-31 16:39:24.731603	0.84241320755583	0.0	0.0	0.0	0.84241320755583	0.0	-0.84241320755583	0.0	0.0	0.84241320755583	0.0	0.0	-0.9023127007159345	-0.6681406261317555	-0.15599787705203394	-0.8117025049801742	-1.0698843293899043	-0.15599787705203394	-1.0326385480497622	-1.064097453578936	-0.16178475286300287	-0.8615456726167446	0.037407169432954586	3	wrong	1.0
208.9783768999623	9.078931199968792	nogo_punish	0.3106459999689832	209.02436969999667	211.54785169998627	214.0949362000681	2.523481999989599	210.02186380000762	213.0733944000674	217.13503060000903	1.5259878999786451	1.0215418000007048	0.9682702999564299	216.1179692000146	0.5720385999884456	215.09766069997545	2	1	25	1	nogo_punish	1	-1	0	0	1	0	0	0.0	1.0	-1	0.3106459999689832	0.5720385999884456	1469.9326891000385	1678.9570588000352	1679.954552900046	1681.4805408000248	1683.006083500106	1684.0276253001066	1685.030349800014	1686.050658300053	1687.0677197000475	1688.035990000004	2020-03-31 16:39:24.731603	0.0433115429350871	-0.728419696380462	0.0	-0.694897659560271	0.0433115429350871	0.0	-0.0433115429350871	-0.728419696380462	0.0	0.0433115429350871	0.0	-4.052820881139628	-1.7014143653366776	-1.3965603225122174	-0.15599787705203394	-1.5066001645404452	-1.868985994010647	-0.15599787705203394	-5.08545942918939	-1.8631991181996792	-0.16178475286300287	-1.5899653689972066	0.037407169432954586	3	correct	1.0
218.08302160003223	9.445079399971291	nogo_punish	0.8675116999074817	218.12901440006658	220.5911901000652	223.1335589999794	2.4621756999986246	219.14350270002592	222.1122601999666	226.1856128000652	1.4476874000392854	1.0212988000128007	1.3884809999726713	225.17098990001227	0.3641768000088632	224.1524727999929	2	1	26	1	nogo_punish	0	0	-1	0	1	0	0	1.0	0.0	0	0.8675116999074817	0.3641768000088632	1469.9326891000385	1688.061703500105	1689.0761918000644	1690.5238792001037	1692.044949300005	1693.066248100018	1694.0851619000314	1695.1036790000508	1696.1183019001037	1697.5067829000764	2020-03-31 16:39:24.731603	-0.186434797329755	-0.937029124853055	0.0	-0.906751803670585	-0.186434797329755	0.0	0.186434797329755	-0.937029124853055	0.0	-0.186434797329755	0.0	0.937029124853055	-1.9311607056015196	-1.6051697509848104	-0.15599787705203394	-1.718454308650759	-2.098732334275489	-0.15599787705203394	-0.09560942319670718	-2.0929454584645213	-0.16178475286300287	-1.7985747974697996	0.037407169432954586	3	wrong	1.0
227.57242600002792	9.468242799979635	nogo_reward	1.0	227.61841880006227	230.03842280001822	232.55657829996176	2.420003999955952	228.624960600049	231.5428701000053	235.61269069998502	1.4134621999692172	1.0137081999564543	1.4739709000568837	234.59991650003917	0.4338799999095499	233.57107339997287	2	1	27	3	nogo_reward	1	0	1	0	0	1	0	0.0	1.0	1	1.0	0.4338799999095499	1469.9326891000385	1697.5511079001008	1698.5576497000875	1699.9711119000567	1701.4755592000438	1702.4892674000002	1703.5037625000114	1704.5326056000777	1705.5453798000235	1707.0193507000804	2020-03-31 16:39:24.731603	-0.84241320755583	0.0	0.0	0.0	0.84241320755583	0.0	0.84241320755583	0.0	0.0	0.0	0.84241320755583	10.8527600877404	-2.5871391158275947	-0.6681406261317555	-0.15599787705203394	-0.8117025049801742	-1.0698843293899043	-0.15599787705203394	9.820121539690637	-1.9065106611347662	0.6806284546928272	-0.8615456726167446	0.037407169432954586	3	correct	1.0
237.0812468000222	8.395229899906553	go_punish	1.0	237.12723960005655	238.90460030001123	241.4428614999631	1.77736069995467	238.13899120001543	240.4193273000417	244.4767587999811	0.7656090999957996	1.0235341999214143	1.0457106999820098	243.46622509998247	0.493497300078161	242.44828170002415	2	1	28	2	go_punish	1	0	-1	1	0	0	0	0.0	1.0	-1	1.0	0.493497300078161	1469.9326891000385	1707.059928700095	1708.071680300054	1708.8372894000497	1710.3520164000802	1711.3755506000016	1712.3809708000626	1713.398914200021	1714.4094479000196	1715.4551586000016	2020-03-31 16:39:24.731603	-0.755232908065067	-0.503918379841517	-0.503918379841517	-0.867385114864657	0.251314528223551	-0.503918379841517	0.755232908065067	-0.503918379841517	-0.503918379841517	-0.503918379841517	0.251314528223551	-4.277322197678573	-2.4999588163368314	-1.1720590059732725	-0.6599162568935509	-1.679087619844831	-1.6609830087221833	-0.6599162568935509	-5.309960745728335	-2.4104290409762834	0.08952977536054813	-1.3654640524582615	-0.4665112104085624	3	correct	1.0
245.51904719998106	8.555532300030109	nogo_reward	0.3556281999917701	245.56504000001541	247.02807370002824	249.58088659995678	1.4630337000128293	246.56252390006534	248.56000060006022	252.6270122999556	0.4655497999629006	1.0208859998965636	1.4935600000899285	251.62343410006702	0.5634580999612808	250.59427959995787	2	1	29	3	nogo_reward	1	0	1	0	1	0	1	0.0	0.0	0	0.3556281999917701	0.5634580999612808	1469.9326891000385	1715.497729100054	1716.4952130001038	1716.9607628000667	1718.4926897000987	1719.5135756999953	1720.5269686999964	1721.5561232001055	1722.559701399994	1724.053261400084	2020-03-31 16:39:24.731603	0.342245025332883	0.0	0.59615315871703	0.59615315871703	0.938398184049913	0.59615315871703	-0.342245025332883	0.0	0.59615315871703	0.938398184049913	0.59615315871703	0.0	-1.4024808829388815	-0.6681406261317555	0.44015528166499607	-0.21554934626314415	-0.9738993528958212	0.44015528166499607	-1.0326385480497622	-0.9681124770848532	0.43436840585402714	-0.8615456726167446	0.6335603281499846	3	wrong	1.0
254.11690759996418	8.369539899984375	go_punish	0.3461790999863297	254.16290039999853	255.73451690003253	258.28644269995834	1.571616500033997	255.171762099955	257.2623967999823	261.3288341000441	0.5627548000775278	1.024045899976045	1.203606199938804	260.3158357000209	0.5295257000252604	259.2962108000645	2	1	30	2	go_punish	0	-1	0	1	1	1	1	1.0	1.0	-1	0.3461790999863297	0.5295257000252604	1469.9326891000385	1724.095589500037	1725.1044511999935	1725.667206000071	1727.1950859000208	1728.2191317999968	1729.228899900103	1730.2485248000594	1731.2615232000826	1732.4651294000214	2020-03-31 16:39:24.731603	0.959909595612802	-0.503918379841517	-0.728419696380462	-1.06792902425363	0.23148989923234	-0.728419696380462	-0.959909595612802	-0.503918379841517	-0.728419696380462	0.23148989923234	-0.728419696380462	-4.277322197678573	-0.7848163126589626	-1.1720590059732725	-0.8844175734324959	-1.8796315292338042	-1.6808076377133943	-0.8844175734324959	-5.309960745728335	-1.6750207619024262	-0.8902044492434649	-1.3654640524582615	-0.6910125269475074	3	correct	1.0
262.5100517999381	8.76890710007865	go_reward	0.3941222000867128	262.55604459997244	264.412550500012	266.9430734000632	1.856505900039565	263.56448810000416	265.929800200043	270.00386339996453	0.8480624000078478	1.013273200020194	1.3210883000865579	268.9905343999851	0.533207600004971	267.96357649995457	2	1	31	4	go_reward	1	1	0	1	1	1	0	0.0	1.0	1	0.3941222000867128	0.533207600004971	1469.9326891000385	1732.488733700011	1733.4971772000426	1734.3452396000505	1735.8624893000815	1736.8757625001017	1737.896265599993	1738.9232235000236	1739.936552500003	1741.2576408000896	2020-03-31 16:39:24.731603	3.65236521342656	2.43334724794782	0.0	2.43334724794782	3.65236521342656	0.0	-3.65236521342656	2.43334724794782	0.0	3.65236521342656	0.0	8.41941283979258	1.9076393051547955	1.7652066218160645	-0.15599787705203394	1.621644742967646	1.7400676764808258	-0.15599787705203394	7.386774291742817	1.7458545522917939	-0.16178475286300287	1.5718015753310755	0.037407169432954586	3	correct	1.0
271.3042777000228	8.31016140000429	go_reward	1.0	271.35027050005715	272.7098278000483	275.2485556000606	1.3595572999911383	272.3509368000084	274.2252668000292	278.3078915000658	0.3588910000398755	1.0232888000314233	1.3525403999956325	277.29309399996396	0.5664959000423551	276.26319670001953	2	1	32	4	go_reward	0	0	1	1	0	0	0	0.0	1.0	1	1.0	0.5664959000423551	1469.9326891000385	1741.2829596000956	1742.283625900047	1742.6425169000868	1744.1579559000677	1745.1812447000991	1746.195885800058	1747.2257831000024	1748.2405806001043	1749.5931210001	2020-03-31 16:39:24.731603	-4.14151144165166	2.85796954246731	0.0	2.85796954246731	4.14151144165166	0.0	4.14151144165166	0.0	2.85796954246731	0.0	4.14151144165166	10.8527600877404	-5.886237349923424	2.1898289163355544	-0.15599787705203394	2.046267037487136	2.2292139047059254	-0.15599787705203394	9.820121539690637	-1.9065106611347662	3.9797266887886567	-0.8615456726167446	2.8953767119002647	3	correct	1.0
279.65725839999504	9.886906399973668	go_punish	0.2520013001048937	279.7032512000294	282.4736900000132	285.0255133999742	2.770438799983822	280.7170126000417	284.00409359997116	288.0967383000532	1.7566773999715224	1.0214198000030592	1.4934192999498919	287.07664770004317	0.4939848000649363	286.0416457999961	2	1	33	2	go_punish	1	0	-1	1	1	1	0	0.0	1.0	0	0.2520013001048937	0.4939848000649363	1469.9326891000385	1749.635940300068	1750.6497017000802	1752.4063791000517	1753.9367827000096	1754.9582025000127	1755.9743349000346	1757.0093368000817	1758.0294274000917	1759.5228467000416	2020-03-31 16:39:24.731603	0.717269747934245	-0.728419696380462	-0.728419696380462	-1.25464865816292	-0.0111499484462173	-0.728419696380462	-0.717269747934245	-0.728419696380462	-0.728419696380462	-0.0111499484462173	-0.728419696380462	0.728419696380462	-1.0274561603375196	-1.3965603225122174	-0.8844175734324959	-2.066351163143094	-1.9234474853919514	-0.8844175734324959	-0.3042188516693002	-1.9176606095809834	-0.8902044492434649	-1.5899653689972066	-0.6910125269475074	3	correct	1.0
289.56921769992914	8.267976400093175	nogo_punish	1.0	289.6152104999635	290.95391519996315	293.4693670000413	1.3387046999996528	290.6251547000136	292.4585698000153	296.5284053999926	0.328760499949567	1.0107972000259906	1.354781500064064	295.515547799994	0.38816859992221	294.4876133999785	2	1	34	1	nogo_punish	1	-1	0	0	0	1	0	0.0	1.0	0	1.0	0.38816859992221	1469.9326891000385	1759.547899600002	1760.557843800052	1760.8866043000016	1762.3912589000538	1763.4020561000798	1764.420302500017	1765.4482369000325	1766.461094500031	1767.8158760000952	2020-03-31 16:39:24.731603	0.110667254042256	-0.869466205660798	0.0	-0.84201140327906	-0.110667254042256	0.0	-0.110667254042256	0.0	-0.869466205660798	0.0	-0.110667254042256	0.0	-1.6340586542295086	-1.5376068317925535	-0.15599787705203394	-1.6537139082592343	-2.02296479098799	-0.15599787705203394	-1.0326385480497622	-1.9065106611347662	-0.27245200690525884	-0.8615456726167446	-0.8320590362278434	3	correct	1.0
297.86133699992206	9.31607790000271	nogo_punish	1.0	297.9073297999564	300.7607897999694	303.2861005000302	2.8534600000130013	298.92588120000414	302.2651062000075	306.3425924000328	1.8349085999652743	1.0209943000227213	0.8808152999263257	305.3290941000448	0.5772308999439701	304.30049589998066	2	1	35	1	nogo_punish	1	-1	0	0	0	1	0	0.0	1.0	0	1.0	0.5772308999439701	1469.9326891000385	1767.840018899995	1768.8585703000426	1770.693478900008	1772.197795300046	1773.2187896000687	1774.2331850000191	1775.2617832000833	1776.2752815000713	1777.1560967999976	2020-03-31 16:39:24.731603	0.10350396628391	-0.869466205660798	0.0	-0.783508110769058	-0.10350396628391	0.0	-0.10350396628391	0.0	-0.869466205660798	0.0	-0.10350396628391	0.0	-1.6412219419878546	-1.5376068317925535	-0.15599787705203394	-1.5952106157492323	-2.0158015032296444	-0.15599787705203394	-1.0326385480497622	-1.9065106611347662	-0.2652887191469129	-0.8615456726167446	-0.8320590362278434	3	correct	1.0
307.22210599994287	8.410388500080444	go_punish	0.3124540999997407	307.2680987999772	308.84125050005946	311.3941128000149	1.573151700082235	308.27553470002	310.3745512999592	314.43530710006576	0.5657158000394702	1.0195615000557154	1.2431801999919116	313.4227463999996	0.4728884999640286	312.40989340003557	2	1	36	2	go_punish	1	0	-1	1	1	1	0	0.0	1.0	0	0.3124540999997407	0.4728884999640286	1469.9326891000385	1777.2007879000157	1778.2082238000585	1778.773939600098	1780.3072403999977	1781.3268019000534	1782.342582500074	1783.355435500038	1784.3679962001042	1785.6111764000962	2020-03-31 16:39:24.731603	0.781301334403761	-0.675242210304322	-0.728419696380462	-1.16703234576416	0.0528816380232986	-0.728419696380462	-0.781301334403761	-0.675242210304322	-0.728419696380462	0.0528816380232986	-0.728419696380462	0.675242210304322	-0.9634245738680035	-1.3433828364360774	-0.8844175734324959	-1.9787348507443343	-1.8594158989224356	-0.8844175734324959	-0.3573963377454402	-1.8536290231114676	-0.8902044492434649	-1.5367878829210666	-0.6910125269475074	3	correct	1.0
315.65772539994214	7.850487100076862	nogo_punish	0.3501990999793634	315.7037181999765	317.061450100038	319.60276429995383	1.3577319000614807	316.7136813000541	318.5837256000375	322.6387158000141	0.3477687999838963	1.0190386999163366	0.9154895000392571	321.633287400007	0.5356864000204951	320.61703389999434	2	1	37	1	nogo_punish	1	-1	0	0	1	0	1	0.0	0.0	-1	0.3501990999793634	0.5356864000204951	1469.9326891000385	1785.636407300015	1786.6463704000926	1786.9941392000765	1788.516414700076	1789.5354533999923	1790.5497230000328	1791.5659765000455	1792.5714049000526	1793.4868944000918	2020-03-31 16:39:24.731603	-0.0971998249838603	-0.869466205660798	0.0	-0.730430865278046	-0.0971998249838603	0.0	0.0971998249838603	-0.869466205660798	0.0	-0.0971998249838603	0.0	-3.911774371859292	-1.841925733255625	-1.5376068317925535	-0.15599787705203394	-1.5421333702582203	-2.0094973619295944	-0.15599787705203394	-4.9444129199090545	-2.0037104861186266	-0.16178475286300287	-1.7310118782775428	0.037407169432954586	3	wrong	1.0
323.5522001000354	8.915743899997324	nogo_reward	0.4284090000437572	323.59819290006976	325.53232120000735	328.04847270005826	1.9341282999375835	324.6053145000476	327.03715420002095	331.1080526000585	0.9270066999597475	1.011318500037305	1.405884200008586	330.09521729999665	0.4668430000310763	329.0669728000646	2	1	38	3	nogo_reward	1	0	1	0	1	0	0	0.0	1.0	0	0.4284090000437572	0.4668430000310763	1469.9326891000385	1793.5308820001082	1794.538003600086	1795.4650103000458	1796.9698433000594	1797.9811618000967	1798.999661900103	1800.0279064000351	1801.040741700097	1802.4466259001056	2020-03-31 16:39:24.731603	0.333406520506831	0.0	0.59615315871703	0.550958667719403	0.929559679223861	0.59615315871703	-0.333406520506831	0.0	0.59615315871703	0.929559679223861	0.59615315871703	0.0	-1.4113193877649335	-0.6681406261317555	0.44015528166499607	-0.2607438372607711	-0.9827378577218733	0.44015528166499607	-1.0326385480497622	-0.9769509819109052	0.43436840585402714	-0.8615456726167446	0.6335603281499846	3	correct	1.0
332.50884799996834	8.393552800058842	go_punish	0.2651332999812439	332.5548408000027	334.42544600006636	336.9562977000603	1.8706052000636646	333.5651620000135	335.9456590999614	340.00172649999104	0.8602840000528431	1.0106386000989005	0.9466671000704991	338.9887412000678	0.4060579999350011	337.96478799998226	2	1	39	2	go_punish	1	0	-1	1	1	1	0	0.0	1.0	0	0.2651332999812439	0.4060579999350011	1469.9326891000385	1802.4875299000412	1803.497851100052	1804.3581351001048	1805.8783482	1806.8889868000988	1807.8974771000208	1808.9214303001063	1809.9344156000295	1810.8810827001	2020-03-31 16:39:24.731603	0.838728655975429	-0.627334740368014	-0.728419696380462	-1.0876404723584	0.110308959594967	-0.728419696380462	-0.838728655975429	-0.627334740368014	-0.728419696380462	0.110308959594967	-0.728419696380462	0.627334740368014	-0.9059972522963355	-1.2954753664997694	-0.8844175734324959	-1.899342977338574	-1.8019885773507673	-0.8844175734324959	-0.40530380768174823	-1.796201701539799	-0.8902044492434649	-1.4888804129847586	-0.6910125269475074	3	correct	1.0
340.94734890002314	7.843867199960869	nogo_reward	0.4017609999282285	340.9933417000575	342.3860017000695	344.92740529996786	1.3926600000120288	341.992741500027	343.9174084999827	347.9690428000174	0.39326020004250495	1.0099967999851742	0.8681661000009626	346.9635511999943	0.3599612000398338	345.94663220003713	2	1	40	3	nogo_reward	1	0	1	0	1	0	1	1.0	1.0	0	0.4017609999282285	0.3599612000398338	1469.9326891000385	1810.926030800096	1811.9254306000655	1812.318690800108	1813.8500976000212	1814.8600944000063	1815.8793213000756	1816.8962403000328	1817.901731900056	1818.7698980000569	2020-03-31 16:39:24.731603	0.325736521409211	0.0	0.59615315871703	0.510510376046794	0.921889680126241	0.59615315871703	-0.325736521409211	0.0	0.59615315871703	0.921889680126241	0.59615315871703	0.0	-1.4189893868625536	-0.6681406261317555	0.44015528166499607	-0.3011921289333802	-0.9904078568194933	0.44015528166499607	-1.0326385480497622	-0.9846209810085252	0.43436840585402714	-0.8615456726167446	0.6335603281499846	3	correct	1.0
348.8326844000255	8.985582099994417	nogo_reward	1.0	348.8786772000599	350.9353809000454	353.46421800006624	2.056703699985519	349.88800030003745	352.44085060001794	356.5200250999767	1.0473806000079549	1.0233674000483006	1.344234200077608	355.5074679000536	0.6349417999153957	354.4778558000687	2	1	41	3	nogo_reward	1	0	1	0	0	1	0	0.0	1.0	1	1.0	0.6349417999153957	1469.9326891000385	1818.8113663000984	1819.820689400076	1820.868070000084	1822.3735397000564	1823.3969071001047	1824.4105449001072	1825.440157000092	1826.4527142000152	1827.7969484000928	2020-03-31 16:39:24.731603	-0.319017681785159	0.0	0.59615315871703	0.47411326977815	0.915170840502189	0.59615315871703	0.319017681785159	0.59615315871703	0.0	0.59615315871703	0.915170840502189	10.25660692902337	-2.0637435900569234	-0.6681406261317555	0.44015528166499607	-0.33758923520202416	-0.9971266964435452	0.44015528166499607	9.223968380973607	-1.310357502417736	0.7533860876391861	-0.26539251389971463	0.037407169432954586	3	correct	1.0
357.8437742999522	8.006155600072589	nogo_punish	0.3699144999263808	357.88976709998656	359.3108160999834	361.8712742000348	1.4210489999968559	358.89005459996383	360.8481362999878	364.9024305000198	0.4207615000195801	1.0231379000470042	0.9934922000393271	363.8898344000336	0.5211970000527799	362.8777688000116	2	1	42	1	nogo_punish	1	-1	0	0	1	0	0	0.0	1.0	-1	0.3699144999263808	0.5211970000527799	1469.9326891000385	1827.822456200025	1828.8227437000023	1829.243505200022	1830.7808254000263	1831.8039633000733	1832.81045790005	1833.822523500072	1834.8351196000583	1835.8286118000976	2020-03-31 16:39:24.731603	-0.319933232382355	-1.0702762810076	0.0	-0.943897031421577	-0.319933232382355	0.0	0.319933232382355	-1.0702762810076	0.0	-0.319933232382355	0.0	-3.71096429651249	-2.0646591406541197	-1.7384169071393556	-0.15599787705203394	-1.7555995364017511	-2.232230769328089	-0.15599787705203394	-4.743602844562252	-2.2264438935171214	-0.16178475286300287	-1.9318219536243446	0.037407169432954586	3	correct	1.0
365.87277899996843	9.246381400036626	go_reward	0.4108264000387862	365.9187718000028	368.08384930004786	370.63897460000544	2.165077500045072	366.93126820004545	369.61462110001594	373.6967895999546	1.1525811000024078	1.0243534999895019	1.4683636000847855	372.68348650005623	0.4445080999284982	371.6523149999555	2	1	43	4	go_reward	1	1	0	1	1	1	0	0.0	1.0	1	0.4108264000387862	0.4445080999284982	1469.9326891000385	1835.8514609000413	1836.863957300084	1838.0165384000863	1839.5473102000544	1840.571663700044	1841.585004099994	1842.6161756000947	1843.6294786999931	1845.097842300078	2020-03-31 16:39:24.731603	3.60470997743657	2.85796954246731	0.59615315871703	3.25371536313969	4.2008631361536	0.59615315871703	-3.60470997743657	2.85796954246731	0.59615315871703	4.2008631361536	0.59615315871703	7.99479054527309	1.8599840691648055	2.1898289163355544	0.44015528166499607	2.442012858159516	2.288565599207866	0.44015528166499607	6.9621519972233274	2.294352475018834	0.43436840585402714	1.9964238698505654	0.6335603281499846	3	correct	1.0
375.16264809994027	9.12935559998732	nogo_reward	0.242603600025177	375.2086408999746	377.4931353999998	380.0459472000364	2.2844945000251755	376.2069980000374	379.02553730004	383.1104914000023	1.2861373999623993	1.0204098999963662	1.2275050999596715	382.09184490004554	0.4082083000103012	381.06469050003193	2	1	44	3	nogo_reward	1	0	1	0	1	0	0	1.0	0.0	0	0.242603600025177	0.4082083000103012	1469.9326891000385	1845.141330000013	1846.139687100076	1847.4258245000383	1848.9582264000785	1849.9786363000749	1850.9973796000704	1852.024534000084	1853.0431805000408	1854.2706856000004	2020-03-31 16:39:24.731603	-0.14188670474717	0.0	1.14711182643643	1.0373659915597	1.00522512168926	1.14711182643643	0.14188670474717	0.0	1.14711182643643	1.00522512168926	1.14711182643643	0.0	-1.8866126130189345	-0.6681406261317555	0.991113949384396	0.22566348657952584	-0.9070724152564742	0.991113949384396	-1.0326385480497622	-0.9012855394455062	0.9853270735734271	-0.8615456726167446	1.1845189958693845	3	wrong	1.0
384.3160020000071	7.695502099930081	go_reward	0.3393940000096336	384.36199480004143	385.7164626000447	388.2526826000535	1.354467800003249	385.3734635000578	387.23697219998553	391.2983087999744	0.34299909998685507	1.0157104000679738	0.7591880999971181	390.2950906000335	0.6971032000146806	389.2656721000096	2	1	45	4	go_reward	1	1	0	1	1	1	1	1.0	1.0	1	0.3393940000096336	0.6971032000146806	1469.9326891000385	1854.29468390008	1855.3061526000963	1855.6491517000832	1857.169661300024	1858.185371700092	1859.198361200048	1860.227779700072	1861.2309979000129	1861.99018600001	2020-03-31 16:39:24.731603	4.05521691651646	3.25371536313969	0.59615315871703	3.62323195241025	4.65137007523349	0.59615315871703	-4.05521691651646	3.25371536313969	0.59615315871703	4.65137007523349	0.59615315871703	7.599044724600709	2.3104910082446954	2.5855747370079345	0.44015528166499607	2.811529447430076	2.7390725382877554	0.44015528166499607	6.566406176550947	2.7448594140987232	0.43436840585402714	2.3921696905229455	0.6335603281499846	3	correct	1.0
392.0359767000191	8.795610399916768	go_reward	0.4483983999816701	392.08196950005345	394.08327709999844	396.63783060002584	2.001307599944994	393.08386470004916	395.61419110000156	399.69077920005634	0.9994123999492786	1.0236395000242737	1.1868006999138743	398.6780816999958	0.4364325000206008	397.6503367000255	2	1	46	4	go_reward	1	1	0	1	1	1	0	0.0	1.0	1	0.4483983999816701	0.4364325000206008	1469.9326891000385	1862.014658600092	1863.0165538000876	1864.015966200037	1865.54688020004	1866.5705197000643	1867.583025800064	1868.6107708000343	1869.6234683000948	1870.8102690000087	2020-03-31 16:39:24.731603	4.47539448577752	3.62323195241025	0.59615315871703	3.96883629712436	5.07154764449455	0.59615315871703	-4.47539448577752	3.62323195241025	0.59615315871703	5.07154764449455	0.59615315871703	7.22952813533015	2.7306685775057558	2.9550913262784944	0.44015528166499607	3.1571337921441858	3.1592501075488157	0.44015528166499607	6.1968895872803875	3.1650369833597836	0.43436840585402714	2.7616862797935053	0.6335603281499846	3	correct	1.0
400.87378559994954	8.219893199973967	go_punish	0.3114196000387892	400.9197783999839	402.76346789998956	405.3180513000111	1.8436895000056666	401.9290518000487	404.2936110000587	408.380764900008	0.8344160999408814	1.0244402999524027	0.7589066999498755	407.365637499955	0.6366027999902144	406.3312390999631	2	1	47	2	go_punish	0	-1	0	1	1	1	0	0.0	1.0	-1	0.3114196000387892	0.6366027999902144	1469.9326891000385	1870.8524675000224	1871.8617409000872	1872.696157000028	1874.2263001000972	1875.2507404000496	1876.2639282000016	1877.2983265999935	1878.3134540000465	1879.0723606999964	2020-03-31 16:39:24.731603	0.890487120328768	-0.583988049919924	-0.728419696380462	-1.01543432242222	0.162067423948306	-0.728419696380462	-0.890487120328768	-0.583988049919924	-0.728419696380462	0.162067423948306	-0.728419696380462	-4.197252527600166	-0.8542387879429966	-1.2521286760516794	-0.8844175734324959	-1.827136827402394	-1.7502301129974283	-0.8844175734324959	-5.229891075649928	-1.7444432371864602	-0.8902044492434649	-1.4455337225366687	-0.6910125269475074	3	correct	1.0
409.1379061000191	8.959487999905605	nogo_reward	1.0	409.18389890005346	411.16189940005984	413.6913188999747	1.9780005000063738	410.1907571000045	412.66668230004143	416.7458598000228	0.9711423000553623	1.0246365999332738	1.3975270999362692	415.7335512000136	0.6493371000979096	414.7054934999903	2	1	48	3	nogo_reward	1	0	1	0	0	1	0	0.0	1.0	1	1.0	0.6493371000979096	1469.9326891000385	1879.116588000092	1880.123446200043	1881.0945885000983	1882.59937140008	1883.6240080000132	1884.6381826000288	1885.666240300052	1886.6785489000613	1888.0760759999976	2020-03-31 16:39:24.731603	0.155993408939867	0.0	1.14711182643643	0.962316278282577	0.991118417496566	1.14711182643643	-0.155993408939867	1.14711182643643	0.0	1.14711182643643	0.991118417496566	9.70564826130397	-1.5887324993318976	-0.6681406261317555	0.991113949384396	0.1506137733024029	-0.9211791194491682	0.991113949384396	8.673009713254208	-0.7593988346983362	0.8293336646335632	0.2855661538196853	0.037407169432954586	3	correct	1.0
418.1396793000167	9.58858769992321	go_punish	0.3253950999351218	418.1856721000511	420.80346269998677	423.34826720005344	2.617790599935688	419.1942884000016	422.33389620005596	426.3937825000612	1.6091742999851704	1.0143709999974817	1.3804772999130819	425.3806075999744	0.6320462999865413	424.367782999994	2	1	49	2	go_punish	1	0	-1	1	1	1	1	0.0	0.0	0	0.3253950999351218	0.6320462999865413	1469.9326891000385	1888.1183612000896	1889.12697750004	1890.7361518000253	1892.2665853000944	1893.280956300092	1894.3004721000325	1895.3132967000129	1896.3264716000997	1897.7069489000128	2020-03-31 16:39:24.731603	0.648037494012645	-0.806408275662729	-0.728419696380462	-1.21133797518777	-0.0803822023678173	-0.728419696380462	-0.648037494012645	-0.806408275662729	-0.728419696380462	-0.0803822023678173	-0.728419696380462	0.806408275662729	-1.0966884142591196	-1.4745489017944844	-0.8844175734324959	-2.023040480167944	-1.9926797393135516	-0.8844175734324959	-0.2262302723870332	-1.9868928635025835	-0.8902044492434649	-1.6679539482794736	-0.6910125269475074	3	wrong	1.0
427.7720134999836	8.132496400038008	nogo_reward	0.41643219999969	427.81800630001794	429.388392099994	431.94266289996426	1.5703857999760658	428.8257115000158	430.91855669999427	434.9884393999814	0.5626805999781936	1.0241061999699923	0.9620633000745329	433.9754700000626	0.6572606000117958	432.9486608000004	2	1	50	3	nogo_reward	0	1	0	0	1	0	1	0.0	0.0	1	0.41643219999969	0.6572606000117958	1469.9326891000385	1897.7506954000564	1898.7584006000543	1899.3210812000325	1900.8512458000328	1901.8753520000027	1902.881349900039	1903.908159100101	1904.92112850002	1905.8831918000944	2020-03-31 16:39:24.731603	-0.582893611254918	0.0	1.65762220248323	1.49083753761071	1.07472859122831	1.65762220248323	0.582893611254918	0.0	1.65762220248323	1.07472859122831	1.65762220248323	10.8527600877404	-2.3276195195266824	-0.6681406261317555	1.5016243254311958	0.6791350326305358	-0.8375689457174242	1.5016243254311958	9.820121539690637	-0.8317820699064562	1.4958374496202271	-0.8615456726167446	1.6950293719161844	3	wrong	1.0
435.9300736000296	9.126036999979988	nogo_punish	0.3207119000144303	435.9760664000639	438.54418650001753	441.08982890006155	2.568120099953603	436.9859163999788	440.0642632000379	444.14023849996715	1.558270100038726	1.0255657000236624	0.9618649000767618	443.1270879000656	0.7883412999799475	442.1085874000564	2	1	51	1	nogo_punish	1	-1	0	0	1	0	0	0.0	1.0	-1	0.3207119000144303	0.7883412999799475	1469.9326891000385	1905.9087555001024	1906.9186055000173	1908.476875600056	1909.9969523000764	1911.0225180001	1912.041276500095	1913.059777000104	1914.0729276000056	1915.0347925000824	2020-03-31 16:39:24.731603	-0.526688771038115	-1.2571491694281	0.0	-1.14190397756329	-0.526688771038115	0.0	0.526688771038115	-1.2571491694281	0.0	-0.526688771038115	0.0	-3.52409140809199	-2.2714146793098795	-1.9252897955598556	-0.15599787705203394	-1.953606482543464	-2.438986307983849	-0.15599787705203394	-4.556729956141752	-2.433199432172881	-0.16178475286300287	-2.1186948420448446	0.037407169432954586	3	correct	1.0
445.08162459998834	9.119174099993188	nogo_punish	0.7051550000905991	445.1276174000227	447.85048230003986	450.3997980999991	2.722864900017157	446.1377161999694	449.3808791000622	453.4402394000206	1.7127661000704393	1.0189189999368864	0.8065520999953151	452.4282791999865	0.8346825999906287	451.4040882000695	2	1	52	1	nogo_punish	1	-1	0	0	1	0	0	0.0	1.0	-1	0.7051550000905991	0.8346825999906287	1469.9326891000385	1915.0603065000612	1916.070405300008	1917.7831714000783	1919.3135682001007	1920.3324872000376	1921.336777300108	1922.360968300025	1923.372928500059	1924.1794806000544	2020-03-31 16:39:24.731603	-0.719058283562563	-1.43139575927677	0.0	-1.32600288840682	-0.719058283562563	0.0	0.719058283562563	-1.43139575927677	0.0	-0.719058283562563	0.0	-3.34984481824332	-2.4637841918343275	-2.0995363854085256	-0.15599787705203394	-2.137705393386994	-2.631355820508297	-0.15599787705203394	-4.382483366293082	-2.625568944697329	-0.16178475286300287	-2.2929414318935146	0.037407169432954586	3	correct	1.0
454.24604759993963	8.269922400009818	nogo_reward	0.3745108000002801	454.292040399974	455.7783930000146	458.316409299965	1.4863526000406182	455.29101459996264	457.3168421000007	461.3530661000402	0.4873784000519663	0.9995671999643037	1.2088966999435797	460.35137649998046	0.5025540000060573	459.32209000003036	2	1	53	3	nogo_reward	1	0	1	0	1	0	0	0.0	1.0	0	0.3745108000002801	0.5025540000060573	1469.9326891000385	1924.2247295000125	1925.2237037000011	1925.711082100053	1927.2495312000392	1928.2490984000035	1929.2547791000688	1930.284065600019	1931.2857552000787	1932.4946519000223	2020-03-31 16:39:24.731603	0.0894660997759948	0.59615315871703	1.65762220248323	1.98057381061832	1.74708830225922	1.65762220248323	-0.0894660997759948	0.59615315871703	1.65762220248323	1.74708830225922	1.65762220248323	-0.59615315871703	-1.6552598084957697	-0.0719874674147255	1.5016243254311958	1.1688713056381457	-0.16520923468651416	1.5016243254311958	-1.6287917067667923	-0.15942235887554612	1.4958374496202271	-0.26539251389971463	1.6950293719161844	3	correct	1.0
462.5583516999616	8.833960899966542	nogo_reward	1.0	462.60434449999593	464.8231414000036	467.34736030001636	2.2187969000076464	463.60474440001394	466.3380843000484	470.41368250001665	1.2183969999896362	1.0092759999679402	1.0246228999458253	469.4002040000628	0.4858783000381663	468.37196380004707	2	1	54	3	nogo_reward	0	1	0	0	0	1	0	0.0	1.0	0	1.0	0.4858783000381663	1469.9326891000385	1932.5370336000344	1933.5374335000524	1934.755830500042	1936.270773400087	1937.2800494000548	1938.3046529000856	1939.3328931001013	1940.3463716000551	1941.370994500001	2020-03-31 16:39:24.731603	-0.0180299777702991	0.550958667719403	1.65762220248323	1.83929802894394	1.67565218025353	1.65762220248323	0.0180299777702991	1.65762220248323	0.550958667719403	1.65762220248323	1.67565218025353	-1.65762220248323	-1.7627558860420636	-0.11718195841235246	1.5016243254311958	1.027595523963766	-0.2366453566922042	1.5016243254311958	-2.690260750532992	-0.2488884586515363	1.5138674273905273	0.7960765298664852	0.5883658371523577	3	correct	1.0
471.43328110000607	8.128231799928244	go_punish	1.0	471.4792739000404	473.1986837000584	475.7332266999872	1.7194098000179565	472.47859469999025	474.7134564999719	478.77985549997516	0.7200890000681284	1.019770200015273	0.8276501999935135	477.77621330006514	0.4149127000709995	476.7509160999905	2	1	55	2	go_punish	0	-1	0	1	0	0	0	0.0	1.0	0	1.0	0.4149127000709995	1469.9326891000385	1941.411963000079	1942.4112838000287	1943.1313728000969	1944.6461456000104	1945.6659158000257	1946.683605200029	1947.7089024001036	1948.7125446000136	1949.5401948000072	2020-03-31 16:39:24.731603	-0.712896958367978	-0.750883532832616	-0.728419696380462	-1.13139619887598	-0.0155227380124842	-0.728419696380462	0.712896958367978	-0.728419696380462	-0.750883532832616	-0.728419696380462	-0.0155227380124842	0.728419696380462	-2.4576228666397424	-1.4190241589643715	-0.8844175734324959	-1.9430987038561542	-1.9278202749582185	-0.8844175734324959	-0.3042188516693002	-2.6349303575152283	-0.17730749087548706	-1.5899653689972066	-0.7134763633996614	3	correct	1.0
479.6041862999555	7.895892200060189	nogo_reward	0.3435388000216335	479.6501790999898	480.97435380006186	483.5175632999742	1.3241747000720352	480.65841150004394	482.49666890001345	486.5729936000423	0.3159423000179231	1.0208943999607527	0.9730777000077069	485.5600459000559	0.4626870000502094	484.5321958999846	2	1	56	3	nogo_reward	1	0	1	0	1	0	1	1.0	1.0	0	0.3435388000216335	0.4626870000502094	1469.9326891000385	1949.5828682000283	1950.5911006000824	1950.9070429001004	1952.429358000052	1953.4502524000127	1954.464885000023	1955.4927350000944	1956.5056827000808	1957.4787604000885	2020-03-31 16:39:24.731603	0.116975186144224	0.550958667719403	1.53558231354435	1.71173037882274	1.65255749968857	1.53558231354435	-0.116975186144224	0.550958667719403	1.53558231354435	1.65255749968857	1.53558231354435	-0.550958667719403	-1.6277507221275405	-0.11718195841235246	1.379584436492316	0.9000278738425659	-0.2597400372571643	1.379584436492316	-1.5835972157691653	-0.2539531614461963	1.3737975606813473	-0.3105870048973416	1.5729894829773046	3	correct	1.0
487.54155989992387	8.719804000109662	go_punish	0.3682850000914186	487.5875526999582	489.25358030002076	491.80683370004385	1.6660276000625345	488.5978726999599	490.78728639997985	494.8391874000663	0.6557076000608504	1.019547300064005	1.4681693000015912	493.835768799996	0.5537381999893114	492.81518519995757	2	1	57	2	go_punish	1	0	-1	1	1	1	1	0.0	0.0	0	0.3682850000914186	0.5537381999893114	1469.9326891000385	1957.5202417999967	1958.5305617999984	1959.1862694000592	1960.7199755000183	1961.7395228000823	1962.747874299996	1963.7684579000345	1964.7718765001048	1966.2400458001064	2020-03-31 16:39:24.731603	0.668002993031313	-0.750883532832616	-0.675242210304322	-1.05845937219096	-0.0072392172730087	-0.675242210304322	-0.668002993031313	-0.750883532832616	-0.675242210304322	-0.0072392172730087	-0.675242210304322	0.750883532832616	-1.0767229152404516	-1.4190241589643715	-0.8312400873563559	-1.8701618771711344	-1.919536754218743	-0.8312400873563559	-0.2817550152171462	-1.9137498784077749	-0.8370269631673248	-1.6124292054493607	-0.6378350408713673	3	wrong	1.0
496.3041482999688	9.409327500034351	go_punish	0.318373900023289	496.35014110000316	498.7594653000119	501.2962659000184	2.4093242000087685	497.3469112999735	500.2750085999719	504.3599067999746	1.4125540000384262	1.0212573000465	1.3995618000628838	503.3468802999703	0.4962862000102177	502.3166258999843	2	1	58	2	go_punish	1	0	-1	1	1	1	0	1.0	0.0	0	0.318373900023289	0.4962862000102177	1469.9326891000385	1966.2828302000416	1967.279600400012	1968.6921544000504	1970.2076977000104	1971.2289550000569	1972.2493150000228	1973.2795694000088	1974.292595900013	1975.692157700076	2020-03-31 16:39:24.731603	0.725806231123962	-0.700475551631123	-0.675242210304322	-0.991710900416637	0.05056402081964	-0.675242210304322	-0.725806231123962	-0.700475551631123	-0.675242210304322	0.05056402081964	-0.675242210304322	0.700475551631123	-1.0189196771478026	-1.3686161777628785	-0.8312400873563559	-1.8034134053968112	-1.8617335161260942	-0.8312400873563559	-0.3321629964186392	-1.8559466403151261	-0.8370269631673248	-1.5620212242478675	-0.6378350408713673	3	wrong	1.0
505.73960369999986	9.837358099990524	go_reward	0.3747946999501437	505.7855965000342	508.7602687999604	511.3194095999936	2.974672299926169	506.7947713000465	510.2915708000071	514.3562316000459	1.9654974999139085	1.0278387999865117	1.2667229999788105	513.3429045999656	0.5830897999694571	512.3228520000118	2	1	59	4	go_reward	1	1	0	1	1	1	0	0.0	1.0	1	0.3747946999501437	0.5830897999694571	1469.9326891000385	1975.7182856000727	1976.727460400085	1978.6929578999989	1980.2242599000456	1981.252098700032	1982.2555411000503	1983.275593700004	1984.2889207000844	1985.5556437000632	2020-03-31 16:39:24.731603	4.86797849319474	3.96883629712436	0.59615315871703	4.29257169743836	5.46413165191177	0.59615315871703	-4.86797849319474	3.96883629712436	0.59615315871703	5.46413165191177	0.59615315871703	6.8839237906160395	3.1232525849229757	3.3006956709926043	0.44015528166499607	3.480869192458186	3.5518341149660357	0.44015528166499607	5.851285242566277	3.5576209907770036	0.43436840585402714	3.1072906245076153	0.6335603281499846	3	correct	1.0
515.6029166999508	9.170728299999382	nogo_punish	1.0	515.6489094999852	518.0135171000145	520.5498581000136	2.3646076000293306	516.6581920000024	519.530010499991	523.6074916999785	1.3553251000121236	1.0198476000225583	1.2121461000060663	522.5939984000286	0.5051217000000179	521.5677634000308	2	1	60	1	nogo_punish	1	-1	0	0	0	1	0	0.0	1.0	0	1.0	0.5051217000000179	1469.9326891000385	1985.5815986000237	1986.5908811000409	1987.946206200053	1989.4626996000295	1990.482547200052	1991.5004525000693	1992.526687500067	1993.540180800017	1994.752326900023	2020-03-31 16:39:24.731603	0.898409619550242	-1.59415798603609	0.0	-1.49752702704947	-0.898409619550242	0.0	-0.898409619550242	0.0	-1.59415798603609	0.0	-0.898409619550242	0.0	-0.8463162887215225	-2.2622986121678457	-0.15599787705203394	-2.309229532029644	-2.810707156495976	-0.15599787705203394	-1.0326385480497622	-1.9065106611347662	-1.0601943724132448	-0.8615456726167446	-1.5567508166031354	3	correct	1.0
