onset	duration	trial_type	response_time	cueOnset	targetOnset	fbOnset	cueRT	firstfixOnset	secondfixOnset	waitOnset	firstfixdur	secondfixdur	waitdur	nback_fbOnset	nback_response_time	nback_targetOnset	block	wm	trial	cue	cond	is_common	outcome_go	outcome_nogo	key_correct	key_pressed	is_correct	key_correct_nback	key_pressed_nback	is_correct_nback	outcome	rt	rt_nback	time_scan	time_onset	time_isi1	time_circle	time_isi2	time_feedback	time_same	time_correct	time_iti	time_done	timestamp_scan	DV	Qgo	Qnogo	SV	Wgo	Wnogo	mDV	Qchosen	Qunchosen	Wchosen	Wunchosen	PE	DVC	QgoC	QnogoC	SVC	WgoC	WnogoC	PEC	WchosenC	WunchosenC	QchosenC	QunchosenC	run	outcome_nback	nback_targetResp
0.0	6.461730299983174	go_punish	1.0	0.025150000001190165	1.5813096000347286	4.120077900006322	1.5561596000335385	1.0158535999943297	3.0955030999612063	5.134713700041175	0.565456000040399	1.0245748000451158	1.3521665999431889	n/a	1.0	n/a	1	0	61	2	go_punish	1	0	-1	1	0	0	0	n/a	n/a	-1	1.0	1.0	984.3356228000484	984.3607728000496	985.3514764000428	985.9169324000832	987.4311259000096	988.4557007000548	n/a	n/a	989.4703365000896	990.8225031000328	2020-03-31 16:31:19.142771	-0.593962629100399	-0.424812274345491	-1.27671662504972	-1.34758780350607	-0.68275399594932	-1.27671662504972	0.593962629100399	-1.27671662504972	-0.424812274345491	-1.27671662504972	-0.68275399594932	-3.50452395247037	-2.3386885373721635	-1.0929529004772465	-1.4327145021017538	-2.159290308486244	-2.595051532895054	-1.4327145021017538	-4.537162500520132	-3.1832272861844864	-0.8445387488123228	-2.1382622976664645	-0.38740510491253644	2	missed	0.0
6.5025297000539695	6.335292599978743	nogo_reward	0.4543182000052184	6.52767970005516	7.927898499998378	10.469684800016807	1.400218799943218	7.537645500036774	9.449951500049792	11.474342399975171	0.39025299996160356	1.0197332999670152	1.3886299000587314	n/a	1.0	n/a	1	0	62	3	nogo_reward	1	0	1	0	1	0	0	n/a	n/a	0	0.4543182000052184	1.0	984.3356228000484	990.8633025001036	991.8732683000852	992.2635213000468	993.7855743000982	994.8053076000652	n/a	n/a	995.8099652000236	997.1985951000823	2020-03-31 16:31:19.142771	2.43914533137973	1.39374135919349	1.60392175064266	2.13952697705197	4.04306708202238	1.60392175064266	-2.43914533137973	1.39374135919349	1.60392175064266	4.04306708202238	1.60392175064266	-1.39374135919349	0.6944194231079657	0.7256007330617344	1.447923873590626	1.327824472071796	2.1307695450766455	1.447923873590626	-2.426379907243252	2.1365564208876133	1.4421369977796572	0.5321956865767453	1.6413289200756145	2	missed	0.0
12.876168600050732	5.841626899899211	nogo_reward	0.6094602000666782	12.901318600051923	14.262591099948736	16.80472360004194	1.3612724998968133	13.9137398999884	15.79428419994656	17.808095499989577	0.3488511999603361	1.010439400095379	0.9348499999615569	n/a	1.0	n/a	1	0	63	3	nogo_reward	1	0	1	0	1	0	0	n/a	n/a	0	0.6094602000666782	1.0	984.3356228000484	997.2369414001004	998.2493627000368	998.5982138999972	1000.129906999995	1001.1403464000904	n/a	n/a	1002.143718300038	1003.0785682999996	2020-03-31 16:31:19.142771	2.23370773144261	1.30365587504174	1.60392175064266	2.00683925772786	3.83762948208526	1.60392175064266	-2.23370773144261	1.30365587504174	1.60392175064266	3.83762948208526	1.60392175064266	-1.30365587504174	0.4889818231708454	0.6355152489099845	1.447923873590626	1.1951367527476862	1.9253319451395257	1.447923873590626	-2.336294423091502	1.9311188209504937	1.4421369977796572	0.4421102024249953	1.6413289200756145	2	missed	0.0
18.75482559995737	6.111926699988544	nogo_punish	0.5764843999641016	18.77997559995856	20.05668569996476	22.601696599973366	1.2767101000061984	19.775139500037767	21.578225699951986	23.61085339996498	0.2815461999269928	1.0234709000213797	1.2810488999821246	n/a	1.0	n/a	1	0	64	1	nogo_punish	1	-1	0	0	1	0	0	n/a	n/a	-1	0.5764843999641016	1.0	984.3356228000484	1003.115598400007	1004.1107623000862	1004.3923085000132	1005.9138485000004	1006.9373194000218	n/a	n/a	1007.9464762000134	1009.2275250999955	2020-03-31 16:31:19.142771	-0.246042098273109	-0.722585615069351	-0.409076221967083	-0.946497153533612	-0.655118320240192	-0.409076221967083	0.246042098273109	-0.722585615069351	-0.409076221967083	-0.655118320240192	-0.409076221967083	-4.058654962450738	-1.9907680065448736	-1.3907262412011065	-0.565074099019117	-1.758199658513786	-2.5674158571859262	-0.565074099019117	-5.091293510500501	-2.561628981374958	-0.5708609748300859	-1.5841312876860956	-0.3716690525341284	2	missed	0.0
24.905192599981206	5.748434400069527	go_reward	0.3069278999464586	24.930342599982396	26.29419839999173	28.842110399971716	1.3638558000093326	25.934682899969516	27.81668010004796	29.84153680002794	0.3595155000222121	1.0254302999237552	0.8372402000239845	n/a	1.0	n/a	1	0	65	4	go_reward	1	1	0	1	1	1	0	n/a	n/a	1	0.3069278999464586	1.0	984.3356228000484	1009.2659654000308	1010.270305700018	1010.6298212000402	1012.1523029000964	1013.1777332000202	n/a	n/a	1014.1771596000764	1015.0143998001004	2020-03-31 16:31:19.142771	9.05340106942949	4.66736150423256	0.597741653029775	4.88721990611648	9.65114272245927	0.597741653029775	-9.05340106942949	4.66736150423256	0.597741653029775	9.65114272245927	0.597741653029775	6.1853985835078396	7.308675161157726	3.9992208781008047	0.44174377597774106	4.075517401136305	7.738845185513535	0.44174377597774106	5.152760035458077	7.744632061324503	0.43595690016677213	3.8058158316158157	0.6351488224627296	2	missed	0.0
30.68811200000357	6.7590727000496145	nogo_punish	1.0	30.71326200000476	32.552899600006754	35.064472300000375	1.8396376000019927	31.71995469997637	34.05954379995819	36.0818022999448	0.8329449000303839	1.0049285000421833	1.3905324001095778	n/a	1.0	n/a	1	0	66	1	nogo_punish	1	-1	0	0	0	1	1	n/a	n/a	0	1.0	1.0	984.3356228000484	1015.0488848000532	1016.0555775000248	1016.8885224000552	1018.3951666000066	1019.4000951000488	n/a	n/a	1020.4174250999932	1021.8079575001028	2020-03-31 16:31:19.142771	0.61906918324367	-0.932752603766524	-0.409076221967083	-1.1447776330061	-1.02814540521075	-0.409076221967083	-0.61906918324367	-0.409076221967083	-0.932752603766524	-0.409076221967083	-1.02814540521075	0.409076221967083	-1.1256567250280947	-1.6008932298982796	-0.565074099019117	-1.956480137986274	-2.9404429421564844	-0.565074099019117	-0.6235623260826793	-2.315586883101849	-1.1899301580737527	-1.2706218945838277	-0.8953454343335694	2	missed	0.0
37.48886080004752	6.07693759992253	nogo_reward	0.3092236999655142	37.51401080004871	39.275897899991946	41.81829550000839	1.7618870999432374	38.51401220005937	40.80842550005764	42.83204739994835	0.7618856999325772	1.0098699999507517	0.7589010000228882	n/a	1.0	n/a	1	0	67	3	nogo_reward	1	0	1	0	1	0	0	n/a	n/a	0	0.3092236999655142	1.0	984.3356228000484	1021.8496336000971	1022.8496350001078	1023.6115207000404	1025.144048300106	1026.1539183000568	n/a	n/a	1027.1676701999968	1027.9265712000197	2020-03-31 16:31:19.142771	2.04393003571189	1.22047305195303	1.60392175064266	1.88394143255583	3.64785178635455	1.60392175064266	-2.04393003571189	1.22047305195303	1.60392175064266	3.64785178635455	1.60392175064266	-1.22047305195303	0.29920412744012537	0.5523324258212745	1.447923873590626	1.0722389275756559	1.7355542494088159	1.447923873590626	-2.253111600002792	1.741341125219784	1.4421369977796572	0.3589273793362854	1.6413289200756145	2	missed	0.0
43.60297410003852	6.2237222999101505	nogo_punish	1.0	43.62812410003971	45.132682500057854	47.657203100039624	1.5045584000181407	44.632775599951856	46.63770459999796	48.670350400032476	0.4999069001059979	1.0194985000416636	1.181495999917388	n/a	1.0	n/a	1	0	68	1	nogo_punish	1	-1	0	0	0	1	1	n/a	n/a	0	1.0	1.0	984.3356228000484	1027.9637469000882	1028.9683984000003	1029.4683053001063	1030.9733274000464	1031.992825900088	n/a	n/a	1033.005973200081	1034.1874691999983	2020-03-31 16:31:19.142771	0.584423739662596	-0.932752603766524	-0.383120986703222	-1.07288775221702	-0.967544726365818	-0.383120986703222	-0.584423739662596	-0.383120986703222	-0.932752603766524	-0.383120986703222	-0.967544726365818	0.383120986703222	-1.1603021686091686	-1.6008932298982796	-0.539118863755256	-1.884590257197194	-2.879842263311552	-0.539118863755256	-0.6495175613465403	-2.289631647837988	-1.1293294792288209	-1.2446666593199667	-0.8953454343335694	2	missed	0.0
49.86210170004085	5.824683899991214	nogo_punish	1.0	49.88725170004204	51.209907999960706	53.75039569998626	1.3226562999186626	50.89304770005401	52.72639430000004	54.75000190001447	0.3168602999066934	1.0240013999862185	0.9619337000187898	n/a	1.0	n/a	1	0	69	1	nogo_punish	0	0	-1	0	0	1	0	n/a	n/a	-1	1.0	1.0	984.3356228000484	1034.2228745000905	1035.2286705001025	1035.5455308000091	1037.0620171000485	1038.0860185000347	n/a	n/a	1039.085624700063	1040.0475584000817	2020-03-31 16:31:19.142771	0.552485792333654	-0.932752603766524	-0.35912894238552	-1.00638554207918	-0.911614734719174	-0.35912894238552	-0.552485792333654	-0.35912894238552	-0.932752603766524	-0.35912894238552	-0.911614734719174	-4.42211163513457	-1.1922401159381106	-1.6008932298982796	-0.515126819437554	-1.8180880470593541	-2.8239122716649083	-0.515126819437554	-5.454750183184332	-2.2656396035202864	-1.0733994875821768	-1.2206746150022647	-0.8953454343335694	2	missed	0.0
55.72386220004421	6.89525299996626	go_punish	0.2540367000037804	55.7490122000454	57.75418869999726	60.29713940003444	2.005176499951858	56.75491040002066	59.28453469998203	61.299670599983074	0.999278299976595	1.0126047000524068	1.3445946000285858	n/a	1.0	n/a	1	0	70	2	go_punish	1	0	-1	1	1	1	0	n/a	n/a	0	0.2540367000037804	1.0	984.3356228000484	1040.0846350000938	1041.090533200069	1042.0898115000457	1043.6201575000305	1044.6327622000829	n/a	n/a	1045.6352934000315	1046.97988800006	2020-03-31 16:31:19.142771	0.626493158664625	-0.424812274345491	-1.45246110312447	-1.52230026903438	-0.825967944459844	-1.45246110312447	-0.626493158664625	-0.424812274345491	-1.45246110312447	-0.825967944459844	-1.45246110312447	0.424812274345491	-1.1182327496071396	-1.0929529004772465	-1.6084589801765041	-2.334002774014554	-2.7382654814055782	-1.6084589801765041	-0.6078262737042712	-2.7324786055946104	-1.6142458559874728	-1.2863579469622357	-1.4150539336915156	2	missed	0.0
62.65513690002274	7.041006400017068	nogo_punish	0.2946068999590352	62.68028690002393	65.20859309996013	67.75912099995185	2.528306199936196	63.694954499951564	66.73417840001639	68.76833780005109	1.5136386000085622	1.024942599935457	0.9529554999899119	n/a	1.0	n/a	1	0	71	1	nogo_punish	1	-1	0	0	1	0	1	n/a	n/a	-1	0.2946068999590352	1.0	984.3356228000484	1047.0159097000724	1048.0305773	1049.5442159000086	1051.0698012000648	1052.0947438000003	n/a	n/a	1053.1039606000995	1054.0569161000894	2020-03-31 16:31:19.142771	-0.478251896340613	-0.932752603766524	-0.594427261122005	-1.20230101953272	-1.07267915746262	-0.594427261122005	0.478251896340613	-0.932752603766524	-0.594427261122005	-1.07267915746262	-0.594427261122005	-3.8484879737535658	-2.2229778046123774	-1.6008932298982796	-0.7504251381740389	-2.014003524512894	-2.9849766944083544	-0.7504251381740389	-4.881126521803328	-2.979189818597386	-0.7562120139850078	-1.7942982763832687	-0.5570200916890503	2	missed	0.0
69.73032890004117	7.505280999932438	nogo_punish	1.0	69.75547890004236	72.24723119998816	74.77646540000546	2.4917522999458015	70.77227830002084	73.76198780001164	75.78569609997794	1.4749528999673203	1.0144775999938247	1.4750637999968603	n/a	1.0	n/a	1	0	72	1	nogo_punish	0	0	-1	0	0	1	0	n/a	n/a	-1	1.0	1.0	984.3356228000484	1054.0911017000908	1055.1079011000693	1056.5828540000366	1058.09761060006	1059.112088200054	n/a	n/a	1060.1213189000264	1061.5963827000232	2020-03-31 16:31:19.142771	0.825423952468947	-1.1295283302705	-0.594427261122005	-1.38562289762617	-1.41985121359095	-0.594427261122005	-0.825423952468947	-0.594427261122005	-1.1295283302705	-0.594427261122005	-1.41985121359095	-4.186813316398085	-0.9193019558028176	-1.7976689564022554	-0.7504251381740389	-2.197325402606344	-3.3321487505366845	-0.7504251381740389	-5.219451864447848	-2.500937922256771	-1.5816359664539528	-1.4559729337387495	-1.0921211608375454	2	missed	0.0
77.2716355000158	6.112570800003596	go_reward	0.2694040999049321	77.296785500017	78.85774899995886	81.39175239996985	1.5609634999418631	78.31182009994518	80.37963990005665	82.40935590001754	0.5459289000136778	1.0121124999132007	1.0000004000030458	n/a	1.0	n/a	1	0	73	4	go_reward	0	0	1	1	1	1	0	n/a	n/a	0	0.2694040999049321	1.0	984.3356228000484	1061.6324083000654	1062.6474428999936	1063.1933718000073	1064.715262700105	1065.7273752000183	n/a	n/a	1066.744978700066	1067.744979100069	2020-03-31 16:31:19.142771	9.59532729703057	4.9676988638253	0.597741653029775	5.17524924886813	10.1930689500603	0.597741653029775	-9.59532729703057	4.9676988638253	0.597741653029775	10.1930689500603	0.597741653029775	-4.9676988638253	7.850601388758806	4.299558237693544	0.44174377597774106	4.363546743887955	8.280771413114564	0.44174377597774106	-6.000337411875062	8.286558288925534	0.43595690016677213	4.106153191208555	0.6351488224627296	2	missed	0.0
83.42111480003234	6.723243099986348	nogo_punish	0.2527966999914497	83.44626480003353	85.14447489997838	87.6872386999894	1.6982100999448448	84.46263460000046	86.67500639997866	88.70157739997376	0.681840299977921	1.0122323000107372	1.4679305000461227	n/a	1.0	n/a	1	0	74	1	nogo_punish	0	0	-1	0	1	0	1	n/a	n/a	0	0.2527966999914497	1.0	984.3356228000484	1067.781887600082	1068.798257400049	1069.4800977000268	1071.010629200027	1072.0228615000378	n/a	n/a	1073.0372002000222	1074.5051307000683	2020-03-31 16:31:19.142771	-0.746154331046257	-1.1295283302705	-0.814272333261614	-1.5573224367112	-1.56042666430787	-0.814272333261614	0.746154331046257	-1.1295283302705	-0.814272333261614	-1.56042666430787	-0.814272333261614	1.1295283302705	-2.4908802393180216	-1.7976689564022554	-0.9702702103136479	-2.3690249416913742	-3.4727242012536044	-0.9702702103136479	0.09688978222073774	-3.466937325442636	-0.9760570861246168	-1.9910740028872445	-0.7768651638286593	2	missed	0.0
90.18094260001101	6.7719886000270435	go_punish	1.0	90.2060926000122	92.25836440001149	94.77725449996069	2.052271799999289	91.21010160003789	93.76309859997127	95.78079540003091	1.0482627999735996	1.0141558999894187	1.1972858000083306	n/a	1.0	n/a	1	0	75	2	go_punish	1	0	-1	1	0	0	0	n/a	n/a	-1	1.0	1.0	984.3356228000484	1074.5417154000606	1075.5457244000863	1076.59398720006	1078.0987214000197	1079.1128773000091	n/a	n/a	1080.1164182000794	1081.3137040000877	2020-03-31 16:31:19.142771	-0.732505409990108	-0.397628934502784	-1.45246110312447	-1.42849754406412	-0.719955693134362	-1.45246110312447	0.732505409990108	-1.45246110312447	-0.397628934502784	-1.45246110312447	-0.719955693134362	-3.3287794743956196	-2.4772313182618726	-1.0657695606345396	-1.6084589801765041	-2.240200049044294	-2.6322532300800963	-1.6084589801765041	-4.361418022445382	-3.3589717642592363	-0.8817404459973649	-2.314006775741215	-0.36022176506982945	2	missed	0.0
96.99224020005215	7.014380299951881	go_punish	0.325744199915789	97.01739020005334	99.30648739996832	101.85408760001883	2.289097199914977	98.02437869994924	100.8428085000487	102.86652779998258	1.28210870001908	1.0112790999701247	1.1652427000226453	n/a	1.0	n/a	1	0	76	2	go_punish	1	0	-1	1	1	1	0	n/a	n/a	0	0.325744199915789	1.0	984.3356228000484	1081.3530130001018	1082.3600014999977	1083.6421102000168	1085.1784313000971	1086.1897104000673	n/a	n/a	1087.202150600031	1088.3673933000537	2020-03-31 16:31:19.142771	0.757523856135958	-0.397628934502784	-1.61736183011228	-1.59910181200026	-0.859837973976319	-1.61736183011228	-0.757523856135958	-0.397628934502784	-1.61736183011228	-0.859837973976319	-1.61736183011228	0.397628934502784	-0.9872020521358066	-1.0657695606345396	-1.773359707164314	-2.410804316980434	-2.772135510922053	-1.773359707164314	-0.6350096135469782	-2.7663486351110853	-1.779146582975283	-1.2591746071195287	-1.5799546606793256	2	missed	0.0
104.04532639996626	7.206871400005184	go_punish	0.2970932000316679	104.07047639996745	106.49508470005844	109.02408200001787	2.424608300090995	105.0733929000562	108.0181225000415	110.02839460002724	1.421691800002236	1.0059594999763704	1.2489531999453902	n/a	1.0	n/a	1	0	77	2	go_punish	1	0	-1	1	1	1	1	n/a	n/a	0	0.2970932000316679	1.0	984.3356228000484	1088.406099200016	1089.4090157001046	1090.8307075001069	1092.35374530009	1093.3597048000663	n/a	n/a	1094.3640174000757	1095.612970600021	2020-03-31 16:31:19.142771	0.864593805225552	-0.372520204578722	-1.61736183011228	-1.5014324879015	-0.752768024886724	-1.61736183011228	-0.864593805225552	-0.372520204578722	-1.61736183011228	-0.752768024886724	-1.61736183011228	0.372520204578722	-0.8801321030462126	-1.0406608307104774	-1.773359707164314	-2.313134992881674	-2.665065561832458	-1.773359707164314	-0.6601183434710403	-2.6592786860214903	-1.779146582975283	-1.2340658771954667	-1.5799546606793256	2	missed	0.0
111.28819230000965	6.141471500042826	nogo_punish	0.3376763999694958	111.31334230001085	113.00153610005509	115.54636499995831	1.688193800044246	112.32936490001157	114.52083449996985	116.55527320003603	0.6721712000435218	1.025530499988463	0.8995406000176445	n/a	1.0	n/a	1	0	78	1	nogo_punish	1	-1	0	0	1	0	0	n/a	n/a	-1	0.3376763999694958	1.0	984.3356228000484	1095.6489651000593	1096.66498770006	1097.3371589001035	1098.8564573000183	1099.8819878000068	n/a	n/a	1100.8908960000845	1101.790436600102	2020-03-31 16:31:19.142771	-0.591837358460872	-1.05642992604337	-0.814272333261614	-1.46078357214626	-1.40610969172249	-0.814272333261614	0.591837358460872	-1.05642992604337	-0.814272333261614	-1.40610969172249	-0.814272333261614	-3.72481065147672	-2.336563266732637	-1.7245705521751256	-0.9702702103136479	-2.2724860771264344	-3.3184072286682245	-0.9702702103136479	-4.757449199526482	-3.312620352857256	-0.9760570861246168	-1.9179755986601146	-0.7768651638286593	2	missed	0.0
117.46629460004635	6.358846599934623	go_punish	0.2746067999396473	117.49144460004754	119.28863930003718	121.82446150004398	1.7971946999896318	118.50611610000465	120.80925839999668	122.83481080003548	0.7825232000325286	1.0152031000473016	1.0154803999466822	n/a	1.0	n/a	1	0	79	2	go_punish	1	0	-1	1	1	1	1	n/a	n/a	0	0.2746067999396473	1.0	984.3356228000484	1101.827067400096	1102.841738900053	1103.6242621000856	1105.1448812000451	1106.1600843000924	n/a	n/a	1107.170433600084	1108.1859140000306	2020-03-31 16:31:19.142771	0.96361766705283	-0.349302012458155	-1.61736183011228	-1.41089623926644	-0.653744163059447	-1.61736183011228	-0.96361766705283	-0.349302012458155	-1.61736183011228	-0.653744163059447	-1.61736183011228	0.349302012458155	-0.7811082412189345	-1.0174426385899105	-1.773359707164314	-2.222598744246614	-2.566041700005181	-1.773359707164314	-0.6833365355916072	-2.5602548241942134	-1.779146582975283	-1.2108476850748997	-1.5799546606793256	2	missed	0.0
123.86286650004342	5.874261899967678	go_punish	0.3317088999319821	123.88801650004461	125.39248529996257	127.93609570001718	1.5044687999179587	124.89191739994567	126.91627499996684	128.94951930001844	0.5005679000169039	1.0198207000503317	0.8127590999938548	n/a	1.0	n/a	1	0	80	2	go_punish	1	0	-1	1	1	1	0	n/a	n/a	0	0.3317088999319821	1.0	984.3356228000484	1108.223639300093	1109.227540199994	1109.728108100011	1111.2518978000153	1112.2717185000656	n/a	n/a	1113.2851421000669	1114.0979012000607	2020-03-31 16:31:19.142771	1.05529895748746	-0.327808942153297	-1.61736183011228	-1.32688582901192	-0.562062872624813	-1.61736183011228	-1.05529895748746	-0.327808942153297	-1.61736183011228	-0.562062872624813	-1.61736183011228	0.327808942153297	-0.6894269507843045	-0.9959495682850525	-1.773359707164314	-2.1385883339920944	-2.474360409570547	-1.773359707164314	-0.7048296058964652	-2.4685735337595793	-1.779146582975283	-1.1893546147700416	-1.5799546606793256	2	missed	0.0
129.7777337000008	5.881722499965463	nogo_reward	0.374936299980618	129.80288370000198	131.16228369995952	133.72270010004286	1.3593999999575317	130.80191080004442	132.69889790006005	134.72229149995837	0.3603728999150917	1.0238021999828106	0.9623147000090739	n/a	1.0	n/a	1	0	81	3	nogo_reward	0	1	0	0	1	0	0	n/a	n/a	1	0.374936299980618	1.0	984.3356228000484	1114.1385065000504	1115.1375336000929	1115.497906500008	1117.0345207001085	1118.0583229000913	n/a	n/a	1119.0579143000068	1120.020229000016	2020-03-31 16:31:19.142771	1.86843526696317	1.14358344630965	1.60392175064266	1.76999819778228	3.47235701760582	1.60392175064266	-1.86843526696317	1.14358344630965	1.60392175064266	3.47235701760582	1.60392175064266	9.70917664143075	0.12370935869140554	0.4754428201778944	1.447923873590626	0.9582956928021059	1.5600594806600858	1.447923873590626	8.676538093380987	1.5658463564710539	1.4421369977796572	0.2820377736929053	1.6413289200756145	2	missed	0.0
135.69532890000858	6.911952499998733	nogo_punish	1.0	135.72047890000977	137.69518120004795	140.2131966999732	1.9747023000381887	136.72709329996724	139.2026620999677	141.2161029999843	0.9680879000807181	1.0105346000054851	1.416328400024213	n/a	1.0	n/a	1	0	82	1	nogo_punish	1	-1	0	0	0	1	0	n/a	n/a	0	1.0	1.0	984.3356228000484	1120.0561017000582	1121.0627161000157	1122.0308040000964	1123.5382849000162	1124.5488195000216	n/a	n/a	1125.5517258000327	1126.968054200057	2020-03-31 16:31:19.142771	0.919594801311755	-1.24647262487175	-0.814272333261614	-1.62889947188722	-1.73386713457337	-0.814272333261614	-0.919594801311755	-0.814272333261614	-1.24647262487175	-0.814272333261614	-1.73386713457337	0.814272333261614	-0.8251311069600096	-1.9146132510035054	-0.9702702103136479	-2.440601976867394	-3.646164671519104	-0.9702702103136479	-0.21836621478814822	-2.72078299439638	-1.8956518874363728	-1.6758180058783587	-1.2090654554387954	2	missed	0.0
142.65106730000127	6.800064599956386	nogo_reward	0.2945221000118181	142.67621730000246	145.16573420003988	147.70165199995972	2.4895169000374153	143.68361439998262	146.6893022999866	148.70152789994586	1.4821198000572622	1.0123496999731287	0.7747540000129902	n/a	1.0	n/a	1	0	83	3	nogo_reward	0	1	0	0	1	0	1	n/a	n/a	1	0.2945221000118181	1.0	984.3356228000484	1127.011840100051	1128.019237200031	1129.5013570000883	1131.024925100035	1132.0372748000082	n/a	n/a	1133.0371506999943	1133.8119047000073	2020-03-31 16:31:19.142771	2.81556637890796	1.67018002882624	1.60392175064266	2.26199660639154	4.41948812955061	1.60392175064266	-2.81556637890796	1.67018002882624	1.60392175064266	4.41948812955061	1.60392175064266	9.18258005891416	1.0708404706361956	1.0020394026944845	1.447923873590626	1.450294101411366	2.5071905926048754	1.447923873590626	8.149941510864398	2.5129774684158432	1.4421369977796572	0.8086343562094954	1.6413289200756145	2	missed	0.0
149.49158409994573	6.339288300019689	nogo_reward	0.2909521000692621	149.51673409994692	151.32227809994947	153.87499060004484	1.8055440000025555	150.53413010004442	152.85442680004053	154.87829400005285	0.7881479999050498	1.020563800004311	0.977728399913758	n/a	1.0	n/a	1	0	84	3	nogo_reward	1	0	1	0	1	0	0	n/a	n/a	0	0.2909521000692621	1.0	984.3356228000484	1133.8523568999954	1134.8697529000929	1135.657900899998	1137.190049600089	1138.2106134000933	n/a	n/a	1139.2139168001013	1140.191645200015	2020-03-31 16:31:19.142771	3.69858753974381	2.16164255557824	1.60392175064266	2.72112848465704	5.30250929038647	1.60392175064266	-3.69858753974381	2.16164255557824	1.60392175064266	5.30250929038647	1.60392175064266	-2.16164255557824	1.9538616314720454	1.4935019294464844	1.447923873590626	1.909425979676866	3.390211753440736	1.447923873590626	-3.1942811036280023	3.3959986292517037	1.4421369977796572	1.3000968829614954	1.6413289200756145	2	missed	0.0
155.86835110001277	6.978662200039253	go_punish	0.4256313999649137	155.89350110001396	157.95359259995166	160.47897079994436	2.0600914999376982	156.90693179995287	159.46826999995392	161.48279659997206	1.04666079999879	1.0107007999904454	1.3893667000811547	n/a	1.0	n/a	1	0	85	2	go_punish	1	0	-1	1	1	1	0	n/a	n/a	0	0.4256313999649137	1.0	984.3356228000484	1140.2291239000624	1141.2425546000013	1142.2892154	1143.8038928000024	1144.8145935999928	n/a	n/a	1145.8184194000205	1147.2077861001017	2020-03-31 16:31:19.142771	1.14027094537491	-0.307892094684609	-1.61736183011228	-1.24885317593472	-0.477090884737362	-1.61736183011228	-1.14027094537491	-0.307892094684609	-1.61736183011228	-0.477090884737362	-1.61736183011228	0.307892094684609	-0.6044549628968545	-0.9760327208163645	-1.773359707164314	-2.060555680914894	-2.3893884216830963	-1.773359707164314	-0.7247464533651532	-2.383601545872128	-1.779146582975283	-1.1694377673013536	-1.5799546606793256	2	missed	0.0
162.8876308000182	7.53924009995535	go_reward	0.2749790999805555	162.9127808000194	165.65428929997165	168.2086975000566	2.7415084999522605	163.92223689996172	167.18468289996963	169.2177617000416	1.732052400009934	1.0240146000869572	1.234259199933149	n/a	1.0	n/a	1	0	86	4	go_reward	1	1	0	1	1	1	0	n/a	n/a	1	0.2749790999805555	1.0	984.3356228000484	1147.2484036000678	1148.2578597000102	1149.98991210002	1151.520305700018	1152.544320300105	n/a	n/a	1153.55338450009	1154.7876437000232	2020-03-31 16:31:19.142771	8.99505784780592	4.65240189102652	0.597741653029775	4.8484629408439	9.59279950083569	0.597741653029775	-8.99505784780592	4.65240189102652	0.597741653029775	9.59279950083569	0.597741653029775	6.200358196713879	7.250331939534156	3.984261264894765	0.44174377597774106	4.036760435863726	7.680501963889956	0.44174377597774106	5.167719648664117	7.686288839700924	0.43595690016677213	3.790856218409776	0.6351488224627296	2	missed	0.0
170.46174569998414	6.054686999996193	nogo_punish	0.4056339999660849	170.48689569998533	172.0565950999735	174.61578640004154	1.569699399988167	171.49386060005054	173.58739819994662	175.62573359999806	0.5627344999229535	1.0283882000949234	0.9158490999834612	n/a	1.0	n/a	1	0	87	1	nogo_punish	1	-1	0	0	1	0	0	n/a	n/a	-1	0.4056339999660849	1.0	984.3356228000484	1154.8225185000338	1155.829483400099	1156.392217900022	1157.923020999995	1158.95140920009	n/a	n/a	1159.9613564000465	1160.87720550003	2020-03-31 16:31:19.142771	-0.887559778469462	-1.24647262487175	-0.762377237931988	-1.52896397806758	-1.64993701640145	-0.762377237931988	0.887559778469462	-1.24647262487175	-0.762377237931988	-1.64993701640145	-0.762377237931988	-3.53476795264834	-2.6322856867412265	-1.9146132510035054	-0.9183751149840219	-2.3406664830477544	-3.562234553347184	-0.9183751149840219	-4.567406500698103	-3.556447677536216	-0.9241619907949908	-2.1080182974884947	-0.7249700684990333	2	missed	0.0
176.55225129995972	7.302248400053941	go_reward	0.3287445000605657	176.5774012999609	179.358521200018	181.90824020002037	2.7811199000570923	177.5925714999903	180.89411820005625	182.91755020001438	1.7659497000277042	1.014121999964118	0.9620995000004768	n/a	1.0	n/a	1	0	88	4	go_reward	1	1	0	1	1	1	1	n/a	n/a	1	0.3287445000605657	1.0	984.3356228000484	1160.9130241000094	1161.9281943000387	1163.6941440000664	1165.2297410001047	1166.2438630000688	n/a	n/a	1167.2531730000628	1168.2152725000633	2020-03-31 16:31:19.142771	9.55012554864867	4.9586040029219	0.597741653029775	5.14393141450641	10.1478672016784	0.597741653029775	-9.55012554864867	4.9586040029219	0.597741653029775	10.1478672016784	0.597741653029775	5.8941560848184995	7.805399640376905	4.290463376790145	0.44174377597774106	4.332228909526235	8.235569664732665	0.44174377597774106	4.861517536768737	8.241356540543634	0.43595690016677213	4.097058330305155	0.6351488224627296	2	missed	0.0
183.89480280003056	7.538555899984203	go_punish	0.2728999999817461	183.91995280003175	186.49934109998867	189.0538310999982	2.5793882999569178	184.92151769995667	188.03020869998727	190.05382629996166	1.5778234000320026	1.023622400010936	1.4046824000542983	n/a	1.0	n/a	1	0	89	2	go_punish	0	-1	0	1	1	1	0	n/a	n/a	-1	0.2728999999817461	1.0	984.3356228000484	1168.2555756000802	1169.257140500005	1170.834963900037	1172.3658315000357	1173.3894539000466	n/a	n/a	1174.38944910001	1175.7941315000644	2020-03-31 16:31:19.142771	1.21910457572473	-0.289417225427489	-1.61736183011228	-1.17630283103624	-0.398257254387543	-1.61736183011228	-1.21910457572473	-0.289417225427489	-1.61736183011228	-0.398257254387543	-1.61736183011228	-4.4918233520926005	-0.5256213325470345	-0.9575578515592444	-1.773359707164314	-1.988005336016414	-2.3105547913332773	-1.773359707164314	-5.524461900142363	-2.304767915522309	-1.779146582975283	-1.1509628980442337	-1.5799546606793256	2	missed	0.0
191.46949060005147	6.794578799977899	go_reward	0.3029330000281334	191.49464060005266	193.68233570002485	196.23224990000017	2.1876950999721885	192.51049180002883	195.21910610003397	197.24228939996124	1.17184389999602	1.0131437999662012	1.0469300000693238	n/a	1.0	n/a	1	0	90	4	go_reward	1	1	0	1	1	1	1	n/a	n/a	1	0.3029330000281334	1.0	984.3356228000484	1175.830263400101	1176.8461146000773	1178.0179585000733	1179.5547289000824	1180.5678727000486	n/a	n/a	1181.5779122000097	1182.624842200079	2020-03-31 16:31:19.142771	10.070890679118	5.24611402395367	0.597741653029775	5.42140599112661	10.6686323321478	0.597741653029775	-10.070890679118	5.24611402395367	0.597741653029775	10.6686323321478	0.597741653029775	5.60664606378673	8.326164770846235	4.577973397821914	0.44174377597774106	4.609703486146436	8.756334795202065	0.44174377597774106	4.574007515736968	8.762121671013034	0.43595690016677213	4.384568351336925	0.6351488224627296	2	missed	0.0
198.2998010000448	6.08848549996037	nogo_punish	1.0	198.32495100004598	199.6638174999971	202.19240719999652	1.3388664999511093	199.33106470003258	201.18121099995915	203.20568939996883	0.3327527999645099	1.011196200037375	1.2077471000375226	n/a	1.0	n/a	1	0	91	1	nogo_punish	1	-1	0	0	0	1	0	n/a	n/a	0	1.0	1.0	984.3356228000484	1182.6605738000944	1183.666687500081	1183.9994403000455	1185.5168338000076	1186.528030000045	n/a	n/a	1187.5413122000173	1188.7490593000548	2020-03-31 16:31:19.142771	1.20079421166966	-1.42456189313171	-0.762377237931988	-1.69386085654058	-1.96317144960164	-0.762377237931988	-1.20079421166966	-0.762377237931988	-1.42456189313171	-0.762377237931988	-1.96317144960164	0.762377237931988	-0.5439316966021046	-2.0927025192634656	-0.9183751149840219	-2.505563361520754	-3.875468986547374	-0.9183751149840219	-0.2702613101177742	-2.668887899066754	-2.124956202464643	-1.6239229105487327	-1.3871547236987556	2	missed	0.0
204.42968679999478	7.616503100027103	go_punish	1.0	204.45483679999597	207.0792532999767	209.6186218999792	2.6244164999807253	205.47022380004637	208.59469020005804	210.63343839999266	1.6090294999303296	1.0239316999211496	1.4379015000304207	n/a	1.0	n/a	1	0	92	2	go_punish	1	0	-1	1	0	0	0	n/a	n/a	-1	1.0	1.0	984.3356228000484	1188.7904596000444	1189.8058466000948	1191.4148761000251	1192.9303130001065	1193.9542447000276	n/a	n/a	1194.969061200041	1196.4069627000715	2020-03-31 16:31:19.142771	-0.822073917981986	-0.529762807402006	-1.61736183011228	-1.36628595439995	-0.795287912130291	-1.61736183011228	0.822073917981986	-1.61736183011228	-0.529762807402006	-1.61736183011228	-0.795287912130291	-3.16387874740781	-2.5667998262537504	-1.1979034335337615	-1.773359707164314	-2.177988459380124	-2.707585449076025	-1.773359707164314	-4.196517295457572	-3.5238724912470465	-0.9570726649932939	-2.4789075027290246	-0.4923556379690514	2	missed	0.0
212.08590439998068	6.851331499987509	nogo_reward	0.2784842000110075	212.11105439998187	214.47678420005832	217.03485669998918	2.3657298000764513	213.11801039997954	216.01400690001924	218.04701620002766	1.3587738000787795	1.0208497999699375	0.9153696999417207	n/a	1.0	n/a	1	0	93	3	nogo_reward	1	0	1	0	1	0	0	n/a	n/a	0	0.2784842000110075	1.0	984.3356228000484	1196.4466772000303	1197.453633200028	1198.8124070001068	1200.3496297000677	1201.3704795000376	n/a	n/a	1202.382639000076	1203.2980087000178	2020-03-31 16:31:19.142771	3.41306761142511	2.02301109606986	1.60392175064266	2.55226221597337	5.01698936206777	1.60392175064266	-3.41306761142511	2.02301109606986	1.60392175064266	5.01698936206777	1.60392175064266	-2.02301109606986	1.6683417031533454	1.3548704699381044	1.447923873590626	1.740559710993196	3.104691825122036	1.447923873590626	-3.0556496441196224	3.1104787009330037	1.4421369977796572	1.1614654234531154	1.6413289200756145	2	missed	0.0
218.97508789994765	7.711591000086628	go_reward	0.3071178999962285	219.00023789994884	221.71243249997497	224.24510329996724	2.7121946000261232	220.00401939998847	223.2335391000379	225.24976789997868	1.708413099986501	1.011564199929353	1.4620610000567922	n/a	1.0	n/a	1	0	94	4	go_reward	0	0	1	1	1	1	0	n/a	n/a	0	0.3071178999962285	1.0	984.3356228000484	1203.3358606999973	1204.339642200037	1206.0480553000234	1207.5691619000863	1208.5807261000157	n/a	n/a	1209.5853907000271	1211.047451700084	2020-03-31 16:31:19.142771	10.5598924984774	5.51629767303661	0.597741653029775	5.68219983721484	11.1576341515072	0.597741653029775	-10.5598924984774	5.51629767303661	0.597741653029775	11.1576341515072	0.597741653029775	-5.51629767303661	8.815166590205635	4.848157046904855	0.44174377597774106	4.870497332234666	9.245336614561465	0.44174377597774106	-6.548936221086373	9.251123490372434	0.43595690016677213	4.654752000419865	0.6351488224627296	2	missed	0.0
226.723633500049	7.33070960000623	nogo_punish	1.0	226.7487835000502	229.19088670006045	231.71771090000402	2.4421032000102514	227.76277370005846	230.7025209000567	232.72646359994565	1.4281130000019857	1.0151899999473244	1.3530295001107788	n/a	1.0	n/a	1	0	95	1	nogo_punish	0	0	-1	0	0	1	0	n/a	n/a	-1	1.0	1.0	984.3356228000484	1211.0844063000986	1212.098396500107	1213.526509500109	1215.0381437001051	1216.0533337000525	n/a	n/a	1217.062086399994	1218.4151159001049	2020-03-31 16:31:19.142771	1.16237441630704	-1.42456189313171	-0.714432220694033	-1.59087478881982	-1.87680663700108	-0.714432220694033	-1.16237441630704	-0.714432220694033	-1.42456189313171	-0.714432220694033	-1.87680663700108	-4.066808356826057	-0.5823514919647246	-2.0927025192634656	-0.8704300977460669	-2.402577293799994	-3.7891041739468143	-0.8704300977460669	-5.099446904875819	-2.620942881828799	-2.038591389864083	-1.5759778933107778	-1.3871547236987556	2	missed	0.0
234.09380499995325	7.373932600021362	go_punish	1.0	234.11895499995444	236.96347570000216	239.49371179996524	2.844520700047724	235.1304943000432	238.4700746999588	240.49330269999336	1.8329813999589533	1.0236371000064537	0.9995848999824375	n/a	1.0	n/a	1	0	96	2	go_punish	1	0	-1	1	0	0	0	n/a	n/a	-1	1.0	1.0	984.3356228000484	1218.4545778000029	1219.4661171000917	1221.2990985000506	1222.8056975000072	1223.8293346000137	n/a	n/a	1224.8289255000418	1225.8285104000242	2020-03-31 16:31:19.142771	-0.83084364731292	-0.529762807402006	-1.77221677425953	-1.54380752982671	-0.941373126946606	-1.77221677425953	0.83084364731292	-1.77221677425953	-0.529762807402006	-1.77221677425953	-0.941373126946606	-3.00902380326056	-2.5755695555846847	-1.1979034335337615	-1.9282146513115639	-2.3555100348068843	-2.8536706638923404	-1.9282146513115639	-4.041662351310322	-3.678727435394296	-1.1031578798096089	-2.6337624468762746	-0.4923556379690514	2	missed	0.0
241.50871750002273	6.313395999954082	nogo_reward	0.2936566999414935	241.53386750002392	243.5285937000299	246.06796280003618	1.994726200005971	242.54434460005723	245.06518719997257	247.07202029996552	0.9842490999726579	1.0027756000636145	0.7752432000124827	n/a	1.0	n/a	1	0	97	3	nogo_reward	1	0	1	0	1	0	0	n/a	n/a	0	0.2936566999414935	1.0	984.3356228000484	1225.8694903000724	1226.8799674001057	1227.8642165000783	1229.400810000021	1230.4035856000846	n/a	n/a	1231.407643100014	1232.1828863000264	2020-03-31 16:31:19.142771	3.14929838490507	1.89493887420047	1.60392175064266	2.39589402316369	4.75322013554773	1.60392175064266	-3.14929838490507	1.89493887420047	1.60392175064266	4.75322013554773	1.60392175064266	-1.89493887420047	1.4045724766333054	1.2267982480687145	1.447923873590626	1.5841915181835158	2.840922598601996	1.447923873590626	-2.9275774222502324	2.8467094744129637	1.4421369977796572	1.0333932015837255	1.6413289200756145	2	missed	0.0
247.86231250001595	6.096402699942928	go_punish	0.343360900063999	247.88746250001714	249.32016600004863	251.86805080005433	1.4327035000314936	248.89826789998915	250.8571445000125	252.88110560004134	0.4218981000594795	1.0109063000418246	1.102759599918727	n/a	1.0	n/a	1	0	98	2	go_punish	1	0	-1	1	1	1	1	n/a	n/a	0	0.343360900063999	1.0	984.3356228000484	1232.2230853000656	1233.2338907000376	1233.655788800097	1235.192767300061	1236.2036736001028	n/a	n/a	1237.2167284000898	1238.3194880000085	2020-03-31 16:31:19.142771	0.840035222254835	-0.529762807402006	-1.91775565306259	-1.70985107029642	-1.07772043080775	-1.91775565306259	-0.840035222254835	-0.529762807402006	-1.91775565306259	-1.07772043080775	-1.91775565306259	0.529762807402006	-0.9046906860169296	-1.1979034335337615	-2.073753530114624	-2.5215535752765943	-2.9900179677534844	-2.073753530114624	-0.5028757406477562	-2.984231091942516	-2.079540405925593	-1.3913084800187505	-1.8803484836296356	2	missed	0.0
253.99452079995547	6.828003000002582	nogo_punish	0.7952170999487862	254.01967079995666	256.2371252999874	258.80368510005064	2.217454500030726	255.0258182999678	257.78188340005	259.806083100033	1.2113070000195876	1.0218017000006512	1.041590699926246	n/a	1.0	n/a	1	0	99	1	nogo_punish	0	0	-1	0	1	0	0	n/a	n/a	0	0.7952170999487862	1.0	984.3356228000484	1238.355293600005	1239.3614411000162	1240.5727481000358	1242.1175062000984	1243.139307900099	n/a	n/a	1244.1417059000814	1245.1832966000077	2020-03-31 16:31:19.142771	-1.08205817818652	-1.42456189313171	-0.927586893331915	-1.75288067768676	-2.00964507151844	-0.927586893331915	1.08205817818652	-1.42456189313171	-0.927586893331915	-2.00964507151844	-0.927586893331915	1.42456189313171	-2.8267840864582845	-2.0927025192634656	-1.083584770383949	-2.5645831826669343	-3.921942608464174	-1.083584770383949	0.3919233450819479	-3.9161557326532064	-1.0893716461949179	-2.2861075657484546	-0.8901797238989604	2	missed	0.0
260.8633413000499	6.300461899954826	nogo_reward	0.2961237999843433	260.8884913000511	262.7922456000231	265.3077529000584	1.903754299971979	261.89536029996816	264.31051260000095	266.32056509994436	0.8968853000549188	0.9972403000574559	0.8683881000615656	n/a	1.0	n/a	1	0	100	3	nogo_reward	1	0	1	0	1	0	0	n/a	n/a	0	0.2961237999843433	1.0	984.3356228000484	1245.2241141000995	1246.2309831000166	1247.1278684000715	1248.6461354000494	1249.6433757001068	n/a	n/a	1250.6561878999928	1251.5245760000544	2020-03-31 16:31:19.142771	2.90536471570176	1.7764974240305	1.60392175064266	2.25095172964679	4.50928646634441	1.60392175064266	-2.90536471570176	1.7764974240305	1.60392175064266	4.50928646634441	1.60392175064266	-1.7764974240305	1.1606388074299956	1.1083567978987445	1.447923873590626	1.4392492246666158	2.5969889293986754	1.447923873590626	-2.809135972080262	2.6027758052096432	1.4421369977796572	0.9149517514137554	1.6413289200756145	2	missed	0.0
267.20493550004915	7.338658299995586	go_reward	0.2561776000075042	267.23008550005034	269.7760487999767	272.3111664999742	2.5459632999263704	268.2399524999785	271.29660240001976	273.32141640002374	1.5360962999982348	1.0145640999544412	1.2473274000221863	n/a	1.0	n/a	1	0	101	4	go_reward	1	1	0	1	1	1	0	n/a	n/a	1	0.2561776000075042	1.0	984.3356228000484	1251.5657083000988	1252.575575300027	1254.1116716000251	1255.6322252000682	1256.6467893000226	n/a	n/a	1257.6570392000722	1258.9043666000944	2020-03-31 16:31:19.142771	9.90986821333906	5.17266281713602	0.597741653029775	5.3297727439333	10.5076098663688	0.597741653029775	-9.90986821333906	5.17266281713602	0.597741653029775	10.5076098663688	0.597741653029775	5.68009727060438	8.165142305067295	4.5045221910042645	0.44174377597774106	4.5180702389531255	8.595312329423065	0.44174377597774106	4.647458722554617	8.601099205234034	0.43595690016677213	4.311117144519275	0.6351488224627296	2	missed	0.0
274.5850066000131	6.747960699954774	nogo_reward	0.3315872999373823	274.6101566000143	276.47095099999547	278.99539129994787	1.8607943999811596	275.62668109999527	277.989300700021	280.00383339996915	0.8442699000001994	1.0060905999268925	1.3542838999999276	n/a	1.0	n/a	1	0	102	3	nogo_reward	1	0	1	0	1	0	1	n/a	n/a	0	0.3315872999373823	1.0	984.3356228000484	1258.9457794000627	1259.9623039000437	1260.806573800044	1262.3249235000694	1263.3310140999963	n/a	n/a	1264.3394562000176	1265.6937401000175	2020-03-31 16:31:19.142771	2.67954234833994	1.66685063660428	1.60392175064266	2.11646755691604	4.28346409898259	1.60392175064266	-2.67954234833994	1.66685063660428	1.60392175064266	4.28346409898259	1.60392175064266	-1.66685063660428	0.9348164400681755	0.9987100104725244	1.447923873590626	1.304765051935866	2.3711665620368554	1.447923873590626	-2.699489184654042	2.376953437847823	1.4421369977796572	0.8053049639875353	1.6413289200756145	2	missed	0.0
281.37087450001866	6.619725099997822	nogo_punish	0.3365145000861957	281.39602450001985	283.25876290001906	285.79480499995407	1.8627383999992162	282.3994734999724	284.78889680001885	286.8040887999814	0.8592894000466913	1.0059081999352202	1.2116608000362703	n/a	1.0	n/a	1	0	103	1	nogo_punish	1	-1	0	0	1	0	0	n/a	n/a	-1	0.3365145000861957	1.0	984.3356228000484	1265.7316473000683	1266.7350963000208	1267.5943857000675	1269.1245196000673	1270.1304278000025	n/a	n/a	1271.1397116000298	1272.351372400066	2020-03-31 16:31:19.142771	-0.90304243416593	-1.33409643718798	-0.927586893331915	-1.64715467647737	-1.83062932749784	-0.927586893331915	0.90304243416593	-1.33409643718798	-0.927586893331915	-1.83062932749784	-0.927586893331915	-3.44714414033211	-2.6477683424376943	-2.0022370633197353	-1.083584770383949	-2.458857181457544	-3.7429268644435743	-1.083584770383949	-4.4797826883818725	-3.737139988632606	-1.0893716461949179	-2.1956421098047247	-0.8901797238989604	2	missed	0.0
288.0320434999886	6.26566679996904	go_punish	0.3533417000435292	288.0571934999898	289.6321016000584	292.17860049998853	1.5749081000685692	289.0670049999608	291.1667383000022	293.1904620999703	0.5650966000976041	1.0118621999863535	1.132398199988529	n/a	1.0	n/a	1	0	104	2	go_punish	1	0	-1	1	1	1	0	n/a	n/a	0	0.3533417000435292	1.0	984.3356228000484	1272.3928163000382	1273.4026278000092	1273.9677244001068	1275.5023611000506	1276.514223300037	n/a	n/a	1277.5260849000188	1278.6584831000073	2020-03-31 16:31:19.142771	0.958419265971297	-0.496731147838643	-1.91775565306259	-1.6078094525305	-0.959336387091289	-1.91775565306259	-0.958419265971297	-0.496731147838643	-1.91775565306259	-0.959336387091289	-1.91775565306259	0.496731147838643	-0.7863066423004675	-1.1648717739703984	-2.073753530114624	-2.4195119575106743	-2.871633924037023	-2.073753530114624	-0.5359074002111193	-2.865847048226055	-2.079540405925593	-1.3582768204553877	-1.8803484836296356	2	missed	0.0
294.33405910001613	6.160677999956533	go_punish	0.5130327000515535	294.3592091000173	296.02950659999647	298.5789257000433	1.6702974999791422	295.36615859996505	297.5588677000487	299.58279220003146	0.6633480000314194	1.0200579999946058	0.9370948999423945	n/a	1.0	n/a	1	0	105	2	go_punish	1	0	-1	1	1	1	0	n/a	n/a	0	0.5130327000515535	1.0	984.3356228000484	1278.6948319000658	1279.7017814000135	1280.365129400045	1281.8944905000972	1282.9145485000918	n/a	n/a	1283.91841500008	1284.8555099000223	2020-03-31 16:31:19.142771	1.06804433509744	-0.466164027750555	-1.91775565306259	-1.51308237096495	-0.849711317965146	-1.91775565306259	-1.06804433509744	-0.466164027750555	-1.91775565306259	-0.849711317965146	-1.91775565306259	0.466164027750555	-0.6766815731743245	-1.1343046538823105	-2.073753530114624	-2.324784875945124	-2.76200885491088	-2.073753530114624	-0.5664745202992072	-2.7562219790999123	-2.079540405925593	-1.3277097003672997	-1.8803484836296356	2	missed	0.0
300.5315521999727	6.525721400045086	go_reward	0.2696700000669807	300.55670219997387	302.0306575000286	304.58982190000825	1.4739553000547403	301.5606845000293	303.56489130004775	305.58913570002187	0.46997299999929965	1.0249305999604985	1.4932878999970853	n/a	1.0	n/a	1	0	106	4	go_reward	1	1	0	1	1	1	0	n/a	n/a	1	0.2696700000669807	1.0	984.3356228000484	1284.8923250000223	1285.8963073000778	1286.366280300077	1287.9005141000962	1288.9254447000567	n/a	n/a	1289.9247585000703	1291.4180464000674	2020-03-31 16:31:19.142771	10.4181412202288	5.45222127963048	0.597741653029775	5.60109251123143	11.0158828732585	0.597741653029775	-10.4181412202288	5.45222127963048	0.597741653029775	11.0158828732585	0.597741653029775	5.4005388081099195	8.673415311957037	4.784080653498725	0.44174377597774106	4.7893900062512555	9.103585336312765	0.44174377597774106	4.367900260060157	9.109372212123734	0.43595690016677213	4.590675607013735	0.6351488224627296	2	missed	0.0
307.1030918000034	7.220565099967644	nogo_reward	0.334168899920769	307.1282418000046	309.89820319996215	312.4364002000075	2.7699613999575377	308.13334149995353	311.4256702000275	313.44898169999965	1.7648617000086233	1.010729999979958	0.8998251999726108	n/a	1.0	n/a	1	0	107	3	nogo_reward	1	0	1	0	1	0	0	n/a	n/a	0	0.334168899920769	1.0	984.3356228000484	1291.463864600053	1292.468964300002	1294.2338260000106	1295.761293000076	1296.772023000056	n/a	n/a	1297.784604500048	1298.6844297000207	2020-03-31 16:31:19.142771	2.47027664801506	1.5652444916955	1.60392175064266	1.99156673572972	4.07419839865772	1.60392175064266	-2.47027664801506	1.5652444916955	1.60392175064266	4.07419839865772	1.60392175064266	-1.5652444916955	0.7255507397432954	0.8971038655637444	1.447923873590626	1.179864230749546	2.161900861711986	1.447923873590626	-2.597883039745262	2.1676877375229537	1.4421369977796572	0.7036988190787553	1.6413289200756145	2	missed	0.0
314.3607144999552	6.611809100024402	go_reward	0.3433616999536752	314.38586449995637	316.04000329994597	318.59854140004586	1.654138799989596	315.39131820003945	317.5749305000063	319.60765659995377	0.6486850999065155	1.0236109000395572	1.390017000027001	n/a	1.0	n/a	1	0	108	4	go_reward	1	1	0	1	1	1	1	n/a	n/a	1	0.3433616999536752	1.0	984.3356228000484	1298.7214873000048	1299.726941000088	1300.3756260999944	1301.9105533000547	1302.9341642000943	n/a	n/a	1303.9432794000022	1305.3332964000292	2020-03-31 16:31:19.142771	10.8948767702113	5.71466891254067	0.597741653029775	5.85581464004028	11.4926184232411	0.597741653029775	-10.8948767702113	5.71466891254067	0.597741653029775	11.4926184232411	0.597741653029775	5.13809117519973	9.150150861939535	5.046528286408915	0.44174377597774106	5.0441121350601055	9.580320886295365	0.44174377597774106	4.105452627149967	9.586107762106334	0.43595690016677213	4.853123239923925	0.6351488224627296	2	missed	0.0
321.01108239998587	6.425360900000669	go_punish	0.780182300019078	321.03623239998706	322.39918529998977	324.94897489994764	1.3629529000027105	322.0402288000332	323.9368719999911	325.96202810003865	0.3589564999565482	1.012102899956517	1.4995651999490747	n/a	1.0	n/a	1	0	109	2	go_punish	1	0	-1	1	1	1	0	n/a	n/a	0	0.780182300019078	1.0	984.3356228000484	1305.3718552000355	1306.3758516000817	1306.7348081000382	1308.2724948000396	1309.284597699996	n/a	n/a	1310.297650900087	1311.7972161000362	2020-03-31 16:31:19.142771	1.16966798562861	-0.437846900831559	-1.91775565306259	-1.42505572574886	-0.748087667433971	-1.91775565306259	-1.16966798562861	-0.437846900831559	-1.91775565306259	-0.748087667433971	-1.91775565306259	0.437846900831559	-0.5750579226431545	-1.1059875269633146	-2.073753530114624	-2.236758230729034	-2.6603852043797054	-2.073753530114624	-0.5947916472182031	-2.654598328568737	-2.079540405925593	-1.2993925734483036	-1.8803484836296356	2	missed	0.0
327.47439860005386	6.6115425999744275	nogo_punish	1.0	327.49954860005505	329.3384688999504	331.85453260003123	1.8389202998953351	328.50193000002764	330.84347149997484	332.86795710003935	0.8365388999227434	1.011061100056395	1.2431340999901295	n/a	1.0	n/a	1	0	110	1	nogo_punish	1	-1	0	0	0	1	0	n/a	n/a	0	1.0	1.0	984.3356228000484	1311.8351714001035	1312.837552800076	1313.6740916999988	1315.1790943000233	1316.1901554000797	n/a	n/a	1317.2035799000878	1318.446714000078	2020-03-31 16:31:19.142771	1.20769780178366	-1.50798405688646	-0.927586893331915	-1.80656351779211	-2.13528469511558	-0.927586893331915	-1.20769780178366	-0.927586893331915	-1.50798405688646	-0.927586893331915	-2.13528469511558	0.927586893331915	-0.5370281064881046	-2.1761246830182155	-1.083584770383949	-2.6182660227722843	-4.047582232061314	-1.083584770383949	-0.10505165471784716	-2.8340975544666813	-2.297069447978583	-1.7891325659486597	-1.4705768874535055	2	missed	0.0
334.1210897000275	6.27305019996129	nogo_punish	1.0	334.1462397000287	335.5904174000025	338.12542060005967	1.4441776999738067	335.1512934999773	337.10568699997407	339.13811199995666	0.43912390002515167	1.0197336000856012	1.281177900033299	n/a	1.0	n/a	1	0	111	1	nogo_punish	1	-1	0	0	0	1	0	n/a	n/a	0	1.0	1.0	984.3356228000484	1318.481862500077	1319.4869163000258	1319.926040200051	1321.4413098000225	1322.461043400108	n/a	n/a	1323.473734800005	1324.7549127000384	2020-03-31 16:31:19.142771	1.17533370653098	-1.50798405688646	-0.869438599808573	-1.69837555510276	-2.04477230633955	-0.869438599808573	-1.17533370653098	-0.869438599808573	-1.50798405688646	-0.869438599808573	-2.04477230633955	0.869438599808573	-0.5693922017407846	-2.1761246830182155	-1.025436476860607	-2.510078060082934	-3.9570698432852844	-1.025436476860607	-0.16319994824118922	-2.775949260943339	-2.206557059202553	-1.7309842724253177	-1.4705768874535055	2	missed	0.0
340.4358985000291	7.020320400013588	nogo_reward	0.3204531000228598	340.4610485000303	342.903055200004	345.4437079000054	2.4420066999737173	341.46966219996125	344.4266709999647	346.45667280000634	1.43339300004277	1.0170369000406936	1.024696100037545	n/a	1.0	n/a	1	0	112	3	nogo_reward	1	0	1	0	1	0	0	n/a	n/a	0	0.3204531000228598	1.0	984.3356228000484	1324.7966713000787	1325.8052850000097	1327.2386780000525	1328.7622938000131	1329.7793307000538	n/a	n/a	1330.7922956000548	1331.8169917000923	2020-03-31 16:31:19.142771	2.27616396557472	1.47099805891133	1.60392175064266	1.87545750100709	3.88008571621737	1.60392175064266	-2.27616396557472	1.47099805891133	1.60392175064266	3.88008571621737	1.60392175064266	-1.47099805891133	0.5314380573029556	0.8028574327795746	1.447923873590626	1.063754996026916	1.9677881792716359	1.447923873590626	-2.5036366069610922	1.973575055082604	1.4421369977796572	0.6094523862945854	1.6413289200756145	2	missed	0.0
347.49824310001	7.943613599985838	nogo_reward	0.2989935000659898	347.52339310001116	350.4914538000012	353.0481277999934	2.968060699990019	348.53237969998736	352.02810939995106	354.0612885999726	1.9590741000138223	1.0200184000423178	1.4057181000243872	n/a	1.0	n/a	1	0	113	3	nogo_reward	1	0	1	0	1	0	0	n/a	n/a	0	0.2989935000659898	1.0	984.3356228000484	1331.8590159000596	1332.8680025000358	1334.8270766000496	1336.3637321999995	1337.3837506000418	n/a	n/a	1338.396911400021	1339.8026295000454	2020-03-31 16:31:19.142771	2.09593527411744	1.38349559382455	1.60392175064266	1.7674222834117	3.69985702476009	1.60392175064266	-2.09593527411744	1.38349559382455	1.60392175064266	3.69985702476009	1.60392175064266	-1.38349559382455	0.35120936584567564	0.7153549676927944	1.447923873590626	0.9557197784315258	1.787559487814356	1.447923873590626	-2.416134141874312	1.793346363625324	1.4421369977796572	0.5219499212078053	1.6413289200756145	2	missed	0.0
355.4836801999485	6.789233000017475	nogo_reward	0.3044043000554666	355.50883019994967	357.83790140005294	360.3944569999585	2.3290712001032716	356.5082469000479	359.37702929996885	361.4071298999479	1.3296545000050628	1.0174276999896392	0.8909333000192419	n/a	1.0	n/a	1	0	114	3	nogo_reward	1	0	1	0	1	0	1	n/a	n/a	0	0.3044043000554666	1.0	984.3356228000484	1339.844452999998	1340.8438697000963	1342.1735242001014	1343.7126521000173	1344.730079800007	n/a	n/a	1345.7427526999963	1346.6336860000156	2020-03-31 16:31:19.142771	1.92844177056857	1.30217958139788	1.60392175064266	1.66680993872232	3.53236352121123	1.60392175064266	-1.92844177056857	1.30217958139788	1.60392175064266	3.53236352121123	1.60392175064266	-1.30217958139788	0.18371586229680537	0.6340389552661245	1.447923873590626	0.8551074337421459	1.6200659842654956	1.447923873590626	-2.334818129447642	1.6258528600764637	1.4421369977796572	0.4406339087811354	1.6413289200756145	2	missed	0.0
362.31247480004106	6.604246299946681	go_punish	1.0	362.33762480004225	363.91153739998117	366.44050400005654	1.5739125999389216	363.34898520004936	365.4168541999534	367.4488177000312	0.5625521999318153	1.0236498001031578	1.4930533999577165	n/a	1.0	n/a	1	0	115	2	go_punish	1	0	-1	1	0	0	0	n/a	n/a	-1	1.0	1.0	984.3356228000484	1346.6732476000907	1347.6846080000978	1348.2471602000296	1349.7524770000018	1350.776126800105	n/a	n/a	1351.7844405000797	1353.2774939000374	2020-03-31 16:31:19.142771	-1.26397259587851	-0.411586632301345	-1.91775565306259	-1.34317469845722	-0.653783057184078	-1.91775565306259	1.26397259587851	-1.91775565306259	-0.411586632301345	-1.91775565306259	-0.653783057184078	-2.8634849244574996	-3.0086985041502743	-1.0797272584331006	-2.073753530114624	-2.154877203437394	-2.5660805941298124	-2.073753530114624	-3.896123472507262	-3.8242663141973563	-0.8155678100470809	-2.779301325679335	-0.37417946286839043	2	missed	0.0
368.95522759994526	6.761397000052739	go_reward	0.5064014999661595	368.98037759994645	370.70209050003905	373.26342840003804	1.721712900092598	369.99246500001755	372.2396404000465	374.27220460004173	0.7096255000215024	1.023787999991555	1.4695699999574572	n/a	1.0	n/a	1	0	116	4	go_reward	1	1	0	1	1	1	0	n/a	n/a	1	0.5064014999661595	1.0	984.3356228000484	1353.316000399995	1354.328087800066	1355.0377133000875	1356.575263200095	1357.5990512000865	n/a	n/a	1358.6078274000902	1360.0773974000476	2020-03-31 16:31:19.142771	11.3424325843974	5.96126649170169	0.597741653029775	6.0951628865786	11.9401742374272	0.597741653029775	-11.3424325843974	5.96126649170169	0.597741653029775	11.9401742374272	0.597741653029775	4.89149359603871	9.597706676125636	5.293125865569935	0.44174377597774106	5.283460381598426	10.027876700481466	0.44174377597774106	3.858855047988947	10.033663576292435	0.43595690016677213	5.099720819084945	0.6351488224627296	2	missed	0.0
375.7514799999773	6.326537700020708	nogo_punish	1.0	375.77662999997847	377.25210180005524	379.7869112000335	1.4754718000767753	376.7832465999527	378.76718399999663	380.79030889994465	0.46885520010255277	1.0197272000368685	1.3128588000545278	n/a	1.0	n/a	1	0	117	1	nogo_punish	1	-1	0	0	0	1	0	n/a	n/a	0	1.0	1.0	984.3356228000484	1360.112252800027	1361.1188694000011	1361.5877246001037	1363.102806800045	1364.122534000082	n/a	n/a	1365.125931699993	1366.4387905000476	2020-03-31 16:31:19.142771	1.14529360624466	-1.50798405688646	-0.81564522409433	-1.59795040598051	-1.96093883033899	-0.81564522409433	-1.14529360624466	-0.81564522409433	-1.50798405688646	-0.81564522409433	-1.96093883033899	0.81564522409433	-0.5994323020271046	-2.1761246830182155	-0.971643101146364	-2.409652910960684	-3.8732363672847243	-0.971643101146364	-0.21699332395543214	-2.722155885229096	-2.122723583201993	-1.6771908967110747	-1.4705768874535055	2	missed	0.0
382.1137079000474	6.570265599992126	nogo_punish	1.0	382.1388579000486	383.96674029994756	386.48410690005403	1.8278823998989537	383.1542319	385.47224370006006	387.4958805999486	0.8125083999475464	1.011863199993968	1.2132429000921547	n/a	1.0	n/a	1	0	118	1	nogo_punish	1	-1	0	0	0	1	0	n/a	n/a	0	1.0	1.0	984.3356228000484	1366.474480700097	1367.4898547000485	1368.302363099996	1369.8078665001085	1370.8197297001025	n/a	n/a	1371.831503399997	1373.0447463000892	2020-03-31 16:31:19.142771	1.11738240797519	-1.50798405688646	-0.765826936923566	-1.50463745149743	-1.88320934489876	-0.765826936923566	-1.11738240797519	-0.765826936923566	-1.50798405688646	-0.765826936923566	-1.88320934489876	0.765826936923566	-0.6273435002965746	-2.1761246830182155	-0.9218248139755999	-2.316339956477604	-3.795506881844494	-0.9218248139755999	-0.2668116111261962	-2.6723375980583324	-2.0449940977617627	-1.6273726095403105	-1.4705768874535055	2	missed	0.0
388.72260209999524	7.552953399950638	go_reward	0.3152948000933975	388.74775209999643	391.520115399966	394.05842370004393	2.7723632999695837	389.7600795000326	393.03251579997595	395.0667113000527	1.7600358999334276	1.0259079000679776	1.2339941998943686	n/a	1.0	n/a	1	0	119	4	go_reward	1	1	0	1	1	1	0	n/a	n/a	1	0.3152948000933975	1.0	984.3356228000484	1373.0833749000449	1374.095702300081	1375.8557382000145	1377.3681386000244	1378.3940465000924	n/a	n/a	1379.4023341001011	1380.6363282999955	2020-03-31 16:31:19.142771	11.7629600850037	6.19316606019711	0.597741653029775	6.32025529968576	12.3607017380335	0.597741653029775	-11.7629600850037	6.19316606019711	0.597741653029775	12.3607017380335	0.597741653029775	4.65959402754329	10.018234176731935	5.525025434065355	0.44174377597774106	5.508552794705586	10.448404201087765	0.44174377597774106	3.6269554794935273	10.454191076898734	0.43595690016677213	5.331620387580365	0.6351488224627296	2	missed	0.0
396.3115088000196	6.235531999962404	go_reward	0.3523699999786913	396.3366588000208	398.26815959997475	400.8132597999647	1.9315007999539375	397.3450300999684	399.79853050003294	401.81168699997966	0.9231295000063255	1.014729299931787	0.760503800003562	n/a	1.0	n/a	1	0	120	4	go_reward	1	1	0	1	1	1	0	n/a	n/a	1	0.3523699999786913	1.0	984.3356228000484	1380.6722816000693	1381.6806529000169	1382.6037824000232	1384.1341533000814	1385.1488826000132	n/a	n/a	1386.147309800028	1386.9078136000317	2020-03-31 16:31:19.142771	12.1584250819611	6.41142168044947	0.597741653029775	6.53211469771112	12.7561667349909	0.597741653029775	-12.1584250819611	6.41142168044947	0.597741653029775	12.7561667349909	0.597741653029775	4.44133840729093	10.413699173689336	5.743281054317714	0.44174377597774106	5.7204121927309455	10.843869198045166	0.44174377597774106	3.4086998592411675	10.849656073856135	0.43595690016677213	5.549876007832725	0.6351488224627296	2	missed	0.0
