onset	duration	trial_type	response_time	cueOnset	targetOnset	fbOnset	cueRT	firstfixOnset	secondfixOnset	waitOnset	firstfixdur	secondfixdur	waitdur	nback_fbOnset	nback_response_time	nback_targetOnset	block	wm	trial	cue	cond	is_common	outcome_go	outcome_nogo	key_correct	key_pressed	is_correct	key_correct_nback	key_pressed_nback	is_correct_nback	outcome	rt	rt_nback	time_scan	time_onset	time_isi1	time_circle	time_isi2	time_feedback	time_same	time_correct	time_iti	time_done	timestamp_scan	DV	Qgo	Qnogo	SV	Wgo	Wnogo	mDV	Qchosen	Qunchosen	Wchosen	Wunchosen	PE	DVC	QgoC	QnogoC	SVC	WgoC	WnogoC	PEC	WchosenC	WunchosenC	QchosenC	QunchosenC	run	outcome_nback	nback_targetResp
0.0	6.235828199889511	nogo_punish	1.0	0.009268299908853805	1.7041523999064339	4.2244488999708665	1.69488409999758	1.0162627999666256	3.208775199948832	5.231925299856357	0.6878895999398082	1.0156737000220346	1.0131711999420077	n/a	1.0	n/a	2	0	61	4	nogo_punish	1	-1	0	0	0	1	0	n/a	n/a	0	1.0	1.0	2052.457435200224	2052.466703500133	2053.473698000191	2054.1615876001306	2055.666210400173	2056.681884100195	n/a	n/a	2057.6893605000805	2058.7025317000225	2020-02-08 12:30:24.086700	1.96844911363173	-2.69807046029739	-0.0539299377772706	-0.0759507680178961	-2.022379051409	-0.0539299377772706	-1.96844911363173	-0.0539299377772706	-2.69807046029739	-0.0539299377772706	-2.022379051409	0.0539299377772706	-1.6279211741898894	-3.1485162597781087	-0.06156761745928421	-1.6905888700442757	-3.6555418052350337	-0.06156761745928421	-0.050258504954663795	-2.672515298442103	-1.044594124252215	-1.9401933819431618	-1.2698904952942303	4	missed	0.0
6.260544399963692	6.622469899943098	nogo_punish	0.2768785001244396	6.269812699872546	7.822323599829815	10.38930729986123	1.5525108999572694	7.271240399917133	9.364090099930308	11.404527999925904	0.5510831999126822	1.0252171999309212	1.4877545998897403	n/a	1.0	n/a	2	0	62	4	nogo_punish	1	-1	0	0	1	0	1	n/a	n/a	-1	0.2768785001244396	1.0	2052.457435200224	2058.7272479000967	2059.7286756001413	2060.279758800054	2061.8215253001545	2062.8467425000854	n/a	n/a	2063.86196320015	2065.34971780004	2020-02-08 12:30:24.086700	-1.97891645744	-2.69807046029739	-0.039617619019839	-0.0562548024468164	-2.01853407645984	-0.039617619019839	1.97891645744	-2.69807046029739	-0.039617619019839	-2.01853407645984	-0.039617619019839	-4.89102575347208	-5.57528674526162	-3.1485162597781087	-0.04725529870185262	-1.670892904473196	-3.651696830285874	-0.04725529870185262	-4.995214196204015	-4.637119437124673	0.9381673081369462	-4.584333904463281	1.3885623459833207	4	missed	0.0
12.91115519986488	6.355128600029275	go_reward	0.2456275001168251	12.920423499773733	14.474759999895014	17.028483899775892	1.5543365001212806	13.91897089988879	16.003425299888022	18.02657599979966	0.5557891000062227	1.0250585998878705	1.2489761000033468	n/a	1.0	n/a	2	0	63	1	go_reward	1	1	0	1	1	1	0	n/a	n/a	1	0.2456275001168251	1.0	2052.457435200224	2065.377858699998	2066.376406100113	2066.932195200119	2068.460860500112	2069.4859191	n/a	n/a	2070.484011200024	2071.732987300027	2020-02-08 12:30:24.086700	11.9644589001058	9.19088457160289	0.0	9.19088457160289	11.9644589001058	0.0	-11.9644589001058	9.19088457160289	0.0	11.9644589001058	0.0	0.050949796759930166	8.36808861228418	8.740438772122172	-0.007637679682013617	7.57624646957651	10.331296146279767	-0.007637679682013617	-0.05323864597200423	9.345873539440968	0.9777849271567851	7.304621127436999	1.4281799650031597	4	missed	0.0
19.383397300029173	6.766933100065216	nogo_reward	0.2767777000553906	19.392665599938027	21.231416499940224	23.802441599778376	1.8387509000021964	20.397772599942527	22.771716299931995	24.822344799991242	0.8336438999976963	1.030725299846381	1.3372539000120014	n/a	1.0	n/a	2	0	64	2	nogo_reward	1	0	1	0	1	0	0	n/a	n/a	0	0.2767777000553906	1.0	2052.457435200224	2071.850100800162	2072.8552078001667	2073.6888517001644	2075.229151500156	2076.2598768000025	n/a	n/a	2077.2797800002154	2078.6170339002274	2020-02-08 12:30:24.086700	-1.8735378590418	0.0	3.2997549330433	3.28480854905644	1.4262170740015	3.2997549330433	1.8735378590418	0.0	3.2997549330433	1.4262170740015	3.2997549330433	0.0	-5.469908146863419	-0.4504457994807188	3.2921172533612864	1.6701704470300602	-0.2069456798245337	3.2921172533612864	-0.1041884427319344	-1.192368286663332	4.277539860200085	-1.8862634441658912	4.72793489804646	4	missed	0.0
26.17792299995199	7.248750200029463	go_reward	0.2977368999272585	26.187191299860842	28.96455509983889	31.521094699855894	2.7773637999780476	27.200681199784867	30.503454999997757	32.51897859992414	1.7638739000540227	1.0176396998581367	0.9169628999661654	n/a	1.0	n/a	2	0	65	1	go_reward	1	1	0	1	1	1	1	n/a	n/a	1	0.2977368999272585	1.0	2052.457435200224	2078.644626500085	2079.658116400009	2081.421990300063	2082.960890200222	2083.97852990008	n/a	n/a	2084.9764138001483	2085.8933767001145	2020-02-08 12:30:24.086700	11.9782841584309	9.2024185014635	0.0	9.2024185014635	11.9782841584309	0.0	-11.9782841584309	9.2024185014635	0.0	11.9782841584309	0.0	0.039415866899320307	8.381913870609282	8.751972701982782	-0.007637679682013617	7.58778039943712	10.345121404604868	-0.007637679682013617	-0.06477257583261409	9.359698797766068	0.9777849271567851	7.316155057297609	1.4281799650031597	4	missed	0.0
33.47195670008705	6.839315499877102	nogo_reward	1.0	33.4812249999959	35.91517799999565	38.43076009978495	2.4339529999997467	34.47821399988561	37.41616529994599	39.427981199929036	1.4369640001100379	1.0145947998389602	0.8925592999439687	n/a	1.0	n/a	2	0	66	2	nogo_reward	1	0	1	0	0	1	1	n/a	n/a	1	1.0	1.0	2052.457435200224	2085.93866020022	2086.9356492001098	2088.37261320022	2089.87360050017	2090.888195300009	n/a	n/a	2091.885416400153	2092.777975700097	2020-02-08 12:30:24.086700	2.13546926307971	0.0	3.2997549330433	2.1343416451478	1.16428566996359	3.2997549330433	-2.13546926307971	3.2997549330433	0.0	3.2997549330433	1.16428566996359	5.9420794353195205	-1.4609010247419092	-0.4504457994807188	3.2921172533612864	0.5197035431214205	-0.46887708386244387	3.2921172533612864	5.837890992587586	0.6811695723784679	2.142070597120375	1.4134914888774088	1.4281799650031597	4	missed	0.0
40.35645639989525	6.746627400163561	nogo_reward	1.0	40.365724699804105	42.1677699999409	44.69680349994405	1.8020453001367969	41.36274379980705	43.68674599984615	45.70562709984324	0.8050262001338524	1.0100575000979006	1.4067250001244247	n/a	1.0	n/a	2	0	67	2	nogo_reward	0	1	0	0	0	1	0	n/a	n/a	0	1.0	1.0	2052.457435200224	2092.8231599000283	2093.820179000031	2094.625205200165	2096.1441812000703	2097.154238700168	n/a	n/a	2098.1630623000674	2099.569787300192	2020-02-08 12:30:24.086700	3.83474350599384	0.0	5.63789889563508	4.91055893158108	1.80315538964124	5.63789889563508	-3.83474350599384	5.63789889563508	0.0	5.63789889563508	1.80315538964124	-5.63789889563508	0.2383732181722209	-0.4504457994807188	5.630261215953066	3.2959208295547002	0.16999263581520618	5.630261215953066	-5.742087338367014	3.0193135349702476	2.7809403167980253	3.7516354514691885	1.4281799650031597	4	missed	0.0
47.1472938999068	6.8408033000305295	nogo_reward	1.0	47.15656219981565	49.67600129987068	52.21567499986804	2.519439100055024	48.15395899978421	51.192339599830575	53.22527779987968	1.5220423000864685	1.0233354000374675	0.7720876999665052	n/a	1.0	n/a	2	0	68	2	nogo_reward	1	0	1	0	0	1	1	n/a	n/a	1	1.0	1.0	2052.457435200224	2099.61399740004	2100.6113942000084	2102.133436500095	2103.6497748000547	2104.673110200092	n/a	n/a	2105.682713000104	2106.4548007000703	2020-02-08 12:30:24.086700	2.12264262699992	0.0	3.49409596558983	3.02901857776293	1.37145333858991	3.49409596558983	-2.12264262699992	3.49409596558983	0.0	3.49409596558983	1.37145333858991	5.74773840277299	-1.4737276608216994	-0.4504457994807188	3.4864582859078164	1.4143804757365506	-0.2617094152361239	3.4864582859078164	5.643549960041056	0.8755106049249979	2.349238265746695	1.6078325214239388	1.4281799650031597	4	missed	0.0
54.071834299946204	6.872333500068635	go_punish	0.2523308000527322	54.08110259985506	56.00402359990403	58.54341839998915	1.922921000048973	55.098572399932436	57.514750999863736	59.540730499894835	0.9054511999715942	1.0286674001254141	1.4127056000288576	n/a	1.0	n/a	2	0	69	3	go_punish	1	0	-1	1	1	1	0	n/a	n/a	0	0.2523308000527322	1.0	2052.457435200224	2106.538537800079	2107.5560076001566	2108.461458800128	2109.972186200088	2111.0008536002133	n/a	n/a	2111.998165700119	2113.410871300148	2020-02-08 12:30:24.086700	3.11930920582378	-1.31065076935771	-4.42491562552476	-3.31928918233636	-1.30560641970099	-4.42491562552476	-3.11930920582378	-1.31065076935771	-4.42491562552476	-1.30560641970099	-4.42491562552476	1.31065076935771	-0.47706108199783914	-1.7610965688384288	-4.432553305206774	-4.93392728436274	-2.9387691735270236	-4.432553305206774	1.2064623266257757	-3.924191780365822	-3.4471306983679755	-3.196914213523601	-2.9967356605216007	4	missed	0.0
60.967802699888125	6.2350401000589954	nogo_punish	1.0	60.97707099979698	62.81990729994095	65.34405279997691	1.842836300143972	61.98243339988403	64.31874539982482	66.35015479987442	0.8374739000569207	1.0253074001520872	0.8619562999815571	n/a	1.0	n/a	2	0	70	4	nogo_punish	0	0	-1	0	0	1	0	n/a	n/a	-1	1.0	1.0	2052.457435200224	2113.434506200021	2114.439868600108	2115.277342500165	2116.776180600049	2117.801488000201	n/a	n/a	2118.8075900000986	2119.66954630008	2020-02-08 12:30:24.086700	4.19507038199426	-4.35580522890567	-0.039617619019839	-2.74014046954356	-4.2346880010141	-0.039617619019839	-4.19507038199426	-0.039617619019839	-4.35580522890567	-0.039617619019839	-4.2346880010141	-7.5494785947496315	0.5987000941726404	-4.806251028386389	-0.04725529870185262	-4.354778571569939	-5.867850754840134	-0.04725529870185262	-7.653667037481566	-2.6582029796846713	-3.2569030738573153	-1.9258810631857302	-2.92762526390251	4	missed	0.0
67.23663820000365	6.745747399982065	go_reward	0.2012223999481648	67.24590649991251	69.01813579979307	71.59475929988503	1.7722292998805642	68.25261189998082	70.57527739996976	72.6078309998843	0.7655238998122513	1.019481899915263	1.3838229000102729	n/a	1.0	n/a	2	0	71	1	go_reward	0	0	1	1	1	1	0	n/a	n/a	0	0.2012223999481648	1.0	2052.457435200224	2119.7033417001367	2120.710047100205	2121.475571000017	2123.032712600194	2124.052194500109	n/a	n/a	2125.0652662001085	2126.4490891001187	2020-02-08 12:30:24.086700	11.9887108834426	9.21113517406551	0.0	9.21113517406551	11.9887108834426	0.0	-11.9887108834426	9.21113517406551	0.0	11.9887108834426	0.0	-9.21113517406551	8.392340595620981	8.760689374584791	-0.007637679682013617	7.59649707203913	10.355548129616567	-0.007637679682013617	-9.315323616797443	9.370125522777768	0.9777849271567851	7.324871729899618	1.4281799650031597	4	missed	0.0
74.08764180005528	7.180302399909124	nogo_reward	1.0	74.09691009996413	76.70491689979053	79.23337469994976	2.6080067998263985	75.09568369993895	78.22321869991674	80.23848529998168	1.6092331998515874	1.010156000033021	1.0387271998915821	n/a	1.0	n/a	2	0	72	2	nogo_reward	0	1	0	0	0	1	0	n/a	n/a	0	1.0	1.0	2052.457435200224	2126.5543453001883	2127.553118900163	2129.1623521000147	2130.680653900141	2131.690809900174	n/a	n/a	2132.695920500206	2133.7346477000974	2020-02-08 12:30:24.086700	3.80273743141036	0.0	5.72354665012999	5.41970165548898	1.92080921871963	5.72354665012999	-3.80273743141036	5.72354665012999	0.0	5.72354665012999	1.92080921871963	-5.72354665012999	0.20636714358874064	-0.4504457994807188	5.715908970447976	3.8050635534626007	0.28764646489359613	5.715908970447976	-5.827735092861924	3.1049612894651575	2.898594145876415	3.8372832059640984	1.4281799650031597	4	missed	0.0
81.31736829993315	6.764930699951947	nogo_reward	1.0	81.326636599842	83.17475889995649	85.70139039982996	1.8481223001144826	82.33116329996801	84.67931689997204	86.70942420000165	0.8435955999884754	1.0220734998579246	1.3821430997923017	n/a	1.0	n/a	2	0	73	2	nogo_reward	1	0	1	0	0	1	0	n/a	n/a	1	1.0	1.0	2052.457435200224	2133.784071800066	2134.788598500192	2135.6321941001806	2137.136752100196	2138.158825600054	n/a	n/a	2139.166859400226	2140.549002500018	2020-02-08 12:30:24.086700	2.08952460196518	0.0	3.52971758769452	3.32735397053255	1.44019298572934	3.52971758769452	-2.08952460196518	3.52971758769452	0.0	3.52971758769452	1.44019298572934	5.7121167806683	-1.5068456858564394	-0.4504457994807188	3.5220799080125063	1.7127158685061703	-0.19296976809669375	3.5220799080125063	5.607928337936365	0.9111322270296878	2.4179779128861254	1.6434541435286287	1.4281799650031597	4	missed	0.0
88.17630139994435	6.813708700006828	go_punish	0.3431160000618547	88.1855696998532	90.47414019983216	93.02761009987398	2.2885704999789596	89.20365859987169	92.00394199998073	94.02527099987446	1.2704815999604762	1.023668099893257	0.9740073999855667	n/a	1.0	n/a	2	0	74	3	go_punish	0	-1	0	1	1	1	0	n/a	n/a	-1	0.3431160000618547	1.0	2052.457435200224	2140.6430049000774	2141.661093800096	2142.9315754000563	2144.461377200205	2145.485045300098	n/a	n/a	2146.4827062000986	2147.456713600084	2020-02-08 12:30:24.086700	3.82268647215969	-0.864521283485055	-4.42491562552476	-2.08711738583596	-0.602229153365078	-4.42491562552476	-3.82268647215969	-0.864521283485055	-4.42491562552476	-0.602229153365078	-4.42491562552476	-6.724574930284415	0.22631618433807077	-1.3149670829657738	-4.432553305206774	-3.7017554878623398	-2.235391907191112	-4.432553305206774	-6.82876337301635	-3.22081451402991	-3.4471306983679755	-2.750784727650946	-2.9967356605216007	4	missed	0.0
95.03741990006529	5.684533799998462	go_punish	1.0	95.04668819997414	96.45645709987684	98.97422389988787	1.4097688999027014	96.0407218998289	97.96105239982671	99.97515139984853	0.41573520004794773	1.013171500061162	0.756070600124076	n/a	1.0	n/a	2	0	75	3	go_punish	0	-1	0	1	0	0	0	n/a	n/a	0	1.0	1.0	2052.457435200224	2147.5041234001983	2148.498157100053	2148.913892300101	2150.418487600051	2151.431659100112	n/a	n/a	2152.4325866000727	2153.1886572001968	2020-02-08 12:30:24.086700	-0.998785729315645	-3.28063116866876	-4.42491562552476	-4.0477513489375	-3.42612989620912	-4.42491562552476	0.998785729315645	-4.42491562552476	-3.28063116866876	-4.42491562552476	-3.42612989620912	4.42491562552476	-4.595156017137264	-3.7310769681494786	-4.432553305206774	-5.66238945096388	-5.059292650035154	-4.432553305206774	4.320727182792826	-7.043500986189592	-2.448344969052335	-6.311179069690652	-1.8524512036656002	4	missed	0.0
100.75050910003483	6.220152699854225	go_reward	0.2974676000885665	100.75977739994369	102.1587807999449	104.69864729978099	1.3990034000012201	101.76589529984585	103.68991609988689	105.71285329991906	0.3928855000990552	1.0087311998941004	1.2670767998788506	n/a	1.0	n/a	2	0	76	1	go_reward	0	0	1	1	1	1	0	n/a	n/a	0	0.2974676000885665	1.0	2052.457435200224	2153.217212600168	2154.22333050007	2154.616216000169	2156.147351300111	2157.156082500005	n/a	n/a	2158.170288500143	2159.437365300022	2020-02-08 12:30:24.086700	7.70245915761404	5.72468225563146	0.0	5.72468225563146	7.70245915761404	0.0	-7.70245915761404	5.72468225563146	0.0	7.70245915761404	0.0	-5.72468225563146	4.106088869792421	5.27423645615074	-0.007637679682013617	4.11004415360508	6.069296403788006	-0.007637679682013617	-5.828870698363394	5.083873796949208	0.9777849271567851	3.8384188114655684	1.4281799650031597	4	missed	0.0
107.00514309993014	6.571509800152853	nogo_punish	1.0	107.01441139983899	108.58207479980729	111.10791459982238	1.5676633999682963	108.01942649995863	110.08710869983724	112.12149339984126	0.5626482998486608	1.0208058999851346	1.4644278001505882	n/a	1.0	n/a	2	0	77	4	nogo_punish	1	-1	0	0	0	1	0	n/a	n/a	0	1.0	1.0	2052.457435200224	2159.471846600063	2160.476861700183	2161.0395100000314	2162.5445439000614	2163.5653498000465	n/a	n/a	2164.5789286000654	2166.043356400216	2020-02-08 12:30:24.086700	1.84829108892035	-4.35580522890567	-2.72746968135994	-4.38754820681809	-4.57576077028029	-2.72746968135994	-1.84829108892035	-2.72746968135994	-4.35580522890567	-2.72746968135994	-4.57576077028029	2.72746968135994	-1.7480791989012692	-4.806251028386389	-2.735107361041954	-6.00218630884447	-6.208923524106324	-2.735107361041954	2.6232812386280058	-5.346055042024773	-3.597975843123505	-4.613733125525831	-2.92762526390251	4	missed	0.0
113.65371229988523	6.204411100130528	go_punish	0.5109606001060456	113.66298059979408	115.37618079991034	117.95182379987045	1.7132002001162618	114.6565713998857	116.92994159995533	118.96153400000094	0.7196094000246376	1.021882199915126	0.905857699923672	n/a	1.0	n/a	2	0	78	3	go_punish	0	-1	0	1	1	1	0	n/a	n/a	-1	0.5109606001060456	1.0	2052.457435200224	2166.1204158000182	2167.11400660011	2167.8336160001345	2169.3873768001795	2170.4092590000946	n/a	n/a	2171.418969200225	2172.3248269001488	2020-02-08 12:30:24.086700	-0.327305733205823	-3.28063116866876	-2.7865171659928	-2.55216066247594	-3.11382289919862	-2.7865171659928	0.327305733205823	-3.28063116866876	-2.7865171659928	-3.11382289919862	-2.7865171659928	-4.308465045100711	-3.9236760210274424	-3.7310769681494786	-2.7941548456748135	-4.166798764502319	-4.7469856530246535	-2.7941548456748135	-4.412653487832645	-5.732408259863452	-1.8087322388360147	-5.166894612834652	-1.3583372009896402	4	missed	0.0
119.88555940007791	6.542755099945225	nogo_punish	0.2726601001340896	119.89482769998676	121.93368859984867	124.47442579991139	2.038860899861902	120.89010079996615	123.46031859982759	125.47209659987084	1.0435877998825163	1.0141072000837994	0.9654862000611502	n/a	1.0	n/a	2	0	79	4	nogo_punish	1	-1	0	0	1	0	1	n/a	n/a	-1	0.2726601001340896	1.0	2052.457435200224	2172.352262900211	2173.3475360001903	2174.391123800073	2175.9177538000517	2176.9318610001355	n/a	n/a	2177.929531800095	2178.895018000156	2020-02-08 12:30:24.086700	-2.54889562846229	-4.35580522890567	-1.67975559884891	-2.72972406193526	-4.2286512273112	-1.67975559884891	2.54889562846229	-4.35580522890567	-1.67975559884891	-4.2286512273112	-1.67975559884891	-3.2332909848638005	-6.145265916283909	-4.806251028386389	-1.6873932785309236	-4.344362163961639	-5.861813981137234	-1.6873932785309236	-3.337479427595735	-6.847236587976033	-0.7019706716921248	-6.242068673071561	-0.2515756338457502	4	missed	0.0
126.52202200004831	6.395795699907467	nogo_reward	1.0	126.53129029995716	128.18229419994123	130.7013691999009	1.6510038999840617	127.52588369999967	129.6887419999107	131.70673159998796	0.6564104999415576	1.01262719999022	1.220354399876669	n/a	1.0	n/a	2	0	80	2	nogo_reward	1	0	1	0	0	1	0	n/a	n/a	1	1.0	1.0	2052.457435200224	2178.9887255001813	2179.983318900224	2180.6397294001654	2182.146177200135	2183.158804400125	n/a	n/a	2184.164166800212	2185.384521200089	2020-02-08 12:30:24.086700	3.77422878901262	0.0	5.73621437670881	5.59908300776557	1.96198558769619	5.73621437670881	-3.77422878901262	5.73621437670881	0.0	5.73621437670881	1.96198558769619	3.50561999165401	0.17785850119100077	-0.4504457994807188	5.728576697026797	3.98444490573919	0.3288228338701562	5.728576697026797	3.4014315489220754	3.117629016043978	2.939770514852975	3.849950932542919	1.4281799650031597	4	missed	0.0
132.95890460000373	5.802421999862418	nogo_reward	1.0	132.9681728999126	134.3387864998076	136.8678294999986	1.370613599895023	133.97782969986974	135.84722939995072	137.8774134998671	0.3609567999378669	1.0206001000478864	0.8931813999079168	n/a	1.0	n/a	2	0	81	2	nogo_reward	1	0	1	0	0	1	0	n/a	n/a	1	1.0	1.0	2052.457435200224	2185.4256081001367	2186.435264900094	2186.7962217000318	2188.304664600175	2189.3252647002228	n/a	n/a	2190.3348487000912	2191.228030099999	2020-02-08 12:30:24.086700	4.7587159618648	0.0	7.02521468195857	6.93081791599264	2.26649872009377	7.02521468195857	-4.7587159618648	7.02521468195857	0.0	7.02521468195857	2.26649872009377	2.2166196864042504	1.1623456740431806	-0.4504457994807188	7.017577002276556	5.316179813966261	0.633335966267736	7.017577002276556	2.112431243672316	4.406629321293737	3.2442836472505547	5.1389512377926785	1.4281799650031597	4	missed	0.0
138.8055712999776	6.882215799996629	nogo_reward	1.0	138.81483959988645	141.23604109999678	143.75855319993525	2.421201500110328	139.81265559978738	142.740661299787	144.7729462999846	1.423385500209406	1.0178919001482427	0.9241090998984873	n/a	1.0	n/a	2	0	82	2	nogo_reward	0	1	0	0	0	1	1	n/a	n/a	0	1.0	1.0	2052.457435200224	2191.2722748001106	2192.2700908000115	2193.693476300221	2195.198096500011	2196.2159884001594	n/a	n/a	2197.2303815002088	2198.1544906001072	2020-02-08 12:30:24.086700	5.35357566836797	0.0	7.80354759717046	7.73763296548629	2.44997192880249	7.80354759717046	-5.35357566836797	7.80354759717046	0.0	7.80354759717046	2.44997192880249	-7.80354759717046	1.7572053805463508	-0.4504457994807188	7.795909917488446	6.12299486345991	0.8168091749764563	7.795909917488446	-7.907736039902394	5.184962236505628	3.4277568559592755	5.917284153004569	1.4281799650031597	4	missed	0.0
145.7142260998953	7.295112899970263	nogo_punish	1.0	145.72349439980417	148.03463459992736	150.56695829983755	2.311140200123191	146.72283169999673	149.54567319992884	151.57165899989195	1.3118028999306262	1.0212850999087095	1.4469482998824788	n/a	1.0	n/a	2	0	83	4	nogo_punish	1	-1	0	0	0	1	0	n/a	n/a	0	1.0	1.0	2052.457435200224	2198.1809296000283	2199.180266900221	2200.4920698001515	2202.003108400153	2203.0243935000617	n/a	n/a	2204.029094200116	2205.4760424999986	2020-02-08 12:30:24.086700	3.95242630250223	-5.4036456642785	-1.67975559884891	-4.44342798557716	-5.63218190135114	-1.67975559884891	-3.95242630250223	-1.67975559884891	-5.4036456642785	-1.67975559884891	-5.63218190135114	1.67975559884891	0.35605601468061066	-5.854091463759219	-1.6873932785309236	-6.05806608760354	-7.265344655177174	-1.6873932785309236	1.5755671561169755	-4.298340959513742	-4.654396974194355	-3.5660190430148013	-3.97546569927534	4	missed	0.0
153.05354460002854	6.171349099837244	nogo_reward	1.0	153.0628128999374	154.5035510999146	157.0147624998349	1.4407381999772042	154.06153299985408	156.00861829984888	158.02468809997617	0.44201810006052256	1.0061441999860108	1.2094738997984678	n/a	1.0	n/a	2	0	84	2	nogo_reward	1	0	1	0	0	1	1	n/a	n/a	1	1.0	1.0	2052.457435200224	2205.5202481001616	2206.5189682000782	2206.9609863001388	2208.466053500073	2209.472197700059	n/a	n/a	2210.4821233002003	2211.691597199999	2020-02-08 12:30:24.086700	3.03157081837127	0.0	4.79408383290676	4.74745247676899	1.7625130145355	4.79408383290676	-3.03157081837127	4.79408383290676	0.0	4.79408383290676	1.7625130145355	4.44775053545606	-0.5647994694503491	-0.4504457994807188	4.786446153224746	3.13281437474261	0.1293502607094661	4.786446153224746	4.343562092724126	2.175498472241928	2.740297941692285	2.907820388740869	1.4281799650031597	4	missed	0.0
159.25517909997143	6.120416099904105	go_reward	0.2900612000375986	159.26444739988028	160.61927469982766	163.21510779997288	1.3548272999473738	160.2603063997808	162.19031059998042	164.22233919985592	0.358968300046854	1.024797199992463	1.1625242999284637	n/a	1.0	n/a	2	0	85	1	go_reward	1	1	0	1	1	1	0	n/a	n/a	1	0.2900612000375986	1.0	2052.457435200224	2211.7218826001044	2212.717741600005	2213.076709900052	2214.6477458002046	2215.672543000197	n/a	n/a	2216.67977440008	2217.8422987000085	2020-02-08 12:30:24.086700	5.16709061979631	3.66056424661348	0.0	3.66056424661348	5.16709061979631	0.0	-5.16709061979631	3.66056424661348	0.0	5.16709061979631	0.0	5.58127012174934	1.570720331974691	3.210118447132761	-0.007637679682013617	2.0459261445871	3.533927865970276	-0.007637679682013617	5.477081679017406	2.548505259131478	0.9777849271567851	1.7743008024475886	1.4281799650031597	4	missed	0.0
165.4077125999611	5.880211400100961	go_reward	0.3453616998158395	165.41698089986994	166.77091569988943	169.2960931998673	1.3539348000194877	166.42730369977562	168.2928908998142	170.29729779995932	0.3436120001138079	1.0032023000530899	0.9998945000115782	n/a	1.0	n/a	2	0	86	1	go_reward	1	1	0	1	1	1	0	n/a	n/a	1	0.3453616998158395	1.0	2052.457435200224	2217.874416100094	2218.8847389	2219.2283509001136	2220.7503261000384	2221.7535284000915	n/a	n/a	2222.7547330001835	2223.754627500195	2020-02-08 12:30:24.086700	7.91354412373925	5.89225703951389	0.0	5.89225703951389	7.91354412373925	0.0	-7.91354412373925	5.89225703951389	0.0	7.91354412373925	0.0	3.3495773288489303	4.317173835917631	5.441811240033171	-0.007637679682013617	4.27761893748751	6.280381369913216	-0.007637679682013617	3.245388886116996	5.294958763074417	0.9777849271567851	4.005993595347999	1.4281799650031597	4	missed	0.0
171.31340299989097	7.275689200032502	go_reward	0.2618048000149429	171.32267129979982	173.75607039988927	176.30815219995566	2.4333991000894457	172.3279967999547	175.2933653998184	177.3181704999879	1.428073599934578	1.0147868001372444	1.2801899998444242	n/a	1.0	n/a	2	0	87	1	go_reward	1	1	0	1	1	1	1	n/a	n/a	1	0.2618048000149429	1.0	2052.457435200224	2223.780106500024	2224.785432000179	2226.2135056001134	2227.7508006000426	2228.76558740018	n/a	n/a	2229.775605700212	2231.0557957000565	2020-02-08 12:30:24.086700	9.48401242087771	7.16914491373694	0.0	7.16914491373694	9.48401242087771	0.0	-9.48401242087771	7.16914491373694	0.0	9.48401242087771	0.0	2.0726894546258805	5.88764213305609	6.7186991142562205	-0.007637679682013617	5.55450681171056	7.850849667051675	-0.007637679682013617	1.968501011893946	6.865427060212877	0.9777849271567851	5.282881469571048	1.4281799650031597	4	missed	0.0
178.61723129986785	7.60917490022257	go_reward	0.1197427997831255	178.6264995997767	181.326444599777	183.882660699775	2.699945000000298	179.62270729988768	182.85930919996417	184.882998699788	1.703737299889326	1.0233514998108149	1.3526758002112729	n/a	1.0	n/a	2	0	88	1	go_reward	1	1	0	1	1	1	1	n/a	n/a	1	0.1197427997831255	1.0	2052.457435200224	2231.083934800001	2232.080142500112	2233.783879800001	2235.3167444001883	2236.340095899999	n/a	n/a	2237.340433900012	2238.6931097002234	2020-02-08 12:30:24.086700	10.4125006638822	7.92465149771085	0.0	7.92465149771085	10.4125006638822	0.0	-10.4125006638822	7.92465149771085	0.0	10.4125006638822	0.0	1.31718287065197	6.816130376060581	7.474205698230131	-0.007637679682013617	6.310013395684471	8.779337910056167	-0.007637679682013617	1.2129944279200355	7.793915303217368	0.9777849271567851	6.038388053544959	1.4281799650031597	4	missed	0.0
186.30324149993203	6.311381299979985	nogo_reward	1.0	186.31250979984088	188.08797289989843	190.60724979988254	1.77546310005755	187.30882109980985	189.59335429989687	191.61961399996608	0.7791518000885844	1.013895499985665	1.0042770998547894	n/a	1.0	n/a	2	0	89	2	nogo_reward	1	0	1	0	0	1	0	n/a	n/a	1	1.0	1.0	2052.457435200224	2238.769945000065	2239.766256300034	2240.5454081001226	2242.050789500121	2243.0646850001067	n/a	n/a	2244.0770492001902	2245.081326300045	2020-02-08 12:30:24.086700	4.36265553058678	0.0	6.52611052930781	6.49272347794698	2.16345499872103	6.52611052930781	-4.36265553058678	6.52611052930781	0.0	6.52611052930781	2.16345499872103	2.71572383905501	0.7662852427651607	-0.4504457994807188	6.518472849625796	4.8780853759206	0.5302922448949963	6.518472849625796	2.6115353963230756	3.907525168642978	3.141239925877815	4.639847085141919	1.4281799650031597	4	missed	0.0
192.6570518000517	6.876331399893388	nogo_reward	1.0	192.66632009996056	195.22854979988142	197.75394079997204	2.562229699920863	193.66222099983088	196.74191969982303	198.76779489987484	1.5663288000505418	1.0120211001490134	0.7748565999791026	n/a	1.0	n/a	2	0	90	2	nogo_reward	1	0	1	0	0	1	0	n/a	n/a	1	1.0	1.0	2052.457435200224	2245.1237553001847	2246.119656200055	2247.6859850001056	2249.199354900047	2250.211376000196	n/a	n/a	2251.225230100099	2252.000086700078	2020-02-08 12:30:24.086700	5.13541773532427	0.0	7.5307421766465	7.50657259577407	2.39532444132223	7.5307421766465	-5.13541773532427	7.5307421766465	0.0	7.5307421766465	2.39532444132223	1.71109219171632	1.539047447502651	-0.4504457994807188	7.5231044969644865	5.891934493747691	0.7621616874961961	7.5231044969644865	1.6069037489843856	4.9121568159816675	3.3731093684790148	5.644478732480609	1.4281799650031597	4	missed	0.0
199.5811711999122	5.885891500161961	go_punish	1.0	199.59043949982106	200.857167899841	203.3769818998403	1.2667284000199288	200.58557329978794	202.36106489994518	204.38418739987492	0.27159460005304936	1.0159169998951256	1.092143600108102	n/a	1.0	n/a	2	0	91	3	go_punish	1	0	-1	1	0	0	0	n/a	n/a	-1	1.0	1.0	2052.457435200224	2252.047874700045	2253.043008500012	2253.314603100065	2254.8185001001693	2255.8344171000645	n/a	n/a	2256.841622600099	2257.933766200207	2020-02-08 12:30:24.086700	2.17677966059513	-4.75587987452275	-2.7865171659928	-4.35154699810933	-4.96329682658793	-2.7865171659928	-2.17677966059513	-2.7865171659928	-4.75587987452275	-2.7865171659928	-4.96329682658793	-4.80257904777667	-1.4195906272264893	-5.20632567400347	-2.7941548456748135	-5.96618510013571	-6.596459580413964	-2.7941548456748135	-4.906767490508605	-5.4051025266576325	-3.9855118994311454	-4.672780610158691	-3.3276999095195907	4	missed	0.0
205.5128019999247	7.355018100002781	go_punish	1.0	205.52207029983356	208.0016874999269	210.5117451997935	2.479617200093344	206.52735019987404	209.49499669996976	211.52171829994722	1.4743373000528663	1.0167484998237342	1.3553700998891145	n/a	1.0	n/a	2	0	92	3	go_punish	1	0	-1	1	0	0	0	n/a	n/a	-1	1.0	1.0	2052.457435200224	2257.9795055000577	2258.984785400098	2260.459122700151	2261.952431900194	2262.9691804000176	n/a	n/a	2263.9791535001714	2265.3345236000605	2020-02-08 12:30:24.086700	0.691669268707617	-4.75587987452275	-4.49951890468683	-5.45280833552232	-5.19118817339444	-4.49951890468683	-0.691669268707617	-4.49951890468683	-4.75587987452275	-4.49951890468683	-5.19118817339444	-3.0895773090826406	-2.904701019114002	-5.20632567400347	-4.507156584368843	-7.0674464375487	-6.824350927220474	-4.507156584368843	-3.193765751814575	-7.118104265351661	-4.213403246237655	-6.385782348852721	-3.3276999095195907	4	missed	0.0
212.89210689999163	7.64661470009014	nogo_punish	1.0	212.90137519990049	215.6750093000005	218.19271609978705	2.7736341001000255	213.91227929992556	217.17137819994196	219.205283099785	1.7627300000749528	1.0213378998450935	1.342706800205633	n/a	1.0	n/a	2	0	93	4	nogo_punish	1	-1	0	0	0	1	0	n/a	n/a	0	1.0	1.0	2052.457435200224	2265.3588104001246	2266.3697145001497	2268.1324445002247	2269.628813400166	2270.650151300011	n/a	n/a	2271.662718300009	2273.005425100215	2020-02-08 12:30:24.086700	4.22441795738263	-5.4036456642785	-1.0644776187998	-2.80080979841368	-5.28889557618243	-1.0644776187998	-4.22441795738263	-1.0644776187998	-5.4036456642785	-1.0644776187998	-5.28889557618243	1.0644776187998	0.6280476695610107	-5.854091463759219	-1.0721152984818136	-4.41544790044006	-6.922058330008464	-1.0721152984818136	0.9602891760678656	-3.683062979464632	-4.311110649025645	-2.950741062965691	-3.97546569927534	4	missed	0.0
220.6310501000844	7.602419999893755	go_punish	0.2709145999979228	220.64031839999325	223.6181347998786	226.20329059986398	2.9778163998853415	221.64607949997253	225.1831864998676	227.1987008999563	1.97205529990606	1.020104099996388	1.0440374999307096	n/a	1.0	n/a	2	0	94	3	go_punish	1	0	-1	1	1	1	1	n/a	n/a	0	0.2709145999979228	1.0	2052.457435200224	2273.0977536002174	2274.1035147001967	2276.0755700001027	2277.6406217000917	2278.660725800088	n/a	n/a	2279.6561361001804	2280.700173600111	2020-02-08 12:30:24.086700	0.213598151278813	-4.75587987452275	-5.54752069645449	-6.14687933975226	-5.33392254517568	-5.54752069645449	-0.213598151278813	-4.75587987452275	-5.54752069645449	-5.33392254517568	-5.54752069645449	4.75587987452275	-3.3827721365428065	-5.20632567400347	-5.555158376136504	-7.76151744177864	-6.967085299001714	-5.555158376136504	4.651691431790816	-7.952507905840513	-4.569735769297705	-6.642143318688642	-4.119340731451331	4	missed	0.0
228.278039699886	6.607762100175023	go_punish	0.2842631998937577	228.28730799979485	229.95997609989672	232.48956119990862	1.6726681001018733	229.29774459986902	231.4797306999094	233.50646419986106	0.6622315000277013	1.0098304999992251	1.3886059001088142	n/a	1.0	n/a	2	0	95	3	go_punish	1	0	-1	1	1	1	0	n/a	n/a	0	0.2842631998937577	1.0	2052.457435200224	2280.744743200019	2281.755179800093	2282.417411300121	2283.9371659001336	2284.946996400133	n/a	n/a	2285.963899400085	2287.352505300194	2020-02-08 12:30:24.086700	2.45399080646793	-2.98502272139298	-5.54752069645449	-3.89760972748358	-3.09352988998656	-5.54752069645449	-2.45399080646793	-2.98502272139298	-5.54752069645449	-3.09352988998656	-5.54752069645449	2.98502272139298	-1.1423794813536894	-3.4354685208736986	-5.555158376136504	-5.51224782950996	-4.726692643812594	-5.555158376136504	2.8808342786610455	-5.712115250651392	-4.569735769297705	-4.871286165558871	-4.119340731451331	4	missed	0.0
234.9136439000722	7.218377099838563	go_reward	0.2907436999958008	234.92291219998106	237.40224339999213	239.935108199948	2.4793312000110745	235.93134429980955	238.92231409996702	240.94528639991722	1.470899100182578	1.0127940999809653	1.1960028999023962	n/a	1.0	n/a	2	0	96	1	go_reward	1	1	0	1	1	1	0	n/a	n/a	1	0.2907436999958008	1.0	2052.457435200224	2287.380347400205	2288.3887795000337	2289.8596786002163	2291.379749300191	2292.392543400172	n/a	n/a	2293.4027216001414	2294.5987245000438	2020-02-08 12:30:24.086700	10.9775807556092	8.38489472673493	0.0	8.38489472673493	10.9775807556092	0.0	-10.9775807556092	8.38489472673493	0.0	10.9775807556092	0.0	0.8569396416278909	7.3812104677875805	7.93444892725421	-0.007637679682013617	6.77025662470855	9.344418001783167	-0.007637679682013617	0.7527511988959565	8.358995394944367	0.9777849271567851	6.498631282569038	1.4281799650031597	4	missed	0.0
242.1566979000345	5.866300900001079	nogo_punish	1.0	242.16596619994334	243.75307729979932	246.26693799998566	1.5871110998559743	243.18337189988188	245.25591199984729	247.2755306998729	0.5697053999174386	1.0110260001383722	0.7567364000715315	n/a	1.0	n/a	2	0	97	4	nogo_punish	1	-1	0	0	0	1	0	n/a	n/a	0	1.0	1.0	2052.457435200224	2294.6234014001675	2295.640807100106	2296.2105125000235	2297.7133472000714	2298.72437320021	n/a	n/a	2299.732965900097	2300.4897023001686	2020-02-08 12:30:24.086700	4.39144813075685	-5.4036456642785	-0.691675518038176	-1.8125565528307	-5.08312364879503	-0.691675518038176	-4.39144813075685	-0.691675518038176	-5.4036456642785	-0.691675518038176	-5.08312364879503	0.691675518038176	0.795077842935231	-5.854091463759219	-0.6993131977201895	-3.4271946548570797	-6.716286402621064	-0.6993131977201895	0.5874870753062416	-3.310260878703008	-4.105338721638245	-2.577938962204067	-3.97546569927534	4	missed	0.0
248.04976999992505	6.789778900099918	nogo_punish	1.0	248.0590382998339	250.11761439987413	252.64257009979292	2.058576100040227	249.07699679979078	251.63122939993582	253.66298329993106	1.0406176000833511	1.0113406998571008	1.1858339000027627	n/a	1.0	n/a	2	0	98	4	nogo_punish	0	0	-1	0	0	1	0	n/a	n/a	-1	1.0	1.0	2052.457435200224	2300.516473500058	2301.534432000015	2302.5750496000983	2304.08866460016	2305.100005300017	n/a	n/a	2306.120418500155	2307.306252400158	2020-02-08 12:30:24.086700	4.49678409936342	-5.4036456642785	-0.459499815201761	-1.20040223110155	-4.95628391456519	-0.459499815201761	-4.49678409936342	-0.459499815201761	-5.4036456642785	-0.459499815201761	-4.95628391456519	-7.129596398567709	0.9004138115418003	-5.854091463759219	-0.4671374948837746	-2.8150403331279295	-6.589446668391224	-0.4671374948837746	-7.233784841299643	-3.078085175866593	-3.978498987408405	-2.345763259367652	-3.97546569927534	4	missed	0.0
254.89803549996577	6.249709900002927	go_punish	0.2485273000784218	254.90730379987463	256.70560229988723	259.30945790000214	1.7982985000126064	255.92510989983566	258.2787075999654	260.31316659995264	0.7804924000515712	1.0307503000367433	0.8438470999249148	n/a	1.0	n/a	2	0	99	3	go_punish	1	0	-1	1	1	1	0	n/a	n/a	0	0.2485273000784218	1.0	2052.457435200224	2307.364739000099	2308.38254510006	2309.1630375001114	2310.7361428001896	2311.7668931002263	n/a	n/a	2312.770601800177	2313.6144489001017	2020-02-08 12:30:24.086700	3.79691896957078	-1.92503250704151	-5.54752069645449	-2.53671232090575	-1.75060172688371	-5.54752069645449	-3.79691896957078	-1.92503250704151	-5.54752069645449	-1.75060172688371	-5.54752069645449	1.92503250704151	0.20054868174916063	-2.3754783065222287	-5.555158376136504	-4.151350422932129	-3.383764480709744	-5.555158376136504	1.8208440643095756	-4.369187087548542	-4.569735769297705	-3.811295951207401	-4.119340731451331	4	missed	0.0
261.22596769989514	6.303827699971862	nogo_reward	1.0	261.235235999804	262.71022399980484	265.2178335997737	1.4749880000008488	262.23908769991203	264.2144513998642	266.22768289991564	0.47113629989280525	1.003382199909538	1.311380799860217	n/a	1.0	n/a	2	0	100	2	nogo_reward	1	0	1	0	0	1	0	n/a	n/a	1	1.0	1.0	2052.457435200224	2313.692671200028	2314.696522900136	2315.167659200029	2316.6718866000883	2317.675268799998	n/a	n/a	2318.68511810014	2319.9964989	2020-02-08 12:30:24.086700	5.60007857796978	0.0	8.13410869188227	8.11643264034962	2.53403011391249	8.13410869188227	-5.60007857796978	8.13410869188227	0.0	8.13410869188227	2.53403011391249	1.10772567648055	2.003708290148161	-0.4504457994807188	8.126471012200257	6.5017945383232405	0.9008673600864563	8.126471012200257	1.0035372337486157	5.515523331217437	3.5118150410692754	6.247845247716379	1.4281799650031597	4	missed	0.0
267.56003449996933	6.4476809001062065	go_reward	0.3429491000715643	267.5693027998782	269.2392423998094	271.8031243998553	1.66993959993124	268.5818841999858	270.78209229977756	272.80291439988605	0.6573581998236477	1.0210321000777185	1.2140693000983447	n/a	1.0	n/a	2	0	101	1	go_reward	0	0	1	1	1	1	0	n/a	n/a	0	0.3429491000715643	1.0	2052.457435200224	2320.0267380001023	2321.03931940021	2321.6966776000336	2323.2395275000017	2324.2605596000794	n/a	n/a	2325.26034960011	2326.4744189002085	2020-02-08 12:30:24.086700	11.3303722553388	8.67255607303507	0.0	8.67255607303507	11.3303722553388	0.0	-11.3303722553388	8.67255607303507	0.0	11.3303722553388	0.0	-8.67255607303507	7.73400196751718	8.222110273554351	-0.007637679682013617	7.05791797100869	9.697209501512766	-0.007637679682013617	-8.776744515767003	8.711786894673967	0.9777849271567851	6.7862926288691785	1.4281799650031597	4	missed	0.0
274.03195869992487	6.401194600155122	nogo_punish	1.0	274.0412269998337	275.5162624998479	278.03817539988086	1.4750355000142008	275.0487061999729	277.02075339993416	279.0517201998732	0.4675562998750138	1.0174219999466914	1.3907014001156313	n/a	1.0	n/a	2	0	102	4	nogo_punish	1	-1	0	0	0	1	0	n/a	n/a	0	1.0	1.0	2052.457435200224	2326.498662200058	2327.506141400197	2327.973697700072	2329.4781886001583	2330.495610600105	n/a	n/a	2331.5091554000974	2332.899856800213	2020-02-08 12:30:24.086700	2.42790193203113	-5.4036456642785	-3.00941247631121	-3.50946022122425	-5.43731440834234	-3.00941247631121	-2.42790193203113	-3.00941247631121	-5.4036456642785	-3.00941247631121	-5.43731440834234	3.00941247631121	-1.1684683557904894	-5.854091463759219	-3.0170501559932235	-5.12409832325063	-7.070477162168374	-3.0170501559932235	2.9052240335792754	-5.627997836976042	-4.459529481185555	-4.895675920477101	-3.97546569927534	4	missed	0.0
280.5234264000319	7.268233499955386	go_punish	0.2704177999403327	280.53269469994075	282.7556369998488	285.32758699986107	2.222942299908027	281.52816379978276	284.315743199782	286.33436879981264	1.2274732000660151	1.0118438000790775	1.4665594000834972	n/a	1.0	n/a	2	0	103	3	go_punish	1	0	-1	1	1	1	0	n/a	n/a	0	0.2704177999403327	1.0	2052.457435200224	2332.990129900165	2333.985599000007	2335.213072200073	2336.773178400006	2337.785022200085	n/a	n/a	2338.791804000037	2340.2583634001203	2020-02-08 12:30:24.086700	4.62594643864292	-1.27128758589772	-5.54752069645449	-1.68918251297168	-0.921574257811572	-5.54752069645449	-4.62594643864292	-1.27128758589772	-5.54752069645449	-0.921574257811572	-5.54752069645449	1.27128758589772	1.0295761508213008	-1.7217333853784387	-5.555158376136504	-3.3038206149980596	-2.554737011637606	-5.555158376136504	1.1670991431657856	-3.5401596184764044	-4.569735769297705	-3.157551030063611	-4.119340731451331	4	missed	0.0
287.8181584000122	7.114191100001335	nogo_punish	1.0	287.82742669992103	290.01365909981496	292.5430052999868	2.1862323998939246	288.83664459991223	291.5194795997809	293.55287129990757	1.1770144999027252	1.023525700205937	1.388746500014804	n/a	1.0	n/a	2	0	104	4	nogo_punish	0	0	-1	0	0	1	1	n/a	n/a	-1	1.0	1.0	2052.457435200224	2340.284861900145	2341.2940798001364	2342.471094300039	2343.976914800005	2345.000440500211	n/a	n/a	2346.0103065001317	2347.3990530001465	2020-02-08 12:30:24.086700	3.29500595757698	-5.4036456642785	-1.87245673668467	-2.2162516897173	-5.16746269426165	-1.87245673668467	-3.29500595757698	-1.87245673668467	-5.4036456642785	-1.87245673668467	-5.16746269426165	-5.7166394770848	-0.30136433024463916	-5.854091463759219	-1.8800944163666837	-3.8308897917436795	-6.800625448087684	-1.8800944163666837	-5.820827919816734	-4.491042097349502	-4.1896777671048655	-3.7587201808505615	-3.97546569927534	4	missed	0.0
294.9657175000757	6.005764199886471	go_reward	0.3939597001299262	294.97498579998455	296.30100209987677	298.85701149981423	1.326016299892217	295.972689799964	297.83377659995995	299.86648989980995	0.3283122999127954	1.0232348998542875	1.114260100061074	n/a	1.0	n/a	2	0	105	1	go_reward	1	1	0	1	1	1	0	n/a	n/a	1	0.3939597001299262	1.0	2052.457435200224	2347.4324210002087	2348.430125000188	2348.758437300101	2350.291211800184	2351.3144467000384	n/a	n/a	2352.323925100034	2353.438185200095	2020-02-08 12:30:24.086700	7.26150597677168	5.36341088965609	0.0	5.36341088965609	7.26150597677168	0.0	-7.26150597677168	5.36341088965609	0.0	7.26150597677168	0.0	3.87842347870673	3.665135688950061	4.912965090175371	-0.007637679682013617	3.7487727876297106	5.628343222945646	-0.007637679682013617	3.7742350359747956	4.6429206161068475	0.9777849271567851	3.477147445490199	1.4281799650031597	4	missed	0.0
300.9979208	6.466106999899239	nogo_punish	1.0	301.0071890999088	302.9318333999249	305.4491491999938	1.924644300016098	302.0194938997729	304.4373307998753	306.4588478999208	0.9123395001520294	1.0118184001185	1.0144481998872834	n/a	1.0	n/a	2	0	106	4	nogo_punish	0	0	-1	0	0	1	1	n/a	n/a	-1	1.0	1.0	2052.457435200224	2353.464624300133	2354.476929099997	2355.389268600149	2356.8947660000995	2357.906584400218	n/a	n/a	2358.916283100145	2359.930731300032	2020-02-08 12:30:24.086700	1.67061861220694	-5.4036456642785	-3.89638031502996	-4.13669427627124	-5.5669989272369	-3.89638031502996	-1.67061861220694	-3.89638031502996	-5.4036456642785	-3.89638031502996	-5.5669989272369	-3.69271589873951	-1.9257516756146793	-5.854091463759219	-3.9040179947119737	-5.75133237829762	-7.200161681062934	-3.9040179947119737	-3.7969043414714445	-6.514965675694793	-4.589214000080115	-5.782643759195851	-3.97546569927534	4	missed	0.0
307.49126029992476	6.016569199971855	nogo_punish	0.3157881998922676	307.5005285998336	309.01908659981564	311.5429006000045	1.518557999982022	308.5187694998449	310.52787049999415	312.55499529978215	0.5003170999707436	1.0150301000103354	0.9621025000233203	n/a	1.0	n/a	2	0	107	4	nogo_punish	0	0	-1	0	1	0	0	n/a	n/a	0	0.3157881998922676	1.0	2052.457435200224	2359.9579638000578	2360.976204700069	2361.47652180004	2362.9853057002183	2364.0003358002286	n/a	n/a	2365.0124305000063	2365.9745330000296	2020-02-08 12:30:24.086700	-0.668574253369068	-5.4036456642785	-5.14179021245316	-5.31229364614894	-5.81036446582223	-5.14179021245316	0.668574253369068	-5.4036456642785	-5.14179021245316	-5.81036446582223	-5.14179021245316	5.4036456642785	-4.264944541190687	-5.854091463759219	-5.149427892135174	-6.92693174817532	-7.4435272196482645	-5.149427892135174	5.299457221546565	-8.428949826487063	-4.164005285296375	-7.289909108444391	-3.7136102474500006	4	missed	0.0
313.57221179991075	7.050899400142498	nogo_reward	1.0	313.5814800998196	316.12065389985173	318.63855769997417	2.539173800032131	314.5849209998264	317.62733289995185	319.65890209982126	1.535732900025323	1.011224800022319	0.9734774001408368	n/a	1.0	n/a	2	0	108	2	nogo_reward	1	0	1	0	0	1	0	n/a	n/a	1	1.0	1.0	2052.457435200224	2366.0389153000438	2367.0423562000506	2368.578089100076	2370.084768100176	2371.0959929001983	n/a	n/a	2372.1163373000454	2373.0898147001863	2020-02-08 12:30:24.086700	5.88808878045591	0.0	8.50753888090038	8.49448917295417	2.61945010044446	8.50753888090038	-5.88808878045591	8.50753888090038	0.0	8.50753888090038	2.61945010044446	0.7342954874624397	2.291718492634291	-0.4504457994807188	8.499901201218368	6.87985107092779	0.9862873466184261	8.499901201218368	0.6301070447305053	5.888953520235548	3.5972350276012452	6.621275436734489	1.4281799650031597	4	missed	0.0
320.74073309986807	6.402560000075937	go_punish	0.2745435000397265	320.7500013997769	322.6174094998273	325.19814629992425	1.8674081000503975	321.76621139980807	324.18841169984034	326.20606419979595	0.8511981000192463	1.0097346000839025	0.9464972000569105	n/a	1.0	n/a	2	0	109	3	go_punish	1	0	-1	1	1	1	0	n/a	n/a	0	0.2745435000397265	1.0	2052.457435200224	2373.207436600001	2374.223646600032	2375.0748447000515	2376.6458469000645	2377.6555815001484	n/a	n/a	2378.66349940002	2379.609996600077	2020-02-08 12:30:24.086700	5.15113847875773	-0.857363987674212	-5.54752069645449	-1.14780108626518	-0.396382217696754	-5.54752069645449	-5.15113847875773	-0.857363987674212	-5.54752069645449	-0.396382217696754	-5.54752069645449	0.857363987674212	1.5547681909361106	-1.3078097871549308	-5.555158376136504	-2.7624391882915598	-2.029544971522788	-5.555158376136504	0.7531755449422776	-3.014967578361586	-4.569735769297705	-2.7436274318401033	-4.119340731451331	4	missed	0.0
327.17049659998156	6.051949100103229	nogo_punish	0.3019757000729441	327.1797648998904	328.72904679994053	331.2599562997925	1.5492819000501186	328.19315569987475	330.2367462997786	332.269657899858	0.5358911000657827	1.0232100000139326	0.9620561001356691	n/a	1.0	n/a	2	0	110	4	nogo_punish	1	-1	0	0	1	0	0	n/a	n/a	-1	0.3019757000729441	1.0	2052.457435200224	2379.6372001001146	2380.650590900099	2381.1864820001647	2382.6941815000027	2383.7173915000167	n/a	n/a	2384.727093100082	2385.689149200218	2020-02-08 12:30:24.086700	1.7592408824535	-3.38457993383566	-5.14179021245316	-3.35503769882122	-3.38254932999966	-5.14179021245316	-1.7592408824535	-3.38457993383566	-5.14179021245316	-3.38254932999966	-5.14179021245316	-4.20451627993381	-1.8371294053681193	-3.8350257333163786	-5.149427892135174	-4.969675800847599	-5.015712083825694	-5.149427892135174	-4.308704722665745	-6.001134690664492	-4.164005285296375	-5.270843378001551	-3.7136102474500006	4	missed	0.0
333.25126140005887	6.152790599968284	go_reward	0.3807279001921415	333.2605296999677	334.61927939997986	337.16547949984624	1.3587497000121402	334.2601630999702	336.13843249995216	338.17401069984726	0.3591163000096458	1.0270469998940825	1.2393096000887454	n/a	1.0	n/a	2	0	111	1	go_reward	1	1	0	1	1	1	0	n/a	n/a	1	0.3807279001921415	1.0	2052.457435200224	2385.717964900192	2386.7175983001944	2387.076714600204	2388.5958677001763	2389.6229147000704	n/a	n/a	2390.6314459000714	2391.87075550016	2020-02-08 12:30:24.086700	9.16110128475612	6.90735127735672	0.0	6.90735127735672	9.16110128475612	0.0	-9.16110128475612	6.90735127735672	0.0	9.16110128475612	0.0	2.3344830910061	5.5647309969345	6.456905477876001	-0.007637679682013617	5.2927131753303405	7.5279385309300855	-0.007637679682013617	2.2302946482741657	6.542515924091287	0.9777849271567851	5.021087833190829	1.4281799650031597	4	missed	0.0
339.4526052000001	7.580412999959663	go_punish	0.3205917000304907	339.46187349990896	342.2373894997868	344.7912912999741	2.7755159998778254	340.46951779979236	343.77871519979044	345.79761019977695	1.76787169999443	1.0125761001836509	1.244676300091669	n/a	1.0	n/a	2	0	112	3	go_punish	1	0	-1	1	1	1	0	n/a	n/a	0	0.3205917000304907	1.0	2052.457435200224	2391.919308700133	2392.9269530000165	2394.694824700011	2396.2361504000146	2397.2487265001982	n/a	n/a	2398.255045400001	2399.499721700093	2020-02-08 12:30:24.086700	5.49156175737291	-0.589119430767285	-5.54752069645449	-0.79411899178828	-0.0559589390815823	-5.54752069645449	-5.49156175737291	-0.589119430767285	-5.54752069645449	-0.0559589390815823	-5.54752069645449	0.589119430767285	1.8951914695512908	-1.0395652302480038	-5.555158376136504	-2.4087570938146596	-1.689121692907616	-5.555158376136504	0.4849309880353506	-2.6745442997464144	-4.569735769297705	-2.4753828749331763	-4.119340731451331	4	missed	0.0
347.0815015998669	7.168238100130111	nogo_reward	1.0	347.09076989977575	349.8171291998583	352.3434683999508	2.7263593000825495	348.0857427997976	351.3200977998781	353.34232319984494	1.7313864000607282	1.023370600072667	0.9166848000609207	n/a	1.0	n/a	2	0	113	2	nogo_reward	1	0	1	0	0	1	0	n/a	n/a	1	1.0	1.0	2052.457435200224	2399.5482051	2400.5431780000217	2402.2745644000825	2403.7775330001023	2404.800903600175	n/a	n/a	2405.799758400069	2406.71644320013	2020-02-08 12:30:24.086700	6.07140515583373	0.0	8.74480946722037	8.73509039375209	2.67340431138664	8.74480946722037	-6.07140515583373	8.74480946722037	0.0	8.74480946722037	2.67340431138664	0.497024901142451	2.475034868012111	-0.4504457994807188	8.737171787538356	7.1204522917257105	1.0402415575606063	8.737171787538356	0.3928364584105166	6.1262241065555365	3.6511892385434255	6.858546023054478	1.4281799650031597	4	missed	0.0
354.27832340006717	7.004041299922392	go_reward	0.2490199999883771	354.287591699976	356.258879799861	358.7935001999135	1.9712880998849869	355.29858519998334	357.775063199922	359.80303009995214	0.9602945998776704	1.0184369999915361	1.4886028999462724	n/a	1.0	n/a	2	0	114	1	go_reward	1	1	0	1	1	1	0	n/a	n/a	1	0.2490199999883771	1.0	2052.457435200224	2406.7450269002	2407.7560204002075	2408.716315000085	2410.232498400146	2411.2509354001377	n/a	n/a	2412.2604653001763	2413.7490682001226	2020-02-08 12:30:24.086700	10.2476349908594	7.79105646507366	0.0	7.79105646507366	10.2476349908594	0.0	-10.2476349908594	7.79105646507366	0.0	10.2476349908594	0.0	1.4507779032891603	6.65126470303778	7.340610665592941	-0.007637679682013617	6.17641836304728	8.614472237033366	-0.007637679682013617	1.346589460557226	7.629049630194567	0.9777849271567851	5.904793020907769	1.4281799650031597	4	missed	0.0
361.30663709994406	6.794750400119938	nogo_punish	0.5064023002050817	361.3159053998529	363.30345849995456	365.8732201999519	1.9875531001016498	362.31943639996416	364.84584849979683	366.87088879989415	0.9840220999903977	1.0273717001550722	1.2397670000787002	n/a	1.0	n/a	2	0	115	4	nogo_punish	1	-1	0	0	1	0	0	n/a	n/a	-1	0.5064023002050817	1.0	2052.457435200224	2413.773340600077	2414.7768716001883	2415.7608937001787	2417.303283700021	2418.330655400176	n/a	n/a	2419.3283240001183	2420.568091000197	2020-02-08 12:30:24.086700	-0.0467894048560783	-4.87469329305473	-5.14179021245316	-4.8742053270252	-5.18857961730924	-5.14179021245316	0.0467894048560783	-4.87469329305473	-5.14179021245316	-5.18857961730924	-5.14179021245316	-2.7144029207147398	-3.6431596926776977	-5.32513909253545	-5.149427892135174	-6.488843429051579	-6.821742371135274	-5.149427892135174	-2.818591363446674	-7.807164977974072	-4.164005285296375	-6.760956737220622	-3.7136102474500006	4	missed	0.0
368.152097600047	6.52402759995266	nogo_reward	1.0	368.16136589995585	369.6711377999741	372.20001239981457	1.5097719000182224	369.16551969991997	371.1814437999851	373.21467209979846	0.5056181000541073	1.0185685998294502	1.470721400110051	n/a	1.0	n/a	2	0	116	2	nogo_reward	1	0	1	0	0	1	0	n/a	n/a	1	1.0	1.0	2052.457435200224	2420.61880110018	2421.622954900144	2422.1285730001982	2423.6388790002093	2424.6574476000387	n/a	n/a	2425.6721073000226	2427.1428287001327	2020-02-08 12:30:24.086700	6.19084974661013	0.0	8.89910414710304	8.89180626372993	2.70825440049291	8.89910414710304	-6.19084974661013	8.89910414710304	0.0	8.89910414710304	2.70825440049291	0.3427302212597798	2.594479458788511	-0.4504457994807188	8.891466467421028	7.27716816170355	1.0750916466668763	8.891466467421028	0.23854177852784542	6.280518786438208	3.686039327649695	7.012840702937149	1.4281799650031597	4	missed	0.0
374.7560831999872	6.071343600051932	go_punish	0.3644171999767422	374.76535149989604	376.0724609999447	378.6226594999889	1.307109500048682	375.7557023998811	377.6002564998339	379.63288699998475	0.316758600063622	1.022403000155009	1.2038080999632257	n/a	1.0	n/a	2	0	117	3	go_punish	0	-1	0	1	1	1	0	n/a	n/a	-1	0.3644171999767422	1.0	2052.457435200224	2427.22278670012	2428.2131376001053	2428.529896200169	2430.057691700058	2431.080094700213	n/a	n/a	2432.090322200209	2433.294130300172	2020-02-08 12:30:24.086700	5.71678088351386	-0.411638222770834	-5.54752069645449	-0.558376512760508	0.169260187059368	-5.54752069645449	-5.71678088351386	-0.411638222770834	-5.54752069645449	0.169260187059368	-5.54752069645449	-7.1774579909986365	2.120410595692241	-0.8620840222515528	-5.555158376136504	-2.1730146147868874	-1.4639025667666659	-5.555158376136504	-7.281646433730571	-2.449325173605464	-4.569735769297705	-2.2979016669367254	-4.119340731451331	4	missed	0.0
380.9367939999793	6.3687923001125455	nogo_reward	1.0	380.9460622998881	382.95881379977754	385.4837166999928	2.0127514998894185	381.95605379994913	384.4746940999753	386.5035466998811	1.0027599998284131	1.009022600017488	0.8113079001195729	n/a	1.0	n/a	2	0	118	2	nogo_reward	1	0	1	0	0	1	1	n/a	n/a	1	1.0	1.0	2052.457435200224	2433.4034975001123	2434.4134890001733	2435.4162490000017	2436.9321293001994	2437.941151900217	n/a	n/a	2438.9609819001053	2439.772289800225	2020-02-08 12:30:24.086700	6.27031717424534	0.0	9.00153519542289	8.99601336788736	2.73121802117755	9.00153519542289	-6.27031717424534	9.00153519542289	0.0	9.00153519542289	2.73121802117755	0.2402991729399293	2.673946886423721	-0.4504457994807188	8.993897515740878	7.38137526586098	1.0980552673515163	8.993897515740878	0.1361107302079949	6.382949834758058	3.7090029483343354	7.115271751257	1.4281799650031597	4	missed	0.0
387.33236059988803	7.370351900114201	nogo_punish	1.0	387.3416288997969	389.6954337998759	392.223148399964	2.3538049000790124	388.346517700003	391.2001512998245	393.2348119998346	1.3489160998728948	1.0229971001394915	1.4771688000764698	n/a	1.0	n/a	2	0	119	4	nogo_punish	1	-1	0	0	0	1	0	n/a	n/a	0	1.0	1.0	2052.457435200224	2439.799064100021	2440.803952900227	2442.1528690001	2443.6575865000486	2444.680583600188	n/a	n/a	2445.692247200059	2447.1694160001352	2020-02-08 12:30:24.086700	1.15220455124613	-5.78841796777683	-5.14179021245316	-5.80061370666846	-6.29399476369929	-5.14179021245316	-1.15220455124613	-5.14179021245316	-5.78841796777683	-5.14179021245316	-6.29399476369929	5.14179021245316	-2.4441657365754894	-6.238863767257549	-5.149427892135174	-7.41525180869484	-7.927157517525324	-5.149427892135174	5.037601769721226	-7.760375573117992	-5.316209836542505	-7.0280536566190515	-4.36023800277367	4	missed	0.0
394.7514432000462	7.833495199913159	go_punish	0.3158131998497993	394.76071149995505	397.5920087997797	400.11757759982675	2.831297299824655	395.76028119982175	399.10728649981274	401.1356696998696	1.8317275999579579	1.0102911000140011	1.4585369999986142	n/a	1.0	n/a	2	0	120	3	go_punish	1	0	-1	1	1	1	0	n/a	n/a	0	0.3158131998497993	1.0	2052.457435200224	2447.218146700179	2448.217716400046	2450.049444000004	2451.564721700037	2452.575012800051	n/a	n/a	2453.5931049000937	2455.0516419000924	2020-02-08 12:30:24.086700	2.60931573971292	-2.99007101733534	-5.54752069645449	-3.09645567374601	-2.93820495674157	-5.54752069645449	-2.60931573971292	-2.99007101733534	-5.54752069645449	-2.93820495674157	-5.54752069645449	2.99007101733534	-0.9870545481086994	-3.440516816816059	-5.555158376136504	-4.711093775772389	-4.571367710567603	-5.555158376136504	2.885882574603406	-5.556790317406402	-4.569735769297705	-4.876334461501232	-4.119340731451331	4	missed	0.0
