onset	duration	trial_type	response_time	cueOnset	targetOnset	fbOnset	cueRT	firstfixOnset	secondfixOnset	waitOnset	firstfixdur	secondfixdur	waitdur	nback_fbOnset	nback_response_time	nback_targetOnset	block	wm	trial	cue	cond	is_common	outcome_go	outcome_nogo	key_correct	key_pressed	is_correct	key_correct_nback	key_pressed_nback	is_correct_nback	outcome	rt	rt_nback	time_scan	time_onset	time_isi1	time_circle	time_isi2	time_feedback	time_same	time_correct	time_iti	time_done	timestamp_scan	DV	Qgo	Qnogo	SV	Wgo	Wnogo	mDV	Qchosen	Qunchosen	Wchosen	Wunchosen	PE	DVC	QgoC	QnogoC	SVC	WgoC	WnogoC	PEC	WchosenC	WunchosenC	QchosenC	QunchosenC	run	outcome_nback	nback_targetResp
0.0	8.947423799894864	nogo_punish	0.2772351000458002	0.06833200016978935	2.1061659001279622	4.731748500140384	2.037833899958173	1.0821073001716286	3.692543799989039	7.7739250001031905	1.0240585999563336	1.0392047001513447	1.2418307999614626	6.760687700006997	1.0	5.751887100050226	1	1	61	4	nogo_punish	1	-1	0	0	1	0	0	n/a	0.0	0	0.2772351000458002	1.0	985.8297524000518	985.8980844002216	986.9118597002234	987.9359183001798	989.5222962000408	990.5615009001922	991.581639500102	992.5904401000588	993.603677400155	994.8455082001165	2020-02-08 12:12:37.459964	-0.422462355409494	-2.65917019377858	-2.69369294951051	-3.22176677149702	-3.11615530492001	-2.69369294951051	0.422462355409494	-2.65917019377858	-2.69369294951051	-3.11615530492001	-2.69369294951051	-4.929926019990891	-4.018832643231113	-3.1096159932592986	-2.701330629192524	-4.836404873523399	-4.749318058746044	-2.701330629192524	-5.034114462722825	-5.734740665584843	-1.715908022353725	-4.5454336379444715	-1.2655129845073505	2	missed	0.0
9.050109699834252	8.829764400143176	go_punish	0.2026412999257445	9.118441700004041	11.035728600108996	13.57119030016463	1.9172869001049548	10.121026800014192	12.562428700039163	16.620943800080568	0.9147018000948037	1.0087616001254673	1.32726230006665	15.62189850001596	0.6919413001742214	14.590231599984577	1	1	62	3	go_punish	1	0	-1	1	1	1	1	0.0	0.0	0	0.2026412999257445	0.6919413001742214	985.8297524000518	994.9481941000558	995.950779200066	996.8654810001608	998.392181100091	999.4009427002164	1000.4199840000364	1001.4516509000678	1002.4506962001324	1003.777958500199	2020-02-08 12:12:37.459964	2.51202489843567	-0.485882347191007	-2.6233801957441	-0.912203637127017	-0.111355297308433	-2.6233801957441	-2.51202489843567	-0.485882347191007	-2.6233801957441	-0.111355297308433	-2.6233801957441	0.485882347191007	-1.0843453893859492	-0.9363281466717257	-2.6310178754261138	-2.5268417391533964	-1.744518051134467	-2.6310178754261138	0.3816939044590726	-2.7299406579732652	-1.645595268587315	-2.372145791356898	-1.1952002307409404	2	wrong	1.0
17.941185599891583	8.65959950000979	nogo_reward	0.2739403001032769	18.009517600061372	20.218401000136623	22.761174200102573	2.2088834000752513	19.01464599999599	21.75299070007179	25.7795069999994	1.2037550001406316	1.008183500030782	0.8896101000717636	24.786395800066998	0.6170694997999817	23.776246899971852	1	1	63	2	nogo_reward	1	0	1	0	1	0	0	0.0	1.0	0	0.2739403001032769	0.6170694997999817	985.8297524000518	1003.8392700001132	1004.8443984000478	1006.0481534001884	1007.5827431001236	1008.5909266001544	1009.6059993000237	1010.6161482001188	1011.6092594000512	1012.498869500123	2020-02-08 12:12:37.459964	-0.978115852186174	0.571294981148862	3.57662712546799	3.47054976937046	2.59851127328182	3.57662712546799	0.978115852186174	0.571294981148862	3.57662712546799	2.59851127328182	3.57662712546799	-0.571294981148862	-4.574486140007793	0.12084918166814324	3.5689894457859763	1.8559116673440803	0.9653485194557863	3.5689894457859763	-0.6754834238807964	-0.020074087383012085	4.554412052624775	-1.314968463017029	5.00480709047115	2	correct	1.0
26.700300899800027	9.371026600012556	go_punish	0.3032180001027882	26.768632899969816	29.19405549997464	31.75693230004981	2.425422600004822	27.77016329998139	30.741570400074238	34.78670160006743	1.4238921999932472	1.0153618999755736	1.3529578999149408	33.778152700047826	1.0	32.767638599965835	1	1	64	3	go_punish	0	-1	0	1	1	1	1	n/a	0.0	0	0.3032180001027882	1.0	985.8297524000518	1012.5983853000216	1013.5999157000332	1015.0238079000264	1016.571322800126	1017.5866847001016	1018.5973910000176	1019.6079051000996	1020.6164540001192	1021.9694119000342	2020-02-08 12:12:37.459964	2.65661530944404	-0.399236707765275	-2.6233801957441	-0.749352387628066	0.0332351136999362	-2.6233801957441	-2.65661530944404	-0.399236707765275	-2.6233801957441	0.0332351136999362	-2.6233801957441	-7.189859506004195	-0.9397549783775792	-0.8496825072459937	-2.6310178754261138	-2.3639904896544457	-1.5999276401260976	-2.6310178754261138	-7.29404794873613	-2.585350246964896	-1.645595268587315	-2.285500151931166	-1.1952002307409404	2	missed	0.0
36.109529099892825	9.385719199898062	nogo_punish	1.0	36.177861100062614	38.867832500021905	41.399138499982655	2.6899713999592905	37.1782927000894	40.37944220006466	44.45466990000591	1.6895397999325041	1.019696299917996	1.108910399954766	43.44687009998597	0.3376877999398857	42.408572300104424	1	1	65	4	nogo_punish	1	-1	0	0	0	1	0	0.0	1.0	0	1.0	0.3376877999398857	985.8297524000518	1022.0076135001144	1023.0080451001412	1024.6975849000737	1026.2091946001165	1027.2288909000345	1028.2383247001562	1029.2766225000378	1030.2844223000577	1031.3933327000125	2020-02-08 12:12:37.459964	-0.346581789295821	-2.12109381252702	-2.69369294951051	-2.59181133892002	-2.34711116021469	-2.69369294951051	0.346581789295821	-2.69369294951051	-2.12109381252702	-2.69369294951051	-2.34711116021469	2.69369294951051	-3.9429520771174404	-2.5715396120077387	-2.701330629192524	-4.2064494409463995	-3.9802739140407235	-2.701330629192524	2.589504506778576	-5.312278310175342	-1.3693262330579048	-4.579956393676401	-0.6929138475238603	2	correct	1.0
45.53230869979609	9.02209060010523	nogo_punish	1.0	45.60064069996588	47.5645578999538	50.10080360015854	1.9639171999879181	46.60522170015611	49.081075000111014	53.14542970014736	0.9593361997976899	1.0197286000475287	1.4773015999237487	52.13832080014981	0.2679935998748988	51.11928230011836	1	1	66	4	nogo_punish	1	-1	0	0	0	1	0	0.0	1.0	0	1.0	0.2679935998748988	985.8297524000518	1031.4303931000177	1032.434974100208	1033.3943103000056	1034.9108274001628	1035.9305560002103	1036.9490347001702	1037.9680732002016	1038.9751821001992	1040.452483700123	2020-02-08 12:12:37.459964	0.0149759612105764	-2.12109381252702	-2.15187937864196	-2.0965412969675	-2.16685533985254	-2.15187937864196	-0.0149759612105764	-2.15187937864196	-2.12109381252702	-2.15187937864196	-2.16685533985254	2.15187937864196	-3.581394326611043	-2.5715396120077387	-2.159517058323974	-3.7111793989938797	-3.800018093678574	-2.159517058323974	2.0476909359100257	-4.770464739306792	-1.1890704126957548	-4.038142822807851	-0.6929138475238603	2	correct	1.0
54.59105529985402	9.134441500063986	nogo_reward	0.3594146999530494	54.65938730002381	57.19774190010503	59.745844800025225	2.5383546000812203	55.661907400004566	58.72758639999665	62.79304560017772	1.5358345001004636	1.0182584000285715	1.0007831999100745	61.79006280004978	0.3392630000598728	60.762034700019285	1	1	67	2	nogo_reward	1	0	1	0	1	0	0	0.0	1.0	0	0.3594146999530494	0.3392630000598728	985.8297524000518	1040.4891397000756	1041.4916598000564	1043.0274943001568	1044.5573388000485	1045.575597200077	1046.591787100071	1047.6198152001016	1048.6227980002295	1049.6235812001396	2020-02-08 12:12:37.459964	-1.38250122515329	0.458914670074134	3.57662712546799	2.7337129013019	2.1941259003147	3.57662712546799	1.38250122515329	0.458914670074134	3.57662712546799	2.1941259003147	3.57662712546799	-0.458914670074134	-4.9788715129749095	0.008468870593415223	3.5689894457859763	1.1190747992755203	0.560963146488666	3.5689894457859763	-0.5631031128060684	-0.4244594603501324	4.554412052624775	-1.4273487740917572	5.00480709047115	2	correct	1.0
63.76028809999127	8.86484989989549	go_reward	0.2379368999972939	63.82862010016106	65.67433100007452	68.26548340008571	1.8457108999134562	64.83062850008719	67.24038860015571	71.29768009996042	0.8437024999873302	1.0250947999300024	1.3957899000961334	70.28920580004342	0.8398333999793977	69.26645820005797	1	1	68	1	go_reward	1	1	0	1	1	1	0	0.0	1.0	1	0.2379368999972939	0.8398333999793977	985.8297524000518	1049.6583725002129	1050.660380900139	1051.5040834001263	1053.0701410002075	1054.0952358001375	1055.0962106001098	1056.1189582000952	1057.1274325000122	1058.5232224001084	2020-02-08 12:12:37.459964	12.0936044202242	8.2526369589607	0.0	8.2526369589607	12.0936044202242	0.0	-12.0936044202242	8.2526369589607	0.0	12.0936044202242	0.0	0.9891974094021201	8.49723413240258	7.802191159479981	-0.007637679682013617	6.6379988569343205	10.460441666398166	-0.007637679682013617	0.8850089666701857	9.475019059559367	0.9777849271567851	6.366373514794809	1.4281799650031597	2	correct	1.0
72.66145969997172	9.378074999898672	nogo_punish	1.0	72.7297917001415	75.25035080011003	77.77544310013764	2.520559099968523	73.73459869995713	76.76488450006582	80.82653410010971	1.5157521001528949	1.0105586000718176	1.2813325999304652	79.8130445999559	0.7796392000745982	78.79230720014311	1	1	69	4	nogo_punish	0	0	-1	0	0	1	0	0.0	1.0	-1	1.0	0.7796392000745982	985.8297524000518	1058.5595441001933	1059.564351100009	1061.0801032001618	1062.5946369001176	1063.6051955001894	1064.622059600195	1065.6427970000077	1066.6562865001615	1067.937619100092	2020-02-08 12:12:37.459964	0.295912252130734	-2.12109381252702	-1.72931896843526	-1.7046301406065	-2.025231220566	-1.72931896843526	-0.295912252130734	-1.72931896843526	-2.12109381252702	-1.72931896843526	-2.025231220566	-5.85977724533421	-3.3004580356908853	-2.5715396120077387	-1.7369566481172736	-3.3192682426328797	-3.658393974392034	-1.7369566481172736	-5.9639656880661445	-4.347904329100092	-1.0474462934092148	-3.6155824126011513	-0.6929138475238603	2	correct	1.0
82.07338209985767	8.139941999921575	nogo_punish	0.3456264999695122	82.14171410002746	83.6406913001556	86.20942310011014	1.498977200128138	83.13568970002211	85.18598029995337	89.23627250012942	0.5050016001334825	1.0234428001567721	1.0453835998196155	88.23369360016659	0.7033114000223577	87.21394890011311	1	1	70	4	nogo_punish	1	-1	0	0	1	0	0	0.0	1.0	-1	0.3456264999695122	0.7033114000223577	985.8297524000518	1067.9714665000793	1068.965442100074	1069.4704437002074	1071.0157327000052	1072.039175500162	1073.043701300165	1074.0634460002184	1075.0660249001812	1076.1114085000008	2020-02-08 12:12:37.459964	0.415167280719068	-2.12109381252702	-2.86491258009621	-2.86013542113466	-2.44974529937715	-2.86491258009621	-0.415167280719068	-2.12109381252702	-2.86491258009621	-2.44974529937715	-2.86491258009621	-5.46800240124245	-3.1812030071025514	-2.5715396120077387	-2.8725502597782238	-4.47477352316104	-4.082908053203184	-2.8725502597782238	-5.572190843974385	-5.0683306600419815	-1.887127652939425	-4.007357256692911	-1.4367326150930504	2	correct	1.0
90.24880089983355	8.681707200128358	nogo_punish	0.4909898000769317	90.31713290000334	92.32823570002802	94.9076696999839	2.0111028000246733	91.33266109996475	93.88278840016574	97.94657370005734	0.9955746000632644	1.024881299818162	1.052266400074359	96.94020080007613	0.9035802001599222	95.91767690004781	1	1	71	4	nogo_punish	1	-1	0	0	1	0	1	0.0	0.0	-1	0.4909898000769317	0.9035802001599222	985.8297524000518	1076.1468853000551	1077.1624135000166	1078.1579881000798	1079.7125408002175	1080.7374221000357	1081.7474293000996	1082.769953200128	1083.7763261001091	1084.8285925001835	2020-02-08 12:12:37.459964	-0.963257862445943	-3.16919904060588	-2.86491258009621	-3.76627136332975	-3.82817044254216	-2.86491258009621	0.963257862445943	-3.16919904060588	-2.86491258009621	-3.82817044254216	-2.86491258009621	-4.419897173163591	-4.559628150267562	-3.6196448400865986	-2.8725502597782238	-5.38090946535613	-5.4613331963681935	-2.8725502597782238	-4.524085615895525	-6.446755803206992	-1.887127652939425	-5.0554624847717715	-1.4367326150930504	2	wrong	1.0
98.96711859991785	8.336699799867347	go_reward	0.0080885000061243	99.03545060008764	100.41020649997517	102.98065210017376	1.374755899887532	100.04991760011762	101.96583999996051	106.02999980002642	0.36028889985755086	1.0148121002132484	1.3421505999285728	105.02245809999295	0.8248069998808205	103.99549930007197	1	1	72	1	go_reward	1	1	0	1	1	1	0	1.0	0.0	1	0.0080885000061243	0.8248069998808205	985.8297524000518	1084.8652030001394	1085.8796700001694	1086.239958900027	1087.7955924000123	1088.8104045002256	1089.8252517001238	1090.8522105000447	1091.8597522000782	1093.2019028000068	2020-02-08 12:12:37.459964	12.3163924476401	8.41578562928207	0.0	8.41578562928207	12.3163924476401	0.0	-12.3163924476401	8.41578562928207	0.0	12.3163924476401	0.0	0.8260487390807505	8.72002215981848	7.9653398298013505	-0.007637679682013617	6.80114752725569	10.683229693814067	-0.007637679682013617	0.7218602963488161	9.697807086975267	0.9777849271567851	6.529522185116178	1.4281799650031597	2	wrong	1.0
107.34204759984289	8.994202400092036	nogo_punish	1.0	107.41037960001267	109.47458000015467	111.98647060012468	2.064200400141999	108.42561090015829	110.97911720001139	115.0302894001361	1.048969099996384	1.0073534001132884	1.3742925999686122	114.02332260017283	0.4790150998160243	112.99716440006159	1	1	73	4	nogo_punish	1	-1	0	0	0	1	1	1.0	1.0	0	1.0	0.4790150998160243	985.8297524000518	1093.2401320000645	1094.25536330021	1095.3043324002065	1096.8088696000632	1097.8162230001765	1098.8269168001134	1099.8530750002246	1100.860041800188	1102.2343344001565	2020-02-08 12:12:37.459964	2.0489446757674	-3.99599984195376	-2.86491258009621	-4.48183394335634	-4.91385725586362	-2.86491258009621	-2.0489446757674	-2.86491258009621	-3.99599984195376	-2.86491258009621	-4.91385725586362	2.86491258009621	-1.5474256120542194	-4.446445641434479	-2.8725502597782238	-6.096472045382719	-6.547020009689654	-2.8725502597782238	2.7607241373642757	-5.483497940761042	-3.9360723287068353	-4.751176024262101	-2.5678198769506	2	correct	1.0
116.41149839991715	8.707381499931216	go_punish	0.2368985000066459	116.47983040008694	118.28984460001811	120.91756950016133	1.8100141999311745	117.47771600005217	119.8968782001175	123.95840150001459	0.8121285999659449	1.0206913000438362	1.2288104000035673	122.94922229996882	0.5855590000282973	121.92574500013143	1	1	74	3	go_punish	1	0	-1	1	1	1	0	0.0	1.0	0	0.2368985000066459	0.5855590000282973	985.8297524000518	1102.3095828001387	1103.307468400104	1104.11959700007	1105.7266306001693	1106.7473219002131	1107.7554974001832	1108.7789747000206	1109.7881539000664	1111.01696430007	2020-02-08 12:12:37.459964	2.77290809911593	-0.329358064041218	-2.6233801957441	-0.618082557766175	0.149527903371832	-2.6233801957441	-2.77290809911593	-0.329358064041218	-2.6233801957441	0.149527903371832	-2.6233801957441	0.329358064041218	-0.8234621887056894	-0.7798038635219368	-2.6310178754261138	-2.2327206597925544	-1.4836348504542018	-2.6310178754261138	0.22516962130928359	-2.469057457293	-1.645595268587315	-2.2156215082071093	-1.1952002307409404	2	correct	1.0
125.15500489994872	9.38345559989125	go_reward	0.2464199000969529	125.22333690011851	127.59472330007702	130.1482127001509	2.37138639995851	126.23814580007456	129.1249112000221	133.22194640012458	1.3565775000024587	1.0233015001288095	1.3848460998851806	132.20283349999227	0.3420569999143481	131.16915039997548	1	1	75	1	go_reward	1	1	0	1	1	1	0	0.0	1.0	1	0.2464199000969529	0.3420569999143481	985.8297524000518	1111.0530893001703	1112.0678982001264	1113.4244757001288	1114.954663600074	1115.9779651002027	1116.9989028000273	1118.032585900044	1119.0516988001764	1120.4365449000616	2020-02-08 12:12:37.459964	12.4987773016729	8.54956694120157	0.0	8.54956694120157	12.4987773016729	0.0	-12.4987773016729	8.54956694120157	0.0	12.4987773016729	0.0	0.6922674271612497	8.902407013851281	8.099121141720852	-0.007637679682013617	6.934928839175191	10.865614547846867	-0.007637679682013617	0.5880789844293153	9.880191941008068	0.9777849271567851	6.663303497035679	1.4281799650031597	2	correct	1.0
134.57659709989105	8.456440299982205	go_reward	0.8558976999484003	134.64492910006084	136.00923070008866	138.57915440015495	1.3643016000278294	135.64924610010348	137.55710910004564	141.62586529995315	0.3599845999851823	1.022045300109312	1.4755041000898927	140.6190947999712	0.5018262998200953	139.59332750015892	1	1	76	1	go_reward	1	1	0	1	1	1	0	0.0	1.0	1	0.8558976999484003	0.5018262998200953	985.8297524000518	1120.4746815001126	1121.4789985001553	1121.8389831001405	1123.3868615000974	1124.4089068002068	1125.4230799002107	1126.448847200023	1127.455617700005	1128.9311218000948	2020-02-08 12:12:37.459964	12.6487081575344	8.65971853514417	0.0	8.65971853514417	12.6487081575344	0.0	-12.6487081575344	8.65971853514417	0.0	12.6487081575344	0.0	0.5821158332186496	9.052337869712781	8.209272735663452	-0.007637679682013617	7.045080433117791	11.015545403708368	-0.007637679682013617	0.4779273904867152	10.030122796869568	0.9777849271567851	6.773455090978279	1.4281799650031597	2	correct	1.0
143.08693939982925	9.34982130001299	go_punish	0.2767713000066578	143.15527139999904	145.62136010010727	148.18390000006184	2.46608870010823	144.16735720005818	147.17374790017493	151.2234632000327	1.4540029000490904	1.0101520998869091	1.2816294999793172	150.22223459999077	0.7248732000589371	149.2102545001544	1	1	77	3	go_punish	1	0	-1	1	1	1	0	0.0	1.0	0	0.2767713000066578	0.7248732000589371	985.8297524000518	1128.9850238000508	1129.99710960011	1131.451112500159	1133.0035003002267	1134.0136524001136	1135.0400069002062	1136.0519870000426	1137.0532156000845	1138.3348451000638	2020-02-08 12:12:37.459964	2.86688101198683	-0.272743054539412	-2.6233801957441	-0.511774139046051	0.243500816242731	-2.6233801957441	-2.86688101198683	-0.272743054539412	-2.6233801957441	0.243500816242731	-2.6233801957441	0.272743054539412	-0.7294892758347893	-0.7231888540201308	-2.6310178754261138	-2.1264122410724307	-1.3896619375833028	-2.6310178754261138	0.1685546118074776	-2.3750845444221014	-1.645595268587315	-2.159006498705303	-1.1952002307409404	2	correct	1.0
152.4740243998823	8.642556099919602	nogo_reward	1.0	152.54235640005209	154.3954332000576	156.9174610001503	1.8530768000055104	153.5574702001179	155.9006138001571	159.9513596999459	0.8379629999396911	1.016847199993208	1.233552800025791	158.94485000008717	0.7251593999098986	157.93105400004424	1	1	78	2	nogo_reward	1	0	1	0	0	1	0	0.0	1.0	1	1.0	0.7251593999098986	985.8297524000518	1138.372108800104	1139.3872226001697	1140.2251856001094	1141.730366200209	1142.747213400202	1143.760806400096	1144.774602400139	1145.7811120999977	1147.0146649000235	2020-02-08 12:12:37.459964	1.69351741296415	0.370502300590003	3.57662712546799	2.16765110888685	1.88310971250384	3.57662712546799	-1.69351741296415	3.57662712546799	0.370502300590003	3.57662712546799	1.88310971250384	5.66520724289483	-1.9028528748574693	-0.07994349889071578	3.5689894457859763	0.5530130068604704	0.24994695867780625	3.5689894457859763	5.561018800162896	0.9580417648031578	2.860894639660625	1.6903636813020988	1.7986822655931627	2	correct	1.0
161.1562629998665	8.025666899978887	nogo_punish	1.0	161.2245950000363	162.65523290005513	165.17752550006844	1.4306379000188372	162.22483019996412	164.1658837001305	168.22554430016316	0.43040270009100823	1.0116417999379337	1.0247175998520106	167.20420849998482	0.3198007000610232	166.19416620000266	1	1	79	4	nogo_punish	1	-1	0	0	0	1	0	0.0	1.0	0	1.0	0.3198007000610232	985.8297524000518	1147.054347400088	1148.054582600016	1148.484985300107	1149.9956361001823	1151.0072779001202	1152.0239186000545	1153.0339609000366	1154.055296700215	1155.080014300067	2020-02-08 12:12:37.459964	2.29070824900781	-3.99599984195376	-2.29092340603887	-3.5830536332901	-4.58163165504669	-2.29092340603887	-2.29070824900781	-2.29092340603887	-3.99599984195376	-2.29092340603887	-4.58163165504669	2.29092340603887	-1.3056620388138094	-4.446445641434479	-2.2985610857208836	-5.1976917353164795	-6.214794408872724	-2.2985610857208836	2.1867349633069355	-4.909508766703702	-3.6038467278899047	-4.177186850204761	-2.5678198769506	2	correct	1.0
169.21868589986127	8.045834900112823	go_reward	0.721944099990651	169.28701790003106	170.9541198001241	173.54421680001542	1.66710190009303	170.30102639994584	172.5250145001337	176.56088749994524	0.6530934001782498	1.0192022998817265	0.7719653001986444	175.5651040000373	1.0	174.5564160000065	1	1	80	1	go_reward	0	0	1	1	1	1	0	n/a	0.0	1	0.721944099990651	1.0	985.8297524000518	1155.1167703000829	1156.1307787999976	1156.783872200176	1158.3547669001855	1159.3739692000672	1160.3861684000583	1161.394856400089	1162.390639899997	1163.1626052001957	2020-02-08 12:12:37.459964	12.7724471969367	8.75076832968439	0.0	8.75076832968439	12.7724471969367	0.0	-12.7724471969367	8.75076832968439	0.0	12.7724471969367	0.0	-8.75076832968439	9.17607690911508	8.300322530203672	-0.007637679682013617	7.136130227658011	11.139284443110666	-0.007637679682013617	-8.854956772416326	10.153861836271867	0.9777849271567851	6.8645048855185	1.4281799650031597	2	missed	0.0
177.3372111998034	9.328968200134113	go_punish	0.5444031001534313	177.40554319997318	179.74067370011448	182.2868983000517	2.335130500141304	178.40842370013706	181.27440510015003	185.32621480012313	1.3322499999774209	1.0124931999016553	1.408296599984169	184.31934919999912	0.4291667998768389	183.30899509997107	1	1	81	3	go_punish	1	0	-1	1	1	1	0	1.0	0.0	0	0.5444031001534313	0.4291667998768389	985.8297524000518	1163.235295600025	1164.2381761001889	1165.5704261001663	1167.1041575002018	1168.1166507001035	1169.1387475000229	1170.149101600051	1171.155967200175	1172.564263800159	2020-02-08 12:12:37.459964	2.94315555646856	-0.226674701449011	-2.6233801957441	-0.425299509161361	0.319775360724459	-2.6233801957441	-2.94315555646856	-0.226674701449011	-2.6233801957441	0.319775360724459	-2.6233801957441	0.226674701449011	-0.6532147313530592	-0.6771205009297298	-2.6310178754261138	-2.0399376111877405	-1.313387393101575	-2.6310178754261138	0.12248625871707661	-2.298809999940373	-1.645595268587315	-2.112938145614902	-1.1952002307409404	2	wrong	1.0
186.70819439995114	8.356579599902034	go_punish	0.8085267001297325	186.77652640012093	188.33940639998764	190.88164400006644	1.5628799998667091	187.7759834001772	189.8688358999791	193.93465880001895	0.5634229998104274	1.0128081000873408	1.1984472000040114	192.92779020010494	0.7518119001761079	191.89432450011373	1	1	82	3	go_punish	0	-1	0	1	1	1	0	0.0	1.0	-1	0.8085267001297325	0.7518119001761079	985.8297524000518	1172.6062788001727	1173.605735800229	1174.1691588000394	1175.698588300031	1176.7113964001182	1177.7240769001655	1178.7575426001567	1179.7644112000708	1180.9628584000748	2020-02-08 12:12:37.459964	3.00532593919653	-0.18903368471139	-2.6233801957441	-0.35466331632882	0.381945743452433	-2.6233801957441	-3.00532593919653	-0.18903368471139	-2.6233801957441	0.381945743452433	-2.6233801957441	-7.40006252905808	-0.5910443486250894	-0.6394794841921088	-2.6310178754261138	-1.9693014183551996	-1.251217010373601	-2.6310178754261138	-7.5042509717900145	-2.2366396172123992	-1.645595268587315	-2.0752971288772812	-1.1952002307409404	2	correct	1.0
195.1010090999772	9.364898100029677	nogo_punish	1.0	195.169341100147	197.62194199999772	200.14073460013628	2.4526008998507223	196.17525440012105	199.1315489001572	203.18718530004844	1.4466875998766682	1.0091856999790707	1.3470539001282305	202.18581890012138	0.7802953000646085	201.15179529995658	1	1	83	4	nogo_punish	1	-1	0	0	0	1	0	0.0	1.0	0	1.0	0.7802953000646085	985.8297524000518	1180.9990935001988	1182.0050068001729	1183.4516944000495	1184.961301300209	1185.970487000188	1186.9815477000084	1188.0155713001732	1189.0169377001002	1190.3639916002285	2020-02-08 12:12:37.459964	2.48153027410101	-3.99599984195376	-1.84289820586093	-2.8818657174239	-4.32442847996194	-1.84289820586093	-2.48153027410101	-1.84289820586093	-3.99599984195376	-1.84289820586093	-4.32442847996194	1.84289820586093	-1.1148400137206091	-4.446445641434479	-1.8505358855429437	-4.49650381945028	-5.957591233787974	-1.8505358855429437	1.7387097631289956	-4.461483566525763	-3.346643552805155	-3.729161650026821	-2.5678198769506	2	correct	1.0
204.51229379978042	8.151675600092858	go_punish	0.4506262000650167	204.5806257999502	205.9324550000017	208.4872083000373	1.3518292000514975	205.57273970008828	207.4600136000663	211.53726970008574	0.3597152999134323	1.0271946999710053	1.195031699957326	210.52629710012116	0.5047532001044601	209.5020789001137	1	1	84	3	go_punish	0	-1	0	1	1	1	1	1.0	1.0	-1	0.4506262000650167	0.5047532001044601	985.8297524000518	1190.410378200002	1191.40249210014	1191.7622074000535	1193.289766000118	1194.316960700089	1195.3318313001655	1196.356049500173	1197.3670221001375	1198.5620538000949	2020-02-08 12:12:37.459964	1.05223251641684	-1.62564993115792	-2.6233801957441	-1.76422708255463	-1.57114767932726	-2.6233801957441	-1.05223251641684	-1.62564993115792	-2.6233801957441	-1.57114767932726	-2.6233801957441	-5.96344628261155	-2.5441377714047793	-2.076095730638639	-2.6310178754261138	-3.3788651845810094	-3.204310433153294	-2.6310178754261138	-6.067634725343485	-4.189733039992092	-1.645595268587315	-3.511913375323811	-1.1952002307409404	2	correct	1.0
212.70130369998526	8.119991399813443	nogo_punish	1.0	212.76963570015505	214.56790400017053	217.08010050002508	1.7982683000154793	213.7855162001215	216.07004759996198	220.1312537000049	0.7823878000490367	1.0100529000631013	0.7583733999636024	219.1174781001173	0.7236820999532938	218.1054983001668	1	1	85	4	nogo_punish	1	-1	0	0	0	1	1	0.0	0.0	0	1.0	0.7236820999532938	985.8297524000518	1198.5993881002069	1199.6152686001733	1200.3976564002223	1201.8998000000138	1202.9098529000769	1203.9352507002186	1204.947230500169	1205.9610061000567	1206.7193795000203	2020-02-08 12:12:37.459964	2.63312902929961	-3.99599984195376	-1.49069970085161	-2.33089583192156	-4.12382873015122	-1.49069970085161	-2.63312902929961	-1.49069970085161	-3.99599984195376	-1.49069970085161	-4.12382873015122	1.49069970085161	-0.9632412585220091	-4.446445641434479	-1.4983373805336238	-3.9455339339479396	-5.756991483977254	-1.4983373805336238	1.3865112581196757	-4.1092850615164425	-3.146043802994435	-3.376963145017501	-2.5678198769506	2	wrong	1.0
220.85775939980533	9.074064200045541	go_reward	0.7185613999608904	220.92609139997512	223.5004408999812	226.0791923000943	2.5743495000060648	221.9297448999714	225.06708940002136	229.1321986000985	1.5706960000097752	1.0121029000729322	0.8679569999221712	228.1184149000328	0.4160214001312852	227.09201589995064	1	1	86	1	go_reward	1	1	0	1	1	1	0	0.0	1.0	1	0.7185613999608904	0.4160214001312852	985.8297524000518	1206.755843800027	1207.7594973000232	1209.330193300033	1210.8968418000732	1211.908944700146	1212.9217683000024	1213.9481673000846	1214.9619510001503	1215.8299080000725	2020-02-08 12:12:37.459964	12.8749536449092	8.8263082364389	0.0	8.8263082364389	12.8749536449092	0.0	-12.8749536449092	8.8263082364389	0.0	12.8749536449092	0.0	0.4155261319239205	9.27858335708758	8.375862436958181	-0.007637679682013617	7.21167013441252	11.241790891083166	-0.007637679682013617	0.3113376891919861	10.256368284244367	0.9777849271567851	6.940044792273008	1.4281799650031597	2	correct	1.0
229.96895209979277	8.804895900189877	nogo_reward	0.3109990998636931	230.03728409996256	232.45893299998716	235.04765670001507	2.421648900024593	231.03912420012057	234.01940510002896	238.0854706000539	1.419808799866587	1.0282515999861062	0.7567094000985435	237.0722735000311	0.3609922998584807	236.0560691000428	1	1	87	2	nogo_reward	1	0	1	0	1	0	0	0.0	1.0	0	0.3109990998636931	0.3609922998584807	985.8297524000518	1215.8670365000144	1216.8688766001724	1218.288685400039	1219.8491575000808	1220.8774091000669	1221.8858215000946	1222.902025900083	1223.9152230001057	1224.6719324002042	2020-02-08 12:12:37.459964	-2.23706344495703	0.370502300590003	4.67744808553912	3.59492172487771	2.44038464058209	4.67744808553912	2.23706344495703	0.370502300590003	4.67744808553912	2.44038464058209	4.67744808553912	-0.370502300590003	-5.83343373277865	-0.07994349889071578	4.669810405857106	1.9802836228513305	0.8072218867560561	4.669810405857106	-0.4746907433219374	-0.17820072008274224	5.655233012695905	-1.5157611435758882	6.105628050542279	2	correct	1.0
238.81708369986166	8.385862600058317	go_punish	0.3502783000003546	238.88541570003144	240.17078800010495	242.73951470013708	1.2853723000735044	239.89895930001512	241.73991780006327	245.77432280010544	0.2718287000898272	0.9995969000738114	1.496955499984324	244.7723868000321	0.3592569001484662	243.7478161000181	1	1	88	3	go_punish	1	0	-1	1	1	1	0	1.0	0.0	0	0.3502783000003546	0.3592569001484662	985.8297524000518	1224.7151681000832	1225.728711700067	1226.0005404001568	1227.569670200115	1228.5692671001889	1229.57756850007	1230.602139200084	1231.6040752001572	1233.1010307001416	2020-02-08 12:12:37.459964	-0.481210936699671	-2.75611697985229	-2.6233801957441	-2.87242875072792	-3.10459113244377	-2.6233801957441	0.481210936699671	-2.75611697985229	-2.6233801957441	-3.10459113244377	-2.6233801957441	2.75611697985229	-4.07758122452129	-3.2065627793330087	-2.6310178754261138	-4.4870668527543	-4.737753886269804	-2.6310178754261138	2.6519285371203556	-5.7231764931086015	-1.645595268587315	-4.642380424018182	-1.1952002307409404	2	wrong	1.0
247.24118529981945	9.611794400028884	nogo_punish	1.0	247.30951729998924	250.14629589999095	252.65980860008858	2.8367786000017077	248.31636820011772	251.66025290009588	255.70910100010224	1.829927699873224	0.9995556999926976	1.212210699915886	254.69052019994706	0.4502995000220835	253.6657221999485	1	1	89	4	nogo_punish	1	-1	0	0	0	1	0	0.0	1.0	0	1.0	0.4502995000220835	985.8297524000518	1233.139269700041	1234.1461206001695	1235.9760483000427	1237.4900053001477	1238.4895610001404	1239.4954746000003	1240.5202725999989	1241.538853400154	1242.75106410007	2020-02-08 12:12:37.459964	2.75428419010451	-3.99599984195376	-1.21202446796552	-1.89510688627408	-3.96630865807003	-1.21202446796552	-2.75428419010451	-1.21202446796552	-3.99599984195376	-1.21202446796552	-3.96630865807003	1.21202446796552	-0.8420860977171092	-4.446445641434479	-1.2196621476475338	-3.5097449883004597	-5.599471411896064	-1.2196621476475338	1.1078360252335857	-3.8306098286303523	-2.9885237309132453	-3.0982879121314113	-2.5678198769506	2	correct	1.0
256.8908446999268	8.492696499917656	nogo_reward	1.0	256.9591767000966	258.62409020005725	261.1552101999987	1.6649134999606758	257.96516970009543	260.13240280002356	264.19715300016105	0.6589204999618232	1.022807399975136	1.2547201998531818	263.1955124000085	0.5730069000273943	262.1592264000792	1	1	90	2	nogo_reward	1	0	1	0	0	1	0	0.0	1.0	1	1.0	0.5730069000273943	985.8297524000518	1242.7889291001484	1243.7949221001472	1244.453842600109	1245.9621552000754	1246.9849626000505	1247.988978800131	1249.0252648000603	1250.0269054002129	1251.281625600066	2020-02-08 12:12:37.459964	2.60488622281795	0.300548652087618	4.67744808553912	2.8406018201308	2.07256186272117	4.67744808553912	-2.60488622281795	4.67744808553912	0.300548652087618	4.67744808553912	2.07256186272117	4.5643862828237	-0.9914840650036694	-0.14989714739310078	4.669810405857106	1.2259637181044205	0.4393991088951361	4.669810405857106	4.460197840091766	2.0588627248742877	3.0503467898779553	2.7911846413732286	1.7287286170907776	2	correct	1.0
265.4221540999134	7.877362499945093	nogo_reward	1.0	265.4904861000832	266.92638209997676	269.4395067000296	1.435895999893546	266.5027815999929	268.42741450015455	272.4948193000164	0.42360049998387694	1.0120921998750418	0.8730293000119218	271.4864815999754	0.4050793000496924	270.4627414999993	1	1	91	2	nogo_reward	1	0	1	0	0	1	0	0.0	1.0	1	1.0	0.4050793000496924	985.8297524000518	1251.320238500135	1252.3325340000447	1252.7561345000286	1254.2571669002064	1255.2692591000814	1256.292493900051	1257.3162340000272	1258.3245717000682	1259.19760100008	2020-02-08 12:12:37.459964	2.97079231929021	0.300548652087618	5.54383411543741	4.12468304845259	2.5730417961472	5.54383411543741	-2.97079231929021	5.54383411543741	0.300548652087618	5.54383411543741	2.5730417961472	3.69800025292541	-0.6255779685314091	-0.14989714739310078	5.5361964357553965	2.51004494642621	0.9398790423211663	5.5361964357553965	3.5938118101934755	2.925248754772578	3.5508267233039854	3.657570671271519	1.7287286170907776	2	correct	1.0
273.34009789978165	7.950039100134745	nogo_punish	1.0	273.40842989995144	274.9580157001037	277.4929504001045	1.549585800152272	274.4087643001694	276.47206749999896	280.5455775000155	0.5492513999342918	1.020882900105562	0.8128915000706911	279.5449541001583	0.4341068000067025	278.5168072001543	1	1	92	4	nogo_punish	1	-1	0	0	0	1	0	0.0	1.0	0	1.0	0.4341068000067025	985.8297524000518	1259.2381823000032	1260.2385167002212	1260.7877681001555	1262.3018199000508	1263.3227028001563	1264.346559600206	1265.37470650021	1266.3753299000673	1267.188221400138	2020-02-08 12:12:37.459964	2.85164179514129	-3.99599984195376	-0.990193708937684	-1.54831653114845	-3.84183550407898	-0.990193708937684	-2.85164179514129	-0.990193708937684	-3.99599984195376	-0.990193708937684	-3.84183550407898	0.990193708937684	-0.7447284926803293	-4.446445641434479	-0.9978313886196976	-3.1629546331748295	-5.474998257905014	-0.9978313886196976	0.8860052662057496	-3.608779069602516	-2.864050576922195	-2.8764571531035754	-2.5678198769506	2	correct	1.0
281.3307856998873	7.8500041998922825	go_reward	0.0112338999751955	281.3991177000571	282.71563220000826	285.32010750006884	1.316514499951154	282.3979321999941	284.3004995000083	288.3539360000286	0.3177000000141561	1.0196080000605434	0.8951858999207616	287.35150930006057	0.364892799872905	286.33795860013925	1	1	93	1	go_reward	1	1	0	1	1	1	0	0.0	1.0	1	0.0112338999751955	0.364892799872905	985.8297524000518	1267.228870100109	1268.227684600046	1268.54538460006	1270.13025190006	1271.1498599001206	1272.167711000191	1273.1812617001124	1274.1836884000804	1275.0788743000012	2020-02-08 12:12:37.459964	12.9601745041621	8.8892017508701	0.0	8.8892017508701	12.9601745041621	0.0	-12.9601745041621	8.8892017508701	0.0	12.9601745041621	0.0	0.3526326174927199	9.363804216340482	8.438755951389382	-0.007637679682013617	7.274563648843721	11.327011750336068	-0.007637679682013617	0.2484441747607855	10.341589143497268	0.9777849271567851	7.002938306704209	1.4281799650031597	2	correct	1.0
289.2174986999015	8.719609200023342	nogo_reward	1.0	289.2858307000713	291.05791319999844	293.56671479996294	1.7720824999271372	290.2890989000441	292.56627389998175	296.6171806999482	0.7688142999543288	1.0004408999811858	1.3882592001464218	295.6046313000843	0.3189026999752968	294.59214029996656	1	1	94	2	nogo_reward	1	0	1	0	0	1	0	0.0	1.0	1	1.0	0.3189026999752968	985.8297524000518	1275.115583100123	1276.118851300096	1276.8876656000502	1278.3960263000336	1279.3964672000147	1280.4218927000184	1281.434383700136	1282.4469331	1283.8351923001464	2020-02-08 12:12:37.459964	3.2699038252335	0.300548652087618	6.23016323288326	5.1260232200331	2.96025940764976	6.23016323288326	-3.2699038252335	6.23016323288326	0.300548652087618	6.23016323288326	2.96025940764976	3.01167113547956	-0.3264664625881193	-0.14989714739310078	6.222525553201247	3.5113851180067206	1.327096653823726	6.222525553201247	2.9074826927476254	3.611577872218428	3.938044334806545	4.343899788717369	1.7287286170907776	2	correct	1.0
297.9785093998072	8.684445700142305	go_reward	0.2366104000248015	298.046841399977	300.1063839001581	302.7239628001116	2.0595425001811236	299.0662195000332	301.70014720014296	305.76270700013265	1.0401644001249224	1.023815599968657	0.9685800999866387	304.7496631999966	0.6613080999813974	303.73662530002184	1	1	95	1	go_reward	1	1	0	1	1	1	1	1.0	1.0	1	0.2366104000248015	0.6613080999813974	985.8297524000518	1283.8765938000288	1284.895971900085	1285.93613630021	1287.5298996001948	1288.5537152001634	1289.5663777000736	1290.5794156000484	1291.5924594001845	1292.561039500171	2020-02-08 12:12:37.459964	13.0312660711488	8.94174239858356	0.0	8.94174239858356	13.0312660711488	0.0	-13.0312660711488	8.94174239858356	0.0	13.0312660711488	0.0	0.30009196977925967	9.43489578332718	8.491296599102842	-0.007637679682013617	7.327104296557181	11.398103317322766	-0.007637679682013617	0.19590352704732528	10.412680710483967	0.9777849271567851	7.055478954417669	1.4281799650031597	2	correct	1.0
306.70281259994965	8.323384899878647	go_reward	0.3932722001336515	306.77114460011944	308.6324946000243	311.2163995001465	1.86134999990486	307.7753394001629	310.19141570013016	314.2569687999785	0.8571551998613813	1.0249838000163436	0.8375607000195942	313.2415919001214	0.3738639999646693	312.2181117001453	1	1	96	1	go_reward	1	1	0	1	1	1	0	0.0	1.0	1	0.3932722001336515	0.3738639999646693	985.8297524000518	1292.6008970001712	1293.6050918002147	1294.462247000076	1296.021168100182	1297.0461519001983	1298.047864100197	1299.0713443001732	1300.0867212000303	1300.92428190005	2020-02-08 12:12:37.459964	13.0907637381247	8.98577539993032	0.0	8.98577539993032	13.0907637381247	0.0	-13.0907637381247	8.98577539993032	0.0	13.0907637381247	0.0	0.25605896843249987	9.49439345030308	8.535329600449602	-0.007637679682013617	7.371137297903941	11.457600984298667	-0.007637679682013617	0.15187052570056547	10.472178377459867	0.9777849271567851	7.099511955764429	1.4281799650031597	2	correct	1.0
315.0666201999412	8.196221499936883	nogo_punish	1.0	315.134952200111	316.8368792999536	319.3536781000439	1.7019270998425782	316.1453844001519	318.3344909001605	322.3983577999752	0.6914948998016825	1.0191871998833903	0.9328159000726828	321.37962100002915	0.4522503998596221	320.3607067000121	1	1	97	4	nogo_punish	1	-1	0	0	0	1	0	0.0	1.0	0	1.0	0.4522503998596221	985.8297524000518	1300.9647046001628	1301.9751368002037	1302.6666317000054	1304.1642433002123	1305.1834305000957	1306.190459100064	1307.209373400081	1308.228110200027	1309.1609261000997	2020-02-08 12:12:37.459964	2.93027680635317	-3.99599984195376	-0.812620673957332	-1.27078054797058	-3.7428974803105	-0.812620673957332	-2.93027680635317	-0.812620673957332	-3.99599984195376	-0.812620673957332	-3.7428974803105	0.812620673957332	-0.6660934814684492	-4.446445641434479	-0.8202583536393455	-2.88541864999696	-5.376060234136534	-0.8202583536393455	0.7084322312253976	-3.4312060346221642	-2.765112553153715	-2.6988841181232233	-2.5678198769506	2	correct	1.0
323.30254799989063	9.21419099997729	nogo_reward	1.0	323.3708800000604	326.0967761999925	328.6245673999656	2.7258961999320945	324.37050680001266	327.6036853000985	331.6694609001279	1.7262693999798557	1.0208820998670944	0.9156100999098271	330.6637659999542	0.3747872000094503	329.6387672000567	1	1	98	2	nogo_reward	1	0	1	0	0	1	0	0.0	1.0	1	1.0	0.3747872000094503	985.8297524000518	1309.2006324001122	1310.2002592000645	1311.9265286000443	1313.4334377001503	1314.4543198000174	1315.4685196001085	1316.493518400006	1317.4992133001797	1318.4148234000895	2020-02-08 12:12:37.459964	3.51506142401191	0.300548652087618	6.77714712072534	5.91254268510069	3.26208569671343	6.77714712072534	-3.51506142401191	6.77714712072534	0.300548652087618	6.77714712072534	3.26208569671343	2.46468724763748	-0.08130886380970948	-0.14989714739310078	6.7695094410433265	4.297904583074311	1.6289229428873961	6.7695094410433265	2.3604988049055455	4.158561760060508	4.239870623870215	4.890883676559449	1.7287286170907776	2	correct	1.0
332.5522626999301	8.650223399978131	go_reward	0.545014999806881	332.6205947000999	334.2058727999681	336.7697835001161	1.5852780998682192	333.62709710001945	335.7561621000059	339.8177332000341	0.5787756999486646	1.0136214001101962	1.4530849000439048	338.80868530017324	0.5679514999501407	337.7899639001116	1	1	99	1	go_reward	1	1	0	1	1	1	0	0.0	1.0	1	0.545014999806881	0.5679514999501407	985.8297524000518	1318.4503471001517	1319.4568495000713	1320.03562520002	1321.5859145000577	1322.599535900168	1323.6197163001634	1324.638437700225	1325.647485600086	1327.1005705001298	2020-02-08 12:12:37.459964	13.1407129020877	9.02279162392954	0.0	9.02279162392954	13.1407129020877	0.0	-13.1407129020877	9.02279162392954	0.0	13.1407129020877	0.0	0.21904274443327942	9.54434261426608	8.572345824448822	-0.007637679682013617	7.408153521903161	11.507550148261666	-0.007637679682013617	0.11485430170134503	10.522127541422867	0.9777849271567851	7.1365281797636495	1.4281799650031597	2	correct	1.0
341.283081599977	8.71036269981414	go_punish	1.0	341.35141360014677	343.2738886000591	345.8130167000927	1.9224749999123105	342.36390750017017	344.7879834000487	348.83926329994574	0.9099810998889097	1.025033300044015	1.2225130000151694	347.8372490000911	0.8069684999063611	346.8147001999896	1	1	100	3	go_punish	1	0	-1	1	0	0	0	0.0	1.0	-1	1.0	0.8069684999063611	985.8297524000518	1327.1811660001986	1328.193659900222	1329.1036410001109	1330.6177358001005	1331.6427691001445	1332.6444526000414	1333.667001400143	1334.6690156999975	1335.8915287000127	2020-02-08 12:12:37.459964	-0.310612306613513	-2.18416234899111	-2.6233801957441	-2.28208174242506	-2.31276788913059	-2.6233801957441	0.310612306613513	-2.6233801957441	-2.18416234899111	-2.6233801957441	-2.31276788913059	-4.96571601802537	-3.9069825944351324	-2.6346081484718287	-2.6310178754261138	-3.8967198444514395	-3.9459306429566237	-2.6310178754261138	-5.0699044607573045	-5.241965556408932	-1.334982961973805	-4.509643639909991	-0.7559823839879503	2	correct	1.0
350.0381115998608	8.03509490005672	go_punish	0.2731001998763531	350.1064436000306	351.5037979001645	354.0961240001491	1.397354300133884	351.11267650010996	353.0805314001625	357.1225533001125	0.3911214000545442	1.0155925999865758	1.0189851999748498	356.1216669001151	0.7429144999478012	355.10602750000544	1	1	101	3	go_punish	1	0	-1	1	1	1	0	0.0	1.0	0	0.2731001998763531	0.7429144999478012	985.8297524000518	1335.9361960000824	1336.9424289001618	1337.3335503002163	1338.9102838002143	1339.9258764002009	1340.9357799000572	1341.951419300167	1342.9523057001643	1343.9712909001391	2020-02-08 12:12:37.459964	0.859671025224986	-2.18416234899111	-3.5399220169687	-3.29226427358842	-2.68025099174372	-3.5399220169687	-0.859671025224986	-2.18416234899111	-3.5399220169687	-2.68025099174372	-3.5399220169687	2.18416234899111	-2.736699262596633	-2.6346081484718287	-3.5475596966507137	-4.9069023756148	-4.313413745569754	-3.5475596966507137	2.0799739062591756	-5.298836352408552	-2.562137089811915	-4.070425793157002	-2.1117420519655403	2	correct	1.0
358.117708799895	9.259381500072777	go_punish	0.2427085000090301	358.1860408000648	360.66415730002336	363.19794680015184	2.47811649995856	359.1911363999825	362.1825270999691	366.2592456999703	1.473020900040865	1.015419700182747	1.1861766001673004	365.2468682001345	0.2688386000227183	364.2190790001771	1	1	102	3	go_punish	1	0	-1	1	1	1	1	1.0	1.0	0	0.2427085000090301	0.2688386000227183	985.8297524000518	1344.0157932001166	1345.0208888000343	1346.4939097000752	1348.012279500021	1349.0276992002036	1350.048831400229	1351.0766206001863	1352.088998100022	1353.2751747001894	2020-02-08 12:12:37.459964	1.54977953017379	-1.74209874570423	-3.5399220169687	-2.62369499221011	-1.99014248679491	-3.5399220169687	-1.54977953017379	-1.74209874570423	-3.5399220169687	-1.99014248679491	-3.5399220169687	1.74209874570423	-2.046590757647829	-2.192544545184949	-3.5475596966507137	-4.23833309423649	-3.623305240620944	-3.5475596966507137	1.6379103029722957	-4.608727847459742	-2.562137089811915	-3.6283621898701215	-2.1117420519655403	2	correct	1.0
367.4159964998254	9.740417400142178	nogo_punish	1.0	367.4843284999952	370.26569480006583	372.7904279001523	2.7813663000706583	368.4969313000331	371.7789084999822	375.8445091000758	1.768763500032719	1.011519400170073	1.3802368000615388	374.84275770001113	0.5907061998732388	373.8091592001731	1	1	103	4	nogo_punish	1	-1	0	0	0	1	0	0.0	1.0	0	1.0	0.5907061998732388	985.8297524000518	1353.314080900047	1354.326683700085	1356.0954472001176	1357.608660900034	1358.620180300204	1359.638911600225	1360.672510100063	1361.6742615001276	1363.0544983001892	2020-02-08 12:12:37.459964	2.99409431335917	-3.99599984195376	-0.669728898289168	-1.04748746540254	-3.66382321164833	-0.669728898289168	-2.99409431335917	-0.669728898289168	-3.99599984195376	-0.669728898289168	-3.66382321164833	0.669728898289168	-0.6022759744624491	-4.446445641434479	-0.6773665779711816	-2.6621255674289195	-5.296985965474364	-0.6773665779711816	0.5655404555572336	-3.288314258954	-2.686038284491545	-2.5559923424550592	-2.5678198769506	2	correct	1.0
377.19605899998	9.492189300013706	nogo_reward	1.0	377.26439100014977	380.0395372000057	382.56406310014427	2.7751461998559535	378.2730748001486	381.5502280001531	385.62305349996313	1.7664623998571187	1.0138350999911836	1.1335268002003431	384.6100471999962	0.3610050999559462	383.57694269996136	1	1	104	2	nogo_reward	0	1	0	0	0	1	0	0.0	1.0	0	1.0	0.3610050999559462	985.8297524000518	1363.0941434002016	1364.1028272002004	1365.8692896000575	1367.3799804002049	1368.393815500196	1369.4066951000132	1370.439799600048	1371.452805900015	1372.5863327002153	2020-02-08 12:12:37.459964	3.71656656979634	0.300548652087618	7.21553909127923	6.53444239521008	3.49897252148289	7.21553909127923	-3.71656656979634	7.21553909127923	0.300548652087618	7.21553909127923	3.49897252148289	-7.21553909127923	0.12019628197472088	-0.14989714739310078	7.207901411597216	4.9198042931837005	1.8658097676568561	7.207901411597216	-7.3197275340111645	4.596953730614398	4.476757448639675	5.329275647113339	1.7287286170907776	2	correct	1.0
386.72540349978965	8.062301400117576	nogo_reward	1.0	386.79373549995944	388.2887047000695	390.8170533999803	1.494969200110063	387.8077273000963	389.8004173999652	393.8932537001092	0.48097739997319877	1.016636000015069	0.9627831999678165	392.8737061000429	0.4069727000314742	391.8389014999848	1	1	105	2	nogo_reward	1	0	1	0	0	1	0	0.0	1.0	1	1.0	0.4069727000314742	985.8297524000518	1372.6234879000112	1373.637479700148	1374.1184571001213	1375.630169800017	1376.646805800032	1377.6686539000366	1378.7034585000947	1379.723006100161	1380.6857893001288	2020-02-08 12:12:37.459964	2.74546248331828	0.300548652087618	5.70321169832635	5.16366662125806	2.95774921500807	5.70321169832635	-2.74546248331828	5.70321169832635	0.300548652087618	5.70321169832635	2.95774921500807	3.53862267003647	-0.8509078045033394	-0.14989714739310078	5.695574018644336	3.5490285192316806	1.3245864611820364	5.695574018644336	3.4344342273045356	3.084626337661518	3.9355341421648555	3.816948254160459	1.7287286170907776	2	correct	1.0
394.83301019994553	9.227185299852863	go_punish	0.2826078000944108	394.9013422001153	397.5321615999567	400.1281399000436	2.630819399841357	395.9059650001582	399.10442290012725	403.168106000172	1.6261965997985044	1.0237169999163598	0.9604214997962117	402.16101150005125	0.6075995999854058	401.1433178000152	1	1	106	3	go_punish	0	-1	0	1	1	1	0	0.0	1.0	-1	0.2826078000944108	0.6075995999854058	985.8297524000518	1380.7310946001671	1381.73571740021	1383.3619140000085	1384.934175300179	1385.9578923000954	1386.973070200067	1387.990763900103	1388.9978584002238	1389.95827990002	2020-02-08 12:12:37.459964	2.08549999466461	-1.39781321217968	-3.5399220169687	-2.1037606310215	-1.4544220223041	-3.5399220169687	-2.08549999466461	-1.39781321217968	-3.5399220169687	-1.4544220223041	-3.5399220169687	-6.19128300158979	-1.5108702931570095	-1.8482590116603987	-3.5475596966507137	-3.7183987330478794	-3.087584776130134	-3.5475596966507137	-6.295471444321724	-4.073007382968932	-2.562137089811915	-3.2840766563455714	-2.1117420519655403	2	correct	1.0
404.09894880000513	8.176412999862805	go_punish	1.0	404.1672808001749	405.83313459996134	408.3600855001714	1.6658537997864187	405.1758511001244	407.33785989996977	411.4081256000791	0.6572834998369217	1.0222256002016366	0.9355681999586523	410.4068992000539	0.765948899788782	409.3719067999625	1	1	107	3	go_punish	1	0	-1	1	0	0	0	0.0	1.0	-1	1.0	0.765948899788782	985.8297524000518	1389.9970332002267	1391.0056035001762	1391.6628870000131	1393.1676123000216	1394.1898379002232	1395.2016592000143	1396.2366516001057	1397.2378780001309	1398.1734462000895	2020-02-08 12:12:37.459964	-0.500388212594852	-2.59529613091058	-3.5399220169687	-3.16397222229512	-3.03953380437385	-3.5399220169687	0.500388212594852	-3.5399220169687	-2.59529613091058	-3.5399220169687	-3.03953380437385	-4.04917419680077	-4.096758500416471	-3.0457419303912987	-3.5475596966507137	-4.7786103243215	-4.672696558199884	-3.5475596966507137	-4.153362639532705	-6.158507377633532	-2.061748877217065	-5.426185461134591	-1.1671161659074203	2	correct	1.0
412.3114280998708	8.075137099949643	nogo_reward	1.0	412.3797601000406	413.9387511000971	416.4456635999959	1.5589910000564942	413.38619270012714	415.4441909000741	419.4917427001053	0.5525583999699393	1.0014726999218055	0.9631544998849222	418.4815652000252	0.7711096000857651	417.45971930003725	1	1	108	2	nogo_reward	1	0	1	0	0	1	0	0.0	1.0	1	1.0	0.7711096000857651	985.8297524000518	1398.2095125000924	1399.215945100179	1399.7685035001489	1401.273943300126	1402.2754160000477	1403.289471700089	1404.311317600077	1405.321495100157	1406.284649600042	2020-02-08 12:12:37.459964	3.12990066910625	0.300548652087618	6.40177889199094	5.97211812335081	3.27187822288469	6.40177889199094	-3.12990066910625	6.40177889199094	0.300548652087618	6.40177889199094	3.27187822288469	2.84005547637188	-0.4664696187153692	-0.14989714739310078	6.394141212308926	4.35748002132443	1.638715469058656	6.394141212308926	2.7358670336399458	3.783193531326108	4.249663150041475	4.515515447825049	1.7287286170907776	2	correct	1.0
420.4245856998024	8.528538000071421	nogo_reward	1.0	420.49291769997217	422.296286100056	424.82309400010854	1.8033684000838548	421.50799300009385	423.8010468001012	427.8651114001407	0.7882930999621749	1.0220472000073642	1.156344299902912	426.8526477001142	0.5095715001225471	425.8253755001351	1	1	109	2	nogo_reward	1	0	1	0	0	1	0	0.0	1.0	1	1.0	0.5095715001225471	985.8297524000518	1406.322670100024	1407.3377454001456	1408.1260385001078	1409.630799200153	1410.6528464001603	1411.655127900187	1412.682400100166	1413.6948638001925	1414.8512081000954	2020-02-08 12:12:37.459964	3.43233168627571	0.300548652087618	6.94765894407067	6.60380751118125	3.51532725779496	6.94765894407067	-3.43233168627571	6.94765894407067	0.300548652087618	6.94765894407067	3.51532725779496	2.29417542429215	-0.1640386015459092	-0.14989714739310078	6.9400212643886565	4.98916940915487	1.8821645039689263	6.9400212643886565	2.1899869815602155	4.3290735834058385	4.4931121849517455	5.061395499904779	1.7287286170907776	2	correct	1.0
428.99044199986395	8.864840399939567	nogo_reward	1.0	429.05877400003374	430.92210830003023	433.43079370004125	1.8633342999964952	430.0695460001007	432.4187851001043	436.47757630003616	0.8525622999295592	1.0120085999369621	1.446038099937141	435.4649504001718	0.4455520999617874	434.4432712001726	1	1	110	2	nogo_reward	1	0	1	0	0	1	1	1.0	1.0	1	1.0	0.4455520999617874	985.8297524000518	1414.8885264000855	1415.8992984001525	1416.751860700082	1418.248537500156	1419.260546100093	1420.2730236002244	1421.2947028002236	1422.307328700088	1423.753366800025	2020-02-08 12:12:37.459964	3.67210846064728	0.300548652087618	7.37757670345939	7.10110873543363	3.70546824281211	7.37757670345939	-3.67210846064728	7.37757670345939	0.300548652087618	7.37757670345939	3.70546824281211	1.8642576649034304	0.07573817282566075	-0.14989714739310078	7.369939023777376	5.486470633407251	2.0723054889860766	7.369939023777376	1.760069222171496	4.758991342794557	4.6832531699688955	5.491313259293499	1.7287286170907776	2	correct	1.0
437.9554356997834	8.61599660012871	go_punish	1.0	438.02376769995317	439.5842160000466	442.117427600082	1.5604483000934124	439.0279570000712	441.09300890006125	445.15284280013293	0.5562589999753982	1.0244187000207603	1.4869214999489486	444.1563417001162	0.8122470998205245	443.1325912999455	1	1	111	3	go_punish	1	0	-1	1	0	0	0	0.0	1.0	-1	1.0	0.8122470998205245	985.8297524000518	1423.853520100005	1424.857709400123	1425.4139684000984	1426.922761300113	1427.9471800001338	1428.9623436999973	1429.986094100168	1430.9825952001847	1432.4695167001337	2020-02-08 12:12:37.459964	-0.928811020275134	-2.59529613091058	-4.2711604164958	-3.99869850298446	-3.34234939622067	-4.2711604164958	0.928811020275134	-4.2711604164958	-2.59529613091058	-4.2711604164958	-3.34234939622067	-3.3179357972736705	-4.525181308096753	-3.0457419303912987	-4.278798096177813	-5.61333660501084	-4.975512150046704	-4.278798096177813	-3.422124240005605	-6.889745777160632	-2.364564469063885	-6.157423860661691	-1.1671161659074203	2	correct	1.0
446.6087338998915	8.680344500113279	nogo_punish	1.0	446.6770659000613	448.8478381000457	451.37199020013213	2.1707721999844125	447.67811740003526	450.3629179999698	454.44233059999533	1.16972070001043	1.0090722001623362	0.9150798001792282	453.4236248000525	0.6988376001827419	452.39486230001785	1	1	112	4	nogo_punish	1	-1	0	0	0	1	0	0.0	1.0	0	1.0	0.6988376001827419	985.8297524000518	1432.506818300113	1433.507869800087	1434.6775905000975	1436.1926704000216	1437.201742600184	1438.2246147000697	1439.2533772001043	1440.2720830000471	1441.1871628002264	2020-02-08 12:12:37.459964	3.04612005542913	-3.99599984195376	-0.554177892806751	-0.866938501240482	-3.60029794823588	-0.554177892806751	-3.04612005542913	-0.554177892806751	-3.99599984195376	-0.554177892806751	-3.60029794823588	0.554177892806751	-0.5502502323924894	-4.446445641434479	-0.5618155724887646	-2.481576603266862	-5.2334607020619135	-0.5618155724887646	0.4499894500748166	-3.172763253471583	-2.6225130210790946	-2.440441336972642	-2.5678198769506	2	correct	1.0
455.325998999877	7.902085399953876	nogo_punish	1.0	455.3943310000468	456.7421995000914	459.2644887000788	1.3478685000445694	456.4081399999559	458.25412450009026	462.299676500028	0.33405950013548136	1.010364199988544	0.9967398999726811	461.2987596001476	0.5559120001271367	460.2759301001206	1	1	113	4	nogo_punish	1	-1	0	0	0	1	0	0.0	1.0	0	1.0	0.5559120001271367	985.8297524000518	1441.2240834000986	1442.2378924000077	1442.5719519001432	1444.083876900142	1445.0942411001306	1446.1056825001724	1447.1285120001994	1448.1294289000798	1449.1261688000525	2020-02-08 12:12:37.459964	3.0887133521077	-3.99599984195376	-0.460302371817378	-0.720264567745109	-3.54901572392508	-0.460302371817378	-3.0887133521077	-0.460302371817378	-3.99599984195376	-0.460302371817378	-3.54901572392508	0.460302371817378	-0.5076569357139191	-4.446445641434479	-0.4679400514993916	-2.3349026697714885	-5.182178477751114	-0.4679400514993916	0.3561139290854436	-3.07888773248221	-2.571230796768295	-2.3465658159832694	-2.5678198769506	2	correct	1.0
463.2624928997833	8.60447550006188	go_reward	0.4880766998976469	463.3308248999531	464.80967020010576	467.39776650001295	1.4788453001526705	464.3412287000101	466.3722445999738	470.44208059995435	0.46844150009565055	1.0255219000391662	1.493219800060615	469.42955470015295	0.3026584999170154	468.4010922999587	1	1	114	1	go_reward	1	1	0	1	1	1	0	0.0	1.0	1	0.4880766998976469	0.3026584999170154	985.8297524000518	1449.160577300005	1450.170981100062	1450.6394226001576	1452.2019970000256	1453.2275189000648	1454.2308447000105	1455.2593071002048	1456.2718330000062	1457.7650528000668	2020-02-08 12:12:37.459964	13.1827704393964	9.05400053536227	0.0	9.05400053536227	13.1827704393964	0.0	-13.1827704393964	9.05400053536227	0.0	13.1827704393964	0.0	0.1878338330005498	9.58640015157478	8.603554735881552	-0.007637679682013617	7.439362433335891	11.549607685570367	-0.007637679682013617	0.0836453902686154	10.564185078731567	0.9777849271567851	7.167737091196379	1.4281799650031597	2	correct	1.0
471.90358599997137	8.626675799954683	nogo_reward	1.0	471.97191800014116	474.2572395000607	476.79437640006654	2.285321499919519	472.9820132001771	475.7699076000133	479.8213814999908	1.2752262998835704	1.0244688000532278	0.7772123001050204	478.8121025001167	0.3421366999391466	477.795650199987	1	1	115	2	nogo_reward	1	0	1	0	0	1	0	0.0	1.0	1	1.0	0.3421366999391466	985.8297524000518	1457.801670400193	1458.811765600229	1460.0869919001125	1461.5996600000651	1462.6241288001183	1463.6254026000388	1464.6418549001685	1465.6511339000426	1466.4283462001476	2020-02-08 12:12:37.459964	3.86354811401811	0.300548652087618	7.71858117888862	7.49530597160228	3.85503306487051	7.71858117888862	-3.86354811401811	7.71858117888862	0.300548652087618	7.71858117888862	3.85503306487051	1.5232531894742003	0.26717782619649055	-0.14989714739310078	7.710943499206606	5.8806678695759	2.2218703110444764	7.710943499206606	1.419064746742266	5.099995818223787	4.832817992027295	5.832317734722729	1.7287286170907776	2	correct	1.0
480.58968400000606	8.643094499828294	go_punish	1.0	480.65801600017585	482.3801075001245	484.90750179998577	1.7220914999486467	481.6554397	483.8848329000175	487.9468344000634	0.7246678001245073	1.0226688999682665	1.354276099940762	486.93385619996116	0.5839176001027226	485.9197289000731	1	1	116	3	go_punish	0	-1	0	1	0	0	0	0.0	1.0	0	1.0	0.5839176001027226	985.8297524000518	1466.4877684002277	1467.4851921000518	1468.2098599001763	1469.7145853000693	1470.7372542000376	1471.749481300125	1472.763608600013	1473.7765868001152	1475.130862900056	2020-02-08 12:12:37.459964	-1.27730443156119	-2.59529613091058	-4.85790068836219	-4.66042403335291	-3.580596256801	-4.85790068836219	1.27730443156119	-4.85790068836219	-2.59529613091058	-4.85790068836219	-3.580596256801	4.85790068836219	-4.873674719382809	-3.0457419303912987	-4.865538368044204	-6.275062135379289	-5.213759010627034	-4.865538368044204	4.753712245630256	-7.476486049027022	-2.602811329644215	-6.7441641325280814	-1.1671161659074203	2	correct	1.0
489.2727280999535	8.487214099848416	nogo_reward	1.0	489.3410601001233	490.8493962001521	493.3667449001223	1.5083361000288278	490.34597160015255	492.3511155999731	496.4096890001092	0.5034245999995619	1.0156293001491576	1.4185851998624912	495.4078057000877	0.3535287000704556	494.3711660001427	1	1	117	2	nogo_reward	1	0	1	0	0	1	1	1.0	1.0	1	1.0	0.3535287000704556	985.8297524000518	1475.170812500175	1476.1757240002044	1476.679148600204	1478.180868000025	1479.196497300174	1480.2009184001945	1481.2375581001395	1482.239441400161	1483.6580266000235	2020-02-08 12:12:37.459964	4.01737637769691	0.300548652087618	7.99083209611226	7.80975639002408	3.97345571841535	7.99083209611226	-4.01737637769691	7.99083209611226	0.300548652087618	7.99083209611226	3.97345571841535	1.2510022722505605	0.42100608987529053	-0.14989714739310078	7.983194416430246	6.1951182879977	2.340292964589316	7.983194416430246	1.146813829518626	5.372246735447428	4.951240645572135	6.104568651946368	1.7287286170907776	2	correct	1.0
497.7981208998243	10.027687000110973	nogo_reward	1.0	497.8664528999941	500.85841530002654	503.3832241999919	2.9919624000324347	498.8682161001491	502.36273779999465	506.4207276001107	1.990199199877452	1.020486399997253	1.4734122999943793	505.4158497999888	0.59501240006648	504.3876223000698	1	1	118	2	nogo_reward	1	0	1	0	0	1	0	0.0	1.0	1	1.0	0.59501240006648	985.8297524000518	1483.696205300046	1484.697968500201	1486.6881677000783	1488.1924902000464	1489.2129766000437	1490.2173747001216	1491.2456022000406	1492.2504800001625	1493.7238923001569	2020-02-08 12:12:37.459964	4.1417139239243	0.300548652087618	8.20950864471116	8.06206898940402	4.06779472078686	8.20950864471116	-4.1417139239243	8.20950864471116	0.300548652087618	8.20950864471116	4.06779472078686	1.0323257236516596	0.5453436361026807	-0.14989714739310078	8.201870965029148	6.4474308873776405	2.4346319669608256	8.201870965029148	0.9281372809197252	5.590923284046328	5.0455796479436446	6.323245200545269	1.7287286170907776	2	correct	1.0
507.86597179994	8.166051399894059	nogo_reward	1.0	507.9343038001098	509.2550672001671	511.7884460000787	1.3207634000573307	508.9381459001452	510.7677111001685	514.8490975999739	0.31692130002193153	1.0207348999101669	1.2512576000299305	513.8376423001755	0.4958637000527233	512.8129603001289	1	1	119	2	nogo_reward	1	0	1	0	0	1	1	1.0	1.0	1	1.0	0.4958637000527233	985.8297524000518	1493.7640562001616	1494.767898300197	1495.084819600219	1496.5974635002203	1497.6181984001305	1498.6427127001807	1499.6673947002273	1500.6788500000257	1501.9301076000556	2020-02-08 12:12:37.459964	4.24276603952927	0.300548652087618	8.38614374780186	8.26563450759339	4.14337770827259	8.38614374780186	-4.24276603952927	8.38614374780186	0.300548652087618	8.38614374780186	4.14337770827259	0.85569062056096	0.6463957517076508	-0.14989714739310078	8.378506068119847	6.65099640556701	2.510214954446556	8.378506068119847	0.7515021778290256	5.7675583871370275	5.121162635429375	6.499880303635969	1.7287286170907776	2	correct	1.0
516.1117501999253	9.431907099904492	go_punish	0.3200828998815268	516.1800822000951	518.9477168000301	521.6016641999595	2.767634599935036	517.1823512001431	520.5533491000533	524.6576966999564	1.7653655998869908	1.0483150999061763	0.954292600043118	523.6529502000194	0.5627534999512136	522.6190529000014	1	1	120	3	go_punish	1	0	-1	1	1	1	0	0.0	1.0	0	0.3200828998815268	0.5627534999512136	985.8297524000518	1502.0098346001469	1503.012103600195	1504.777469200082	1506.383101500105	1507.4314166000113	1508.4488053000532	1509.4827026000712	1510.4874491000082	1511.4417417000514	2020-02-08 12:12:37.459964	0.630928872064808	-2.59529613091058	-3.86372218508099	-3.72083031260692	-3.23279331301619	-3.86372218508099	-0.630928872064808	-2.59529613091058	-3.86372218508099	-3.23279331301619	-3.86372218508099	2.59529613091058	-2.9654414157568114	-3.0457419303912987	-3.871359864763004	-5.3354684146333	-4.865956066842224	-3.871359864763004	2.4911076881786456	-5.8513786736810225	-2.885937257924205	-4.481559575076471	-2.4355422200778305	2	correct	1.0
