onset	duration	trial_type	response_time	cueOnset	targetOnset	fbOnset	cueRT	firstfixOnset	secondfixOnset	waitOnset	firstfixdur	secondfixdur	waitdur	nback_fbOnset	nback_response_time	nback_targetOnset	block	wm	trial	cue	cond	is_common	outcome_go	outcome_nogo	key_correct	key_pressed	is_correct	key_correct_nback	key_pressed_nback	is_correct_nback	outcome	rt	rt_nback	time_scan	time_onset	time_isi1	time_circle	time_isi2	time_feedback	time_same	time_correct	time_iti	time_done	timestamp_scan	DV	Qgo	Qnogo	SV	Wgo	Wnogo	mDV	Qchosen	Qunchosen	Wchosen	Wunchosen	PE	DVC	QgoC	QnogoC	SVC	WgoC	WnogoC	PEC	WchosenC	WunchosenC	QchosenC	QunchosenC	run	outcome_nback	nback_targetResp
0.0	7.849511100037489	nogo_reward	0.4627794999978505	0.08291029999963939	1.4194547000224702	3.9716459000483155	1.3365444000228308	1.092755300051067	2.9509144000476226	7.016649700002745	0.3266993999714032	1.020731500000693	0.9157717000343837	6.004112800001167	1.0	4.995671300042886	1	1	1	1	nogo_reward	1	0	1	0	1	0	0	n/a	0.0	1	0.4627794999978505	1.0	586.8580350999837	586.9409453999833	587.9507904000347	588.2774898000062	589.8089495000313	590.829681000032	591.8537064000266	592.8621478999848	593.8746847999864	594.7904565000208	2020-06-09 09:18:38.436247	1.01523917563546	0.0	0.0	0.0	1.01523917563546	0.0	-1.01523917563546	0.0	0.0	1.01523917563546	0.0	0.0	-1.4557736940742811	-0.5460535580105302	-0.22057564477180566	-1.2723624535461098	-0.7425210757845462	-0.22057564477180566	-0.11820235946615845	-1.2094352073153167	0.24633848675896436	-1.4865427293725155	0.7199135265901789	1	missed	0.0
7.915093200048432	8.62996219994966	nogo_reward	0.5051232000114396	7.998003500048071	9.845274000021163	12.383117300050799	1.8472704999730922	9.003279600001406	11.362652600044385	15.431996300001629	0.8419944000197574	1.0204647000064142	1.1959693999961019	14.428282200009562	0.3563806000165641	13.393930100020953	1	1	2	1	nogo_reward	1	0	1	0	1	0	0	0.0	1.0	0	0.5051232000114396	0.3563806000165641	586.8580350999837	594.8560386000318	595.8613146999851	596.7033091000048	598.2206877000281	599.2411524000345	600.2519652000046	601.2863172999932	602.2900313999853	603.4860007999814	2020-06-09 09:18:38.436247	2.48480916723798	1.41297609916321	0.0	1.41297609916321	2.48480916723798	0.0	-2.48480916723798	1.41297609916321	0.0	2.48480916723798	0.0	-1.41297609916321	0.013796297528239077	0.8669225411526799	-0.22057564477180566	0.14061364561710032	0.727048915817974	-0.22057564477180566	-1.5311784586293686	0.2601347842872035	0.24633848675896436	-0.07356663020930543	0.7199135265901789	1	correct	1.0
16.632373100030236	9.017505600000732	go_punish	0.5485232999781147	16.715283400029875	18.886739300040063	21.447889100003522	2.171455900010187	17.730501000012737	20.42822739999974	24.508686400018632	1.1562383000273257	1.0196617000037804	1.2241026000119746	23.50259750004625	0.7997515999595635	22.46555130003253	1	1	3	4	go_punish	1	0	-1	1	1	1	0	0.0	1.0	0	0.5485232999781147	0.7997515999595635	586.8580350999837	603.5733185000136	604.5885360999964	605.7447744000237	607.2862624999834	608.3059241999872	609.3235864000162	610.3606326000299	611.3667215000023	612.5908241000143	2020-06-09 09:18:38.436247	1.01523917563546	0.0	0.0	0.0	1.01523917563546	0.0	-1.01523917563546	0.0	0.0	1.01523917563546	0.0	0.0	-1.4557736940742811	-0.5460535580105302	-0.22057564477180566	-1.2723624535461098	-0.7425210757845462	-0.22057564477180566	-0.11820235946615845	-1.2094352073153167	0.24633848675896436	-1.4865427293725155	0.7199135265901789	1	correct	1.0
25.685515900026076	8.528883900027722	nogo_reward	1.0	25.768426200025715	27.781162000028417	30.31535889999941	2.0127358000027016	26.782954000052996	29.29842770000687	33.350458900036756	0.9982079999754205	1.0169311999925412	0.9468512000166811	32.340462600055616	1.0	31.330460600031074	1	1	4	1	nogo_reward	1	0	1	0	0	1	1	n/a	0.0	1	1.0	1.0	586.8580350999837	612.6264613000094	613.6409891000367	614.6391971000121	616.1564627999905	617.1733939999831	618.1884957000148	619.1984977000393	620.2084940000204	621.1553452000371	2020-06-09 09:18:38.436247	-2.19283008527598	1.13385143647803	0.0	1.13385143647803	2.19283008527598	0.0	2.19283008527598	0.0	1.13385143647803	0.0	2.19283008527598	7.93413458958992	-4.663842954985721	0.5877978784674999	-0.22057564477180566	-0.13851101706807967	0.43506983385597375	-0.22057564477180566	7.815932230123762	-2.2246743829507767	2.4391685720349443	-1.4865427293725155	1.8537649630682091	1	missed	0.0
34.287961499998346	9.702692100021522	nogo_punish	0.7396797999972478	34.370871799997985	37.11656550003681	39.66376590001164	2.745693700038828	35.36703840002883	38.6420757000451	42.72068320005201	1.749527100007981	1.0216901999665424	1.3528806999674998	41.70731930003967	0.6806412999867462	40.67564420000417	1	1	5	3	nogo_punish	0	0	-1	0	1	0	0	0.0	1.0	0	0.7396797999972478	0.6806412999867462	586.8580350999837	621.2289068999817	622.2250735000125	623.9746006000205	625.5001108000288	626.5218009999953	627.5336792999879	628.5653544000234	629.5787183000357	630.9315990000032	2020-06-09 09:18:38.436247	1.01523917563546	0.0	0.0	0.0	1.01523917563546	0.0	-1.01523917563546	0.0	0.0	1.01523917563546	0.0	0.0	-1.4557736940742811	-0.5460535580105302	-0.22057564477180566	-1.2723624535461098	-0.7425210757845462	-0.22057564477180566	-0.11820235946615845	-1.2094352073153167	0.24633848675896436	-1.4865427293725155	0.7199135265901789	1	correct	1.0
44.056477100006305	8.167588300013449	go_reward	0.7832733999821357	44.139387400005944	45.697019000013825	48.240669000020716	1.5576316000078805	45.14680159999989	47.22772820002865	51.28213390003657	0.5502174000139348	1.0129407999920659	1.0248417999828234	50.267337500001304	1.0	49.251950400008354	1	1	6	2	go_reward	1	1	0	1	1	1	0	n/a	0.0	0	0.7832733999821357	1.0	586.8580350999837	630.9974224999896	632.0048366999836	632.5550540999975	634.0857633000123	635.0987041000044	636.109985499992	637.125372599985	638.1401690000203	639.1650108000031	2020-06-09 09:18:38.436247	1.01523917563546	0.0	0.0	0.0	1.01523917563546	0.0	-1.01523917563546	0.0	0.0	1.01523917563546	0.0	7.93413458958992	-1.4557736940742811	-0.5460535580105302	-0.22057564477180566	-1.2723624535461098	-0.7425210757845462	-0.22057564477180566	7.815932230123762	-1.2094352073153167	0.24633848675896436	-1.4865427293725155	0.7199135265901789	1	missed	0.0
52.26585130003514	8.931520899990574	nogo_punish	0.4556542999926023	52.34876160003478	54.26158220000798	56.81334740004968	1.9128205999732018	53.357497700024396	55.787072400038596	59.86360090004746	0.9040844999835826	1.0262750000110827	1.416681599977892	58.860274100035895	0.7775695999735035	57.820604800013825	1	1	7	3	nogo_punish	1	-1	0	0	1	0	1	0.0	0.0	-1	0.4556542999926023	0.7775695999735035	586.8580350999837	639.2067967000185	640.2155328000081	641.1196172999917	642.6451075000223	643.6713825000334	644.6786398999975	645.7183092000196	646.7216360000311	648.138317600009	2020-06-09 09:18:38.436247	1.01523917563546	0.0	0.0	0.0	1.01523917563546	0.0	-1.01523917563546	0.0	0.0	1.01523917563546	0.0	-6.91155240426632	-1.4557736940742811	-0.5460535580105302	-0.22057564477180566	-1.2723624535461098	-0.7425210757845462	-0.22057564477180566	-7.029754763732479	-1.2094352073153167	0.24633848675896436	-1.4865427293725155	0.7199135265901789	1	wrong	1.0
61.235104400024284	8.668028099986259	go_reward	0.323936800006777	61.31801470002392	63.10432020004373	65.65735480003059	1.7863055000198074	62.33174350002082	64.63680930004921	68.74197390000336	0.7725767000229098	1.020545499981381	1.2440689000068232	67.72917760000564	0.4052654000115581	66.69416450004792	1	1	8	2	go_reward	0	0	1	1	1	1	1	1.0	1.0	0	0.323936800006777	0.4052654000115581	586.8580350999837	648.1760498000076	649.1897786000045	649.9623553000274	651.4948444000329	652.5153899000143	653.5521996000316	654.5872126999893	655.600008999987	656.8440778999939	2020-06-09 09:18:38.436247	1.01523917563546	0.0	0.0	0.0	1.01523917563546	0.0	-1.01523917563546	0.0	0.0	1.01523917563546	0.0	0.0	-1.4557736940742811	-0.5460535580105302	-0.22057564477180566	-1.2723624535461098	-0.7425210757845462	-0.22057564477180566	-0.11820235946615845	-1.2094352073153167	0.24633848675896436	-1.4865427293725155	0.7199135265901789	1	correct	1.0
69.94410860002972	8.280343700025696	nogo_reward	0.3813870000303723	70.02701890002936	71.79277810000349	74.33028010005364	1.7657591999741271	71.02727940003388	73.31764160003513	77.38163620000705	0.7654986999696121	1.012638500018511	0.9257264000480063	76.3687365000369	0.3587159999879077	75.34460040001431	1	1	9	1	nogo_reward	1	0	1	0	1	0	0	0.0	1.0	0	0.3813870000303723	0.3587159999879077	586.8580350999837	656.885054000013	657.8853145000176	658.6508131999872	660.1756767000188	661.1883152000373	662.202635499998	663.2267716000206	664.2396712999907	665.1653977000387	2020-06-09 09:18:38.436247	0.826828087393652	1.13385143647803	1.41297609916321	2.32835340924861	2.23980418655686	1.41297609916321	-0.826828087393652	1.13385143647803	1.41297609916321	2.23980418655686	1.41297609916321	-1.13385143647803	-1.644184782316089	0.5877978784674999	1.1924004543914044	1.0559909557025002	0.48204393513685395	1.1924004543914044	-1.2520537959441886	0.015129803606083403	1.6593145859221745	-0.3526912928944854	2.132889625753389	1	correct	1.0
78.26542700000573	8.574605000030715	nogo_punish	0.3754705999745056	78.34833730000537	79.81887490005465	82.3919647000148	1.4705376000492834	79.3518484000233	81.36843840003712	85.43582520005293	0.46702650003135204	1.023526299977675	1.487117099983152	84.42229720001342	0.733531599980779	83.39366210001754	1	1	10	3	nogo_punish	1	-1	0	0	1	0	0	0.0	1.0	-1	0.3754705999745056	0.733531599980779	586.8580350999837	665.206372399989	666.209883500007	666.6769100000383	668.2264735000208	669.2499997999985	670.2516972000012	671.2803322999971	672.2938603000366	673.7809774000198	2020-06-09 09:18:38.436247	-0.203490683824148	-1.19604651609648	0.0	-1.19604651609648	-0.203490683824148	0.0	0.203490683824148	-1.19604651609648	0.0	-0.203490683824148	0.0	-5.71550588816984	-2.674503553533889	-1.74210007410701	-0.22057564477180566	-2.4684089696425895	-1.961250935244154	-0.22057564477180566	-5.8337082476359985	-2.4281650667749246	0.24633848675896436	-2.6825892454689955	0.7199135265901789	1	correct	1.0
86.87926539999899	8.133561499998905	nogo_reward	0.5142407999956049	86.96217569999862	88.62575760000618	91.15854550001677	1.6635819000075571	87.97395250003319	90.15007329999935	94.20379700005287	0.6518050999729894	1.0084722000174224	0.8919401999446563	93.20093710004585	0.6717793000279926	92.17941100004828	1	1	11	1	nogo_reward	1	0	1	0	1	0	1	1.0	1.0	0	0.5142407999956049	0.6717793000279926	586.8580350999837	673.8202107999823	674.8319876000169	675.4837926999899	677.008108399983	678.0165806000005	679.037446100032	680.0589722000295	681.0618321000366	681.9537722999812	2020-06-09 09:18:38.436247	0.58821690741046	0.915377310085393	1.41297609916321	1.87692898152172	2.00119300657367	1.41297609916321	-0.58821690741046	0.915377310085393	1.41297609916321	2.00119300657367	1.41297609916321	-0.915377310085393	-1.8827959622992811	0.3693237520748628	1.1924004543914044	0.6045665279756103	0.2434327551536637	1.1924004543914044	-1.0335796695515516	-0.22348137637710686	1.6593145859221745	-0.5711654192871225	2.132889625753389	1	correct	1.0
95.05193090002285	8.629632900003344	nogo_reward	0.6216989000095055	95.13484120002249	96.69450410001446	99.23959530005231	1.559662899991963	96.13935710000806	98.22180080000544	102.28618220001226	0.5551470000064	1.0177945000468753	1.4782919000135735	101.26809420000063	1.0	100.2589103000355	1	1	12	1	nogo_reward	1	0	1	0	1	0	0	n/a	0.0	1	0.6216989000095055	1.0	586.8580350999837	681.9928763000062	682.9973921999917	683.5525391999981	685.0798358999891	686.097630400036	687.1169454000192	688.1261292999843	689.144217299996	690.6225092000095	2020-06-09 09:18:38.436247	0.400733820349598	0.743077545043688	1.41297609916321	1.52169181708016	1.81370991951281	1.41297609916321	-0.400733820349598	0.743077545043688	1.41297609916321	1.81370991951281	1.41297609916321	-0.743077545043688	-2.0702790493601433	0.1970239870331577	1.1924004543914044	0.24932936353405033	0.05594966809280377	1.1924004543914044	-0.8612799045098464	-0.4109644634379668	1.6593145859221745	-0.7434651843288276	2.132889625753389	1	missed	0.0
103.71851600002265	8.551382799982093	go_reward	0.7857058999943547	103.80142630002229	105.77539590001106	108.3249331000261	1.9739695999887772	104.81458050000947	107.30001550004818	111.37407700001495	0.9608154000015929	1.0249175999779254	0.9787320999894291	110.35817150003277	0.9127717000083068	109.33306530001573	1	1	13	2	go_reward	1	1	0	1	1	1	0	1.0	0.0	1	0.7857058999943547	0.9127717000083068	586.8580350999837	690.659461400006	691.6726155999932	692.6334309999947	694.1580506000319	695.1829682000098	696.1911003999994	697.2162066000164	698.2321120999986	699.2108441999881	2020-06-09 09:18:38.436247	1.01523917563546	0.0	0.0	0.0	1.01523917563546	0.0	-1.01523917563546	0.0	0.0	1.01523917563546	0.0	7.93413458958992	-1.4557736940742811	-0.5460535580105302	-0.22057564477180566	-1.2723624535461098	-0.7425210757845462	-0.22057564477180566	7.815932230123762	-1.2094352073153167	0.24633848675896436	-1.4865427293725155	0.7199135265901789	1	wrong	1.0
112.30671350000193	9.481346500047948	nogo_reward	1.0	112.38962380000157	114.92205790005391	117.45708240004024	2.532434100052342	113.40889970003627	116.4339953000308	120.52427360002184	1.5131582000176422	1.023087100009434	1.3466967000276782	119.51172050001333	0.4847547999816015	118.47144140000455	1	1	14	1	nogo_reward	1	0	1	0	0	1	1	1.0	1.0	1	1.0	0.4847547999816015	586.8580350999837	699.2476588999853	700.26693480002	701.7800930000376	703.2920304000145	704.3151175000239	705.3294764999882	706.369755599997	707.3823087000055	708.7290054000332	2020-06-09 09:18:38.436247	-1.72197378261649	2.01929060615798	1.41297609916321	2.65317583688683	3.1349498817797	1.41297609916321	1.72197378261649	1.41297609916321	2.01929060615798	1.41297609916321	3.1349498817797	6.521158490426711	-4.192986652326232	1.4732370481474497	1.1924004543914044	1.3808133833407203	1.377189630359694	1.1924004543914044	6.402956130960552	-0.8116982837875666	3.3812883685386645	-0.07356663020930543	2.739204132748159	1	correct	1.0
121.82563870004378	8.021748400002252	nogo_reward	0.7753469999879599	121.90854900004342	123.35386240005028	125.9097123000538	1.445313400006853	122.91716120002093	124.88530030002585	128.93743760004872	0.4367012000293471	1.0244120000279509	0.9928597999969497	127.92036010004813	1.0	126.91089340002509	1	1	15	1	nogo_reward	0	1	0	0	1	0	0	n/a	0.0	0	0.7753469999879599	1.0	586.8580350999837	708.7665841000271	709.7751963000046	710.211897500034	711.7433354000095	712.7677474000375	713.7689285000088	714.7783952000318	715.7954727000324	716.7883325000294	2020-06-09 09:18:38.436247	0.622974321642569	2.01929060615798	2.54682753564125	3.56260849726679	3.16980185728382	2.54682753564125	-0.622974321642569	2.01929060615798	2.54682753564125	3.16980185728382	2.54682753564125	5.91484398343194	-1.848038548067172	1.4732370481474497	2.3262518908694445	2.29024604372068	1.4120416058638139	2.3262518908694445	5.796641623965781	0.9451274743330433	2.7931660224002144	0.5327478767854645	3.266741062231429	1	missed	0.0
129.88859470002353	8.267678499978501	go_punish	1.0	129.97150500002317	131.39457830000902	133.92011340003228	1.4230732999858446	130.98135250003543	132.89657180005452	136.97058070002822	0.41322579997358844	1.0235415999777615	1.2686027999734506	135.9577671000152	0.8001984999864362	134.9360286000301	1	1	16	4	go_punish	1	0	-1	1	0	0	0	0.0	1.0	-1	1.0	0.8001984999864362	586.8580350999837	716.8295401000069	717.8393876000191	718.2526133999927	719.7546069000382	720.778148500016	721.7940637000138	722.8158021999989	723.8286158000119	725.0972185999854	2020-06-09 09:18:38.436247	-1.01523917563546	0.0	0.0	0.0	1.01523917563546	0.0	1.01523917563546	0.0	0.0	0.0	1.01523917563546	-6.91155240426632	-3.486252045345201	-0.5460535580105302	-0.22057564477180566	-1.2723624535461098	-0.7425210757845462	-0.22057564477180566	-7.029754763732479	-2.2246743829507767	1.2615776623944244	-1.4865427293725155	0.7199135265901789	1	correct	1.0
138.19827250001254	8.7309668000089	nogo_punish	1.0	138.28118280001217	140.1039622000535	142.6240440000547	1.8227794000413269	139.29285720002372	141.6075119000161	145.66469500004314	0.8111050000297837	1.016532100038603	1.3474545999779366	144.65141890000086	0.3830759000265971	143.6381322000525	1	1	17	3	nogo_punish	0	0	-1	0	0	1	0	0.0	1.0	-1	1.0	0.3830759000265971	586.8580350999837	725.1392178999959	726.1508923000074	726.9619973000372	728.4655469999998	729.4820791000384	730.4961673000362	731.5094539999845	732.5227301000268	733.8701847000048	2020-06-09 09:18:38.436247	1.18561252716948	-2.16080635389288	0.0	-2.16080635389288	-1.18561252716948	0.0	-1.18561252716948	0.0	-2.16080635389288	0.0	-1.18561252716948	-6.91155240426632	-1.2854003425402611	-2.7068599119034102	-0.22057564477180566	-3.4331688074389897	-2.9433727785894863	-0.22057564477180566	-7.029754763732479	-2.2246743829507767	-0.9392740404105155	-1.4865427293725155	-1.4408928273027009	1	correct	1.0
146.97327450005105	8.690246299956925	nogo_punish	0.3176166000193916	147.0561848000507	148.90555700002005	151.4406236000359	1.8493721999693662	148.06282839999767	150.42208550003124	154.4917932000244	0.842728600022383	1.0185381000046618	1.2546378999832086	153.48275220004143	0.7837713999906555	152.45428840001114	1	1	18	3	nogo_punish	1	-1	0	0	1	0	0	0.0	1.0	-1	0.3176166000193916	0.7837713999906555	586.8580350999837	733.9142199000344	734.9208634999814	735.7635921000037	737.2801206000149	738.2986587000196	739.3123234999948	740.3407873000251	741.3498283000081	742.6044661999913	2020-06-09 09:18:38.436247	-0.0030733892535522	-2.16080635389288	-1.19604651609648	-2.94389150475246	-1.19911990535003	-1.19604651609648	0.0030733892535522	-2.16080635389288	-1.19604651609648	-1.19911990535003	-1.19604651609648	-4.75074605037344	-2.4740862589632933	-2.7068599119034102	-1.4166221608682856	-4.216253958298569	-2.956880156770036	-1.4166221608682856	-4.868948409839598	-3.423794288300807	-0.9497080293375155	-3.6473490832653956	-0.476132989506301	1	correct	1.0
155.69998580001993	8.145990499993786	go_punish	0.8241152000264265	155.78289610001957	157.12899019999895	159.68147830001544	1.346094099979382	156.78577730001416	158.66111350001302	162.73252340004547	0.3432128999847919	1.020364800002426	1.196363199967891	161.7219184000278	0.9939355999813416	160.6981391000445	1	1	19	4	go_punish	1	0	-1	1	1	1	0	0.0	1.0	0	0.8241152000264265	0.9939355999813416	586.8580350999837	742.6409312000033	743.6438123999978	743.9870252999826	745.5191485999967	746.5395133999991	747.5561742000282	748.5799535000115	749.5905585000291	750.786921699997	2020-06-09 09:18:38.436247	2.18860234836881	0.0	-1.19604651609648	-1.19604651609648	0.992555832272331	-1.19604651609648	-2.18860234836881	0.0	-1.19604651609648	0.992555832272331	-1.19604651609648	0.0	-0.2824105213409309	-0.5460535580105302	-1.4166221608682856	-2.4684089696425895	-0.7652044191476751	-1.4166221608682856	-0.11820235946615845	-1.2321185506784458	-0.9497080293375155	-1.4865427293725155	-0.476132989506301	1	correct	1.0
163.88361180003267	8.904950700001791	go_reward	0.4408389999880455	163.9665221000323	166.40032350004185	168.96068580000428	2.4338014000095427	164.9798587000114	167.94047490000958	172.00337760004913	1.4204648000304587	1.0202108999947086	0.868095199984964	170.99565610004356	0.5699357000412419	169.97416090004845	1	1	20	2	go_reward	1	1	0	1	1	1	0	0.0	1.0	1	0.4408389999880455	0.5699357000412419	586.8580350999837	750.824557200016	751.8378937999951	753.2583586000255	754.7985099999933	755.818720899988	756.8321960000321	757.8536912000272	758.8614127000328	759.7295079000178	2020-06-09 09:18:38.436247	2.48480916723798	1.41297609916321	0.0	1.41297609916321	2.48480916723798	0.0	-2.48480916723798	1.41297609916321	0.0	2.48480916723798	0.0	6.521158490426711	0.013796297528239077	0.8669225411526799	-0.22057564477180566	0.14061364561710032	0.727048915817974	-0.22057564477180566	6.402956130960552	0.2601347842872035	0.24633848675896436	-0.07356663020930543	0.7199135265901789	1	correct	1.0
172.82504730002256	8.268748399976175	go_punish	1.0	172.9079576000222	174.577161000052	177.10898499999894	1.6692034000298008	173.92242750001606	176.0941135000321	180.15196660003858	0.6547335000359453	1.01487149996683	1.024739399959799	179.13932990003377	0.3822651000227779	178.12567230005516	1	1	21	4	go_punish	0	-1	0	1	0	0	1	1.0	1.0	0	1.0	0.3822651000227779	586.8580350999837	759.7659927000059	760.7804625999997	761.4351961000357	762.9521486000158	763.9670200999826	764.9837074000388	765.9973650000175	767.0100017000223	768.034741099982	2020-06-09 09:18:38.436247	-2.19392368618302	0.0	-1.19604651609648	-0.964759837796401	0.997877170086538	-1.19604651609648	2.19392368618302	-1.19604651609648	0.0	-1.19604651609648	0.997877170086538	1.19604651609648	-4.664936555892761	-0.5460535580105302	-1.4166221608682856	-2.237122291342511	-0.7598830813334682	-1.4166221608682856	1.0778441566303214	-3.4207208990472564	1.2442156568455023	-2.6825892454689955	0.7199135265901789	1	correct	1.0
181.13614950003102	9.458386400016025	go_reward	0.3355986999813467	181.21905980003066	183.95450150000397	186.51103800005512	2.7354416999733075	182.2222493000445	185.48699630005285	189.57497440004954	1.7322521999594755	1.0240417000022717	1.1024717999971472	188.56215790001443	0.429866399965249	187.53307410003617	1	1	22	2	go_reward	1	1	0	1	1	1	1	1.0	1.0	1	0.3355986999813467	0.429866399965249	586.8580350999837	768.0770949000143	769.0802844000282	770.8125365999877	772.3450314000365	773.3690731000388	774.3911092000199	775.4201929999981	776.4330095000332	777.5354813000304	2020-06-09 09:18:38.436247	3.6624000768785	2.54682753564125	0.0	2.54682753564125	3.6624000768785	0.0	-3.6624000768785	2.54682753564125	0.0	3.6624000768785	0.0	5.38730705394867	1.1913872071687588	2.0007739776307196	-0.22057564477180566	1.2744650820951402	1.9046398254584938	-0.22057564477180566	5.269104694482512	1.4377256939277232	0.24633848675896436	1.0602848062687344	0.7199135265901789	1	correct	1.0
190.65067530004308	8.807625099958386	nogo_punish	1.0	190.73358560004272	192.58083420002367	195.119611800008	1.8472485999809578	191.73725350003224	194.09779530001106	198.18938970001182	0.8435806999914348	1.0218164999969304	1.351820999989286	197.17593590001343	0.3767385000246577	196.13830960000632	1	1	23	3	nogo_punish	1	-1	0	0	0	1	0	0.0	1.0	0	1.0	0.3767385000246577	586.8580350999837	777.5916207000264	778.5952886000159	779.4388693000074	780.9558303999947	781.9776468999917	782.99634469999	784.0339709999971	785.0474247999955	786.3992457999848	2020-06-09 09:18:38.436247	0.796814427698776	-2.94389150475246	-1.19604651609648	-3.58308815040097	-1.99286094379525	-1.19604651609648	-0.796814427698776	-1.19604651609648	-2.94389150475246	-1.19604651609648	-1.99286094379525	1.19604651609648	-1.6741984420109652	-3.4899450627629904	-1.4166221608682856	-4.85545060394708	-3.750621195215256	-1.4166221608682856	1.0778441566303214	-3.4207208990472564	-1.7465224570362856	-2.6825892454689955	-2.223977978162281	1	correct	1.0
199.49796060001245	7.922797100036405	nogo_punish	0.6928446000092663	199.5808709000121	201.1532734000357	203.69752760004485	1.5724025000235997	200.5919852000079	202.67765870003495	206.74290430004476	0.561288200027775	1.0198689000098966	0.7607637000037357	205.7332498000469	0.8985279999906197	204.71038430003682	1	1	24	3	nogo_punish	1	-1	0	0	1	0	0	1.0	0.0	-1	0.6928446000092663	0.8985279999906197	586.8580350999837	786.4389059999958	787.4500202999916	788.0113085000194	789.5356938000186	790.5555627000285	791.5684194000205	792.5912849000306	793.6009394000284	794.3617031000322	2020-06-09 09:18:38.436247	-1.01393173145561	-2.94389150475246	-0.964759837796401	-2.91149684971814	-1.97869156925202	-0.964759837796401	1.01393173145561	-2.94389150475246	-0.964759837796401	-1.97869156925202	-0.964759837796401	-3.9676608995138603	-3.484944601165351	-3.4899450627629904	-1.1853354825682065	-4.183859303264249	-3.736451820672026	-1.1853354825682065	-4.085863258980019	-4.203365952202796	-0.7184213510374367	-4.430434234124975	-0.24484631120622202	1	wrong	1.0
207.4578607000294	8.025839000009	go_punish	1.0	207.54077100002905	209.05293320002966	211.59359950001817	1.5121622000006028	208.55515740002738	210.57028420001734	214.65720850002253	0.49777580000227317	1.0233153000008315	0.9094015000155196	213.64370740001323	0.5647940000053495	212.61623160005547	1	1	25	4	go_punish	1	0	-1	1	0	0	0	0.0	1.0	-1	1.0	0.5647940000053495	586.8580350999837	794.3988061000127	795.4131925000111	795.9109683000133	797.428319300001	798.4516346000019	799.4742667000392	800.5017424999969	801.5152436000062	802.4246451000217	2020-06-09 09:18:38.436247	-1.96649163525131	0.0	-0.964759837796401	-0.783085150859579	1.00173179745491	-0.964759837796401	1.96649163525131	-0.964759837796401	0.0	-0.964759837796401	1.00173179745491	-5.946792566469919	-4.437504504961051	-0.5460535580105302	-1.1853354825682065	-2.0554476044056886	-0.7560284539650961	-1.1853354825682065	-6.064994925936078	-3.1894342207471778	1.2480702842138744	-2.4513025671689164	0.7199135265901789	1	correct	1.0
215.5245736000361	8.74931149999611	go_punish	0.3878316999762319	215.60748390003573	217.96827790001407	220.51514780003345	2.360793999978341	216.61828120000428	219.4933619000367	223.58237320004264	1.3499967000097968	1.0217858999967575	0.7744221999892034	222.56986210000468	0.6738904999801889	221.53219480003463	1	1	26	4	go_punish	1	0	-1	1	1	1	0	0.0	1.0	0	0.3878316999762319	0.6738904999801889	586.8580350999837	802.4655190000194	803.476316299988	804.8263129999978	806.3513970000204	807.3731829000171	808.3902299000183	809.4278971999884	810.4404083000263	811.2148305000155	2020-06-09 09:18:38.436247	2.96103161164274	0.0	-1.97913166695606	-1.83524316174499	0.981899944686686	-1.97913166695606	-2.96103161164274	0.0	-1.97913166695606	0.981899944686686	-1.97913166695606	0.0	0.4900187419329991	-0.5460535580105302	-2.1997073117278654	-3.1076056152911	-0.7758603067333202	-2.1997073117278654	-0.11820235946615845	-1.2427744382640906	-1.7327931801970955	-1.4865427293725155	-1.2592181403658809	1	correct	1.0
224.31876550003653	10.040574599988759	go_punish	0.4705952000222169	224.40167580003617	227.36952310003107	229.92154000001028	2.967847299994901	225.4081946000224	228.9007981000468	232.98079260002123	1.9613285000086762	1.0207418999634683	1.4614578000037	231.96676210005535	0.3099295000429265	230.93810330005363	1	1	27	4	go_punish	1	0	-1	1	1	1	1	1.0	1.0	0	0.4705952000222169	0.3099295000429265	586.8580350999837	811.2597109000199	812.2662297000061	814.2275582000148	815.7588332000305	816.779575099994	817.7961384000373	818.824797200039	819.8388277000049	821.3002855000086	2020-06-09 09:18:38.436247	2.9684948682227	0.0	-1.97913166695606	-1.48921505321005	0.989363201266644	-1.97913166695606	-2.9684948682227	0.0	-1.97913166695606	0.989363201266644	-1.97913166695606	0.0	0.49748199851295904	-0.5460535580105302	-2.1997073117278654	-2.7615775067561597	-0.7683970501533621	-2.1997073117278654	-0.11820235946615845	-1.2353111816841327	-1.7327931801970955	-1.4865427293725155	-1.2592181403658809	1	correct	1.0
234.39661280001746	9.04980350000551	nogo_reward	0.9194035000400618	234.4795231000171	236.7055387000437	239.26949050003896	2.226015600026585	235.49387240002397	238.24582480004756	242.32058230001712	1.211666300019715	1.0236656999913976	1.2087443000054918	241.31173580000177	0.3743064000154845	240.2828236000496	1	1	28	1	nogo_reward	0	1	0	0	1	0	0	0.0	1.0	1	0.9194035000400618	0.3743064000154845	586.8580350999837	821.3375582000008	822.3519075000077	823.5635738000274	825.1038599000312	826.1275256000226	827.1408587000333	828.1697708999855	829.1786174000008	830.3873617000063	2020-06-09 09:18:38.436247	0.205301493426517	1.63097362915796	2.54682753564125	2.88508848665021	2.75212902906777	2.54682753564125	-0.205301493426517	1.63097362915796	2.54682753564125	2.75212902906777	2.54682753564125	6.30316096043196	-2.265711376283224	1.0849200711474296	2.3262518908694445	1.6127260331041002	0.9943687776477639	2.3262518908694445	6.1849586009658015	0.5274546461169933	2.7931660224002144	0.14443089978544443	3.266741062231429	1	correct	1.0
243.48688300000504	9.206520100007765	nogo_reward	0.3879524000221863	243.56979330000468	246.18505680002272	248.7314682000433	2.6152635000180453	244.5745784000028	247.71072830003686	251.77428110002074	1.6104784000199288	1.020739900006447	1.002032299991697	250.76143230003072	0.6485994999529794	249.74830840004142	1	1	29	1	nogo_reward	1	0	1	0	1	0	0	1.0	0.0	0	0.3879524000221863	0.6485994999529794	586.8580350999837	830.4278283999884	831.4326134999865	833.0430919000064	834.5687634000205	835.589503300027	836.6063435000251	837.6194674000144	838.6323162000044	839.6343484999961	2020-06-09 09:18:38.436247	1.34647174617107	2.73781986387938	2.54682753564125	3.76228606121504	3.89329928181232	2.54682753564125	-1.34647174617107	2.73781986387938	2.54682753564125	3.89329928181232	2.54682753564125	-2.73781986387938	-1.124541123538671	2.1917663058688497	2.3262518908694445	2.4899236076689304	2.135539030392314	2.3262518908694445	-2.8560222233455383	1.6686248988615433	2.7931660224002144	1.2512771345068645	3.266741062231429	1	wrong	1.0
252.7314995000488	9.436029499978758	go_punish	1.0	252.81440980004845	255.14741690002847	257.6830278999987	2.3330070999800228	253.82105360005517	256.6645945000346	260.7506403000443	1.326363299973309	1.018433399964124	1.499798999982886	259.7366427000379	0.7357969000004232	258.70832860004157	1	1	30	4	go_punish	1	0	-1	1	0	0	0	0.0	1.0	-1	1.0	0.7357969000004232	586.8580350999837	839.6724449000321	840.6790887000388	842.0054520000122	843.5226296000183	844.5410629999824	845.5663637000252	846.5946778000216	847.608675400028	849.1084744000109	2020-06-09 09:18:38.436247	-2.97397932608656	0.0	-1.97913166695606	-1.2154849101991	0.994847659130506	-1.97913166695606	2.97397932608656	-1.97913166695606	0.0	-1.97913166695606	0.994847659130506	-4.93242073731026	-5.444992195796301	-0.5460535580105302	-2.1997073117278654	-2.48784736374521	-0.7629125922895001	-2.1997073117278654	-5.050623096776419	-4.203806049906836	1.2411861458894704	-3.465674396328575	0.7199135265901789	1	correct	1.0
262.212393600028	7.858467900019605	nogo_punish	0.9908475000411272	262.29530390002765	263.5827329000458	266.1386545000132	1.2874290000181645	263.3028175000218	265.1151630000095	269.1921069000382	0.2799154000240378	1.023491500003729	0.9616649000090547	268.18478710000636	0.4204822999890893	267.15435910003725	1	1	31	3	nogo_punish	1	-1	0	0	1	0	0	0.0	1.0	-1	0.9908475000411272	0.4204822999890893	586.8580350999837	849.1533390000113	850.1608526000055	850.4407680000295	851.9731980999932	852.9966895999969	854.0123942000209	855.04282219999	856.0501420000219	857.0118069000309	2020-06-09 09:18:38.436247	-1.66533385324273	-3.58308815040097	-0.964759837796401	-3.57518328735774	-2.63009369103913	-0.964759837796401	1.66533385324273	-3.58308815040097	-0.964759837796401	-2.63009369103913	-0.964759837796401	-3.3284642538653504	-4.136346722952471	-4.1291417084115	-1.1853354825682065	-4.84754574090385	-4.387853942459136	-1.1853354825682065	-3.4466666133315087	-4.854768073989907	-0.7184213510374367	-5.069630879773485	-0.24484631120622202	1	correct	1.0
270.10706110001775	8.552142500004265	go_punish	0.6420348000247031	270.1899714000174	271.96893360000104	274.53275520005263	1.7789621999836527	271.2048980000545	273.50924370001303	277.5776445000083	0.76403559994651	1.0235115000396036	1.1644694000133313	276.5699997000047	0.3954604999744333	275.55656470003305	1	1	32	4	go_punish	0	-1	0	1	1	1	1	1.0	1.0	-1	0.6420348000247031	0.3954604999744333	586.8580350999837	857.0480065000011	858.0629331000382	858.8269686999847	860.3672787999967	861.3907903000363	862.4145998000167	863.4280347999884	864.435679599992	865.6001490000053	2020-06-09 09:18:38.436247	3.77627373814419	0.0	-2.80000299954139	-2.19337490821723	0.976270738602804	-2.80000299954139	-3.77627373814419	0.0	-2.80000299954139	0.976270738602804	-2.80000299954139	-6.91155240426632	1.3052608684344489	-0.5460535580105302	-3.0205786443131957	-3.4657373617633396	-0.7814895128172021	-3.0205786443131957	-7.029754763732479	-1.2484036443479727	-2.553664512782426	-1.4865427293725155	-2.080089472951211	1	correct	1.0
278.69908050005324	9.418679700000212	nogo_punish	1.0	278.7819908000529	281.21357360004913	283.7423634000006	2.4315827999962494	279.7933583999984	282.7225893000141	286.7876315000467	1.420215200050734	1.0197740999865346	1.4130390000063926	285.78247240005294	0.8092364999465644	284.75972230004845	1	1	33	3	nogo_punish	1	-1	0	0	0	1	1	1.0	1.0	0	1.0	0.8092364999465644	586.8580350999837	865.6400259000366	866.6513934999821	868.0716087000328	869.5806243999978	870.6003984999843	871.6177574000321	872.6405075000366	873.6456666000304	875.0587056000368	2020-06-09 09:18:38.436247	2.19927290210864	-4.10754336581462	-0.964759837796401	-4.1149897207668	-3.16403273990504	-0.964759837796401	-2.19927290210864	-0.964759837796401	-4.10754336581462	-0.964759837796401	-3.16403273990504	0.964759837796401	-0.2717399676011012	-4.65359692382515	-1.1853354825682065	-5.387352174312909	-4.921792991325046	-1.1853354825682065	0.8465574783302425	-3.1894342207471778	-2.9176942531460757	-2.4513025671689164	-3.387629839224441	1	correct	1.0
288.16069510002853	9.366888999997173	go_reward	0.5644567999988794	288.2436054000282	291.0185254000244	293.57870650000405	2.7749199999962	289.2547795000137	292.55920890002744	296.63856540003326	1.76374590001069	1.019497599976603	0.9719289999920875	295.624527100008	0.6877893000491895	294.5962322000414	1	1	34	2	go_reward	0	0	1	1	1	1	0	0.0	1.0	0	0.5644567999988794	0.6877893000491895	586.8580350999837	875.1016405000119	876.1128145999974	877.876560500008	879.4172440000111	880.4367415999877	881.4542673000251	882.4825621999917	883.4966005000169	884.468529500009	2020-06-09 09:18:38.436247	4.61189706896795	3.46220484572664	0.0	3.46220484572664	4.61189706896795	0.0	-4.61189706896795	3.46220484572664	0.0	4.61189706896795	0.0	-3.46220484572664	2.1408841992582093	2.9161512877161098	-0.22057564477180566	2.1898423921805303	2.8541368175479445	-0.22057564477180566	-3.5804072051927984	2.3872226860171737	0.24633848675896436	1.9756621163541246	0.7199135265901789	1	correct	1.0
297.572064100008	8.549417500034906	nogo_reward	0.2831448999932036	297.65497440000763	299.387850900006	301.9294392000302	1.7328764999983832	298.6711312000407	300.9206918000127	304.9770681000082	0.7167196999653243	1.0087474000174552	1.2273238000343554	303.95995680004125	1.0	302.9506532000378	1	1	35	1	nogo_reward	1	0	1	0	1	0	0	n/a	0.0	1	0.2831448999932036	1.0	586.8580350999837	884.5130094999913	885.5291663000244	886.2458859999897	887.7787268999964	888.7874743000139	889.8086883000215	890.8179919000249	891.8351031999919	893.0624270000262	2020-06-09 09:18:38.436247	0.794401988171203	2.21566652892858	2.54682753564125	3.0566542519983	3.34122952381245	2.54682753564125	-0.794401988171203	2.21566652892858	2.54682753564125	3.34122952381245	2.54682753564125	-2.21566652892858	-1.676610881538538	1.6696129709180498	2.3262518908694445	1.7842917984521902	1.583469272392444	2.3262518908694445	-2.3338688883947385	1.1165551408616734	2.7931660224002144	0.7291237995560647	3.266741062231429	1	missed	0.0
306.16179959999863	9.428698200034091	nogo_reward	0.3169077000347897	306.24470989999827	308.68481330003124	311.2214144000318	2.4401034000329673	307.2480181000428	310.2017462000367	314.27393690001907	1.4367951999884099	1.019668199995067	1.399471200013295	313.26122840004973	0.978554300032556	312.2384706000448	1	1	36	1	nogo_reward	1	0	1	0	1	0	0	0.0	1.0	0	0.3169077000347897	0.978554300032556	586.8580350999837	893.102744999982	894.1060532000265	895.5428484000149	897.0597813000204	898.0794495000155	899.0965057000285	900.1192635000334	901.1319720000027	902.531443200016	2020-06-09 09:18:38.436247	1.82858438792278	3.21605656853535	2.54682753564125	3.9096304584954	4.37541192356403	2.54682753564125	-1.82858438792278	3.21605656853535	2.54682753564125	4.37541192356403	2.54682753564125	-3.21605656853535	-0.642428481786961	2.6700030105248196	2.3262518908694445	2.63726800494929	2.6176516721440244	2.3262518908694445	-3.3342589280015082	2.1507375406132536	2.7931660224002144	1.7295138391628344	3.266741062231429	1	correct	1.0
315.6309750000363	9.574986599967929	go_reward	0.4352130999905057	315.71388530003594	318.4297928000451	320.9860024000519	2.715907500009166	316.72400770004595	319.9623422000441	324.0514083000015	1.7057850999991615	1.0236602000078392	1.237463600002343	323.03663610003434	0.6435465999529697	321.9994329000475	1	1	37	2	go_reward	1	1	0	1	1	1	0	0.0	1.0	1	0.4352130999905057	0.6435465999529697	586.8580350999837	902.5719204000196	903.5820428000296	905.2878279000288	906.8203773000278	907.8440375000356	908.8574680000312	909.894671200018	910.9094433999852	912.1469069999876	2020-06-09 09:18:38.436247	3.91224167009945	2.79230629160712	0.0	2.79230629160712	3.91224167009945	0.0	-3.91224167009945	2.79230629160712	0.0	3.91224167009945	0.0	5.1418282979828	1.441228800389709	2.24625273359659	-0.22057564477180566	1.5199438380610104	2.1544814186794436	-0.22057564477180566	5.023625938516641	1.6875672871486733	0.24633848675896436	1.3057635622346047	0.7199135265901789	1	correct	1.0
325.24373370001547	8.197390099987615	go_punish	0.4215650999685749	325.3266440000151	327.01037710002856	329.5750107000349	1.6837331000134554	326.34027650003554	328.55098220001673	332.62423430004856	0.6701005999930203	1.0240285000181757	0.8997997999541667	331.6116619000095	0.904213100031484	330.58874070004094	1	1	38	4	go_punish	0	-1	0	1	1	1	0	0.0	1.0	-1	0.4215650999685749	0.904213100031484	586.8580350999837	912.1846790999988	913.1983116000192	913.8684122000122	915.4090173000004	916.4330458000186	917.4467758000246	918.4696969999932	919.4822694000322	920.3820691999864	2020-06-09 09:18:38.436247	2.56598435240969	-1.19604651609648	-2.80000299954139	-2.98316286748893	-0.234018647131696	-2.80000299954139	-2.56598435240969	-1.19604651609648	-2.80000299954139	-0.234018647131696	-2.80000299954139	-5.71550588816984	0.09497148269994904	-1.74210007410701	-3.0205786443131957	-4.25552532103504	-1.9917788985517022	-3.0205786443131957	-5.8337082476359985	-2.4586930300824728	-2.553664512782426	-2.6825892454689955	-2.080089472951211	1	correct	1.0
333.4765415000147	8.948153100034801	nogo_reward	1.0	333.55945180001436	335.5415533000487	338.07430190005107	1.9821015000343323	334.56899730005534	337.056977600034	341.1149542000495	0.9725559999933466	1.0173243000170942	1.392650699999649	340.1018753000535	0.3987085999688133	339.0884802000363	1	1	39	1	nogo_reward	1	0	1	0	0	1	0	1.0	0.0	1	1.0	0.3987085999688133	586.8580350999837	920.417486899998	921.427032400039	922.3995884000324	923.9150127000177	924.9323370000347	925.94651530002	926.9599104000372	927.9729893000332	929.3656400000328	2020-06-09 09:18:38.436247	-1.19085298782036	2.6087243902766	2.54682753564125	3.18323890176264	3.7376805234616	2.54682753564125	1.19085298782036	2.54682753564125	2.6087243902766	2.54682753564125	3.7376805234616	5.38730705394867	-3.661865857530101	2.0626708322660696	2.3262518908694445	1.9108764482165301	1.9799202720415938	2.3262518908694445	5.269104694482512	0.3221531526904733	3.9840190102205644	1.0602848062687344	3.328637916866779	1	wrong	1.0
342.46141030004947	8.178245499962827	go_reward	0.3506639000261202	342.5443206000491	344.1042698000091	346.64172240003234	1.5599491999599877	343.5592947000405	345.62142120004876	349.67207070003496	0.5449750999686103	1.020301199983578	1.0504953999769668	348.66680300002906	0.7532830000272952	347.65168490004714	1	1	40	2	go_reward	0	0	1	1	1	1	0	1.0	0.0	0	0.3506639000261202	0.7532830000272952	586.8580350999837	929.4023557000328	930.4173298000242	930.9623048999928	932.4794563000324	933.499757500016	934.5097200000308	935.5248381000127	936.5301058000186	937.5806011999956	2020-06-09 09:18:38.436247	4.83180877588583	3.67774546128706	0.0	3.67774546128706	4.83180877588583	0.0	-4.83180877588583	3.67774546128706	0.0	4.83180877588583	0.0	-3.67774546128706	2.360795906176089	3.1316919032765296	-0.22057564477180566	2.40538300774095	3.074048524465824	-0.22057564477180566	-3.7959478207532182	2.6071343929350532	0.24633848675896436	2.1912027319145446	0.7199135265901789	1	wrong	1.0
350.6757078000227	8.15448690002097	nogo_reward	1.0	350.7586181000223	352.45284030004393	354.9751163000474	1.6942222000216134	351.7659280000371	353.95520480000414	358.0292312000529	0.6869123000068384	1.0199115000432357	0.883873799990397	357.0164159000269	0.9372673999750988	355.99265000002913	1	1	41	1	nogo_reward	0	1	0	0	0	1	1	1.0	1.0	0	1.0	0.9372673999750988	586.8580350999837	937.616653200006	938.6239631000208	939.3108754000276	940.8132398999878	941.833151400031	942.8506851000128	943.8744510000106	944.8872663000366	945.771140100027	2020-06-09 09:18:38.436247	-0.308838832669909	2.6087243902766	3.46220484572664	4.01846597831738	3.77104367839655	3.46220484572664	0.308838832669909	3.46220484572664	2.6087243902766	3.46220484572664	3.77104367839655	-3.46220484572664	-2.7798517023796503	2.0626708322660696	3.2416292009548346	2.74610352477127	2.0132834269765443	3.2416292009548346	-3.5804072051927984	1.2375304627758634	4.017382165155515	1.9756621163541246	3.328637916866779	1	correct	1.0
358.8661099000019	8.446494200033953	go_punish	1.0	358.94902020000154	360.43035210005473	362.96463380003115	1.481331900053192	359.9635447000037	361.9476420000427	366.0080753000219	0.4668074000510387	1.016991799988432	1.3874391000135802	365.0029422000515	0.9456056000199168	363.9793211000507	1	1	42	4	go_punish	1	0	-1	1	0	0	0	1.0	0.0	-1	1.0	0.9456056000199168	586.8580350999837	945.8070552999852	946.8215797999874	947.2883872000384	948.8056771000264	949.8226689000148	950.8373562000344	951.8609773000352	952.8661104000056	954.2535495000192	2020-06-09 09:18:38.436247	-1.59011627203149	-2.16080635389288	-2.80000299954139	-3.62510646490306	-1.2098867275099	-2.80000299954139	1.59011627203149	-2.80000299954139	-2.16080635389288	-2.80000299954139	-1.2098867275099	-4.11154940472493	-4.061129141741231	-2.7068599119034102	-3.0205786443131957	-4.89746891844917	-2.9676469789299063	-3.0205786443131957	-4.2297517641910884	-5.0246773824921664	-0.9635482407509355	-4.2865457289139055	-1.4408928273027009	1	wrong	1.0
367.360162500001	8.699201000039466	go_reward	0.3634906999650411	367.44307280000066	369.4933740000123	372.0435222000233	2.0503012000116314	368.44870430004073	371.01904340001056	375.0861061000031	1.0446696999715641	1.02447880001273	1.0561677000370082	374.07205800001975	0.663485299970489	373.05129010003293	1	1	43	2	go_reward	1	1	0	1	1	1	0	1.0	0.0	1	0.3634906999650411	0.663485299970489	586.8580350999837	954.3011078999843	955.3067394000244	956.351409099996	957.8770784999942	958.901557300007	959.9093252000166	960.9300931000034	961.9441411999868	963.0003089000238	2020-06-09 09:18:38.436247	4.10444405437091	2.98036568119642	0.0	2.98036568119642	4.10444405437091	0.0	-4.10444405437091	2.98036568119642	0.0	4.10444405437091	0.0	4.9537689083935	1.6334311846611693	2.4343121231858897	-0.22057564477180566	1.7080032276503103	2.3466838029509045	-0.22057564477180566	4.835566548927342	1.8797696714201337	0.24633848675896436	1.4938229518239046	0.7199135265901789	1	wrong	1.0
376.0952010000475	8.609226099972034	go_punish	0.8120295000262558	376.17811130004714	377.6985671000439	380.2533925000463	1.5204557999967392	377.1927400000277	379.2333882000531	383.3076727000299	0.5058271000161767	1.0200042999931611	1.4796646999892573	382.2925367000279	0.6682762999553233	381.2636111000319	1	1	44	4	go_punish	1	0	-1	1	1	1	1	0.0	0.0	0	0.8120295000262558	0.6682762999553233	586.8580350999837	963.0361464000308	964.0507751000114	964.5566022000276	966.0914233000368	967.11142760003	968.1216462000156	969.1505718000116	970.1657078000136	971.6453725000028	2020-06-09 09:18:38.436247	2.24967112896342	-2.16080635389288	-3.46834672016611	-4.14984563660221	-1.21867559120269	-3.46834672016611	-2.24967112896342	-2.16080635389288	-3.46834672016611	-1.21867559120269	-3.46834672016611	2.16080635389288	-0.22134174074632096	-2.7068599119034102	-3.6889223649379153	-5.42220809014832	-2.9764358426226964	-3.6889223649379153	2.0426039944267216	-3.4433499741534668	-3.2220082334071454	-3.6473490832653956	-2.7484331935759307	1	wrong	1.0
384.7473612000467	9.580593399994541	nogo_punish	1.0	384.83027150004636	387.6018422000343	390.13364630000433	2.771570699987933	385.8375048000015	389.11015540000517	393.1741326000191	1.7643374000327867	1.0234908999991603	1.2367323000217993	392.1605214000447	0.788034199969843	391.1477982000215	1	1	45	3	nogo_punish	0	0	-1	0	0	1	0	0.0	1.0	-1	1.0	0.788034199969843	586.8580350999837	971.68830660003	972.6955398999852	974.459877300018	975.9681904999889	976.991681399988	978.0058333000052	979.0185565000284	980.0321677000028	981.2689000000246	2020-06-09 09:18:38.436247	2.36576772521596	-4.10754336581462	-0.783085150859579	-3.36073300806379	-3.14885287607554	-0.783085150859579	-2.36576772521596	-0.783085150859579	-4.10754336581462	-0.783085150859579	-3.14885287607554	-6.1284672534067415	-0.10524514449378097	-4.65359692382515	-1.0036607956313846	-4.6330954616099	-4.906613127495546	-1.0036607956313846	-6.2466696128729	-3.0077595338103555	-2.9025143893165755	-2.2696278802320946	-3.387629839224441	1	correct	1.0
394.3687676000409	9.527213399996981	go_punish	0.3021438999567181	394.4516779000405	397.00375120004173	399.5340199000203	2.5520733000012115	395.4593287000315	398.51418320002267	402.5855577000183	1.5444225000102278	1.0198366999976543	1.3933336000192185	401.571034200024	0.8461968000046909	400.54761770000914	1	1	46	4	go_punish	0	-1	0	1	1	1	1	0.0	0.0	-1	0.3021438999567181	0.8461968000046909	586.8580350999837	981.3097130000242	982.3173638000152	983.8617863000254	985.3722183000064	986.392055000004	987.4056527999928	988.4290693000077	989.443592800002	990.8369264000212	2020-06-09 09:18:38.436247	2.6782711470733	-1.74784498865598	-3.46834672016611	-3.38497380183695	-0.790075573092807	-3.46834672016611	-2.6782711470733	-1.74784498865598	-3.46834672016611	-0.790075573092807	-3.46834672016611	-5.16370741561034	0.20725827736355873	-2.2938985466665103	-3.6889223649379153	-4.6573362553830595	-2.547835824512813	-3.6889223649379153	-5.281909775076499	-3.0147499560435835	-3.2220082334071454	-3.2343877180284952	-2.7484331935759307	1	wrong	1.0
403.93632660002913	8.309989399975166	go_punish	1.0	404.0192369000288	405.3872931000079	407.9220916000195	1.3680561999791507	405.02979660005076	406.90382040000986	410.9442978000151	0.3574964999571648	1.0182712000096217	1.3849284999888596	409.9416787000373	1.0	408.93379260000074	1	1	47	4	go_punish	1	0	-1	1	0	0	0	n/a	0.0	-1	1.0	1.0	586.8580350999837	990.8772720000125	991.8878317000344	992.2453281999916	993.7618554999935	994.7801267000032	995.7918276999844	996.799713800021	997.8023328999988	999.1872613999876	2020-06-09 09:18:38.436247	-1.79675119842431	-2.61832831260457	-3.46834672016611	-3.97228154285217	-1.6715955217418	-3.46834672016611	1.79675119842431	-3.46834672016611	-2.61832831260457	-3.46834672016611	-1.6715955217418	-3.4432056841002106	-4.267764068134051	-3.1643818706151006	-3.6889223649379153	-5.244643996398279	-3.429355773161806	-3.6889223649379153	-3.561408043566369	-5.6930211031168865	-1.4252570349828355	-4.9548894495386255	-1.8984147860143912	1	missed	0.0
412.2919118000427	9.388072500005364	nogo_punish	0.4850201000226661	412.37482210004237	414.8389592000167	417.3896783000091	2.464137099974323	413.37922080000874	416.36629740003275	420.4412099000183	1.45973840000795	1.0233808999763596	1.3216847000294365	419.4278489000279	0.4076387999812141	418.40621500002453	1	1	48	3	nogo_punish	0	0	-1	0	1	0	0	0.0	1.0	0	0.4850201000226661	0.4076387999812141	586.8580350999837	999.232857200026	1000.2372558999924	1001.6969943000004	1003.2243325000164	1004.2477133999928	1005.2642501000082	1006.2858840000116	1007.299245000002	1008.6209297000314	2020-06-09 09:18:38.436247	-1.32495565474598	-4.10754336581462	-1.83524316174499	-3.95557631740981	-3.16019881649097	-1.83524316174499	1.32495565474598	-4.10754336581462	-1.83524316174499	-3.16019881649097	-1.83524316174499	4.10754336581462	-3.795968524455721	-4.65359692382515	-2.0558188065167955	-5.2279387709559195	-4.917959067910976	-2.0558188065167955	3.989341006348462	-5.3848731994417465	-1.5889046749860256	-5.594086095187135	-1.115329635154811	1	correct	1.0
421.7253419000191	7.949596600024847	nogo_punish	1.0	421.8082522000187	423.3751369000529	425.90407550003147	1.5668847000341657	422.81412100000307	424.88361030002113	428.9522122000343	0.5610159000498243	1.0204652000103351	0.8056366000092794	427.94633669999894	0.6113879000185989	426.9212555999983	1	1	49	3	nogo_punish	1	-1	0	0	0	1	0	0.0	1.0	0	1.0	0.6113879000185989	586.8580350999837	1008.6662873000024	1009.6721560999868	1010.2331720000366	1011.7416454000048	1012.7621106000151	1013.779290699982	1014.8043717999826	1015.810247300018	1016.6158839000273	2020-06-09 09:18:38.436247	0.547380604672886	-3.34389660905766	-1.83524316174499	-3.24188568405328	-2.38262376641787	-1.83524316174499	-0.547380604672886	-1.83524316174499	-3.34389660905766	-1.83524316174499	-2.38262376641787	1.83524316174499	-1.9236322650368551	-3.88995016706819	-2.0558188065167955	-4.51424813759939	-4.140384017837876	-2.0558188065167955	1.7170408022788315	-4.059917544695766	-2.136285279658906	-3.3217858911175053	-2.623983082467481	1	correct	1.0
429.71042950003186	7.778749299992228	go_punish	1.0	429.7933398000315	431.1656025000267	433.6916655000531	1.37226269999519	430.80920990003517	432.6753161000087	436.74217260000296	0.35639259999152273	1.0163494000444189	0.8299165000207722	435.72867590002716	0.53527509997366	434.7064929000335	1	1	50	4	go_punish	1	0	-1	1	0	0	0	0.0	1.0	-1	1.0	0.53527509997366	586.8580350999837	1016.6513749000152	1017.6672450000189	1018.0236376000104	1019.5333511999924	1020.5497006000368	1021.5645280000172	1022.5867110000108	1023.6002076999866	1024.4301242000074	2020-06-09 09:18:38.436247	-2.33534821319383	-2.61832831260457	-4.01548790974049	-4.44927071470271	-1.68013969654666	-4.01548790974049	2.33534821319383	-4.01548790974049	-2.61832831260457	-4.01548790974049	-1.68013969654666	-2.89606449452583	-4.806361082903571	-3.1643818706151006	-4.236063554512296	-5.72163316824882	-3.437899947966666	-4.236063554512296	-3.0142668539919883	-6.2401622926912665	-1.4338012097876955	-5.502030639113006	-1.8984147860143912	1	correct	1.0
437.5463273000205	9.20193370000925	nogo_punish	1.0	437.62923760002013	440.47636910004076	443.01551779999863	2.847131500020623	438.64676370000234	441.99186290003126	446.07031010003993	1.8296054000384174	1.0236548999673687	0.7608611999894492	445.0569817000069	0.7844388000085019	444.0243239000556	1	1	51	3	nogo_punish	0	0	-1	0	0	1	1	1.0	1.0	-1	1.0	0.7844388000085019	586.8580350999837	1024.4872727000038	1025.504798799986	1027.3344042000244	1028.849898000015	1029.8735528999823	1030.8823590000393	1031.9150167999906	1032.9283452000236	1033.689206400013	2020-06-09 09:18:38.436247	0.882931661492867	-3.34389660905766	-1.48921505321005	-2.67085801827165	-2.37214671470292	-1.48921505321005	-0.882931661492867	-1.48921505321005	-3.34389660905766	-1.48921505321005	-2.37214671470292	-5.42233735105627	-1.5880812082168743	-3.88995016706819	-1.7097906979818558	-3.9432204718177597	-4.129906966122926	-1.7097906979818558	-5.540539710522428	-3.7138894361608266	-2.1258082279439554	-2.9757577825825656	-2.623983082467481	1	correct	1.0
446.78632200002903	9.105178400001023	go_punish	1.0	446.86923230002867	448.93313540000236	451.46613240003353	2.063903099973686	447.8835049000336	450.44228840002324	454.5012687999988	1.049630499968771	1.0238440000102855	1.473141900030896	453.4934827000252	0.5709010999999009	452.4800566000049	1	1	52	4	go_punish	1	0	-1	1	0	0	1	0.0	0.0	-1	1.0	0.5709010999999009	586.8580350999837	1033.7272674000124	1034.7415400000173	1035.791170499986	1037.300323500007	1038.3241675000172	1039.3380916999886	1040.3515178000089	1041.3593038999825	1042.8324458000134	2020-06-09 09:18:38.436247	-2.77879503804534	-2.61832831260457	-4.46567511228686	-4.83917892546942	-1.68688007424153	-4.46567511228686	2.77879503804534	-4.46567511228686	-2.61832831260457	-4.46567511228686	-1.68688007424153	-2.4458772919794605	-5.2498079077550805	-3.1643818706151006	-4.686250757058666	-6.111541379015529	-3.444640325661536	-4.686250757058666	-2.564079651445619	-6.690349495237637	-1.4405415874825656	-5.952217841659375	-1.8984147860143912	1	wrong	1.0
455.9412611000007	9.03795780002838	nogo_punish	1.0	456.02417140000034	458.52397270000074	461.05419170000823	2.4998013000003994	457.0412104999996	460.03261410002597	464.1066255000187	1.4827622000011615	1.0215775999822654	0.9555037000100128	463.0997600000119	0.5079656000016257	462.0708618000499	1	1	53	3	nogo_punish	1	-1	0	0	0	1	1	1.0	1.0	0	1.0	0.5079656000016257	586.8580350999837	1042.882206499984	1043.8992455999833	1045.3820077999844	1046.8906492000096	1047.912226799992	1048.9288969000336	1049.9577950999956	1050.9646606000024	1051.9201643000124	2020-06-09 09:18:38.436247	-0.0247106258355774	-3.34389660905766	-2.41153142629558	-3.4070743167166	-2.38682080046	-2.41153142629558	0.0247106258355774	-2.41153142629558	-3.34389660905766	-2.41153142629558	-2.38682080046	2.41153142629558	-2.4957234955453185	-3.88995016706819	-2.6321070710673853	-4.6794367702627095	-4.144581051880006	-2.6321070710673853	2.2933290668294215	-4.6362058092463565	-2.1404823137010354	-3.8980741556680956	-2.623983082467481	1	correct	1.0
465.0218404000043	7.8950130000011995	go_punish	0.5002994999522343	465.10475070000393	466.4325213000411	468.9825660000208	1.3277706000371836	466.1055945000264	467.96613230003277	472.0381758000003	0.32692680001468943	1.016433699988056	0.9615879000048153	471.0312723000534	0.4343225000193342	470.0014936000225	1	1	54	4	go_punish	1	0	-1	1	1	1	1	1.0	1.0	0	0.5002994999522343	0.4343225000193342	586.8580350999837	1051.9627857999876	1052.96362960001	1053.2905564000248	1054.8241674000164	1055.8406011000045	1056.8595287000062	1057.889307400037	1058.896210899984	1059.8577987999888	2020-06-09 09:18:38.436247	3.14556553031496	-2.61832831260457	-4.83784442333654	-5.1597140232499	-1.69227889302158	-4.83784442333654	-3.14556553031496	-2.61832831260457	-4.83784442333654	-1.69227889302158	-4.83784442333654	2.61832831260457	0.6745526606052188	-3.1643818706151006	-5.0584200681083455	-6.432076476796009	-3.450039144441586	-5.0584200681083455	2.500125953138412	-3.9169532759723564	-4.591505936577575	-4.104871041977086	-4.117930896746361	1	correct	1.0
472.9563092000317	8.28241129999492	go_reward	0.5560872000060044	473.0392195000313	474.9644626000081	477.50349890004145	1.9252430999767967	474.0437938000541	476.47967980004614	480.5519200999988	0.9206687999540009	1.0238190999953076	0.7697107000274173	479.5389014000539	0.3197604000451974	478.51710640004603	1	1	55	2	go_reward	1	1	0	1	1	1	0	0.0	1.0	1	0.5560872000060044	0.3197604000451974	586.8580350999837	1059.897254600015	1060.9018289000378	1061.8224976999918	1063.3377149000298	1064.3615340000251	1065.3751415000297	1066.3969365000376	1067.4099551999825	1068.17966590001	2020-06-09 09:18:38.436247	4.99913718337811	3.84125656355408	0.0	3.84125656355408	4.99913718337811	0.0	-4.99913718337811	3.84125656355408	0.0	4.99913718337811	0.0	4.092878026035841	2.528124313668369	3.2952030055435495	-0.22057564477180566	2.56889411000797	3.2413769319581043	-0.22057564477180566	3.9746756665696825	2.7744628004273335	0.24633848675896436	2.354713834181564	0.7199135265901789	1	correct	1.0
481.2830840000536	8.187427699973114	go_reward	0.7016853000386618	481.3659943000532	482.72300850000465	485.2918280000449	1.3570141999514362	482.3724852000014	484.26791180000873	488.34726260002935	0.3505233000032604	1.023916200036183	1.2061593999969773	487.33455290005077	0.4982217000215314	486.30546460003825	1	1	56	2	go_reward	1	1	0	1	1	1	0	0.0	1.0	1	0.7016853000386618	0.4982217000215314	586.8580350999837	1068.224029400037	1069.230520299985	1069.5810435999883	1071.1259468999924	1072.1498631000286	1073.163499700022	1074.1925880000344	1075.205297700013	1076.41145710001	2020-06-09 09:18:38.436247	5.71936312649687	4.53523127540249	0.0	4.53523127540249	5.71936312649687	0.0	-5.71936312649687	4.53523127540249	0.0	5.71936312649687	0.0	3.3989033141874305	3.248350256787129	3.9891777173919594	-0.22057564477180566	3.26286882185638	3.9616028750768644	-0.22057564477180566	3.280700954721272	3.4946887435460936	0.24633848675896436	3.0486885460299744	0.7199135265901789	1	correct	1.0
489.5135524000507	9.342935599968769	go_reward	0.3018900000024587	489.5964627000503	491.88380280003184	494.41486930003157	2.2873400999815203	490.6044092000229	493.4005529000424	497.47665860003326	1.279393600008916	1.014316399989184	1.462739699985832	496.47170690004714	0.3900042000459507	495.4317658000509	1	1	57	2	go_reward	0	0	1	1	1	1	1	1.0	1.0	0	0.3018900000024587	0.3900042000459507	586.8580350999837	1076.454497800034	1077.4624443000066	1078.7418379000155	1080.258588000026	1081.2729044000152	1082.2898009000346	1083.3297420000308	1084.334693700017	1085.7974334000028	2020-06-09 09:18:38.436247	6.30283527653688	5.09811200705101	0.0	5.09811200705101	6.30283527653688	0.0	-6.30283527653688	5.09811200705101	0.0	6.30283527653688	0.0	-5.09811200705101	3.8318224068271385	4.55205844904048	-0.22057564477180566	3.8257495535049	4.545075025116874	-0.22057564477180566	-5.216314366517168	4.078160893586103	0.24633848675896436	3.6115692776784947	0.7199135265901789	1	correct	1.0
498.8933000000543	9.635598199965898	go_punish	0.919343999994453	498.97621030005394	501.5603437000534	504.1040281000314	2.584133399999473	499.9831724000396	503.09179730003234	507.16548820002936	1.577171300013788	1.012230799999088	1.4463202999904752	506.15261070005363	0.4098025999846868	505.12384700000985	1	1	58	4	go_punish	1	0	-1	1	1	1	0	0.0	1.0	0	0.919343999994453	0.4098025999846868	586.8580350999837	1085.8342454000376	1086.8412075000233	1088.418378800037	1089.949832400016	1090.962063200015	1091.9818820999935	1093.0106458000373	1094.023523300013	1095.4698436000035	2020-06-09 09:18:38.436247	3.65378303170926	-2.12841169885856	-4.83784442333654	-4.22853783312426	-1.18406139162727	-4.83784442333654	-3.65378303170926	-2.12841169885856	-4.83784442333654	-1.18406139162727	-4.83784442333654	2.12841169885856	1.1827701619995188	-2.6744652568690905	-5.0584200681083455	-5.500900286670369	-2.941821643047276	-5.0584200681083455	2.010209339392402	-3.4087357745780467	-4.591505936577575	-3.6149544282310755	-4.117930896746361	1	correct	1.0
508.5684373000404	8.278746199968737	go_punish	0.7218121000332758	508.65134760004	510.05590370000573	512.6068076000083	1.4045560999657027	509.6660946000484	511.5872746000532	515.6404573000036	0.3898090999573469	1.0195329999551177	1.2896365000051446	514.6374903000544	0.7246818999992684	513.6260700999992	1	1	59	4	go_punish	1	0	-1	1	1	1	0	0.0	1.0	0	0.7218121000332758	0.7246818999992684	586.8580350999837	1095.5093827000237	1096.524129700032	1096.9139387999894	1098.445309700037	1099.464842699992	1100.4841051999829	1101.495525400038	1102.4984923999873	1103.7881288999924	2020-06-09 09:18:38.436247	4.05601566268778	-1.73994012561275	-4.83784442333654	-3.48370420008216	-0.781828760648754	-4.83784442333654	-4.05601566268778	-1.73994012561275	-4.83784442333654	-0.781828760648754	-4.83784442333654	1.73994012561275	1.5850027929780386	-2.28599368362328	-5.0584200681083455	-4.75606665362827	-2.53958901206876	-5.0584200681083455	1.6217377661465915	-3.006503143599531	-4.591505936577575	-3.2264828549852655	-4.117930896746361	1	correct	1.0
516.8854044000036	8.594199000042863	go_reward	0.3263141000061296	516.9683147000032	518.838370500016	521.3865551000342	1.8700558000127785	517.9805727000348	520.3630816000514	524.4289159000036	0.8577977999811992	1.023473499982856	1.1335978000424802	523.4215267000254	0.4630604000412859	522.4005946000107	1	1	60	2	go_reward	1	1	0	1	1	1	0	0.0	1.0	1	0.3263141000061296	0.4630604000412859	586.8580350999837	1103.826349799987	1104.8386078000185	1105.6964055999997	1107.221116700035	1108.244590200018	1109.2586296999943	1110.279561800009	1111.2869509999873	1112.4205488000298	2020-06-09 09:18:38.436247	5.30865064708055	4.14422790006082	0.0	4.14422790006082	5.30865064708055	0.0	-5.30865064708055	4.14422790006082	0.0	5.30865064708055	0.0	3.7899066895291	2.837637777370809	3.59817434205029	-0.22057564477180566	2.8718654465147107	3.550890395660544	-0.22057564477180566	3.6717043300629415	3.0839762641297734	0.24633848675896436	2.657685170688305	0.7199135265901789	1	correct	1.0
