onset	duration	trial_type	response_time	cueOnset	targetOnset	fbOnset	cueRT	firstfixOnset	secondfixOnset	waitOnset	firstfixdur	secondfixdur	waitdur	nback_fbOnset	nback_response_time	nback_targetOnset	block	wm	trial	cue	cond	is_common	outcome_go	outcome_nogo	key_correct	key_pressed	is_correct	key_correct_nback	key_pressed_nback	is_correct_nback	outcome	rt	rt_nback	time_scan	time_onset	time_isi1	time_circle	time_isi2	time_feedback	time_same	time_correct	time_iti	time_done	timestamp_scan	DV	Qgo	Qnogo	SV	Wgo	Wnogo	mDV	Qchosen	Qunchosen	Wchosen	Wunchosen	PE	DVC	QgoC	QnogoC	SVC	WgoC	WnogoC	PEC	WchosenC	WunchosenC	QchosenC	QunchosenC	run	outcome_nback	nback_targetResp
0.0	7.859492699848488	nogo_punish	1.0	0.02364980010315776	1.4976670001633465	4.032688700128347	1.4740172000601888	1.0282302000559866	3.0118559000547975	7.081799100153148	0.4694368001073599	1.0208328000735492	0.8013433997984976	6.07568380003795	0.9429591000080108	5.046330600045621	1	1	61	4	nogo_punish	1	-1	0	0	0	1	0	0.0	1.0	0	1.0	0.9429591000080108	692.4158107999247	692.4394606000278	693.4440409999806	693.913477800088	695.4276666999795	696.448499500053	697.4621413999703	698.4914945999626	699.4976099000778	700.2989532998763	2019-12-31 19:05:42.790113	2.33604625763117	-7.6646686069708	-4.3870961237631	-4.54167754857099	-6.72314238139427	-4.3870961237631	-2.33604625763117	-4.3870961237631	-7.6646686069708	-4.3870961237631	-6.72314238139427	4.3870961237631	-4.361248313317438	-8.279940696478272	-5.1885624566662445	-8.4792260642695	-9.366193821914653	-5.1885624566662445	4.028551160583461	-9.45800229594916	-5.096753982631733	-8.42647782129169	-5.042025331852823	2	correct	1.0
7.89986260002479	8.98721529985778	go_punish	1.0	7.923512400127947	9.854446900077164	12.376048899954185	1.9309344999492168	8.933594500180334	11.360718599986285	15.431425099959597	0.9208523998968303	1.0153302999679	1.4793026000261307	14.421783300116658	0.6306576998904347	13.402620899956673	1	1	62	3	go_punish	1	0	-1	1	0	0	0	0.0	1.0	-1	1.0	0.6306576998904347	692.4158107999247	700.3393232000526	701.349405300105	702.2702577000018	703.7765293999109	704.7918596998788	705.8184316998813	706.8375941000413	707.8472358998843	709.3265384999104	2019-12-31 19:05:42.790113	-0.491512660272138	-4.80264883060605	-4.37737021496903	-4.8494020978751	-3.88585755469689	-4.37737021496903	0.491512660272138	-4.37737021496903	-4.80264883060605	-4.37737021496903	-3.88585755469689	-5.610119764299199	-7.188807231220746	-5.417920920113524	-5.178836547872175	-8.786950613573609	-6.528908995217272	-5.178836547872175	-5.968664727478838	-9.448276387155092	-2.2594691559343527	-8.41675191249762	-2.180005555488074	2	correct	1.0
16.92258629994467	7.906288600061089	nogo_reward	1.0	16.946236100047827	18.281686700182036	20.81153400009498	1.3354506001342088	17.954907400067896	19.797956299968064	23.8690514001064	0.3267793001141399	1.0135777001269162	0.9834733000025153	22.854623400140554	0.6252295000012964	21.827095600077882	1	1	63	2	nogo_reward	1	0	1	0	0	1	0	0.0	1.0	1	1.0	0.6252295000012964	692.4158107999247	709.3620468999725	710.3707181999926	710.6974975001067	712.2137670998927	713.2273448000196	714.2429064000025	715.2704342000652	716.2848622000311	717.2683355000336	2019-12-31 19:05:42.790113	7.10002234364692	0.0	8.96702367234457	7.51485208020159	1.86700132869764	8.96702367234457	-7.10002234364692	8.96702367234457	0.0	8.96702367234457	1.86700132869764	6.42286041527573	0.40272777269831206	-0.615272089507473	8.165557339441426	3.5773035645030795	-0.7760501118227423	8.165557339441426	6.064315452096092	3.8961175001585087	3.493389727460177	4.927641974815979	2.622643275117976	2	correct	1.0
24.863017400028184	8.70745739992708	nogo_punish	1.0	24.886667200131342	27.252195799956098	29.768765500048175	2.3655285998247564	25.894252200145274	28.75812470004894	32.81923849997111	1.3579435998108238	1.010640799999237	0.7748861000873148	31.80652490002103	0.3062793998979032	30.777031500125304	1	1	64	4	nogo_punish	1	-1	0	0	0	1	0	0.0	1.0	0	1.0	0.3062793998979032	692.4158107999247	717.302478000056	718.3100630000699	719.6680065998808	721.1739354999736	722.1845762999728	723.19284230005	724.2223356999457	725.2350492998958	726.0099353999831	2019-12-31 19:05:42.790113	4.16589001318766	-7.6646686069708	-2.48000005267014	-2.59209652521521	-6.64589006585781	-2.48000005267014	-4.16589001318766	-2.48000005267014	-7.6646686069708	-2.48000005267014	-6.64589006585781	2.48000005267014	-2.531404557760948	-8.279940696478272	-3.2814663855732844	-6.529645040913721	-9.288941506378192	-3.2814663855732844	2.121455089490501	-7.5509062248562016	-5.019501667095273	-6.519381750198731	-5.042025331852823	2	correct	1.0
33.60457079997286	9.50107380002737	nogo_punish	1.0	33.62822060007602	36.06665450008586	38.602045100182295	2.4384339000098407	34.64469530014321	37.582088000141084	41.651584800099954	1.4219591999426484	1.0199571000412107	1.4777096000034362	40.63844030001201	0.4876403999514878	39.62063749996014	1	1	65	4	nogo_punish	1	-1	0	0	0	1	0	0.0	1.0	0	1.0	0.4876403999514878	692.4158107999247	726.0440314000007	727.0605061000679	728.4824653000105	729.9978988000657	731.017855900107	732.0364482998848	733.0542510999367	734.0673956000246	735.545105200028	2019-12-31 19:05:42.790113	5.12750655389412	-7.6646686069708	-1.46330110260993	-1.54573584127258	-6.59080765650406	-1.46330110260993	-5.12750655389412	-1.46330110260993	-7.6646686069708	-1.46330110260993	-6.59080765650406	1.46330110260993	-1.5697880170544876	-8.279940696478272	-2.2647674355130745	-5.48328435697109	-9.233859097024443	-2.2647674355130745	1.1047561394302914	-6.534207274795992	-4.964419257741523	-5.502682800138521	-5.042025331852823	2	correct	1.0
43.13986560003832	7.9700299999676645	nogo_reward	1.0	43.16351540014148	44.52873979997821	47.06316520017572	1.365224399836734	44.179678600048646	46.04008110007271	50.10270050005056	0.3490611999295652	1.0230841001030058	1.0308449000585824	49.089534800034016	0.5360407999251038	48.0771996001713	1	1	66	2	nogo_reward	1	0	1	0	0	1	0	0.0	1.0	1	1.0	0.5360407999251038	692.4158107999247	735.5793262000661	736.5954893999733	736.9445505999029	738.4558918999974	739.4789760001004	740.493010400096	741.5053455999587	742.5185112999752	743.5493562000338	2019-12-31 19:05:42.790113	9.42823111850988	0.0	11.56825671013	10.6580879990349	2.14002559162014	11.56825671013	-9.42823111850988	11.56825671013	0.0	11.56825671013	2.14002559162014	3.8216273774903016	2.7309365475612717	-0.615272089507473	10.766790377226855	6.720539483336389	-0.5030258489002422	10.766790377226855	3.4630824143106627	6.497350537943937	3.766413990382677	7.528875012601408	2.622643275117976	2	correct	1.0
51.147219700040296	7.923223600024357	nogo_reward	1.0	51.17086950014345	52.60178770008497	55.13241920014843	1.430918199941516	52.177066599950194	54.11793139996007	58.19475500006229	0.42472110013477504	1.0144878001883626	0.8993381001055241	57.18194789998233	0.715290600201115	56.15395439998247	1	1	67	2	nogo_reward	0	1	0	0	0	1	0	0.0	1.0	0	1.0	0.715290600201115	692.4158107999247	743.5866803000681	744.5928773998749	745.0175985000096	746.5337421998847	747.5482300000731	748.5697651999071	749.597758699907	750.610565799987	751.5099039000925	2019-12-31 19:05:42.790113	10.7107837951592	0.0	13.0238956774103	12.4361020701888	2.31311188225114	13.0238956774103	-10.7107837951592	13.0238956774103	0.0	13.0238956774103	2.31311188225114	-13.0238956774103	4.013489224210592	-0.615272089507473	12.222429344507155	8.49855355449029	-0.3299395582692424	12.222429344507155	-13.38244064058994	7.952989505224238	3.939500281013677	8.984513979881708	2.622643275117976	2	correct	1.0
59.102525299880654	9.36570390011184	go_reward	0.3121180001180619	59.12617509998381	61.97017450002022	64.52585640014149	2.8439994000364095	60.131738000083715	63.50106839998625	67.57676600012928	1.8384364999365062	1.0247880001552403	0.9151129999663681	66.56346920016222	0.6437230000738055	65.53355440008454	1	1	68	1	go_reward	1	1	0	1	1	1	0	0.0	1.0	1	0.3121180001180619	0.6437230000738055	692.4158107999247	751.5419858999085	752.5475488000084	754.3859852999449	755.9168791999109	756.9416672000661	757.9493652000092	758.9792800000869	759.9925768000539	760.9076898000203	2019-12-31 19:05:42.790113	15.5284888007314	13.1044824800519	0.0	13.1044824800519	15.5284888007314	0.0	-15.5284888007314	13.1044824800519	0.0	15.5284888007314	0.0	2.285401607568401	8.831194229782792	12.489210390544427	-0.8014663329031446	9.16693396435339	12.885437360211018	-0.8014663329031446	1.9268566443887625	10.457582628545339	1.6263883987625374	9.06510078252331	2.622643275117976	2	correct	1.0
68.50006349990144	9.283809000160545	go_reward	0.3491781000047922	68.5237133000046	71.25313730002381	73.80638230009936	2.7294240000192076	69.52713629999198	72.78291540010832	76.85832660016604	1.7260010000318289	1.0234668999910355	0.9491956999991089	75.84581109997816	0.5791362000163645	74.81108850007877	1	1	69	1	go_reward	1	1	0	1	1	1	0	0.0	1.0	1	0.3491781000047922	0.5791362000163645	692.4158107999247	760.9395240999293	761.9429470999166	763.6689480999485	765.198726200033	766.222193100024	767.2268993000034	768.2616218999028	769.2741374000907	770.2233331000898	2019-12-31 19:05:42.790113	16.4869266200923	13.9824448053801	0.0	13.9824448053801	16.4869266200923	0.0	-16.4869266200923	13.9824448053801	0.0	16.4869266200923	0.0	1.407439282240201	9.789632049143695	13.367172715872627	-0.8014663329031446	10.044896289681589	13.843875179571919	-0.8014663329031446	1.0488943190605624	11.41602044790624	1.6263883987625374	9.943063107851508	2.622643275117976	2	correct	1.0
77.81943519995548	8.737486999947578	nogo_reward	1.0	77.84308500005864	79.52095020003617	82.04532210016623	1.677865199977532	78.84911560011096	81.02556960005313	85.08048940007575	0.6718345999252051	1.0197525001130998	1.5000825999304652	84.07633400009945	0.2863072000909596	83.06309529999271	1	1	70	2	nogo_reward	0	1	0	0	0	1	0	0.0	1.0	0	1.0	0.2863072000909596	692.4158107999247	770.2588957999833	771.2649264000356	771.9367609999608	773.4413803999778	774.4611329000909	775.4789060999174	776.4921448000241	777.4963002000004	778.9963827999309	2019-12-31 19:05:42.790113	5.57839166910084	0.0	7.49548263980443	7.1058510781178	1.91709097070359	7.49548263980443	-5.57839166910084	7.49548263980443	0.0	7.49548263980443	1.91709097070359	-7.49548263980443	-1.1189029018477674	-0.615272089507473	6.694016306901285	3.1683025624192895	-0.7259604698167923	6.694016306901285	-7.854027602984068	2.424576467618368	3.5434793694661275	3.456100942275839	2.622643275117976	2	correct	1.0
86.59210729994811	7.950860500102863	nogo_reward	1.0	86.61575710005127	88.12241129996255	90.65178370010108	1.5066541999112815	87.62264430010691	89.63759259996004	93.682889000047	0.49976699985563755	1.0141911001410335	0.8837286001071334	92.68049670010805	0.4626082999166101	91.66672360012308	1	1	71	2	nogo_reward	1	0	1	0	0	1	0	0.0	1.0	1	1.0	0.4626082999166101	692.4158107999247	779.0315678999759	780.0384551000316	780.5382220998872	782.0534033998847	783.0675945000257	784.0825344000477	785.0963075000327	786.0986997999717	786.9824284000788	2019-12-31 19:05:42.790113	2.83904808071396	0.0	4.51236589624514	4.24814442231689	1.67331781553118	4.51236589624514	-2.83904808071396	4.51236589624514	0.0	4.51236589624514	1.67331781553118	10.87751819137516	-3.858246490234648	-0.615272089507473	3.7108995633419957	0.31059590661837966	-0.9697336249892021	3.7108995633419957	10.51897322819552	-0.5585402759409215	3.2997062142937175	0.4729841987165493	2.622643275117976	2	correct	1.0
94.58289389987476	8.362966499989852	go_punish	0.3758980999700725	94.60654369997792	95.93842380004935	98.45946940011345	1.3318801000714302	95.6242070000153	97.45559850009158	101.5167898000218	0.3142168000340462	1.003870900021866	1.4527203999459743	100.50240820017643	0.5940194998402148	99.46636119997129	1	1	72	3	go_punish	1	0	-1	1	1	1	0	0.0	1.0	0	0.3758980999700725	0.5940194998402148	692.4158107999247	787.0223544999026	788.04001779994	788.354234599974	789.8714093000162	790.8752802000381	791.882171999896	792.9182190001011	793.9326005999465	795.3853209998924	2019-12-31 19:05:42.790113	2.67501667934414	-4.80264883060605	-6.68149987011662	-6.85791428118071	-4.00648319077249	-6.68149987011662	-2.67501667934414	-4.80264883060605	-6.68149987011662	-4.00648319077249	-6.68149987011662	4.80264883060605	-4.0222778916044675	-5.417920920113524	-7.482966203019765	-10.795462796879221	-6.649534631292871	-7.482966203019765	4.444103867426412	-9.077389362958552	-5.055111471354083	-8.842030528134641	-4.058856594998645	2	correct	1.0
102.97965330001898	9.56447930005379	nogo_punish	1.0	103.00330310012214	105.76874059997499	108.30443030013703	2.765437499852851	104.00694930017926	107.28467650013044	111.3599696001038	1.761791299795732	1.0197538000065833	1.2078128000721335	110.34054829995148	0.7464872999116778	109.32285300013609	1	1	73	4	nogo_punish	1	-1	0	0	0	1	0	0.0	1.0	0	1.0	0.7464872999116778	692.4158107999247	795.4191139000468	796.4227601001039	798.1845513998996	799.7004873000551	800.7202411000617	801.7386638000607	802.7563590998761	803.7757804000285	804.9835932001006	2019-12-31 19:05:42.790113	5.65482307382937	-7.6646686069708	-0.897424392197671	-0.958810893143235	-6.55224746602704	-0.897424392197671	-5.65482307382937	-0.897424392197671	-7.6646686069708	-0.897424392197671	-6.55224746602704	0.897424392197671	-1.0424714971192381	-8.279940696478272	-1.6988907251008156	-4.896359408841745	-9.195298906547421	-1.6988907251008156	0.5388794290180323	-5.9683305643837326	-4.925859067264502	-4.936806089726262	-5.042025331852823	2	correct	1.0
112.58067699987441	8.724128300091252	nogo_punish	1.0	112.60432679997757	114.46118350001052	116.98764150007628	1.8568567000329494	113.61853700014763	115.97248180001043	120.04692530003376	0.8426464998628944	1.0151597000658512	1.2815298000350595	119.03443750017323	0.5602983001153916	118.00489240000024	1	1	74	4	nogo_punish	1	-1	0	0	0	1	0	0.0	1.0	0	1.0	0.5602983001153916	692.4158107999247	805.0201375999022	806.0343478000723	806.8769942999352	808.3882925999351	809.4034523000009	810.4207031999249	811.4502483000979	812.4627360999584	813.7442658999935	2019-12-31 19:05:42.790113	5.95564261984082	-7.6646686069708	-0.569775237860344	-0.616006091815984	-6.52541785770116	-0.569775237860344	-5.95564261984082	-0.569775237860344	-7.6646686069708	-0.569775237860344	-6.52541785770116	0.569775237860344	-0.7416519511077881	-8.279940696478272	-1.3712415707634886	-4.553554607514494	-9.168469298221542	-1.3712415707634886	0.21123027468070527	-5.6406814100464056	-4.899029458938623	-4.609156935388935	-5.042025331852823	2	correct	1.0
121.33970310003497	8.01415009982884	go_reward	0.4715789000038057	121.36335290013812	122.94077540002763	125.49237620015629	1.577422499889508	122.37895629997365	124.47236709995195	128.54020290006883	0.561819100053981	1.0200091002043337	0.8373000998981297	127.52731669996865	0.7623114001471549	126.50601090001874	1	1	75	1	go_reward	0	0	1	1	1	1	0	0.0	1.0	0	0.4715789000038057	0.7623114001471549	692.4158107999247	813.7791637000628	814.7947670998983	815.3565861999523	816.8881778998766	817.9081870000809	818.9218216999434	819.9431274998933	820.9560136999935	821.7933137998916	2019-12-31 19:05:42.790113	17.0462646110918	14.4900033314338	0.0	14.4900033314338	17.0462646110918	0.0	-17.0462646110918	14.4900033314338	0.0	17.0462646110918	0.0	-14.4900033314338	10.348970040143193	13.874731241926327	-0.8014663329031446	10.552454815735288	14.403213170571417	-0.8014663329031446	-14.848548294613439	11.975358438905738	1.6263883987625374	10.450621633905207	2.622643275117976	2	correct	1.0
129.38904769998044	8.348061099881306	nogo_reward	1.0	129.4126975000836	130.96587199997157	133.50567460013554	1.553174499887973	130.41770640015602	132.48145249998197	136.5564558999613	0.5481655998155475	1.0242221001535654	1.204302700003609	135.54185260017402	0.4436072998214513	134.5187212000601	1	1	76	2	nogo_reward	1	0	1	0	0	1	0	0.0	1.0	1	1.0	0.4436072998214513	692.4158107999247	821.8285083000083	822.8335172000807	823.3816827998962	824.8972632999066	825.9214854000602	826.9345319999848	827.9576634000987	828.972266699886	830.1765693998896	2019-12-31 19:05:42.790113	7.17475104181571	0.0	9.20209127332008	9.01930864885449	2.02734023150437	9.20209127332008	-7.17475104181571	9.20209127332008	0.0	9.20209127332008	2.02734023150437	6.18779281430022	0.47745647086710186	-0.615272089507473	8.400624940416936	5.0817601331559805	-0.6157112090160122	8.400624940416936	5.829247851120582	4.131185101134019	3.653728630266907	5.16270957579149	2.622643275117976	2	correct	1.0
137.78842170001008	8.915389599977061	go_punish	0.3572085001505911	137.81207150011323	139.71710829995573	142.26864240015857	1.9050367998424917	138.81596500007436	141.24906780011952	145.31706869998015	0.9011432998813689	1.01957460003905	1.4103924001101404	144.3104640999809	0.5897826000582427	143.29248660011217	1	1	77	3	go_punish	1	0	-1	1	1	1	0	0.0	1.0	0	0.3572085001505911	0.5897826000582427	692.4158107999247	830.2278823000379	831.231775799999	832.1329190998804	833.6648786000442	834.6844532000832	835.7082974000368	836.7262748999055	837.7328794999048	839.143271900015	2019-12-31 19:05:42.790113	4.85641835190364	-2.74312353102634	-6.68149987011662	-3.93061506096717	-1.82508151821298	-6.68149987011662	-4.85641835190364	-2.74312353102634	-6.68149987011662	-1.82508151821298	-6.68149987011662	2.74312353102634	-1.8408762190449677	-3.358395620533813	-7.482966203019765	-7.86816357666568	-4.468132958733362	-7.482966203019765	2.384578567846701	-6.895987690399042	-5.055111471354083	-6.782505228554931	-4.058856594998645	2	correct	1.0
146.73893440002576	8.694444400025532	nogo_reward	1.0	146.7625842001289	148.6210159000475	151.15113380015828	1.858431699918583	147.7783413999714	150.13688010000624	154.20699430000968	0.8426745000761002	1.0142537001520395	1.2500343001447618	153.1931449000258	0.8368234999943525	152.16481860005297	1	1	78	2	nogo_reward	1	0	1	0	0	1	1	1.0	1.0	1	1.0	0.8368234999943525	692.4158107999247	839.1783950000536	840.194152199896	841.0368266999722	842.5526908999309	843.5669446000829	844.5806293999776	845.6089556999505	846.6228050999343	847.8728394000791	2019-12-31 19:05:42.790113	9.45817395971762	0.0	11.7036805422388	11.5750011781284	2.24550658252113	11.7036805422388	-9.45817395971762	11.7036805422388	0.0	11.7036805422388	2.24550658252113	3.6862035453815007	2.7608793887690117	-0.615272089507473	10.902214209335655	7.637452662429889	-0.39754485799925243	10.902214209335655	3.327658582201862	6.632774370052738	3.871894981283667	7.664298844710209	2.622643275117976	2	correct	1.0
155.474654099904	8.29635710013099	go_punish	0.635517599992454	155.49830390000716	156.78780930000357	159.33136900002137	1.2895053999964148	156.50754930009134	158.3195877999533	162.39506650017574	0.28025999991223216	1.0117812000680715	1.3995944999624044	161.38282639998943	0.4073758001904934	160.35096550011076	1	1	79	3	go_punish	1	0	-1	1	1	1	1	1.0	1.0	0	0.635517599992454	0.4073758001904934	692.4158107999247	847.9141146999318	848.923360100016	849.2036200999282	850.735398599878	851.747179799946	852.7667763000354	853.7986371999141	854.8108773001004	856.2104718000628	2019-12-31 19:05:42.790113	6.05090199821197	-1.63468136060056	-6.68149987011662	-2.34823663134728	-0.630597871904649	-6.68149987011662	-6.05090199821197	-1.63468136060056	-6.68149987011662	-0.630597871904649	-6.68149987011662	1.63468136060056	-0.6463925727366382	-2.249953450108033	-7.482966203019765	-6.2857851470457895	-3.2736493124250314	-7.482966203019765	1.2761363974209212	-5.7015040440907105	-5.055111471354083	-5.674063058129151	-4.058856594998645	2	correct	1.0
163.8066145000048	9.782951399916783	go_reward	0.24009590013884	163.83026430010796	166.60628259996884	169.14568690001033	2.77601829986088	164.84503580001183	168.1224720000755	172.19784100004472	1.7612467999570072	1.0232148999348283	1.4153746999800205	171.17845040000975	0.317454099887982	170.15997759997845	1	1	80	1	go_reward	1	1	0	1	1	1	0	0.0	1.0	1	0.24009590013884	0.317454099887982	692.4158107999247	856.2460751000326	857.2608465999365	859.0220933998935	860.5382828000002	861.561497699935	862.5757883999031	863.5942611999344	864.6136517999694	866.0290264999494	2019-12-31 19:05:42.790113	10.4994911322767	8.41736716948897	0.0	8.41736716948897	10.4994911322767	0.0	-10.4994911322767	8.41736716948897	0.0	10.4994911322767	0.0	6.972516918131332	3.802196561328093	7.8020950799814965	-0.8014663329031446	4.479818653790459	7.856439691756318	-0.8014663329031446	6.613971954951693	5.428584960090639	1.6263883987625374	4.377985471960378	2.622643275117976	2	correct	1.0
173.62457940005697	8.77084879996255	nogo_punish	1.0	173.64822920016013	175.44138410012238	177.97414440009743	1.7931548999622464	174.6636406001635	176.95321800000966	181.02457859995775	0.7777434999588877	1.0209264000877738	1.394499400164932	180.0208249001298	0.4796359001193195	178.99180890014395	1	1	81	4	nogo_punish	1	-1	0	0	0	1	0	0.0	1.0	0	1.0	0.4796359001193195	692.4158107999247	866.0640400000848	867.0794514000881	867.857194900047	869.3690287999343	870.3899552000221	871.4076197000686	872.4366357000545	873.4403893998824	874.8348888000473	2019-12-31 19:05:42.790113	6.13366832893744	-7.6646686069708	-0.373067900901212	-0.408241558103882	-6.50673622983865	-0.373067900901212	-6.13366832893744	-0.373067900901212	-7.6646686069708	-0.373067900901212	-6.50673622983865	0.373067900901212	-0.5636262420111677	-8.279940696478272	-1.1745342338043567	-4.345790073802392	-9.149787670359032	-1.1745342338043567	0.014522937721573259	-5.443974073087274	-4.880347831076113	-4.412449598429803	-5.042025331852823	2	correct	1.0
182.428202399984	9.479081700090319	go_reward	0.3798652000259608	182.45185220008716	184.92241930007003	187.47313860012218	2.4705670999828726	183.45454500010237	186.44969830010086	190.53495610016398	1.4678742999676615	1.0234403000213206	1.3959778000134975	189.52255620015785	0.3901052998844534	188.488279200159	1	1	82	1	go_reward	1	1	0	1	1	1	1	1.0	1.0	1	0.3798652000259608	0.3901052998844534	692.4158107999247	874.8676630000118	875.870355800027	877.3382300999947	878.8655091000255	879.8889494000468	880.9040900000837	881.9383670000825	882.9507669000886	884.3467447001021	2019-12-31 19:05:42.790113	13.7832765396298	11.4880313913902	0.0	11.4880313913902	13.7832765396298	0.0	-13.7832765396298	11.4880313913902	0.0	13.7832765396298	0.0	3.901852696230101	7.085981968681192	10.872759301882727	-0.8014663329031446	7.5504828756916895	11.140225099109417	-0.8014663329031446	3.543307733050462	8.712370367443738	1.6263883987625374	7.448649693861609	2.622643275117976	2	correct	1.0
191.94270509993657	9.253725399961695	nogo_punish	1.0	191.96635490003973	194.49170600017533	197.02325160009786	2.5253511001355946	192.9745875999797	196.00129070016555	200.0802633999847	1.5171184001956135	1.02196089993231	1.13981690001674	199.06003629998304	0.9243553001433612	198.0370975001715	1	1	83	4	nogo_punish	1	-1	0	0	0	1	1	1.0	1.0	0	1.0	0.9243553001433612	692.4158107999247	884.3821656999644	885.3903983999044	886.9075168001	888.4171015000902	889.4390624000225	890.4529083000962	891.4758470999077	892.4960741999093	893.6358910999261	2019-12-31 19:05:42.790113	6.24265510462614	-7.6646686069708	-0.251012172148783	-0.27802225051499	-6.49366727677492	-0.251012172148783	-6.24265510462614	-0.251012172148783	-7.6646686069708	-0.251012172148783	-6.49366727677492	0.251012172148783	-0.454639466322468	-8.279940696478272	-1.0524785050519276	-4.2155707662135	-9.136718717295302	-1.0524785050519276	-0.10753279103085572	-5.321918344334845	-4.867278878012383	-4.290393869677374	-5.042025331852823	2	correct	1.0
201.23177640000358	8.329260899918154	nogo_reward	1.0	201.25542620010674	202.61965140001848	205.14616650016978	1.3642251999117434	202.25855910009705	204.13292600004934	208.18498040013947	0.3610922999214381	1.013240500120446	1.399706699885428	207.1817752001807	0.7790876999497414	206.15328379999846	1	1	84	2	nogo_reward	1	0	1	0	0	1	0	0.0	1.0	1	1.0	0.7790876999497414	692.4158107999247	893.6712370000314	894.6743699000217	895.0354621999431	896.548736799974	897.5619773000944	898.5690945999231	899.5975860001054	900.6007912000641	902.0004978999496	2019-12-31 19:05:42.790113	10.7208016213279	0.0	13.1044971981779	13.0124933163729	2.38369557684996	13.1044971981779	-10.7208016213279	13.1044971981779	0.0	13.1044971981779	2.38369557684996	2.2853868894424014	4.023507050379291	-0.615272089507473	12.303030865274755	9.074944800674391	-0.25935586367042207	12.303030865274755	1.9268419262627627	8.033591025991837	4.010083975612497	9.06511550064931	2.622643275117976	2	correct	1.0
209.6007805999834	8.131450799992422	go_punish	0.4433478000573814	209.62443040008657	211.1879577001091	213.73969090008177	1.5635273000225425	210.63516680011537	212.71905590011738	216.7936715001705	0.5527908999937381	1.0206349999643862	0.9622096999084988	215.77902769995853	0.6928691999055445	214.7565089999697	1	1	85	3	go_punish	1	0	-1	1	1	1	0	0.0	1.0	0	0.4433478000573814	0.6928691999055445	692.4158107999247	902.0402412000112	903.05097760004	903.6037685000338	905.134866700042	906.1555017000064	907.1723197998944	908.1948384998832	909.2094823000951	910.1716920000036	2019-12-31 19:05:42.790113	6.73349150576231	-1.01191111255552	-6.68149987011662	-1.45624093534376	0.0519916356456918	-6.68149987011662	-6.73349150576231	-1.01191111255552	-6.68149987011662	0.0519916356456918	-6.68149987011662	1.01191111255552	0.03619693481370234	-1.627183202062993	-7.482966203019765	-5.39378945104227	-2.5910598048746905	-7.482966203019765	0.6533661493758813	-5.01891453654037	-5.055111471354083	-5.051292810084111	-4.058856594998645	2	correct	1.0
217.77166850003414	8.782401500036826	go_punish	0.7724353999365121	217.7953183001373	219.48593350010935	222.04339900007471	1.6906151999720578	218.79927400010638	221.02349849999894	225.09253050014377	0.6866595000029747	1.019900500075778	1.4851893000303562	224.08486580010492	0.6395376001019031	223.0518659001682	1	1	86	3	go_punish	1	0	-1	1	1	1	0	0.0	1.0	0	0.7724353999365121	0.6395376001019031	692.4158107999247	910.211129100062	911.215084800031	911.901744300034	913.4393092999236	914.4592097999994	915.4676767000929	916.5006766000296	917.5083413000684	918.9935306000988	2019-12-31 19:05:42.790113	7.13879708351541	-0.648003789219816	-6.68149987011662	-0.933725979870057	0.457297213398785	-6.68149987011662	-7.13879708351541	-0.648003789219816	-6.68149987011662	0.457297213398785	-6.68149987011662	0.648003789219816	0.4415025125668022	-1.263275878727289	-7.482966203019765	-4.871274495568567	-2.1857542271215973	-7.482966203019765	0.2894588260401773	-4.613608958787276	-5.055111471354083	-4.687385486748407	-4.058856594998645	2	correct	1.0
226.58925299998384	8.804927899967765	nogo_punish	1.0	226.612902800087	228.627857200103	231.1545790999661	2.014954400015995	227.62835060013458	230.14321270002972	234.21450880006898	0.999506599968413	1.011366399936378	1.2033218999857809	233.2018883000129	0.4821691999677568	232.1711612001527	1	1	87	4	nogo_punish	1	-1	0	0	0	1	0	0.0	1.0	0	1.0	0.4821691999677568	692.4158107999247	919.0287136000117	920.0441614000592	921.0436680000277	922.5590234999544	923.5703898998908	924.5869720000774	925.6176990999376	926.6303195999936	927.8336414999794	2019-12-31 19:05:42.790113	6.31147795388295	-7.6646686069708	-0.172983743878195	-0.193901184056516	-6.48446169776115	-0.172983743878195	-6.31147795388295	-0.172983743878195	-7.6646686069708	-0.172983743878195	-6.48446169776115	0.172983743878195	-0.3858166170656574	-8.279940696478272	-0.9744500767813397	-4.131449699755026	-9.127513138281532	-0.9744500767813397	-0.18556121930144373	-5.243889916064257	-4.858073298998613	-4.212365441406786	-5.042025331852823	2	correct	1.0
235.43097839993413	7.816960900090862	nogo_reward	1.0	235.4546282000373	236.9377776000183	239.4725850999821	1.4831493999810164	236.46886270004336	238.452775800135	242.51255900016974	0.46891489997494773	1.019809299847111	0.7590300999584088	241.508772399975	0.7117672001477331	240.49065130017698	1	1	88	2	nogo_reward	0	1	0	0	0	1	0	0.0	1.0	0	1.0	0.7117672001477331	692.4158107999247	927.870438999962	928.884673499968	929.353588399943	930.8685866000596	931.8883958999068	932.9064621001016	933.9245831998996	934.9283698000944	935.6873999000528	2019-12-31 19:05:42.790113	11.4498670263603	0.0	13.9231005510113	13.8564075303943	2.47323352465102	13.9231005510113	-11.4498670263603	13.9231005510113	0.0	13.9231005510113	2.47323352465102	-13.9231005510113	4.752572455411692	-0.615272089507473	13.121634218108156	9.91885901469579	-0.16981791586936223	13.121634218108156	-14.28164551419094	8.852194378825239	4.099621923413557	9.883718853482709	2.622643275117976	2	correct	1.0
243.28158169984818	8.623222100082785	go_reward	0.3779589999467134	243.30523149995133	245.27952510002058	247.82575760013412	1.9742936000692453	244.3065959000961	246.80230009998195	250.87141470005736	0.9729291999244651	1.0234575001521762	1.0570388999767601	249.8689302999992	0.6653783000074327	248.84012060007092	1	1	89	1	go_reward	1	1	0	1	1	1	0	0.0	1.0	1	0.3779589999467134	0.6653783000074327	692.4158107999247	935.721042299876	936.7224067000208	937.6953358999452	939.2181108999066	940.2415684000588	941.2559313999956	942.2847410999238	943.287225499982	944.3442643999588	2019-12-31 19:05:42.790113	15.5225141865699	13.0978108561986	0.0	13.0978108561986	15.5225141865699	0.0	-15.5225141865699	13.0978108561986	0.0	15.5225141865699	0.0	2.2920732314217	8.825219615621293	12.482538766691128	-0.8014663329031446	9.16026234050009	12.879462746049517	-0.8014663329031446	1.9335282682420611	10.451608014383838	1.6263883987625374	9.058429158670009	2.622643275117976	2	correct	1.0
251.93739269999776	8.51559889991779	go_reward	0.358300199965015	251.96104250010092	253.41408929997135	255.9493098000529	1.4530467998704353	252.97785779996775	254.94615480001096	259.00374229997396	0.43623150000360056	1.003155000041943	1.4728991000447422	257.9903069001158	0.6266260999254882	256.9658411000855	1	1	90	1	go_reward	1	1	0	1	1	1	0	0.0	1.0	1	0.358300199965015	0.6266260999254882	692.4158107999247	944.3768533000256	945.3936685998924	945.829900099896	947.3619655999356	948.3651205999776	949.3816519000102	950.4061177000405	951.4195530998986	952.8924521999434	2019-12-31 19:05:42.790113	16.4912167682645	13.9854932682465	0.0	13.9854932682465	16.4912167682645	0.0	-16.4912167682645	13.9854932682465	0.0	16.4912167682645	0.0	1.4043908193738002	9.793922197315894	13.370221178739028	-0.8014663329031446	10.047944752547991	13.848165327744118	-0.8014663329031446	1.0458458561941615	11.420310596078439	1.6263883987625374	9.94611157071791	2.622643275117976	2	correct	1.0
260.4912058999762	9.310795600060374	nogo_reward	1.0	260.51485570007935	263.00707940012217	265.53484980016935	2.492223700042814	261.5240176001097	264.52077920013096	268.5822686001194	1.4830618000124787	1.0140706000383943	1.2433827000203337	267.5696790001822	0.5031540999189019	266.540040299995	1	1	91	2	nogo_reward	1	0	1	0	0	1	0	0.0	1.0	1	1.0	0.5031540999189019	692.4158107999247	952.930666500004	953.9398284000343	955.4228902000468	956.9365900000556	957.950660600094	958.9558510999196	959.9854898001068	960.998079400044	962.2414621000644	2019-12-31 19:05:42.790113	6.01746698508198	0.0	8.0417042256725	7.99276004201428	2.02423724059052	8.0417042256725	-6.01746698508198	8.0417042256725	0.0	8.0417042256725	2.02423724059052	7.3481798619478	-0.6798275858666276	-0.615272089507473	7.240237892769356	4.0552115263157695	-0.6188141999298624	7.240237892769356	6.989634898768162	2.9707980534864387	3.6506256393530574	4.002322528143909	2.622643275117976	2	correct	1.0
269.8375403999818	8.611938100075236	nogo_reward	0.3238666001707315	269.86119020008493	272.02255200012576	274.56457830010913	2.1613618000408223	270.86552200000733	273.5427763001062	277.6048759999685	1.157030000118425	1.0218020000029355	0.8682523001916707	276.591982500162	0.4619831000454724	275.57418370014057	1	1	92	2	nogo_reward	1	0	1	0	1	0	0	0.0	1.0	0	0.3238666001707315	0.4619831000454724	692.4158107999247	962.2770010000096	963.281332799932	964.4383628000504	965.9585871000309	966.9803891000338	967.9899945000652	969.0077933000866	970.0206867998932	970.8889391000848	2019-12-31 19:05:42.790113	-8.97905313421591	0.0	11.2334192461778	11.197100220218	2.25436611196188	11.2334192461778	8.97905313421591	0.0	11.2334192461778	2.25436611196188	11.2334192461778	0.0	-15.676347705164517	-0.615272089507473	10.431952913274655	7.259551704519489	-0.38868532855850235	10.431952913274655	-0.35854496317963874	-2.816540060224182	12.859807644940338	-4.039381697528591	13.856062521295776	2	correct	1.0
278.49033539998334	8.045852799900103	go_punish	0.821674200007692	278.5139852000865	279.858692600159	282.41529400018055	1.3447074000724797	279.5141932000405	281.39518780005176	285.4503212000709	0.34449940011847957	1.0201062001287937	1.1095167999156956	284.44873820012435	0.7857059000525624	283.4327565000857	1	1	93	3	go_punish	1	0	-1	1	1	1	0	1.0	0.0	0	0.821674200007692	0.7857059000525624	692.4158107999247	970.9297960000112	971.9300039999652	972.2745034000836	973.8109985999764	974.8311048001052	975.8485673000104	976.864549000049	977.8661319999956	978.9756487999113	2019-12-31 19:05:42.790113	7.38788446945726	-0.427609238400388	-6.68149987011662	-0.616703284590962	0.706384599340641	-6.68149987011662	-7.38788446945726	-0.427609238400388	-6.68149987011662	0.706384599340641	-6.68149987011662	0.427609238400388	0.6905898985086525	-1.042881327907861	-7.482966203019765	-4.554251800289472	-1.9366668411797412	-7.482966203019765	0.06906427522074926	-4.364521572845421	-5.055111471354083	-4.466990935928979	-4.058856594998645	2	wrong	1.0
286.5716444000136	9.79333719983697	nogo_punish	1.0	286.59529420011677	289.5779455001466	292.09243010007776	2.982651300029829	287.61044830014	291.0743939001113	295.13256060006097	1.967497200006619	1.0180361999664456	1.2560707998927683	294.11995580000814	0.51054219994694	293.1019227001817	1	1	94	4	nogo_punish	1	-1	0	0	0	1	0	0.0	1.0	0	1.0	0.51054219994694	692.4158107999247	979.0111050000414	980.0262591000646	981.9937563000713	983.490204700036	984.5082409000024	985.5177335001064	986.5357665999328	987.5483713999856	988.8044421998784	2019-12-31 19:05:42.790113	6.35617888704541	-7.6646686069708	-0.121746166008067	-0.138071569086227	-6.47792505305348	-0.121746166008067	-6.35617888704541	-0.121746166008067	-7.6646686069708	-0.121746166008067	-6.47792505305348	0.121746166008067	-0.34111568390319746	-8.279940696478272	-0.9232124989112116	-4.075620084784737	-9.120976493573862	-0.9232124989112116	-0.23679879717157176	-5.1926523381941285	-4.851536654290943	-4.161127863536658	-5.042025331852823	2	correct	1.0
296.4061230998486	8.322641900041958	go_punish	0.314506399910897	296.4297728999518	297.9378534001297	300.4934177000541	1.5080805001779254	297.4389561000281	299.46986449998815	303.52514389995497	0.4988973001015893	1.023553200065976	1.227270900038775	302.511301800143	0.69125029980205	301.50021130009554	1	1	95	3	go_punish	0	-1	0	1	1	1	1	0.0	0.0	-1	0.314506399910897	0.69125029980205	692.4158107999247	988.8455836998764	989.8547668999528	990.3536642000544	991.8856752999128	992.9092284999788	993.9160221000202	994.9271126000676	995.9409546998796	997.1682255999184	2019-12-31 19:05:42.790113	7.54575237332544	-0.289727933608299	-6.68149987011662	-0.418117623917341	0.864252503208816	-6.68149987011662	-7.54575237332544	-0.289727933608299	-6.68149987011662	0.864252503208816	-6.68149987011662	-9.69776204565993	0.8484578023768323	-0.905000023115772	-7.482966203019765	-4.355666139615851	-1.7787989373115662	-7.482966203019765	-10.05630700883957	-4.206653668977246	-5.055111471354083	-4.32910963113689	-4.058856594998645	2	wrong	1.0
304.76270819990896	8.991302800132075	go_reward	0.2834280000533908	304.7863580000121	306.8329796001782	309.38751270016655	2.046621600166077	305.7937035001813	308.3643304000143	312.4250062999781	1.0392760999968687	1.023182300152257	1.352654500166068	311.4245131001808	0.8410944999195635	310.4023671001196	1	1	96	1	go_reward	1	1	0	1	1	1	0	0.0	1.0	1	0.2834280000533908	0.8410944999195635	692.4158107999247	997.2021687999368	998.209514300106	999.2487904001028	1000.780141199939	1001.8033235000912	1002.8181779000442	1003.8403239001054	1004.8408170999028	1006.1934716000688	2019-12-31 19:05:42.790113	17.0549178334042	14.4972485512013	0.0	14.4972485512013	17.0549178334042	0.0	-17.0549178334042	14.4972485512013	0.0	17.0549178334042	0.0	0.8926355364190002	10.357623262455594	13.881976461693828	-0.8014663329031446	10.55970003550279	14.411866392883818	-0.8014663329031446	0.5340905732393615	11.984011661218139	1.6263883987625374	10.457866853672709	2.622643275117976	2	correct	1.0
313.7942005998922	8.387588600162417	go_punish	0.3638956998474896	313.81785039999534	315.6075792000629	318.1452008001505	1.7897288000675644	314.81984280003235	317.1281898000743	321.1902278000489	0.7877364000305533	1.0170110000761952	1.0152112001088653	320.1866912001277	0.5636829999275506	319.1608675001189	1	1	97	3	go_punish	0	-1	0	1	1	1	1	1.0	1.0	-1	0.3638956998474896	0.5636829999275506	692.4158107999247	1006.23366119992	1007.235653599957	1008.0233899999876	1009.544000599999	1010.5610116000752	1011.5766783000436	1012.6025020000524	1013.6060385999735	1014.6212498000824	2019-12-31 19:05:42.790113	3.36317711846756	-4.28055261110574	-6.68149987011662	-4.36972688615807	-3.31832275164906	-6.68149987011662	-3.36317711846756	-4.28055261110574	-6.68149987011662	-3.31832275164906	-6.68149987011662	-5.706937368162489	-3.3341174524810477	-4.895824700613213	-7.482966203019765	-8.307275401856579	-5.961374192169442	-7.482966203019765	-6.065482331342127	-8.389228923835121	-5.055111471354083	-8.31993430863433	-4.058856594998645	2	correct	1.0
322.2198260999286	9.375833699945247	nogo_punish	1.0	322.24347590003174	324.59538129996497	327.1057607999537	2.35190539993323	323.26174500002537	326.0967505001463	330.1500299000181	1.3336362999395988	1.0090102998074144	1.4692796999588609	329.1466039000079	0.5139817998278886	328.11641949997295	1	1	98	4	nogo_punish	0	0	-1	0	0	1	0	0.0	1.0	-1	1.0	0.5139817998278886	692.4158107999247	1014.6592866999564	1015.67755579995	1017.0111920998896	1018.512561300071	1019.5215715998784	1020.5322302998976	1021.5624146999326	1022.5658406999428	1024.0351203999016	2019-12-31 19:05:42.790113	6.38595863437588	-7.6646686069708	-0.0872849301364096	-0.100117967291078	-6.47324356451229	-0.0872849301364096	-6.38595863437588	-0.0872849301364096	-7.6646686069708	-0.0872849301364096	-6.47324356451229	-9.90020504913182	-0.3113359365727275	-8.279940696478272	-0.8887512630395542	-4.0376664829895885	-9.116295005032672	-0.8887512630395542	-10.25875001231146	-5.158191102322472	-4.846855165749753	-4.126666627665001	-5.042025331852823	2	correct	1.0
331.6314659998752	8.286483600037172	nogo_reward	0.346040999982506	331.6551157999784	333.3965100001078	335.94628050015285	1.7413942001294345	332.66293410002254	334.9278255000245	338.9776455000974	0.7335759000852704	1.0184550001283696	0.9639538999181241	337.975232700119	0.7113266000524163	336.96305040013976	1	1	99	2	nogo_reward	0	1	0	0	1	0	0	0.0	1.0	1	0.346040999982506	0.7113266000524163	692.4158107999247	1024.070926599903	1025.0787448999472	1025.8123208000325	1027.3436362999491	1028.3620913000775	1029.3788612000644	1030.3910435000437	1031.393456300022	1032.3574101999402	2019-12-31 19:05:42.790113	-9.34609210552203	0.0	11.2334192461778	6.51645132365553	1.88732714065575	11.2334192461778	9.34609210552203	0.0	11.2334192461778	1.88732714065575	11.2334192461778	15.3898840876203	-16.04338667647064	-0.615272089507473	10.431952913274655	2.5789028079570198	-0.7557242998646323	10.431952913274655	15.031339124440661	-3.1835790315303116	12.859807644940338	-4.039381697528591	13.856062521295776	2	correct	1.0
339.9509280999191	8.592251300113276	go_reward	0.3732873999979347	339.97457790002227	341.7321006001439	344.2835460000206	1.7575227001216263	340.96611190005206	343.2635999000631	347.32326030009426	0.7659887000918388	1.0199460999574512	1.2435689000412822	346.30956019996665	0.7791698998771608	345.290282699978	1	1	100	1	go_reward	0	0	1	1	1	1	0	1.0	0.0	0	0.3732873999979347	0.7791698998771608	692.4158107999247	1032.390388699947	1033.3819226999767	1034.1479114000686	1035.6794106999878	1036.6993567999452	1037.7060934999026	1038.7253709998913	1039.739071100019	1040.9826400000602	2019-12-31 19:05:42.790113	17.3958212074109	14.8041440242289	0.0	14.8041440242289	17.3958212074109	0.0	-17.3958212074109	14.8041440242289	0.0	17.3958212074109	0.0	-14.8041440242289	10.698526636462294	14.188871934721428	-0.8014663329031446	10.866595508530391	14.752769766890518	-0.8014663329031446	-15.16268898740854	12.324915035224839	1.6263883987625374	10.76476232670031	2.622643275117976	2	wrong	1.0
348.5804967000149	9.475688199978322	nogo_punish	1.0	348.6041465001181	351.1529349000193	353.6801714999601	2.548788399901241	349.6170807001181	352.6601984000299	356.7273170000408	1.5358541999012232	1.019973099930212	1.3525177000556141	355.71704260003753	0.5658917999826372	354.6986023001373	1	1	101	4	nogo_punish	1	-1	0	0	0	1	0	0.0	1.0	0	1.0	0.5658917999826372	692.4158107999247	1041.0199573000427	1042.0328915000428	1043.568745699944	1045.0760091999546	1046.0959822998848	1047.114413100062	1048.1328533999622	1049.1431277999654	1050.495645500021	2019-12-31 19:05:42.790113	2.53238265012786	-7.6646686069708	-4.14324910760139	-4.15340400499225	-6.67563175772926	-4.14324910760139	-2.53238265012786	-4.14324910760139	-7.6646686069708	-4.14324910760139	-6.67563175772926	4.14324910760139	-4.164911920820748	-8.279940696478272	-4.944715440504535	-8.09095252069076	-9.318683198249643	-4.944715440504535	3.784704144421751	-9.214155279787452	-5.049243358966723	-8.182630805129982	-5.042025331852823	2	correct	1.0
358.09683339996263	9.076344199944288	go_punish	0.3553115997929126	358.1204832000658	360.70018970011733	363.2558904001489	2.579706500051543	359.13022330007516	362.23605790012516	366.29749869997613	1.5699664000421762	1.0198325000237674	0.8993287000339478	365.28634140011854	0.7381996000185609	364.2732661999762	1	1	102	3	go_punish	1	0	-1	1	1	1	0	1.0	0.0	0	0.3553115997929126	0.7381996000185609	692.4158107999247	1050.5362939999904	1051.5460340999998	1053.116000500042	1054.6518687000498	1055.6717012000736	1056.6890769999009	1057.7021522000432	1058.7133094999008	1059.6126381999347	2019-12-31 19:05:42.790113	1.01831599400357	-6.49103894085742	-6.68149987011662	-6.55423291929532	-5.66318387611306	-6.68149987011662	-1.01831599400357	-6.49103894085742	-6.68149987011662	-5.66318387611306	-6.68149987011662	6.49103894085742	-5.678978576945038	-7.106311030364893	-7.482966203019765	-10.491781434993829	-8.306235316633442	-7.482966203019765	6.132493977677782	-10.734090048299123	-5.055111471354083	-10.530420638386012	-4.058856594998645	2	wrong	1.0
367.20806470001116	8.818585699889809	go_reward	0.31041290005669	367.2317145001143	369.10606300015934	371.65937270014524	1.8743485000450164	368.2475042999722	370.63758670003153	374.701132300077	0.8585587001871318	1.021786000113707	1.3491678999271244	373.6890933001414	0.6450058999471366	372.67448769998737	1	1	103	1	go_reward	1	1	0	1	1	1	0	0.0	1.0	1	0.31041290005669	0.6450058999471366	692.4158107999247	1059.647525300039	1060.6633150998969	1061.521873800084	1063.0533974999562	1064.07518350007	1065.090298499912	1066.104904100066	1067.1169431000017	1068.4661109999288	2019-12-31 19:05:42.790113	10.7227882555114	8.61659723966915	0.0	8.61659723966915	10.7227882555114	0.0	-10.7227882555114	8.61659723966915	0.0	10.7227882555114	0.0	6.77328684795115	4.025493684562792	8.001325150161678	-0.8014663329031446	4.679048723970641	8.079736814991017	-0.8014663329031446	6.414741884771511	5.651882083325338	1.6263883987625374	4.57721554214056	2.622643275117976	2	correct	1.0
376.061481700046	9.228227899875492	nogo_punish	1.0	376.08513150014915	378.52008739998564	381.04821100016125	2.4349558998364955	377.0867117000744	380.03817240009084	384.10148499999195	1.4333756999112666	1.010038600070402	1.2118744000326842	383.0866555001121	0.3767057999502867	382.06674659997225	1	1	104	4	nogo_punish	1	-1	0	0	0	1	0	1.0	0.0	0	1.0	0.3767057999502867	692.4158107999247	1068.5009423000738	1069.502522499999	1070.9358981999103	1072.4539832000155	1073.464021800086	1074.482557399897	1075.5024663000368	1076.5172957999166	1077.7291701999493	2019-12-31 19:05:42.790113	4.29544518242592	-7.6646686069708	-2.31624020113831	-2.32432557809301	-6.61168538356423	-2.31624020113831	-4.29544518242592	-2.31624020113831	-7.6646686069708	-2.31624020113831	-6.61168538356423	2.31624020113831	-2.401849388522688	-8.279940696478272	-3.1177065340414547	-6.26187409379152	-9.254736824084612	-3.1177065340414547	1.9576952379586714	-7.387146373324372	-4.985296984801693	-6.355621898666901	-5.042025331852823	2	wrong	1.0
385.323326600017	8.534951499896124	go_reward	0.5989096998237073	385.3469764001202	386.9065869001206	389.45143540017284	1.5596105000004172	386.34486910002283	388.4285363999661	392.49832180002704	0.5617178000977674	1.0228990002067349	1.3836060999892652	391.48520910018124	0.4815505999140441	390.4659176999703	1	1	105	1	go_reward	1	1	0	1	1	1	1	0.0	0.0	1	0.5989096998237073	0.4815505999140441	692.4158107999247	1077.7627872000448	1078.7606798999475	1079.3223977000453	1080.8443471998908	1081.8672462000975	1082.881728499895	1083.901019900106	1084.9141325999517	1086.297738699941	2019-12-31 19:05:42.790113	13.9306666962994	11.6187630975478	0.0	11.6187630975478	13.9306666962994	0.0	-13.9306666962994	11.6187630975478	0.0	13.9306666962994	0.0	3.7711209900725002	7.233372125350793	11.003491008040328	-0.8014663329031446	7.68121458184929	11.287615255779018	-0.8014663329031446	3.4125760268928613	8.859760524113339	1.6263883987625374	7.5793814000192095	2.622643275117976	2	wrong	1.0
393.89188089990057	7.879998099990189	nogo_punish	1.0	393.9155307000037	395.30935430014483	397.8310526001733	1.3938236001411042	394.9196166000329	396.82058980013244	400.87798999994993	0.38973770011193665	1.010462800040841	0.9175388000439852	399.8624550001696	0.4440262999851256	398.84951329999603	1	1	106	4	nogo_punish	1	-1	0	0	0	1	1	1.0	1.0	0	1.0	0.4440262999851256	692.4158107999247	1086.3313414999284	1087.3354273999576	1087.7251651000695	1089.236400600057	1090.246863400098	1091.2653240999207	1092.2782658000942	1093.2938007998746	1094.2113395999186	2019-12-31 19:05:42.790113	5.21494925612555	-7.6646686069708	-1.35102624810915	-1.35750102979934	-6.5659755042347	-1.35102624810915	-5.21494925612555	-1.35102624810915	-7.6646686069708	-1.35102624810915	-6.5659755042347	1.35102624810915	-1.4823453148230579	-8.279940696478272	-2.152492581012295	-5.29504954549785	-9.209026944755083	-2.152492581012295	0.9924812849295113	-6.421932420295212	-4.939587105472163	-5.390407945637741	-5.042025331852823	2	correct	1.0
401.805069899885	9.372445299988613	go_reward	0.299444300122559	401.82871969998814	404.46605010004714	407.0070458999835	2.6373304000589997	402.84752209996805	405.99227300006896	410.0481537000742	1.6185280000790954	1.014772899914533	1.1530112999025732	409.02889350010105	1.0	408.0203674000222	1	1	107	1	go_reward	1	1	0	1	1	1	1	n/a	0.0	0	0.299444300122559	1.0	692.4158107999247	1094.2445304999128	1095.2633328998927	1096.8818608999718	1098.4080837999936	1099.4228566999082	1100.4361781999469	1101.4447043000257	1102.4639644999988	1103.6169757999014	2019-12-31 19:05:42.790113	15.6226264163126	13.1861984537591	0.0	13.1861984537591	15.6226264163126	0.0	-15.6226264163126	13.1861984537591	0.0	15.6226264163126	0.0	2.2036856338612	8.925331845363992	12.570926364251628	-0.8014663329031446	9.248649938060591	12.979574975792218	-0.8014663329031446	1.8451406706815614	10.551720244126539	1.6263883987625374	9.14681675623051	2.622643275117976	2	missed	0.0
411.21424339991063	8.567653500009328	go_reward	0.3515739000868052	411.2378932000138	413.29004430002533	415.8357488999609	2.0521511000115424	412.24416110012703	414.82147409999743	418.85923700011335	1.0458831998982987	1.0142747999634594	0.9463096999097615	417.85487919999287	0.3820740999653935	416.84131090017036	1	1	108	1	go_reward	1	1	0	1	1	1	0	0.0	1.0	1	0.3515739000868052	0.3820740999653935	692.4158107999247	1103.6537039999384	1104.6599719000517	1105.70585509995	1107.237284899922	1108.2515596998855	1109.257121700095	1110.2706899999175	1111.275047800038	1112.2213574999478	2019-12-31 19:05:42.790113	9.67462669474768	7.66869460728796	0.0	7.66869460728796	9.67462669474768	0.0	-9.67462669474768	7.66869460728796	0.0	9.67462669474768	0.0	7.721189480332341	2.977332123799072	7.053422517780486	-0.8014663329031446	3.7311460915894497	7.031575254227297	-0.8014663329031446	7.362644517152702	4.603720522561618	1.6263883987625374	3.629312909759369	2.622643275117976	2	correct	1.0
419.8151215999385	8.28605609992519	go_reward	0.3074600000400096	419.83877140004165	421.47798279998824	424.03298160014674	1.6392113999465892	420.83153129997663	423.00935880001634	427.08432959998026	0.646451500011608	1.023622800130397	1.0404978999865762	426.0651885000989	0.4175672000274062	425.0480553000234	1	1	109	1	go_reward	1	1	0	1	1	1	1	1.0	1.0	1	0.3074600000400096	0.4175672000274062	692.4158107999247	1112.2545821999663	1113.2473420999013	1113.893793599913	1115.425169599941	1116.4487924000714	1117.463866099948	1118.4809993000235	1119.500140399905	1120.5406382998915	2019-12-31 19:05:42.790113	13.2886367005534	11.0427422972891	0.0	11.0427422972891	13.2886367005534	0.0	-13.2886367005534	11.0427422972891	0.0	13.2886367005534	0.0	4.3471417903312	6.591342129604793	10.427470207781628	-0.8014663329031446	7.10519378159059	10.645585260033018	-0.8014663329031446	3.9885968271515613	8.217730528367339	1.6263883987625374	7.0033605997605095	2.622643275117976	2	correct	1.0
428.1370830000378	9.542368900030851	nogo_punish	1.0	428.160732800141	430.8777803000994	433.40311520011164	2.7170474999584258	429.1752319999505	432.3831714000553	436.4566661999561	1.7025483001489192	1.0199438000563532	1.246435500215739	435.4474311999511	0.5943032000213861	434.4207266999874	1	1	110	4	nogo_punish	1	-1	0	0	0	1	0	0.0	1.0	0	1.0	0.5943032000213861	692.4158107999247	1120.5765436000656	1121.5910427998751	1123.293591100024	1124.79898219998	1125.8189260000363	1126.836537499912	1127.8632419998758	1128.8724769998807	1130.1189125000965	2019-12-31 19:05:42.790113	5.71505279935885	-7.6646686069708	-0.819018804853233	-0.824231848772077	-6.53407160421208	-0.819018804853233	-5.71505279935885	-0.819018804853233	-7.6646686069708	-0.819018804853233	-6.53407160421208	0.819018804853233	-0.9822417715897576	-8.279940696478272	-1.6204851377563776	-4.761780364470587	-9.177123044732463	-1.6204851377563776	0.46047384167359423	-5.8899249770392945	-4.907683205449543	-4.858400502381824	-5.042025331852823	2	correct	1.0
437.71449330006726	8.24203550000675	go_reward	1.0	437.7381431001704	439.4006864000112	441.9239252000116	1.6625432998407632	438.7443729999941	440.90985030005686	444.98004800011404	0.6563134000170976	1.0140748999547213	1.0001306000631303	443.96708370000124	0.405399200040847	442.93918210011884	1	1	111	1	go_reward	0	0	1	1	0	0	1	1.0	1.0	1	1.0	0.405399200040847	692.4158107999247	1130.153953900095	1131.1601837999187	1131.8164971999358	1133.3256610999815	1134.3397359999362	1135.3549929000435	1136.382894499926	1137.3958588000387	1138.3959894001018	2019-12-31 19:05:42.790113	-15.2169060137777	12.8246969095857	0.0	12.8246969095857	15.2169060137777	0.0	15.2169060137777	0.0	12.8246969095857	0.0	15.2169060137777	15.3898840876203	-21.91420058472631	12.209424820078228	-0.8014663329031446	8.887148393887191	12.573854573257318	-0.8014663329031446	15.031339124440661	-5.070906172186062	16.84329441254024	-4.039381697528591	15.447340184703677	2	correct	1.0
445.9906488999259	8.965060800081119	nogo_punish	1.0	446.01429870002903	448.44031560001895	450.97952269995585	2.426016899989918	447.01908560004085	449.95616660011024	454.0170714999549	1.4212299999780953	1.0233560998456142	0.9622880001552403	453.01385950017743	0.6651272000744939	451.98435940011404	1	1	112	4	nogo_punish	0	0	-1	0	0	1	1	1.0	1.0	-1	1.0	0.6651272000744939	692.4158107999247	1138.4301094999537	1139.4348963999655	1140.8561263999436	1142.371977400035	1143.3953334998805	1144.4001702000387	1145.429670300102	1146.4328822998796	1147.3951703000348	2019-12-31 19:05:42.790113	5.99789121537023	-7.6646686069708	-0.51411737402986	-0.51833586487788	-6.51200858940009	-0.51411737402986	-5.99789121537023	-0.51411737402986	-7.6646686069708	-0.51411737402986	-6.51200858940009	-9.473372605238369	-0.6994033555783776	-8.279940696478272	-1.3155837069330047	-4.45588438057639	-9.155060029920472	-1.3155837069330047	-9.831917568418008	-5.585023546215922	-4.885620190637553	-4.553499071558451	-5.042025331852823	2	correct	1.0
454.99195629986934	8.870112500153482	nogo_punish	1.0	455.0156060999725	456.97864590003155	459.5147135001607	1.9630398000590503	456.02091670013033	458.49420029995963	462.56399499997497	0.9577291999012232	1.0205132002010942	1.3217236001510173	461.5510138000827	0.4660168001428246	460.5325041001197	1	1	113	4	nogo_punish	1	-1	0	0	0	1	0	0.0	1.0	0	1.0	0.4660168001428246	692.4158107999247	1147.4314168998972	1148.436727500055	1149.3944566999562	1150.9100110998843	1151.9305243000854	1152.9483149000444	1153.9668246000074	1154.9798057998996	1156.3015294000506	2019-12-31 19:05:42.790113	2.2899206588308	-7.6646686069708	-4.41261807982158	-4.41604808449034	-6.70253873865237	-4.41261807982158	-2.2899206588308	-4.41261807982158	-7.6646686069708	-4.41261807982158	-6.70253873865237	4.41261807982158	-4.407373912117808	-8.279940696478272	-5.214084412724724	-8.353596600188851	-9.345590179172753	-5.214084412724724	4.054073116641941	-9.48352425200764	-5.076150339889833	-8.45199977735017	-5.042025331852823	2	correct	1.0
463.8972128999885	7.926974999951199	nogo_punish	1.0	463.9208627000917	465.49810419999994	468.0289239999838	1.5772414999082685	464.936403500149	467.00912520010024	471.07958770007826	0.5617006998509169	1.0197987998835742	0.7682499999646097	470.066799600143	0.4093702998943627	469.04628779995255	1	1	114	4	nogo_punish	1	-1	0	0	0	1	1	1.0	1.0	0	1.0	0.4093702998943627	692.4158107999247	1156.3366735000163	1157.3522143000737	1157.9139149999246	1159.424936000025	1160.4447347999085	1161.4620985998772	1162.4826104000676	1163.495398500003	1164.2636484999675	2019-12-31 19:05:42.790113	4.13952618791668	-7.6646686069708	-2.49096629426833	-2.49376778270177	-6.63049248218502	-2.49096629426833	-4.13952618791668	-2.49096629426833	-7.6646686069708	-2.49096629426833	-6.63049248218502	2.49096629426833	-2.557768383031928	-8.279940696478272	-3.2924326271714746	-6.43131629840028	-9.273543922705402	-3.2924326271714746	2.132421331088691	-7.561872466454392	-5.004104083422483	-6.530347991796921	-5.042025331852823	2	correct	1.0
471.8590863998977	8.459864800097648	go_reward	0.5969630999024957	471.88273620000086	473.741538700182	476.2928903000429	1.8588025001811275	472.8985377000645	475.27309200004674	479.3491639001295	0.8430010001175106	1.0197982999961823	0.9934370999690145	478.33038590010256	0.8232231999281794	477.308347400045	1	1	115	1	go_reward	1	1	0	1	1	1	0	1.0	0.0	1	0.5969630999024957	0.8232231999281794	692.4158107999247	1164.2985469999255	1165.3143484999891	1166.1573495001066	1167.6889027999714	1168.7087010999676	1169.7241581999697	1170.7461967000272	1171.7649747000542	1172.7584118000232	2019-12-31 19:05:42.790113	8.93056966595802	12.8246969095857	6.37813891065449	13.8134317918243	15.3087085766125	6.37813891065449	-8.93056966595802	12.8246969095857	6.37813891065449	15.3087085766125	6.37813891065449	2.5651871780346003	2.233275095009412	12.209424820078228	5.576672577751346	9.87588327612579	12.665657136092117	5.576672577751346	2.2066422148549614	10.237802404426438	8.004527309417028	8.78531521205711	9.000782185772467	2	wrong	1.0
480.3537260000594	8.737366499844711	nogo_punish	1.0	480.37737580016255	482.60169020015724	485.13726230012253	2.2243143999946824	481.38252830016427	484.11728320014663	488.1838730999734	1.2191618999929688	1.0199790999758989	0.9308692000338397	487.1714076001663	0.3726401999592781	486.15090130013414	1	1	116	4	nogo_punish	1	-1	0	0	0	1	1	1.0	1.0	0	1.0	0.3726401999592781	692.4158107999247	1172.7931866000872	1173.798339100089	1175.017501000082	1176.5330940000713	1177.5530731000472	1178.5667121000588	1179.587218400091	1180.599683899898	1181.530553099932	2019-12-31 19:05:42.790113	5.11203888080908	-7.6646686069708	-1.4671858080952	-1.46948372675642	-6.57922468890428	-1.4671858080952	-5.11203888080908	-1.4671858080952	-7.6646686069708	-1.4671858080952	-6.57922468890428	1.4671858080952	-1.5852556901395278	-8.279940696478272	-2.268652140998345	-5.40703224245493	-9.222276129424662	-2.268652140998345	1.1086408449155614	-6.538091980281262	-4.952836290141743	-5.506567505623791	-5.042025331852823	2	correct	1.0
489.12651519989595	9.258077200036723	nogo_reward	0.3606489000376314	489.1501649999991	491.4548270001542	494.00768720009364	2.3046620001550764	490.16921019996516	492.98696260014526	497.0586773001123	1.2856168001890182	1.0207245999483803	1.3495648999235073	496.0494589000009	0.997749499976635	495.0258603000548	1	1	117	2	nogo_reward	1	0	1	0	1	0	0	0.0	1.0	0	0.3606489000376314	0.997749499976635	692.4158107999247	1181.5659757999238	1182.5850209998898	1183.8706378000788	1185.40277340007	1186.4234980000183	1187.4416710999794	1188.4652696999256	1189.474488100037	1190.8240529999605	2019-12-31 19:05:42.790113	-2.6884916324672	6.37813891065449	11.2334192461778	10.3430697468287	8.54492761371059	11.2334192461778	2.6884916324672	6.37813891065449	11.2334192461778	8.54492761371059	11.2334192461778	-6.37813891065449	-9.385786203415808	5.762866821147018	10.431952913274655	6.40552123113019	5.901876173190207	10.431952913274655	-6.736683873834129	3.4740214415245276	12.859807644940338	2.3387572131258993	13.856062521295776	2	correct	1.0
498.4250890999101	8.182814399944391	go_punish	0.3708236999809742	498.44873890001327	500.28276140009984	502.8315602999646	1.8340225000865757	499.45837830007076	501.82081920001656	505.88171069999225	0.8243831000290811	1.0107410999480635	0.7498425999654046	504.87755630002357	0.7957468999084085	503.84888479998335	1	1	118	3	go_punish	1	0	-1	1	1	1	0	0.0	1.0	0	0.3708236999809742	0.7957468999084085	692.4158107999247	1190.864549699938	1191.8741890999954	1192.6985722000245	1194.2366299999412	1195.2473710998893	1196.264695599908	1197.2933670999482	1198.297521499917	1199.0473640998823	2019-12-31 19:05:42.790113	3.9343466479017	-3.6874592649053	-6.68149987011662	-3.73304638258779	-2.74715322221492	-6.68149987011662	-3.9343466479017	-3.6874592649053	-6.68149987011662	-2.74715322221492	-6.68149987011662	3.6874592649053	-2.762947923046908	-4.3027313544127725	-7.482966203019765	-7.6705948982863	-5.390204662735302	-7.482966203019765	3.328914301725661	-7.818059394400982	-5.055111471354083	-7.726840962433891	-4.058856594998645	2	correct	1.0
506.6439547999762	8.40983169991523	nogo_reward	1.0	506.66760460007936	508.0407517000567	510.5799149000086	1.3731470999773592	507.68215050012805	509.55682700010925	513.6305442000739	0.3586011999286711	1.0230878998993376	1.4468920999206603	512.613917300012	0.6200064001604915	511.58663130016043	1	1	119	2	nogo_reward	1	0	1	0	0	1	1	0.0	0.0	1	1.0	0.6200064001604915	692.4158107999247	1199.083415400004	1200.0979613000527	1200.4565624999814	1201.972637800034	1202.9957256999332	1204.002442100085	1205.0297280999366	1206.0463549999986	1207.4932470999192	2019-12-31 19:05:42.790113	5.90516250366334	3.49805647543843	11.2334192461778	6.00403198440352	5.32825674251445	11.2334192461778	-5.90516250366334	11.2334192461778	3.49805647543843	11.2334192461778	5.32825674251445	4.156464841442501	-0.7921320672852676	2.882784385930957	10.431952913274655	2.0664834687050098	2.6852053019940674	10.431952913274655	3.7979198782628623	6.162513073991738	6.954645141276987	7.1940375486492085	6.1206997505564065	2	wrong	1.0
515.0931847998872	9.567747100023553	go_punish	0.2719569001346826	515.1168345999904	517.8746999001598	520.4391082001384	2.757865300169442	516.1192203999963	519.4180652000941	523.4880338001528	1.755479500163574	1.0210430000443012	1.196547899861116	522.4748397001531	0.502180399838835	521.4444325000513	1	1	120	3	go_punish	1	0	-1	1	1	1	1	1.0	1.0	0	0.2719569001346826	0.502180399838835	692.4158107999247	1207.532645399915	1208.535031199921	1210.2905107000845	1211.8338760000188	1212.854919000063	1213.860243299976	1214.8906505000778	1215.9038446000775	1217.1003924999386	2019-12-31 19:05:42.790113	5.51823104615269	-2.18312230420109	-6.68149987011662	-2.2165319002694	-1.16326882396393	-6.68149987011662	-5.51823104615269	-2.18312230420109	-6.68149987011662	-1.16326882396393	-6.68149987011662	2.18312230420109	-1.179063524795918	-2.798394393708563	-7.482966203019765	-6.15408041596791	-3.806320264484312	-7.482966203019765	1.8245773410214514	-6.234174996149992	-5.055111471354083	-6.222504001729681	-4.058856594998645	2	correct	1.0
