onset	duration	trial_type	response_time	cueOnset	targetOnset	fbOnset	cueRT	firstfixOnset	secondfixOnset	waitOnset	firstfixdur	secondfixdur	waitdur	nback_fbOnset	nback_response_time	nback_targetOnset	block	wm	trial	cue	cond	is_common	outcome_go	outcome_nogo	key_correct	key_pressed	is_correct	key_correct_nback	key_pressed_nback	is_correct_nback	outcome	rt	rt_nback	time_scan	time_onset	time_isi1	time_circle	time_isi2	time_feedback	time_same	time_correct	time_iti	time_done	timestamp_scan	DV	Qgo	Qnogo	SV	Wgo	Wnogo	mDV	Qchosen	Qunchosen	Wchosen	Wunchosen	PE	DVC	QgoC	QnogoC	SVC	WgoC	WnogoC	PEC	WchosenC	WunchosenC	QchosenC	QunchosenC	run	outcome_nback	nback_targetResp
0.0	8.167653099866584	go_punish	0.7529021000955254	0.05167940002866089	1.8714364999905229	4.398715999908745	1.819757099961862	1.057329700095579	3.3961171000264443	7.4381470000371195	0.8141067998949438	1.002598899882301	0.7811854998581254	6.43307949998416	1.0	5.4251123000867665	1	1	1	3	go_punish	1	0	-1	1	1	1	0	n/a	0.0	-1	0.7529021000955254	1.0	102.9494096999988	103.00108910002746	104.00673940009438	104.82084619998932	106.34552680002524	107.34812569990754	108.37452200008556	109.38248919998296	110.38755670003592	111.16874219989404	2019-12-31 18:55:53.318516	1.20476647686978	0.0	0.0	0.0	1.20476647686978	0.0	-1.20476647686978	0.0	0.0	1.20476647686978	0.0	0.0	-5.492528094078828	-0.615272089507473	-0.8014663329031446	-3.93754851569851	-1.4382849636506023	-0.8014663329031446	-0.35854496317963874	-3.866139695316282	1.6263883987625374	-4.039381697528591	2.622643275117976	1	missed	0.0
8.207271700026467	8.791918899863958	go_punish	1.0	8.258951100055128	10.2257910000626	12.76515069999732	1.9668399000074714	9.266124400077388	11.741034799953923	15.806181200081483	0.9596665999852121	1.0241159000433981	1.2446887998376042	14.808873699978008	0.501757999882102	13.774646000005305	1	1	2	3	go_punish	1	0	-1	1	0	0	0	0.0	1.0	-1	1.0	0.501757999882102	102.9494096999988	111.20836080005392	112.21553410007618	113.1752007000614	114.69044449995272	115.71456039999612	116.7240557000041	117.7582833999768	118.75559090008028	120.00027969991788	2019-12-31 18:55:53.318516	3.08064627140177	-4.07964235817931	0.0	-4.07964235817931	-3.08064627140177	0.0	-3.08064627140177	0.0	-4.07964235817931	0.0	-3.08064627140177	-9.98748997926823	-3.6166482995468376	-4.694914447686783	-0.8014663329031446	-8.01719087387782	-5.723697711922153	-0.8014663329031446	-10.346034942447869	-5.070906172186062	-1.4542578726392328	-4.039381697528591	-1.456999083061334	1	correct	1.0
17.038208700018004	8.19154249993153	nogo_punish	0.311502099968493	17.089888100046664	18.653831199975684	21.21453529992141	1.5639430999290198	18.10325079993345	20.19064980000256	24.25044470001012	0.5505804000422359	1.0238854999188476	1.0309858999680728	23.25129970000124	0.9611186999827624	22.22823520004748	1	1	3	4	nogo_punish	1	-1	0	0	1	0	0	0.0	1.0	-1	0.311502099968493	0.9611186999827624	102.9494096999988	120.03929780004546	121.05266049993224	121.60324089997448	123.14005950000136	124.1639449999202	125.17764490004627	126.20070940000004	127.19985440000892	128.230840299977	2019-12-31 18:55:53.318516	1.20476647686978	0.0	0.0	0.0	1.20476647686978	0.0	-1.20476647686978	0.0	0.0	1.20476647686978	0.0	-9.98748997926823	-5.492528094078828	-0.615272089507473	-0.8014663329031446	-3.93754851569851	-1.4382849636506023	-0.8014663329031446	-10.346034942447869	-3.866139695316282	1.6263883987625374	-4.039381697528591	2.622643275117976	1	correct	1.0
25.266147899907082	8.227856100071222	go_punish	0.4199688998050987	25.317827299935743	26.97234719991684	29.51821899996139	1.6545198999810964	26.316422200063244	28.506868900032714	32.576611099997535	0.6559249998535961	1.011350099928677	0.9690723000094295	31.562049299944192	0.9716051002033056	30.53619230003096	1	1	4	3	go_punish	1	0	-1	1	1	1	1	0.0	0.0	0	0.4199688998050987	0.9716051002033056	102.9494096999988	128.26723699993454	129.26583190006204	129.92175689991564	131.4562786000315	132.4676286999602	133.48560200002976	134.511458999943	135.52602079999633	136.49509310000576	2019-12-31 18:55:53.318516	0.854707415222097	-4.07964235817931	-4.07964235817931	-6.34885733262385	-3.22493494295721	-4.07964235817931	-0.854707415222097	-4.07964235817931	-4.07964235817931	-3.22493494295721	-4.07964235817931	4.07964235817931	-5.842587155726511	-4.694914447686783	-4.881108691082455	-10.28640584832236	-5.867986383477592	-4.881108691082455	3.721097394999671	-8.295841115143272	-2.453253959416773	-8.1190240557079	-1.456999083061334	1	wrong	1.0
33.527831400046125	9.939420899841934	go_reward	0.3340473999269306	33.579510800074786	36.55421540001407	39.08456079987809	2.9747045999392867	34.58686410007067	38.070181600051	42.127849499927834	1.9673512999434024	1.01437919982709	1.3910821999888867	41.11294239992276	0.4303205001633614	40.0979146999307	1	1	5	1	go_reward	1	1	0	1	1	1	0	0.0	1.0	1	0.3340473999269306	0.4303205001633614	102.9494096999988	136.52892050007358	137.53627380006947	139.50362510001287	141.0195913000498	142.0339704998769	143.0473243999295	144.06235209992155	145.07725919992663	146.46834139991552	2019-12-31 18:55:53.318516	1.20476647686978	0.0	0.0	0.0	1.20476647686978	0.0	-1.20476647686978	0.0	0.0	1.20476647686978	0.0	15.3898840876203	-5.492528094078828	-0.615272089507473	-0.8014663329031446	-3.93754851569851	-1.4382849636506023	-0.8014663329031446	15.031339124440661	-3.866139695316282	1.6263883987625374	-4.039381697528591	2.622643275117976	1	correct	1.0
43.500206500058994	8.134424099931493	go_reward	0.5587341000791639	43.551885900087655	44.8395831999369	47.39772700006142	1.287697299849242	44.558173900004476	46.374051599996164	50.44284490006976	0.28140929993242025	1.0236754000652581	1.2434650999493897	49.42979529988952	0.4151004999876022	48.41124780010432	1	1	6	1	go_reward	1	1	0	1	1	1	0	0.0	1.0	1	0.5587341000791639	0.4151004999876022	102.9494096999988	146.50129560008645	147.50758360000327	147.7889928999357	149.32346129999496	150.34713670006022	151.36065750010312	152.37920499988832	153.39225460006855	154.63571970001794	2019-12-31 18:55:53.318516	8.09107523317038	6.37813891065449	0.0	6.37813891065449	8.09107523317038	0.0	-8.09107523317038	6.37813891065449	0.0	8.09107523317038	0.0	9.01174517696581	1.393780662221773	5.762866821147018	-0.8014663329031446	2.44059039495598	5.448023792649998	-0.8014663329031446	8.653200213786171	3.020169060984319	1.6263883987625374	2.3387572131258993	2.622643275117976	1	correct	1.0
51.66695789992809	8.089700000127777	go_reward	0.4367547000292688	51.718637299956754	53.29059970006347	55.85044279997237	1.5719624001067132	52.72150620003231	54.82634799997322	58.908250299980864	0.5690935000311583	1.0240947999991477	0.9000870001036674	57.898027499904856	0.3432645001448691	56.865039699943736	1	1	7	1	go_reward	1	1	0	1	1	1	1	1.0	1.0	1	0.4367547000292688	0.3432645001448691	102.9494096999988	154.66804699995555	155.6709159000311	156.24000940006226	157.77575769997202	158.79985249997117	159.81444939994253	160.84743719990365	161.85765999997966	162.75774700008333	2019-12-31 18:55:53.318516	11.9069773045428	9.87619538609292	0.0	9.87619538609292	11.9069773045428	0.0	-11.9069773045428	9.87619538609292	0.0	11.9069773045428	0.0	5.51368870152738	5.2096827335941915	9.260923296585448	-0.8014663329031446	5.93864687039441	9.263925864022417	-0.8014663329031446	5.155143738347742	6.836071132356738	1.6263883987625374	5.836813688564329	2.622643275117976	1	correct	1.0
59.78836390003562	9.247252899920568	nogo_punish	1.0	59.84004330006428	62.160590999992564	64.6801928000059	2.3205476999282837	60.83277369989082	63.66524189990011	67.7438215999864	1.3278173001017421	1.014950900105788	1.3434745999984443	66.72295459988527	0.5476119001396	65.69359669997357	1	1	8	4	nogo_punish	0	0	-1	0	0	1	0	0.0	1.0	-1	1.0	0.5476119001396	102.9494096999988	162.78945300006308	163.78218339988962	165.11000069999136	166.6146515998989	167.6296025000047	168.64300639997236	169.67236429988407	170.6932312999852	172.03670589998364	2019-12-31 18:55:53.318516	3.08064627140177	-4.07964235817931	0.0	-4.07964235817931	-3.08064627140177	0.0	-3.08064627140177	0.0	-4.07964235817931	0.0	-3.08064627140177	-9.98748997926823	-3.6166482995468376	-4.694914447686783	-0.8014663329031446	-8.01719087387782	-5.723697711922153	-0.8014663329031446	-10.346034942447869	-5.070906172186062	-1.4542578726392328	-4.039381697528591	-1.456999083061334	1	correct	1.0
69.07435759995133	9.644021000014618	go_punish	1.0	69.12603699997999	71.85778860002756	74.36994719994254	2.7317516000475734	70.13265589997172	73.36399860004894	77.41294960002412	1.7251327000558376	1.0059485998935997	1.3571083999704854	76.40666819992475	0.9393788001034408	75.38299919990823	1	1	9	3	go_punish	1	0	-1	1	0	0	0	0.0	1.0	-1	1.0	0.9393788001034408	102.9494096999988	172.07544669997878	173.08206559997052	174.80719830002636	176.31340830004774	177.31935689994134	178.33240889990702	179.35607789992355	180.36235930002292	181.7194676999934	2019-12-31 18:55:53.318516	-2.77051525571225	-2.26921497444454	-4.07964235817931	-3.58502624879149	-1.30912710246706	-4.07964235817931	2.77051525571225	-4.07964235817931	-2.26921497444454	-4.07964235817931	-1.30912710246706	-5.907847621088919	-9.467809826660858	-2.884487063952013	-4.881108691082455	-7.522574764490001	-3.9521785429874425	-4.881108691082455	-6.266392584268558	-9.150548530365372	0.3172612962954773	-8.1190240557079	0.353428300673436	1	correct	1.0
78.75831619999374	8.883917100029038	nogo_reward	0.407729199854657	78.8099956000224	80.65667459997348	83.19655140000395	1.8466789999510809	79.82211899990213	82.18625409994277	86.24763910006732	0.8345556000713543	1.0102973000611826	1.4462735999841243	85.22892230004072	0.9817377000581472	84.20661909994669	1	1	10	2	nogo_reward	1	0	1	0	1	0	0	0.0	1.0	0	0.407729199854657	0.9817377000581472	102.9494096999988	181.7594053000212	182.77152869990093	183.60608429997228	185.13566379994157	186.14596110000275	187.1560287999455	188.17833200003952	189.1970488000661	190.64332240005024	2019-12-31 18:55:53.318516	1.20476647686978	0.0	0.0	0.0	1.20476647686978	0.0	-1.20476647686978	0.0	0.0	1.20476647686978	0.0	0.0	-5.492528094078828	-0.615272089507473	-0.8014663329031446	-3.93754851569851	-1.4382849636506023	-0.8014663329031446	-0.35854496317963874	-3.866139695316282	1.6263883987625374	-4.039381697528591	2.622643275117976	1	correct	1.0
87.67403990007006	8.68134219991046	go_reward	0.3527567000128329	87.72571930009872	89.41360209998678	91.9441243999172	1.6878827998880581	88.734987600008	90.93424570001662	94.99168680002913	0.678614499978778	1.0098786999005824	1.415374699980049	93.97727019991726	0.4662866001017391	92.95198039989921	1	1	11	1	go_reward	0	0	1	1	1	1	0	0.0	1.0	0	0.3527567000128329	0.4662866001017391	102.9494096999988	190.6751290000975	191.6843973000068	192.36301179998557	193.8836554000154	194.893534099916	195.901390099898	196.92667989991605	197.94109650002792	199.35647120000797	2019-12-31 18:55:53.318516	14.121887114395	11.8871825078632	0.0	11.8871825078632	14.121887114395	0.0	-14.121887114395	11.8871825078632	0.0	14.121887114395	0.0	-11.8871825078632	7.4245925434463915	11.271910418355727	-0.8014663329031446	7.9496339921646895	11.478835673874617	-0.8014663329031446	-12.245727471042839	9.050980942208938	1.6263883987625374	7.847800810334609	2.622643275117976	1	correct	1.0
96.38882300001569	8.996619499986963	nogo_punish	0.3894374999217689	96.44050240004435	98.91484660003331	101.46833699988201	2.4743441999889626	97.44194990000688	100.44757269998081	104.50610030000095	1.472896700026439	1.0207642999012023	0.9310216000303626	103.50031460006721	0.7107045999728143	102.48175120004447	1	1	12	4	nogo_punish	1	-1	0	0	1	0	0	0.0	1.0	-1	0.3894374999217689	0.7107045999728143	102.9494096999988	199.38991210004315	200.39135960000567	201.8642563000321	203.3969823999796	204.4177466998808	205.43116090004327	206.449724300066	207.45550999999975	208.3865316000301	2019-12-31 18:55:53.318516	0.854707415222097	-4.07964235817931	-4.07964235817931	-6.34885733262385	-3.22493494295721	-4.07964235817931	-0.854707415222097	-4.07964235817931	-4.07964235817931	-3.22493494295721	-4.07964235817931	-5.907847621088919	-5.842587155726511	-4.694914447686783	-4.881108691082455	-10.28640584832236	-5.867986383477592	-4.881108691082455	-6.266392584268558	-8.295841115143272	-2.453253959416773	-8.1190240557079	-1.456999083061334	1	correct	1.0
105.42297849990427	8.57955260016027	go_punish	0.509121400071308	105.47465789993294	107.47230749996379	110.0139782000333	1.9976496000308543	106.4879226998892	108.99401969998144	113.06345529994002	0.9843848000745936	1.019958500051871	0.9907552001531883	112.05000260006639	0.7556718999985605	111.03672900004312	1	1	13	3	go_punish	1	0	-1	1	1	1	0	0.0	1.0	0	0.509121400071308	0.7556718999985605	102.9494096999988	208.42406759993173	209.437332399888	210.4217171999626	211.94342939998023	212.9633879000321	213.98613870004192	214.9994123000652	216.0128649999388	217.003620200092	2019-12-31 18:55:53.318516	4.90842079177084	-2.26921497444454	-6.34885733262385	-6.18779759870379	-1.44043654085302	-6.34885733262385	-4.90842079177084	-2.26921497444454	-6.34885733262385	-1.44043654085302	-6.34885733262385	2.26921497444454	-1.7888737791777682	-2.884487063952013	-7.150323665526995	-10.125346114402301	-4.083487981373402	-7.150323665526995	1.9106700112649013	-6.511342713039082	-4.722468933861313	-6.308596671973131	-3.726214057505874	1	correct	1.0
114.04052769998091	8.309972099959822	go_punish	0.3094378998503089	114.09220710000957	115.56587600009516	118.1085761000868	1.4736689000855847	115.09702540002763	117.08866759995001	121.15900209988467	0.4688506000675261	1.0199085001367791	1.243177100084722	120.1451942001004	0.7794393999502063	119.11795359989628	1	1	14	3	go_punish	1	0	-1	1	1	1	0	0.0	1.0	0	0.3094378998503089	0.7794393999502063	102.9494096999988	217.04161680000837	218.04643510002643	218.51528570009395	220.0380772999488	221.0579858000856	222.06736329989508	223.0946039000992	224.10841179988347	225.3515888999682	2019-12-31 18:55:53.318516	5.97492981979568	-1.31581127434695	-6.34885733262385	-3.55526121203491	-0.373927512828167	-6.34885733262385	-5.97492981979568	-1.31581127434695	-6.34885733262385	-0.373927512828167	-6.34885733262385	1.31581127434695	-0.7223647511529281	-1.9310833638544231	-7.150323665526995	-7.49280972773342	-3.0169789533485494	-7.150323665526995	0.9572663111673114	-5.4448336850142285	-4.722468933861313	-5.355192971875541	-3.726214057505874	1	correct	1.0
122.38534309994427	8.693463500123471	nogo_reward	0.5882868999615312	122.43702249997293	124.16906460002065	126.70878489990722	1.732042100047721	123.44406930007969	125.69965590001084	129.7520967000164	0.7249952999409572	1.009128999896376	1.3783893000799878	128.74228830006905	0.8433726001530886	127.72003860003318	1	1	15	2	nogo_reward	1	0	1	0	1	0	0	0.0	1.0	0	0.5882868999615312	0.8433726001530886	102.9494096999988	225.38643219997172	226.3934790000785	227.11847430001944	228.64906560000964	229.658194599906	230.66944830003197	231.69169800006784	232.7015064000152	234.0798957000952	2019-12-31 18:55:53.318516	1.20476647686978	0.0	0.0	0.0	1.20476647686978	0.0	-1.20476647686978	0.0	0.0	1.20476647686978	0.0	0.0	-5.492528094078828	-0.615272089507473	-0.8014663329031446	-3.93754851569851	-1.4382849636506023	-0.8014663329031446	-0.35854496317963874	-3.866139695316282	1.6263883987625374	-4.039381697528591	2.622643275117976	1	correct	1.0
131.1115894999821	8.561111399903893	nogo_punish	0.3617330000270158	131.16326890001076	132.6656440999359	135.2170531998854	1.502375199925126	132.1655494000297	134.1925564000849	138.27175489999357	0.5000946999061853	1.0244967998005166	1.4526253999210894	137.25831800000745	0.7956134998239577	136.2308437998872	1	1	16	4	nogo_punish	1	-1	0	0	1	0	0	1.0	0.0	-1	0.3617330000270158	0.7956134998239577	102.9494096999988	234.11267860000956	235.1149591000285	235.61505379993469	237.1419661000837	238.1664628998842	239.180253499886	240.20772770000625	241.22116459999236	242.67378999991345	2019-12-31 18:55:53.318516	-1.51489749255929	-6.34885733262385	-4.07964235817931	-7.6646686069708	-5.5945398507386	-4.07964235817931	1.51489749255929	-6.34885733262385	-4.07964235817931	-5.5945398507386	-4.07964235817931	-3.6386326466443792	-8.212192063507898	-6.9641294221313235	-4.881108691082455	-11.602217122669309	-8.237591291258981	-4.881108691082455	-3.997177609824018	-10.665446022924662	-2.453253959416773	-10.388239030152441	-1.456999083061334	1	wrong	1.0
139.70772859989665	8.388339500175789	nogo_punish	1.0	139.75940799992532	141.13497580005787	143.66378349997103	1.3755678001325577	140.77551899990064	142.65027299989012	146.7327729000244	0.3594568001572327	1.013510500080912	1.4149746000767038	145.71951829991303	0.3692200998775661	144.68822610005736	1	1	17	4	nogo_punish	1	-1	0	0	0	1	0	0.0	1.0	0	1.0	0.3692200998775661	102.9494096999988	242.7088176999241	243.72492869989944	244.08438550005667	245.59968269988892	246.61319319996983	247.63763580005616	248.66892799991183	249.6821826000232	251.0971572000999	2019-12-31 18:55:53.318516	2.90053648675541	-7.6646686069708	-4.07964235817931	-8.45701257314834	-6.98017884493472	-4.07964235817931	-2.90053648675541	-4.07964235817931	-7.6646686069708	-4.07964235817931	-6.98017884493472	4.07964235817931	-3.796758084193198	-8.279940696478272	-4.881108691082455	-12.39456108884685	-9.623230285455103	-4.881108691082455	3.721097394999671	-9.150548530365372	-5.353790446172183	-8.1190240557079	-5.042025331852823	1	correct	1.0
148.13296469999477	8.614012399921194	nogo_reward	1.0	148.18464410002343	149.7397054999601	152.2689042999409	1.555061399936676	149.1926647000946	151.24506890005432	155.30527819995768	0.5470407998654991	1.0238353998865932	1.4933782999869436	154.29264490003698	0.4469977999106049	153.27146660001017	1	1	18	2	nogo_reward	1	0	1	0	0	1	0	0.0	1.0	1	1.0	0.4469977999106049	102.9494096999988	251.13405380002223	252.1420744000934	252.6891151999589	254.19447860005312	255.2183139999397	256.22087630000897	257.2420546000358	258.2546878999565	259.7480661999434	2019-12-31 18:55:53.318516	-1.20476647686978	0.0	0.0	0.0	1.20476647686978	0.0	1.20476647686978	0.0	0.0	0.0	1.20476647686978	15.3898840876203	-7.902061047818387	-0.615272089507473	-0.8014663329031446	-3.93754851569851	-1.4382849636506023	-0.8014663329031446	15.031339124440661	-5.070906172186062	2.8311548756323175	-4.039381697528591	2.622643275117976	1	correct	1.0
156.78652850002982	8.28973659989424	go_punish	1.0	156.83820790005848	158.6306978999637	161.16103710001335	1.7924899999052286	157.8492789999582	160.1406849999912	164.2127306999173	0.7814189000055194	1.0203521000221372	0.9152138000354171	163.20765429991297	0.7833401001989841	162.17504610004835	1	1	19	3	go_punish	1	0	-1	1	0	0	0	0.0	1.0	-1	1.0	0.7833401001989841	102.9494096999988	259.7876176000573	260.798688699957	261.5801075999625	263.09009469999	264.11044680001214	265.12445580004714	266.15706399991177	267.1621403999161	268.0773541999515	2019-12-31 18:55:53.318516	-6.57784422737999	-0.792343966177539	-6.34885733262385	-2.12671867565809	0.228986894756141	-6.34885733262385	6.57784422737999	-6.34885733262385	-0.792343966177539	-6.34885733262385	0.228986894756141	-3.6386326466443792	-13.275138798328598	-1.4076160556850121	-7.150323665526995	-6.0642671913566	-2.414064545764241	-7.150323665526995	-3.997177609824018	-11.41976350480991	1.8553752935186785	-10.388239030152441	1.830299308940437	1	correct	1.0
165.11107719992293	9.277797100134137	nogo_punish	1.0	165.1627565999516	168.00702739995904	170.5417041999753	2.8442708000074504	166.1784689000342	169.51793220010586	173.59668099996634	1.8285584999248385	1.0237719998694388	0.8438727001193911	172.58430500002578	0.6746077998541296	171.5548246998805	1	1	20	4	nogo_punish	0	0	-1	0	0	1	0	0.0	1.0	-1	1.0	0.6746077998541296	102.9494096999988	268.1121662999504	269.127878600033	270.95643709995784	272.46734190010466	273.4911138999741	274.5042343998793	275.5337147000246	276.54609069996513	277.3899634000845	2019-12-31 18:55:53.318516	4.55395980434433	-7.6646686069708	-2.26921497444454	-4.87107248638186	-6.82317477878887	-2.26921497444454	-4.55395980434433	-2.26921497444454	-7.6646686069708	-2.26921497444454	-6.82317477878887	-7.718275004823689	-2.143334766604278	-8.279940696478272	-3.0706813073476846	-8.80862100208037	-9.466226219309252	-3.0706813073476846	-8.076819968003328	-7.340121146630602	-5.1967863800263325	-6.308596671973131	-5.042025331852823	1	correct	1.0
174.42763999989256	8.680415200069604	go_punish	0.2998604001477361	174.47931939992122	176.32654480007483	178.88218800001778	1.8472254001536044	175.49089949997142	177.8623881000094	181.93170639988966	0.8356453001034083	1.0197999000083655	1.2280282001011642	180.92825250001624	0.8097081000450999	179.90684699988924	1	1	21	3	go_punish	1	0	-1	1	1	1	1	0.0	0.0	0	0.2998604001477361	0.8097081000450999	102.9494096999988	277.42872909992	278.4403091999702	279.2759545000736	280.8117978000082	281.8315977000166	282.85625669988804	283.87766220001504	284.88111609988846	286.1091442999896	2019-12-31 18:55:53.318516	7.74292832721922	-0.792343966177539	-7.6646686069708	-5.39865639036373	0.0782597202484207	-7.6646686069708	-7.74292832721922	-0.792343966177539	-7.6646686069708	0.0782597202484207	-7.6646686069708	0.792343966177539	1.045633756270612	-1.4076160556850121	-8.466134939873944	-9.336204906062239	-2.5647917202719617	-8.466134939873944	0.43379900299790025	-4.992646451937641	-6.0382802082082625	-4.83172566370613	-5.042025331852823	1	wrong	1.0
183.14211030001752	9.440406899899244	nogo_punish	1.0	183.19378970004618	185.67586910002865	188.2031431000214	2.4820793999824673	184.19176539988257	187.18333219992928	191.24347530002706	1.484103700146079	1.019810900092125	1.3907212999183685	190.2310236999765	0.3842967001255601	189.21112099988386	1	1	22	4	nogo_punish	1	-1	0	0	0	1	1	1.0	1.0	0	1.0	0.3842967001255601	102.9494096999988	286.143199400045	287.14117509988137	288.62527880002744	290.1327418999281	291.1525528000202	292.16053069988266	293.1804333999753	294.19288500002585	295.5836062999442	2019-12-31 18:55:53.318516	1.52348222345226	-7.6646686069708	-5.39545363252626	-6.99870500001493	-6.91893585597852	-5.39545363252626	-1.52348222345226	-5.39545363252626	-7.6646686069708	-5.39545363252626	-6.91893585597852	5.39545363252626	-5.173812347496348	-8.279940696478272	-6.196919965429404	-10.936253515713439	-9.561987296498902	-6.196919965429404	5.036908669346621	-10.466359804712322	-5.292547457215983	-9.43483533005485	-5.042025331852823	1	correct	1.0
192.61750539997593	9.35092750005424	nogo_reward	1.0	192.6691848000046	194.96348810009658	197.49337049992755	2.294303300091997	193.67612929991446	196.46827129996382	200.54274590010755	1.287358800182119	1.0250991999637336	1.4773663999512792	199.52852699998766	0.6876928000710905	198.50767079996882	1	1	23	2	nogo_reward	1	0	1	0	0	1	0	0.0	1.0	1	1.0	0.6876928000710905	102.9494096999988	295.6185945000034	296.62553899991326	297.9128978000954	299.4176809999626	300.44278019992635	301.4570804999676	302.47793669998646	303.49215560010634	304.9695220000576	2019-12-31 18:55:53.318516	4.66520258813859	0.0	6.37813891065449	6.37813891065449	1.7129363225159	6.37813891065449	-4.66520258813859	6.37813891065449	0.0	6.37813891065449	1.7129363225159	9.01174517696581	-2.0320919828100177	-0.615272089507473	5.576672577751346	2.44059039495598	-0.9301151180044822	5.576672577751346	8.653200213786171	1.3072327384684286	3.3393247212784374	2.3387572131258993	2.622643275117976	1	correct	1.0
202.00844329991378	9.272685100091621	go_punish	0.282874499913305	202.06012269994244	204.4895687000826	207.03753229998983	2.4294460001401603	203.07050610007718	206.01573049998842	210.08906610007398	1.419062600005418	1.0218018000014126	1.2437416999600828	209.07475719996728	0.683653200045228	208.0537789000664	1	1	24	3	go_punish	1	0	-1	1	1	1	0	0.0	1.0	0	0.282874499913305	0.683653200045228	102.9494096999988	305.00953239994124	306.019915800076	307.4389784000814	308.9651401999872	309.98694199998863	311.0031886000652	312.0241668999661	313.0384758000728	314.28221750003286	2019-12-31 18:55:53.318516	8.14104124767392	-0.493702271412828	-7.6646686069708	-3.11411034026896	0.476372640703121	-7.6646686069708	-8.14104124767392	-0.493702271412828	-7.6646686069708	0.476372640703121	-7.6646686069708	0.493702271412828	1.4437466767253122	-1.108974360920301	-8.466134939873944	-7.05165885596747	-2.1666787998172614	-8.466134939873944	0.13515730823318928	-4.5945335314829405	-6.0382802082082625	-4.533083968941419	-5.042025331852823	1	correct	1.0
211.31918059987947	8.07801580009982	go_punish	1.0	211.37085999990813	212.9375622998923	215.46774680004455	1.566702299984172	212.37507539987564	214.44789450010285	218.52715909993282	0.5624869000166655	1.0198522999417037	0.9217167000751374	217.5143416998908	0.5732617999892682	216.4862871000077	1	1	25	3	go_punish	0	-1	0	1	0	0	0	0.0	1.0	0	1.0	0.5732617999892682	102.9494096999988	314.32026969990693	315.32448509987444	315.8869719998911	317.39730420010164	318.41715650004335	319.4356968000065	320.4637513998896	321.4765687999316	322.39828550000675	2019-12-31 18:55:53.318516	-8.38770439784325	-0.317205129898313	-7.6646686069708	-1.8727333920235	0.723035790872455	-7.6646686069708	8.38770439784325	-7.6646686069708	-0.317205129898313	-7.6646686069708	0.723035790872455	7.6646686069708	-15.084998968791858	-0.932477219405786	-8.466134939873944	-5.81028190772201	-1.9200156496479273	-8.466134939873944	7.306123643791161	-12.735574779156861	2.349424189634992	-11.70405030449939	2.305438145219663	1	correct	1.0
219.43220259994268	8.87647149991244	nogo_reward	1.0	219.48388199997135	221.85683720000088	224.377362200059	2.372955200029537	220.499953399878	223.3611637998838	227.41373359994031	1.356883800122887	1.016198400175199	0.946619899943471	226.40096600004472	0.4455760999117046	225.38089059991762	1	1	26	2	nogo_reward	1	0	1	0	0	1	0	0.0	1.0	1	1.0	0.4455760999117046	102.9494096999988	322.43329169997014	323.4493630998768	324.8062468999997	326.3105734998826	327.3267719000578	328.3303002999164	329.3503757000435	330.3631432999391	331.3097631998826	2019-12-31 18:55:53.318516	7.84541346764304	0.0	9.87619538609292	9.87619538609292	2.03078191844988	9.87619538609292	-7.84541346764304	9.87619538609292	0.0	9.87619538609292	2.03078191844988	5.51368870152738	1.1481188966944318	-0.615272089507473	9.074729053189776	5.93864687039441	-0.6122695220705023	9.074729053189776	5.155143738347742	4.805289213906859	3.657170317212417	5.836813688564329	2.622643275117976	1	correct	1.0
228.3422971998807	8.030431300168857	nogo_reward	1.0	228.39397659990937	229.82498749997467	232.36292070010683	1.4310109000653028	229.3865445998963	231.33902340009809	235.39936299994588	0.43844290007837117	1.0238973000087412	1.0250449001323432	234.38705409993418	0.4441462999675423	233.36632829997689	1	1	27	2	nogo_reward	1	0	1	0	0	1	0	0.0	1.0	1	1.0	0.4441462999675423	102.9494096999988	331.34338629990816	332.3359542998951	332.77439719997346	334.2884331000969	335.3123304001056	336.3157379999757	337.336463799933	338.3487726999447	339.373817600077	2019-12-31 18:55:53.318516	9.65247790133137	0.0	11.8871825078632	11.8871825078632	2.23470460653183	11.8871825078632	-9.65247790133137	11.8871825078632	0.0	11.8871825078632	2.23470460653183	3.502701579757101	2.955183330382762	-0.615272089507473	11.085716174960055	7.9496339921646895	-0.4083468339885523	11.085716174960055	3.144156616577462	6.816276335677138	3.861093005294367	7.847800810334609	2.622643275117976	1	correct	1.0
236.41124939988373	9.17107430007303	go_punish	0.2832645999733358	236.4629287999124	239.2451396000106	241.78878659987822	2.7822108000981984	237.4749453999102	240.7772425999865	244.828516199952	1.7701942001003772	1.0115439998917282	0.8054869000334293	243.82427420001483	0.339573600096628	242.80512279993854	1	1	28	3	go_punish	1	0	-1	1	1	1	0	1.0	0.0	0	0.2832645999733358	0.339573600096628	102.9494096999988	339.4123384999112	340.424355099909	342.1945493000094	343.7266522999853	344.738196299877	345.75453249993734	346.7736839000136	347.7779258999508	348.5834127999842	2019-12-31 18:55:53.318516	5.14922312038015	-0.317205129898313	-4.37737021496903	-1.16885465168391	0.771852905411127	-4.37737021496903	-5.14922312038015	-0.317205129898313	-4.37737021496903	0.771852905411127	-4.37737021496903	0.317205129898313	-1.5480714505684574	-0.932477219405786	-5.178836547872175	-5.10640316738242	-1.8711985351092553	-5.178836547872175	-0.04133983328132573	-4.299053266774934	-2.750981816206493	-4.356586827426904	-1.754726939851054	1	wrong	1.0
245.62026080000214	9.306763499975204	go_punish	0.3757198001258075	245.6719402000308	247.8967532999813	250.4641183000058	2.224813099950495	246.68478869996034	249.44019529991783	253.50884000002407	1.2119646000209627	1.0239230000879616	1.4698636999819428	252.50614479999058	0.5925350000616163	251.4788065000903	1	1	29	3	go_punish	0	-1	0	1	1	1	0	0.0	1.0	-1	0.3757198001258075	0.5925350000616163	102.9494096999988	348.6213499000296	349.63419839995913	350.8461629999801	352.3896049999166	353.4135280000046	354.4282162000891	355.4555544999894	356.45824970002286	357.9281134000048	2019-12-31 18:55:53.318516	5.29079979609261	-0.209464936108566	-4.37737021496903	-0.753988348426192	0.91342958112358	-4.37737021496903	-5.29079979609261	-0.209464936108566	-4.37737021496903	0.91342958112358	-4.37737021496903	-9.778025043159664	-1.4064947748559975	-0.824737025616039	-5.178836547872175	-4.691536864124702	-1.7296218593968022	-5.178836547872175	-10.136570006339303	-4.157476591062482	-2.750981816206493	-4.248846633637157	-1.754726939851054	1	correct	1.0
254.9613449999597	9.321169100003317	nogo_reward	1.0	255.01302439998835	257.5395420000422	260.0710314000025	2.5265176000538645	256.0201119999401	259.0567731000483	263.12625729991123	1.5194300001020906	1.0142582999541787	1.2079362000804394	262.11346870008856	0.4172380000818521	261.0842470000498	1	1	30	2	nogo_reward	1	0	1	0	0	1	0	0.0	1.0	1	1.0	0.4172380000818521	102.9494096999988	357.96243409998715	358.9695216999389	360.488951700041	362.0061828000471	363.0204411000013	364.0336567000486	365.06287840008736	366.07566699991	367.28360319999047	2019-12-31 18:55:53.318516	10.7233683104401	0.0	13.091728937517	13.091728937517	2.36836062707691	13.091728937517	-10.7233683104401	13.091728937517	0.0	13.091728937517	2.36836062707691	2.2981551501033	4.026073739491491	-0.615272089507473	12.290262604613856	9.154180421818491	-0.27469081344347224	12.290262604613856	1.9396101869236613	8.020822765330939	3.9947490258394476	9.05234723998841	2.622643275117976	1	correct	1.0
264.31660269992426	8.270582900149805	nogo_reward	1.0	264.3682820999529	265.7619552998804	268.3019713999238	1.3936731999274912	265.3704518000595	267.2786357998848	271.34874460008	0.3915034998208853	1.0233356000389904	1.2901204000227153	270.3357128999196	0.5754440000746399	269.3060419000685	1	1	31	2	nogo_reward	1	0	1	0	0	1	0	0.0	1.0	1	1.0	0.5754440000746399	102.9494096999988	367.3176917999517	368.3198615000583	368.7113649998792	370.2280454998836	371.2513810999226	372.2554516000673	373.2851225999184	374.2981543000788	375.5882747001015	2019-12-31 18:55:53.318516	11.3820203814688	0.0	13.8396417200124	13.8396417200124	2.45762133854366	13.8396417200124	-11.3820203814688	13.8396417200124	0.0	13.8396417200124	2.45762133854366	1.5502423676079005	4.6847258105201925	-0.615272089507473	13.038175387109256	9.90209320431389	-0.18543010197672238	13.038175387109256	1.1916974044282618	8.768735547826338	4.084009737306197	9.800260022483808	2.622643275117976	1	correct	1.0
272.6238520999905	8.76779010007158	nogo_reward	1.0	272.67553150001913	274.5869177000132	277.1260661999695	1.9113861999940696	273.6842084999662	276.1025276000146	280.1716513999272	0.9027092000470134	1.023538599954918	1.2716702001634985	279.1529236000497	0.473176300060004	278.13931909995154	1	1	32	2	nogo_reward	1	0	1	0	0	1	1	1.0	1.0	1	1.0	0.473176300060004	102.9494096999988	375.62494120001793	376.633618199965	377.536327400012	379.0519373000134	380.0754758999683	381.08872879995033	382.1023333000485	383.121061099926	384.3927313000895	2019-12-31 18:55:53.318516	11.8006286239227	0.0	14.3188738192735	14.3188738192735	2.51824519535073	14.3188738192735	-11.8006286239227	14.3188738192735	0.0	14.3188738192735	2.51824519535073	1.0710102683468001	5.103334052974092	-0.615272089507473	13.517407486370356	10.38132530357499	-0.12480624516965211	13.517407486370356	0.7124653051671614	9.247967647087439	4.144633594113268	10.279492121744909	2.622643275117976	1	correct	1.0
281.42605119990185	9.175737600075081	nogo_reward	1.0	281.4777305999305	284.101836200105	286.63459959998727	2.6241056001745164	282.493809199892	285.6138011999428	289.6852070998866	1.608027000213042	1.0207984000444412	0.9682611001189798	288.6803852999583	0.3885749999899417	287.6528286999092	1	1	33	2	nogo_reward	0	1	0	0	0	1	1	0.0	0.0	0	1.0	0.3885749999899417	102.9494096999988	384.4271402999293	385.4432188998908	387.0512459001038	388.5632108999416	389.58400929998606	390.602238399908	391.6297949999571	392.6346167998854	393.6028779000044	2019-12-31 18:55:53.318516	12.0744640383948	0.0	14.6345160052654	14.6345160052654	2.56005196687065	14.6345160052654	-12.0744640383948	14.6345160052654	0.0	14.6345160052654	2.56005196687065	-14.6345160052654	5.377169467446191	-0.615272089507473	13.833049672362256	10.696967489566891	-0.08299947364973237	13.833049672362256	-14.99306096844504	9.563609833079338	4.186440365633187	10.59513430773681	2.622643275117976	1	wrong	1.0
290.63729089987464	8.626519900048208	go_reward	0.4294111998751759	290.6889702999033	292.7420952999964	295.2887118000072	2.0531250000930754	291.6929838000797	294.2674861999694	298.3326115999371	1.0491114999167053	1.0212256000377806	0.9828786000144305	297.3289932000916	0.8011625001672655	296.3061351999641	1	1	34	1	go_reward	0	0	1	1	1	1	0	0.0	1.0	0	0.4294111998751759	0.8011625001672655	102.9494096999988	393.6383799999021	394.64239350007847	395.6915049999952	397.2168958999682	398.238121500006	399.2555448999629	400.2784029000904	401.2820212999359	402.2648998999503	2019-12-31 18:55:53.318516	8.57378080829327	6.71359002686248	0.0	6.71359002686248	8.57378080829327	0.0	-8.57378080829327	6.71359002686248	0.0	8.57378080829327	0.0	-6.71359002686248	1.876486237344662	6.098317937355008	-0.8014663329031446	2.77604151116397	5.930729367772887	-0.8014663329031446	-7.072134990042119	3.502874636107208	1.6263883987625374	2.674208329333889	2.622643275117976	1	correct	1.0
299.296597899869	8.560127800097746	go_reward	0.3662499999627471	299.3482772998977	301.4022109999787	303.9547892000992	2.053933700081018	300.3559842999093	302.9333953000605	307.0024808000308	1.0462267000693828	1.0213939000386745	0.9059242999646244	305.9892110999208	0.7782910999376327	304.9612298000138	1	1	35	1	go_reward	1	1	0	1	1	1	0	0.0	1.0	1	0.3662499999627471	0.7782910999376327	102.9494096999988	402.2976869998965	403.3053939999081	404.3516206999775	405.8828050000593	406.904198900098	407.9106395000126	408.9386207999196	409.9518905000296	410.85781479999423	2019-12-31 18:55:53.318516	5.59505223088304	3.96344633391949	0.0	3.96344633391949	5.59505223088304	0.0	-5.59505223088304	3.96344633391949	0.0	5.59505223088304	0.0	11.42643775370081	-1.102242340065568	3.348174244412017	-0.8014663329031446	0.025897818220979918	2.9520007903626575	-0.8014663329031446	11.06789279052117	0.524146058696978	1.6263883987625374	-0.07593536360910091	2.622643275117976	1	correct	1.0
307.88981019984936	8.776610000058952	go_reward	0.4008951999712735	307.941489599878	310.36550080007873	312.9204094999004	2.4240112002007095	308.9360595999751	311.8964191998821	315.957035999978	1.4294412001036108	1.0239903000183403	0.761063599958959	314.9440168999136	0.4753795999567956	313.9251419000793	1	1	36	1	go_reward	1	1	0	1	1	1	1	1.0	1.0	1	0.4008951999712735	0.4753795999567956	102.9494096999988	410.8908992998768	411.8854692999739	413.31491050007753	414.84582889988087	415.8698191998992	416.8745516000781	417.8934265999124	418.9064456999768	419.6675092999358	2019-12-31 18:55:53.318516	10.8063071333996	8.80983022206476	0.0	8.80983022206476	10.8063071333996	0.0	-10.8063071333996	8.80983022206476	0.0	10.8063071333996	0.0	6.580053865555541	4.1090125624509914	8.194558132557287	-0.8014663329031446	4.872281706366249	8.163255692879217	-0.8014663329031446	6.221508902375903	5.7354009612135375	1.6263883987625374	4.770448524536168	2.622643275117976	1	correct	1.0
316.6988031999208	8.309228100115433	go_reward	0.4003401000518352	316.75048259994946	318.3161470000632	320.86597059993073	1.5656644001137465	317.7539888999891	319.85368130006833	323.9191000999417	0.5621581000741003	1.0122892998624025	1.140610600123182	322.9129457999952	0.4815621001180261	321.8809157998766	1	1	37	1	go_reward	1	1	0	1	1	1	1	1.0	1.0	1	0.4003401000518352	0.4815621001180261	102.9494096999988	419.69989229994826	420.7033985999879	421.265556700062	422.8030910000671	423.81538029992953	424.8303254998754	425.862355499994	426.8685097999405	428.0091204000637	2019-12-31 18:55:53.318516	13.641455712085	11.4189824538414	0.0	11.4189824538414	13.641455712085	0.0	-13.641455712085	11.4189824538414	0.0	13.641455712085	0.0	3.970901633778901	6.944161141136392	10.803710364333927	-0.8014663329031446	7.48143393814289	10.998404271564617	-0.8014663329031446	3.612356670599262	8.570549539898938	1.6263883987625374	7.379600756312809	2.622643275117976	1	correct	1.0
325.04336660006084	8.549689200008288	nogo_punish	1.0	325.0950460000895	326.8736171000637	329.397981399903	1.778571099974215	326.10807449999265	328.3888711000327	332.4587518000044	0.7655426000710577	1.009110299870315	1.1859834000933915	331.44580290000886	0.406496400013566	330.41697739996016	1	1	38	4	nogo_punish	1	-1	0	0	0	1	0	0.0	1.0	0	1.0	0.406496400013566	102.9494096999988	428.0444557000883	429.05748419999145	429.8230268000625	431.3382808000315	432.3473910999018	433.36638709995896	434.39521260000765	435.4081615000032	436.5941449000966	2019-12-31 18:55:53.318516	3.71979058533235	-7.6646686069708	-3.06155894062208	-4.08193127804179	-6.78134952595444	-3.06155894062208	-3.71979058533235	-3.06155894062208	-7.6646686069708	-3.06155894062208	-6.78134952595444	3.06155894062208	-2.977503985616258	-8.279940696478272	-3.8630252735252246	-8.019479793740299	-9.424400966474822	-3.8630252735252246	2.703013977442441	-8.132465112808141	-5.1549611271919025	-7.1009406381506714	-5.042025331852823	1	correct	1.0
333.6277373000048	9.115248600021005	nogo_reward	1.0	333.67941670003347	336.2388067001011	338.7787063999567	2.5593900000676513	334.67153490008786	337.7559094999451	341.83238689997233	1.567271800013259	1.022796900011599	0.9622784000821412	340.8128484999761	0.5273070998955518	339.78521250002086	1	1	39	2	nogo_reward	1	0	1	0	0	1	0	0.0	1.0	1	1.0	0.5273070998955518	102.9494096999988	436.62882640003227	437.62094460008666	439.1882164000999	440.7053191999439	441.7281160999555	442.73462220001966	443.7622581999749	444.78179659997113	445.7440750000533	2019-12-31 18:55:53.318516	6.3882242742739	0.0	8.46933907288287	8.46933907288287	2.08111479860898	8.46933907288287	-6.3882242742739	8.46933907288287	0.0	8.46933907288287	2.08111479860898	6.920545014737431	-0.3090702966747081	-0.615272089507473	7.667872739979725	4.531790557184359	-0.561936641911402	7.667872739979725	6.562000051557793	3.3984329006968075	3.7075031973715173	4.429957375354278	2.622643275117976	1	correct	1.0
342.777160000056	9.142358799930662	nogo_reward	1.0	342.8288394000847	345.61692150007	348.1507911998779	2.7880820999853313	343.8433878999204	347.13024289999163	351.2120560000185	1.7735336001496194	1.0205482998862863	0.7591421999968588	350.1988687999547	0.4229573998600244	349.1644713999704	1	1	40	2	nogo_reward	0	1	0	0	0	1	0	0.0	1.0	0	1.0	0.4229573998600244	102.9494096999988	445.7782491000835	446.7927975999192	448.5663312000688	450.0796525999904	451.1002008998767	452.1138810999692	453.1482784999535	454.1614657000173	454.92060790001415	2019-12-31 18:55:53.318516	9.20403084625956	0.0	11.4961702330423	11.4961702330423	2.2921393867827	11.4961702330423	-9.20403084625956	11.4961702330423	0.0	11.4961702330423	2.2921393867827	-11.4961702330423	2.506736275310952	-0.615272089507473	10.694703900139155	7.558621717343789	-0.3509120537376824	10.694703900139155	-11.854715196221939	6.425264060856238	3.918527785545237	7.4567885355137085	2.622643275117976	1	correct	1.0
351.9536102998536	9.85133510013111	nogo_reward	1.0	352.00528969988227	354.7828273000196	357.2975053000264	2.77753760013735	353.0218738999684	356.28697340004146	360.3636090999935	1.7609534000512213	1.010531899984926	1.493015700019896	359.3496751999483	0.5718142001423985	358.31666300003417	1	1	41	2	nogo_reward	0	1	0	0	0	1	1	1.0	1.0	0	1.0	0.5718142001423985	102.9494096999988	454.95469939988106	455.9712835999672	457.7322370000184	459.23638310004026	460.2469150000252	461.26607270003296	462.2990848999471	463.3130187999923	464.8060345000122	2019-12-31 18:55:53.318516	4.79539576788516	0.0	6.70811684417049	6.70811684417049	1.91272107628533	6.70811684417049	-4.79539576788516	6.70811684417049	0.0	6.70811684417049	1.91272107628533	-6.70811684417049	-1.9018988030634478	-0.615272089507473	5.906650511267346	2.77056832847198	-0.7303303642350523	5.906650511267346	-7.066661807350129	1.6372106719844286	3.5391094750478675	2.6687351466418994	2.622643275117976	1	correct	1.0
361.83704879996367	8.46604169998318	nogo_punish	1.0	361.88872819999233	363.6772966000717	366.2066744000185	1.7885684000793844	362.8918161001057	365.1838265999686	369.2614887000527	0.7854804999660132	1.0228478000499308	1.0932811999227852	368.2490721000358	0.3380706999450922	367.2204330998939	1	1	42	4	nogo_punish	1	-1	0	0	0	1	0	1.0	0.0	0	1.0	0.3380706999450922	102.9494096999988	464.8381378999911	465.8412258001045	466.6267063000705	468.1332362999674	469.1560841000173	470.1698427998927	471.1984818000346	472.2108984000515	473.3041795999743	2019-12-31 18:55:53.318516	4.87546076952934	-7.6646686069708	-1.80951354575977	-2.47791177006967	-6.68497431528911	-1.80951354575977	-4.87546076952934	-1.80951354575977	-7.6646686069708	-1.80951354575977	-6.68497431528911	1.80951354575977	-1.8218338014192677	-8.279940696478272	-2.6109798786629144	-6.41546028576818	-9.328025755809492	-2.6109798786629144	1.4509685825801313	-6.8804197179458315	-5.058585916526573	-5.848895243288361	-5.042025331852823	1	wrong	1.0
370.33427660004236	9.182257300009951	go_reward	0.463232500012964	370.385956000071	372.5522861001082	375.1059721999336	2.1663301000371575	371.3901158999652	374.0895116000902	378.1639133999124	1.1621702001429526	1.0164605998434126	1.404299900168553	377.1505805000197	0.6055099000222981	376.1189880999737	1	1	43	1	go_reward	1	1	0	1	1	1	0	0.0	1.0	1	0.463232500012964	0.6055099000222981	102.9494096999988	473.3353657000698	474.339525599964	475.501695800107	477.038921300089	478.0553818999324	479.0683977999725	480.0999902000185	481.1133230999112	482.51762300007977	2019-12-31 18:55:53.318516	15.2613866836314	12.8950187713881	0.0	12.8950187713881	15.2613866836314	0.0	-15.2613866836314	12.8950187713881	0.0	15.2613866836314	0.0	2.4948653162322003	8.564092112682793	12.279746681880628	-0.8014663329031446	8.95747025568959	12.618335243111018	-0.8014663329031446	2.1363203530525614	10.190480511445339	1.6263883987625374	8.855637073859508	2.622643275117976	1	correct	1.0
379.55010870005935	8.280805699992868	go_reward	0.6187664000317454	379.601788100088	381.07471979991533	383.6301458000671	1.4729316998273134	380.6060792000499	382.6059856000356	386.6712168999948	0.4686405998654095	1.024160200031531	1.2113769000860657	385.66280879988335	0.8389574999455363	384.6406348000746	1	1	44	1	go_reward	1	1	0	1	1	1	0	0.0	1.0	1	0.6187664000317454	0.8389574999455363	102.9494096999988	482.5511978000868	483.5554889000487	484.0241294999141	485.5553953000344	486.5795555000659	487.5900445000734	488.61221849988215	489.6206265999936	490.8320035000797	2019-12-31 18:55:53.318516	16.227182241167	13.7670818267242	0.0	13.7670818267242	16.227182241167	0.0	-16.227182241167	13.7670818267242	0.0	16.227182241167	0.0	1.6228022608961012	9.529887670218393	13.151809737216727	-0.8014663329031446	9.829533311025688	13.584130800646617	-0.8014663329031446	1.2642572977164626	11.156276068980938	1.6263883987625374	9.727700129195608	2.622643275117976	1	correct	1.0
387.86774210003205	8.194657299900427	go_reward	0.3560022998135537	387.9194215000607	389.3495942999143	391.9101625001058	1.430172799853608	388.9283571999986	390.88603479997255	394.9489541000221	0.4212370999157429	1.0241277001332492	1.1651246999390423	393.9435968999751	0.4249287000857293	392.9246159000322	1	1	45	1	go_reward	1	1	0	1	1	1	1	1.0	1.0	1	0.3560022998135537	0.4249287000857293	102.9494096999988	490.8688312000595	491.87776689999737	492.2990039999131	493.83544449997135	494.8595722001046	495.874025600031	496.8930065999739	497.8983638000209	499.06348849995993	2019-12-31 18:55:53.318516	16.8247515730287	14.3023685913423	0.0	14.3023685913423	16.8247515730287	0.0	-16.8247515730287	14.3023685913423	0.0	16.8247515730287	0.0	1.0875154962779998	10.127457002080092	13.687096501834828	-0.8014663329031446	10.364820075643792	14.181700132508317	-0.8014663329031446	0.7289705330983611	11.753845400842637	1.6263883987625374	10.26298689381371	2.622643275117976	1	correct	1.0
396.09507129993295	8.626036300091016	go_reward	0.3467636001296341	396.1467506999616	397.8228341999929	400.363961199997	1.6760835000312682	397.1511228000745	399.3536704001017	403.4177200000268	0.6717113999183653	1.0102907998953015	1.3550670000258265	402.405106900027	0.4072076000738889	401.3763176999055	1	1	46	1	go_reward	0	0	1	1	1	1	1	1.0	1.0	0	0.3467636001296341	0.4072076000738889	102.9494096999988	499.0961603999604	500.1005325000733	500.7722438999917	502.3030801001005	503.3133708999958	504.3257273999043	505.3545166000258	506.3671297000256	507.7221967000514	2019-12-31 18:55:53.318516	17.2066596592423	14.6421500179461	0.0	14.6421500179461	17.2066596592423	0.0	-17.2066596592423	14.6421500179461	0.0	17.2066596592423	0.0	-14.6421500179461	10.509365088293691	14.026877928438628	-0.8014663329031446	10.704601502247591	14.563608218721916	-0.8014663329031446	-15.00069498112574	12.135753487056236	1.6263883987625374	10.60276832041751	2.622643275117976	1	correct	1.0
404.76255069999024	9.087025699904189	go_punish	0.3496160001959651	404.8142301000189	406.8168822999578	409.3669489999302	2.0026521999388933	405.8246802999638	408.3475810999516	412.43422359996475	0.9922019999939948	1.0193678999785902	1.4670321999583393	411.42154449992813	0.3411960999947041	410.39333339990117	1	1	47	3	go_punish	1	0	-1	1	1	1	0	0.0	1.0	0	0.3496160001959651	0.3411960999947041	102.9494096999988	507.7636398000177	508.7740899999626	509.7662919999566	511.2969907999504	512.316358699929	513.3427430999	514.3709541999269	515.3836332999635	516.8506654999219	2019-12-31 18:55:53.318516	1.09662227041468	-4.22137051648233	-4.37737021496903	-4.58036082243816	-3.28074794455435	-4.37737021496903	-1.09662227041468	-4.22137051648233	-4.37737021496903	-3.28074794455435	-4.37737021496903	4.22137051648233	-5.600672300533928	-4.836642605989804	-5.178836547872175	-8.51790933813667	-5.923799385074732	-5.178836547872175	3.862825553302691	-8.351654116740413	-2.750981816206493	-8.260752214010921	-1.754726939851054	1	correct	1.0
413.8892278999556	8.149912599939853	go_punish	0.9333403001073748	413.94090729998425	415.2721863000188	417.82789069996215	1.3312790000345558	414.9437470000703	416.8033316999208	420.88789139990695	0.3284392999485135	1.0245590000413358	1.2029285000171512	419.87464799988084	0.5759361998643726	418.8405808999669	1	1	48	3	go_punish	0	-1	0	1	1	1	0	0.0	1.0	-1	0.9333403001073748	0.5759361998643726	102.9494096999988	516.890316999983	517.8931567000691	518.2215960000176	519.7527413999196	520.777300399961	521.7899905999657	522.8240576998796	523.8373010999057	525.0402295999229	2019-12-31 18:55:53.318516	3.02867488284918	-2.36720380391977	-4.37737021496903	-2.61033230423299	-1.34869533211984	-4.37737021496903	-3.02867488284918	-2.36720380391977	-4.37737021496903	-1.34869533211984	-4.37737021496903	-7.620286175348459	-3.6686196880994277	-2.982475893427243	-5.178836547872175	-6.5478808199315	-3.991746772640222	-5.178836547872175	-7.978831138528098	-6.419601504305902	-2.750981816206493	-6.406585501448361	-1.754726939851054	1	correct	1.0
422.0768053000793	8.292548599885777	go_punish	0.3019971000030637	422.12848470010795	423.47621980006807	426.02403420000337	1.3477350999601185	423.1324291001074	425.00302379997447	429.0619888000656	0.3437906999606639	1.0210104000288993	1.3590444999281317	428.0492481999099	0.4431306000333279	427.03746729996055	1	1	49	3	go_punish	1	0	-1	1	1	1	1	1.0	1.0	0	0.3019971000030637	0.4431306000333279	102.9494096999988	525.0778944001067	526.0818388001062	526.4256295000669	527.9524334999733	528.9734439000022	529.9868769999593	530.9986578999087	532.0113985000644	533.3704429999925	2019-12-31 18:55:53.318516	-0.218970873445092	-5.46451055244884	-4.37737021496903	-5.63309402218214	-4.59634108841412	-4.37737021496903	0.218970873445092	-5.46451055244884	-4.37737021496903	-4.59634108841412	-4.37737021496903	5.46451055244884	-6.9162654443937	-6.079782641956314	-5.178836547872175	-9.570642537880651	-7.239392528934502	-5.178836547872175	5.105965589269202	-9.667247260600181	-2.750981816206493	-9.503892249977431	-1.754726939851054	1	correct	1.0
430.4047844999004	8.408958100015298	nogo_reward	0.4432721000630408	430.4564638999291	432.3303102001082	434.8531577999238	1.8738463001791388	431.4713558999356	433.8416637000628	437.9031356999185	0.858954300172627	1.011494099861011	0.9622863000258803	436.8995377998799	0.4009794001467526	435.8705398000311	1	1	50	2	nogo_reward	1	0	1	0	1	0	0	0.0	1.0	0	0.4432721000630408	0.4009794001467526	102.9494096999988	533.4058735999279	534.4207655999344	535.279719900107	536.7910734000616	537.8025674999226	538.8199495000299	539.8489474998787	540.8525453999173	541.8148316999432	2019-12-31 18:55:53.318516	-2.41413473838786	0.0	4.09001236646328	4.09001236646328	1.67587762807542	4.09001236646328	2.41413473838786	0.0	4.09001236646328	1.67587762807542	4.09001236646328	0.0	-9.111429309336469	-0.615272089507473	3.2885460335601353	0.15246385076476976	-0.9671738124449623	3.2885460335601353	-0.35854496317963874	-3.395028544110642	5.716400765225817	-4.039381697528591	6.7126556415812555	1	correct	1.0
438.85346499993466	8.111641000024974	go_punish	0.3455463999416679	438.9051443999633	440.4070043999236	442.9576423999388	1.5018599999602884	439.9071877999231	441.9377192000393	446.01321820006706	0.4998166000004858	1.0199231998994946	1.0035671999212354	445.00088270008564	0.3243724999483675	443.9640663000755	1	1	51	3	go_punish	1	0	-1	1	1	1	1	1.0	1.0	0	0.3455463999416679	0.3243724999483675	102.9494096999988	541.8545540999621	542.8565974999219	543.3564140999224	544.8871289000381	545.9070520999376	546.9134760000743	547.9502924000844	548.9626279000659	549.9661950999871	2019-12-31 18:55:53.318516	2.23469660554969	-3.11105993940984	-4.37737021496903	-3.23038580948067	-2.14267360941933	-4.37737021496903	-2.23469660554969	-3.11105993940984	-4.37737021496903	-2.14267360941933	-4.37737021496903	3.11105993940984	-4.462597965398918	-3.726332028917313	-5.178836547872175	-7.16793432517918	-4.785725049939712	-5.178836547872175	2.7525149762302012	-7.213579781605391	-2.750981816206493	-7.150441636938432	-1.754726939851054	1	correct	1.0
446.9991198000498	7.810893099987879	go_reward	0.3410712000913918	447.0507992000785	448.39543429994956	450.95654110005125	1.344635099871084	448.067196900025	449.9320773000363	454.00146510009654	0.3282373999245465	1.024463800014928	0.8602271999698132	452.9986731999088	0.3216766000259667	451.97090069996193	1	1	52	1	go_reward	1	1	0	1	1	1	0	0.0	1.0	1	0.3410712000913918	0.3216766000259667	102.9494096999988	550.0002089000773	551.0166066000238	551.3448439999484	552.8814870000351	553.90595080005	554.9203103999607	555.9480828999076	556.9508748000953	557.8111020000651	2019-12-31 18:55:53.318516	10.5714248973484	8.48613043817895	0.0	8.48613043817895	10.5714248973484	0.0	-10.5714248973484	8.48613043817895	0.0	10.5714248973484	0.0	6.9037536494413505	3.8741303263997926	7.870858348671478	-0.8014663329031446	4.54858192248044	7.928373456828018	-0.8014663329031446	6.545208686261712	5.500518725162339	1.6263883987625374	4.446748740650359	2.622643275117976	1	correct	1.0
454.8458072000649	9.667061899788678	nogo_punish	1.0	454.89748660009354	457.6053657999728	460.1203272000421	2.707879199879244	455.9028688000981	459.1104065000545	463.17382879997604	1.702496999874711	1.0099206999875605	1.3907196999061853	462.1604456999339	0.6185908999759704	461.1320464001037	1	1	53	4	nogo_punish	1	-1	0	0	0	1	0	0.0	1.0	0	1.0	0.6185908999759704	102.9494096999988	557.8468963000923	558.8522785000969	560.5547754999716	562.0598162000533	563.0697369000409	564.0814561001025	565.1098553999327	566.1232384999748	567.513958199881	2019-12-31 18:55:53.318516	5.50860169848605	-7.6646686069708	-1.10954909607585	-1.55873101996266	-6.6181507945619	-1.10954909607585	-5.50860169848605	-1.10954909607585	-7.6646686069708	-1.10954909607585	-6.6181507945619	1.10954909607585	-1.1886928724625578	-8.279940696478272	-1.9110154289789947	-5.49627953566117	-9.261202235082282	-1.9110154289789947	0.7510041328962114	-6.180455268261912	-4.991762395799363	-5.148930793604441	-5.042025331852823	1	correct	1.0
464.55239169998094	9.037708299933001	go_punish	0.258273399900645	464.6040711000096	467.1603471999988	469.7061908999458	2.5562760999891907	465.62094409996644	468.69719299999997	472.7579206000082	1.5394031000323594	1.0089978999458253	0.8838587999343872	471.74492849991657	0.4626560998149216	470.71689939987846	1	1	54	3	go_punish	1	0	-1	1	1	1	0	0.0	1.0	0	0.258273399900645	0.4626560998149216	102.9494096999988	567.5534808000084	568.5703537999652	570.1097568999976	571.6466026999988	572.6556005999446	573.6663090998773	574.6943381999154	575.707330300007	576.5911890999414	2019-12-31 18:55:53.318516	3.57102054373896	-1.84553705185732	-4.37737021496903	-1.9315340223924	-0.806349671230065	-4.37737021496903	-3.57102054373896	-1.84553705185732	-4.37737021496903	-0.806349671230065	-4.37737021496903	1.84553705185732	-3.126274027209648	-2.460809141364793	-5.178836547872175	-5.86908253809091	-3.449401111750447	-5.178836547872175	1.4869920886776813	-5.877255843416127	-2.750981816206493	-5.8849187493859105	-1.754726939851054	1	correct	1.0
473.6250835999381	8.420659499941394	nogo_punish	1.0	473.67676299996674	475.031689299969	477.5672685999889	1.354926300002262	474.6718073000666	476.5473267000634	480.61935160006396	0.3598819999024272	1.0199418999254704	1.4780708998441696	479.60912979999557	0.476813199929893	478.5848103000317	1	1	55	4	nogo_punish	1	-1	0	0	0	1	1	1.0	1.0	0	1.0	0.476813199929893	102.9494096999988	576.6261726999655	577.6212170000654	577.9810989999678	579.4967364000622	580.5166782999877	581.5342200000305	582.5585394999944	583.5687613000628	585.0468321999069	2019-12-31 18:55:53.318516	5.86873321563962	-7.6646686069708	-0.703167207521395	-1.01194111522222	-6.57190042316102	-0.703167207521395	-5.86873321563962	-0.703167207521395	-7.6646686069708	-0.703167207521395	-6.57190042316102	0.703167207521395	-0.8285613553089881	-8.279940696478272	-1.5046335404245397	-4.949489630920731	-9.214951863681403	-1.5046335404245397	0.3446222443417563	-5.774073379707457	-4.945512024398483	-4.742548905049986	-5.042025331852823	1	correct	1.0
482.07954549998976	8.438054099911824	nogo_punish	1.0	482.1312249000184	483.7879800000228	486.3223917998839	1.656755100004375	483.13251459994353	485.2991766000632	489.35138130001724	0.6554654000792652	1.0232151998206973	1.21789769991301	488.3384761000052	0.4894201001152396	487.32514690002427	1	1	56	4	nogo_punish	0	0	-1	0	0	1	0	0.0	1.0	-1	1.0	0.4894201001152396	102.9494096999988	585.0806346000172	586.0819242999423	586.7373897000216	588.248586300062	589.2718014998827	590.2745566000231	591.287885800004	592.300791000016	593.518688699929	2019-12-31 18:55:53.318516	6.08085885295065	-7.6646686069708	-0.458933288201332	-0.675480036386901	-6.53979214115198	-0.458933288201332	-6.08085885295065	-0.458933288201332	-7.6646686069708	-0.458933288201332	-6.53979214115198	-9.528556691066898	-0.616435717997958	-8.279940696478272	-1.2603996211044766	-4.613028552085411	-9.182843581672362	-1.2603996211044766	-9.887101654246537	-5.529839460387394	-4.913403742389443	-4.498314985729923	-5.042025331852823	1	correct	1.0
490.552774899872	8.550760800018907	nogo_reward	0.372462400002405	490.6044542999007	492.54115099995397	495.07909999997355	1.9366967000532895	491.6197331000585	494.0662549000699	498.13001139997505	0.9214178998954594	1.0128450999036431	1.0252036999445409	497.1157539000269	0.4770033000968396	496.0955964999739	1	1	57	2	nogo_reward	1	0	1	0	1	0	0	0.0	1.0	0	0.372462400002405	0.4770033000968396	102.9494096999988	593.5538639998995	594.5691428000573	595.4905606999528	597.0156646000687	598.0285096999723	599.0450061999727	600.0651636000257	601.0794210999738	602.1046247999184	2019-12-31 18:55:53.318516	-2.56581388693046	0.0	4.09001236646328	2.58888476169008	1.52419847953282	4.09001236646328	2.56581388693046	0.0	4.09001236646328	1.52419847953282	4.09001236646328	0.0	-9.263108457879067	-0.615272089507473	3.2885460335601353	-1.34866375400843	-1.1188529609875622	3.2885460335601353	-0.35854496317963874	-3.546707692653242	5.716400765225817	-4.039381697528591	6.7126556415812555	1	correct	1.0
499.14531509997323	9.08381039998494	go_punish	0.3607163999695331	499.1969945000019	501.633862900082	504.17066870001145	2.4368684000801295	500.1969707000535	503.1553068999201	507.22492929990403	1.4368922000285238	1.0153618000913411	1.0558756000827998	506.21356779988855	0.4395902000833303	505.1818901000079	1	1	58	3	go_punish	0	-1	0	1	1	1	0	0.0	1.0	-1	0.3607163999695331	0.4395902000833303	102.9494096999988	602.1464042000007	603.1463804000523	604.5832726000808	606.1047165999189	607.1200784000102	608.1312998000067	609.1629774998873	610.1743389999028	611.2302145999856	2019-12-31 18:55:53.318516	4.32969559943497	-1.1361210637356	-4.37737021496903	-1.19908774859117	-0.0476746155340566	-4.37737021496903	-4.32969559943497	-1.1361210637356	-4.37737021496903	-0.0476746155340566	-4.37737021496903	-8.851368915532628	-2.3675989715136376	-1.751393153243073	-5.178836547872175	-5.13663626428968	-2.6907260560544386	-5.178836547872175	-9.209913878712268	-5.118580787720118	-2.750981816206493	-5.175502761264191	-1.754726939851054	1	correct	1.0
508.2625895999372	7.7056249000597745	go_reward	0.3696111000608653	508.31426899996586	509.67492699995637	512.2189011001028	1.360657999990508	509.3160166000016	511.19542520004325	515.2557296000887	0.35891039995476604	1.023475900059566	0.7641642999369651	514.2521081999876	0.5536392999347299	513.2330016000196	1	1	59	1	go_reward	1	1	0	1	1	1	0	0.0	1.0	1	0.3696111000608653	0.5536392999347299	102.9494096999988	611.2636786999647	612.2654263000004	612.6243366999552	614.144834900042	615.1683108001016	616.1824113000184	617.2015178999864	618.2051393000875	618.9693036000244	2019-12-31 18:55:53.318516	13.8110131107539	11.5152009923188	0.0	11.5152009923188	13.8110131107539	0.0	-13.8110131107539	11.5152009923188	0.0	13.8110131107539	0.0	3.874683095301501	7.113718539805292	10.899928902811327	-0.8014663329031446	7.5776524766202895	11.167961670233517	-0.8014663329031446	3.516138132121862	8.740106938567838	1.6263883987625374	7.475819294790209	2.622643275117976	1	correct	1.0
516.0081738999579	8.724767900072038	nogo_reward	1.0	516.0598532999866	517.9150131000206	520.4292409000918	1.8551598000340164	517.0771506999154	519.4138962998986	523.4677591999061	0.8378624001052231	1.0153446001932025	1.3168620001524687	522.455183000071	0.4149929999839514	521.4425913000014	1	1	60	2	nogo_reward	1	0	1	0	0	1	0	0.0	1.0	1	1.0	0.4149929999839514	102.9494096999988	619.0092629999854	620.0265603999142	620.8644228000194	622.3633059998974	623.3786506000906	624.3920010000002	625.4045927000698	626.4171688999049	627.7340309000574	2019-12-31 18:55:53.318516	2.6650436933501	0.0	4.09001236646328	1.69206132403709	1.42496867311318	4.09001236646328	-2.6650436933501	4.09001236646328	0.0	4.09001236646328	1.42496867311318	11.299871721157022	-4.032250877598508	-0.615272089507473	3.2885460335601353	-2.24548719166142	-1.2180827674072021	3.2885460335601353	10.941326757977382	-0.9808938057227818	3.0513570718757173	0.05063066893468893	2.622643275117976	1	correct	1.0
