onset	duration	trial_type	response_time	cueOnset	targetOnset	fbOnset	cueRT	firstfixOnset	secondfixOnset	waitOnset	firstfixdur	secondfixdur	waitdur	nback_fbOnset	nback_response_time	nback_targetOnset	block	wm	trial	cue	cond	is_common	outcome_go	outcome_nogo	key_correct	key_pressed	is_correct	key_correct_nback	key_pressed_nback	is_correct_nback	outcome	rt	rt_nback	time_scan	time_onset	time_isi1	time_circle	time_isi2	time_feedback	time_same	time_correct	time_iti	time_done	timestamp_scan	DV	Qgo	Qnogo	SV	Wgo	Wnogo	mDV	Qchosen	Qunchosen	Wchosen	Wunchosen	PE	DVC	QgoC	QnogoC	SVC	WgoC	WnogoC	PEC	WchosenC	WunchosenC	QchosenC	QunchosenC	run	outcome_nback	nback_targetResp
0.0	7.120335999999952	nogo_punish	0.2938670000003185	0.037040900000647525	2.5826546999996935	5.181021700000201	2.545613799999046	1.05333679999967	4.145154499999762	6.194149299999481	1.5293179000000237	1.035867200000439	0.9632276000011188	n/a	1.0	n/a	2	0	1	4	nogo_punish	1	-1	0	0	1	0	0	n/a	n/a	-1	0.2938670000003185	1.0	1240.8674061000002	1240.9044470000008	1241.9207428999998	1243.4500607999998	1245.0125606	1246.0484278000004	n/a	n/a	1247.0615553999996	1248.0247830000008	2019-11-08 17:44:49.062793	0.384816583217135	0.0	0.0	0.0	0.384816583217135	0.0	-0.384816583217135	0.0	0.0	0.384816583217135	0.0	-20.0854376850749	-6.291492146154792	-1.0154703823816438	-0.9098917516799765	-3.8343733886876565	-0.7009880813675258	-0.9098917516799765	-20.545829110344723	-3.951185989601149	2.3403061565536443	-4.36027619168174	2.4349140576201167	3	missed	0.0
7.155122599999231	7.506374099999675	nogo_punish	1.0	7.192163499999879	9.66989199999989	12.192348200000197	2.477728500000012	8.200839900000574	11.170204300000478	13.202995600000577	1.4690520999993169	1.022143899999719	1.4955419999989772	n/a	1.0	n/a	2	0	2	4	nogo_punish	1	-1	0	0	0	1	0	n/a	n/a	0	1.0	1.0	1240.8674061000002	1248.0595696	1249.0682460000007	1250.5372981	1252.0376104000006	1253.0597543000003	n/a	n/a	1254.0704017000007	1255.5659436999997	2019-11-08 17:44:49.062793	5.01772345906515	-5.30416844886653	0.0	-5.30416844886653	-5.01772345906515	0.0	-5.01772345906515	0.0	-5.30416844886653	0.0	-5.01772345906515	0.0	-1.6585852703067774	-6.319638831248174	-0.9098917516799765	-9.138541837554186	-6.10352812364981	-0.9098917516799765	-0.4603914252698236	-4.336002572818284	-2.6774173025115053	-4.36027619168174	-2.8692543912464137	3	missed	0.0
14.718152299999929	6.203494800000044	go_reward	0.2608950000012555	14.755193200000576	16.33742499999994	18.92548689999967	1.582231799999363	15.765159999999014	17.897992199999862	19.942306200000758	0.5722650000009253	1.0274946999998065	1.0163817999998628	n/a	1.0	n/a	2	0	3	1	go_reward	0	0	1	1	1	1	0	n/a	n/a	0	0.2608950000012555	1.0	1240.8674061000002	1255.6225993000007	1256.6325660999992	1257.2048311	1258.7653983	1259.7928929999998	n/a	n/a	1260.809712300001	1261.8260941000008	2019-11-08 17:44:49.062793	0.384816583217135	0.0	0.0	0.0	0.384816583217135	0.0	-0.384816583217135	0.0	0.0	0.384816583217135	0.0	0.0	-6.291492146154792	-1.0154703823816438	-0.9098917516799765	-3.8343733886876565	-0.7009880813675258	-0.9098917516799765	-0.4603914252698236	-3.951185989601149	2.3403061565536443	-4.36027619168174	2.4349140576201167	3	missed	0.0
20.956381899999542	6.096455599999899	nogo_punish	1.0	20.99342280000019	22.516008200000215	25.043277700000544	1.5225854000000254	22.01295620000019	24.017985999998928	26.057394199998953	0.5030520000000251	1.0252917000016168	1.0324842000011358	n/a	1.0	n/a	2	0	4	4	nogo_punish	1	-1	0	0	0	1	1	n/a	n/a	0	1.0	1.0	1240.8674061000002	1261.8608289000003	1262.8803623000003	1263.3834143000004	1264.885392099999	1265.9106838000007	n/a	n/a	1266.924800299999	1267.9572845000002	2019-11-08 17:44:49.062793	5.00723570178875	-5.30416844886653	0.0	-3.83477885502629	-5.00723570178875	0.0	-5.00723570178875	0.0	-5.30416844886653	0.0	-5.00723570178875	0.0	-1.6690730275831767	-6.319638831248174	-0.9098917516799765	-7.669152243713946	-6.093040366373411	-0.9098917516799765	-0.4603914252698236	-4.336002572818284	-2.666929545235106	-4.36027619168174	-2.8692543912464137	3	missed	0.0
27.093437799998355	6.557177899999942	go_reward	1.0	27.130478699999003	28.879431899998963	31.40623779999987	1.74895319999996	28.142198199999257	30.38285360000009	32.429199099999096	0.737233699999706	1.0233841999997821	1.2584574999998495	n/a	1.0	n/a	2	0	5	1	go_reward	0	0	1	1	0	0	1	n/a	n/a	1	1.0	1.0	1240.8674061000002	1267.9978847999992	1269.0096042999994	1269.7468379999991	1271.2502597000002	1272.2736439	n/a	n/a	1273.2966051999992	1274.555062699999	2019-11-08 17:44:49.062793	-0.384816583217135	0.0	0.0	0.0	0.384816583217135	0.0	0.384816583217135	0.0	0.0	0.0	0.384816583217135	19.3009380216129	-7.061125312589062	-1.0154703823816438	-0.9098917516799765	-3.8343733886876565	-0.7009880813675258	-0.9098917516799765	18.840546596343078	-4.336002572818284	2.725122739770779	-4.36027619168174	2.4349140576201167	3	missed	0.0
33.73581979999835	6.7106659000000946	go_punish	0.2779239999999845	33.772860699999	36.12947510000049	38.70007939999937	2.35661440000149	34.790943199999674	37.67937729999903	39.719848299999285	1.3385319000008167	1.0207021000003351	0.7636782999998104	n/a	1.0	n/a	2	0	6	3	go_punish	1	0	-1	1	1	1	0	n/a	n/a	0	0.2779239999999845	1.0	1240.8674061000002	1274.6402667999992	1275.6583492999998	1276.9968812000006	1278.5467833999992	1279.5674854999995	n/a	n/a	1280.5872543999994	1281.3509326999992	2019-11-08 17:44:49.062793	0.384816583217135	0.0	0.0	0.0	0.384816583217135	0.0	-0.384816583217135	0.0	0.0	0.384816583217135	0.0	0.0	-6.291492146154792	-1.0154703823816438	-0.9098917516799765	-3.8343733886876565	-0.7009880813675258	-0.9098917516799765	-0.4603914252698236	-3.951185989601149	2.3403061565536443	-4.36027619168174	2.4349140576201167	3	missed	0.0
40.48921279999922	6.26511550000032	go_reward	1.0	40.52625369999987	42.008731899999475	44.533252600000196	1.4824781999996048	41.540064099999654	43.516084599999886	45.547187899999926	0.468667799999821	1.0171680000003107	1.244181300000264	n/a	1.0	n/a	2	0	7	1	go_reward	1	1	0	1	0	0	1	n/a	n/a	0	1.0	1.0	1240.8674061000002	1281.3936598	1282.4074701999998	1282.8761379999996	1284.3834907	1285.4006587000003	n/a	n/a	1286.414594	1287.6587753000003	2019-11-08 17:44:49.062793	5.13274375961705	0.0	5.5111741481775	5.5111741481775	0.378430388560453	5.5111741481775	-5.13274375961705	5.5111741481775	0.0	5.5111741481775	0.378430388560453	-5.5111741481775	-1.5435649697548772	-1.0154703823816438	4.601282396497524	1.6768007594898435	-0.7073742760242079	4.601282396497524	-5.971565573447323	1.175171575359216	2.7187365451140972	1.1508979564957604	2.4349140576201167	3	missed	0.0
46.82650919999833	6.364972200000921	go_punish	0.700764799999888	46.863550099998974	48.22347950000017	50.791826700000456	1.3599294000011923	47.8708330999998	49.76927109999974	51.814803799999936	0.35264640000036707	1.0225556000007145	1.413718499999959	n/a	1.0	n/a	2	0	8	3	go_punish	1	0	-1	1	1	1	1	n/a	n/a	0	0.700764799999888	1.0	1240.8674061000002	1287.7309561999991	1288.7382392	1289.0908856000003	1290.6366772	1291.6592328000006	n/a	n/a	1292.6822099	1294.0959284	2019-11-08 17:44:49.062793	0.384816583217135	0.0	0.0	0.0	0.384816583217135	0.0	-0.384816583217135	0.0	0.0	0.384816583217135	0.0	0.0	-6.291492146154792	-1.0154703823816438	-0.9098917516799765	-3.8343733886876565	-0.7009880813675258	-0.9098917516799765	-0.4603914252698236	-3.951185989601149	2.3403061565536443	-4.36027619168174	2.4349140576201167	3	missed	0.0
53.28116939999927	7.404145000000426	nogo_reward	0.23565889999918	53.31821029999992	55.62453950000054	58.204766999999265	2.3063292000006186	54.33096300000034	57.17556870000044	59.22637360000044	1.2935765000001993	1.029198299998825	1.495981699999902	n/a	1.0	n/a	2	0	9	2	nogo_reward	0	1	0	0	1	0	0	n/a	n/a	1	0.23565889999918	1.0	1240.8674061000002	1294.1856164	1295.1983691000005	1296.4919456000007	1298.0429748000006	1299.0721730999994	n/a	n/a	1300.0937797000006	1301.5897614000005	2019-11-08 17:44:49.062793	0.384816583217135	0.0	0.0	0.0	0.384816583217135	0.0	-0.384816583217135	0.0	0.0	0.384816583217135	0.0	19.3009380216129	-6.291492146154792	-1.0154703823816438	-0.9098917516799765	-3.8343733886876565	-0.7009880813675258	-0.9098917516799765	18.840546596343078	-3.951185989601149	2.3403061565536443	-4.36027619168174	2.4349140576201167	3	missed	0.0
60.7313753999988	7.3906378000012865	go_reward	1.0	60.768416299999444	63.75717509999936	66.27249250000023	2.988758799999914	61.77826669999922	65.2557868999993	67.28708379999989	1.9789084000001367	1.0167056000009325	0.8719703000008394	n/a	1.0	n/a	2	0	10	1	go_reward	1	1	0	1	0	0	0	n/a	n/a	0	1.0	1.0	1240.8674061000002	1301.6358223999996	1302.6456727999994	1304.6245811999995	1306.1231929999994	1307.1398986000004	n/a	n/a	1308.1544899	1309.0264602000009	2019-11-08 17:44:49.062793	3.47776997742665	0.0	3.87575616093412	3.87575616093412	0.397986183507477	3.87575616093412	-3.47776997742665	3.87575616093412	0.0	3.87575616093412	0.397986183507477	-3.87575616093412	-3.198538751945277	-1.0154703823816438	2.9658644092541433	0.04138277224646325	-0.6878184810771839	2.9658644092541433	-4.336147586203944	-0.46024641188416426	2.7382923400611214	-0.48452003074761985	2.4349140576201167	3	missed	0.0
68.16384249999828	5.8943476000006285	nogo_punish	1.0	68.20088339999893	69.58233499999915	72.09457389999989	1.3814516000002186	69.21326980000049	71.08307950000017	73.11632909999935	0.3690651999986585	1.0114943999997195	0.9789019000002099	n/a	1.0	n/a	2	0	11	4	nogo_punish	1	-1	0	0	0	1	0	n/a	n/a	0	1.0	1.0	1240.8674061000002	1309.068289499999	1310.0806759000006	1310.4497410999993	1311.9504856000003	1312.96198	n/a	n/a	1313.9837351999995	1314.9626370999997	2019-11-08 17:44:49.062793	4.9949998323108	-5.30416844886653	0.0	-2.78991188077174	-4.9949998323108	0.0	-4.9949998323108	0.0	-5.30416844886653	0.0	-4.9949998323108	0.0	-1.6813088970611272	-6.319638831248174	-0.9098917516799765	-6.6242852694593966	-6.08080449689546	-0.9098917516799765	-0.4603914252698236	-4.336002572818284	-2.6546936757571555	-4.36027619168174	-2.8692543912464137	3	missed	0.0
74.09394549999888	6.265915800000812	go_reward	1.0	74.13098639999953	75.72072520000074	78.25330229999963	1.5897388000012143	75.14507389999926	77.23168319999968	79.26403869999922	0.575651300001482	1.0216190999999526	1.1328635000011218	n/a	1.0	n/a	2	0	12	1	go_reward	1	1	0	1	0	0	1	n/a	n/a	0	1.0	1.0	1240.8674061000002	1314.9983924999997	1316.0124799999994	1316.588131300001	1318.0990892999998	1319.1207083999998	n/a	n/a	1320.1314447999994	1321.2643083000005	2019-11-08 17:44:49.062793	2.33593719199653	0.0	2.74220834789608	2.74220834789608	0.406271155899549	2.74220834789608	-2.33593719199653	2.74220834789608	0.0	2.74220834789608	0.406271155899549	-2.74220834789608	-4.340371537375397	-1.0154703823816438	1.8323165962161037	-1.0921650407915764	-0.6795335086851119	1.8323165962161037	-3.202599773165904	-1.593794224922204	2.7465773124531934	-1.6180678437856595	2.4349140576201167	3	missed	0.0
80.39412589999847	6.368658000001233	nogo_punish	1.0	80.43116679999912	82.24500210000042	84.76472269999977	1.8138353000013012	81.44800100000066	83.74717989999954	85.77656079999906	0.7970010999997612	1.0175428000002285	1.0232640000012907	n/a	1.0	n/a	2	0	13	4	nogo_punish	1	-1	0	0	0	1	1	n/a	n/a	0	1.0	1.0	1240.8674061000002	1321.2985728999993	1322.3154071000008	1323.1124082000006	1324.6145859999997	1325.6321288	n/a	n/a	1326.6439668999992	1327.6672309000005	2019-11-08 17:44:49.062793	4.98295399252735	-5.30416844886653	0.0	-2.04229219835493	-4.98295399252735	0.0	-4.98295399252735	0.0	-5.30416844886653	0.0	-4.98295399252735	0.0	-1.6933547368445767	-6.319638831248174	-0.9098917516799765	-5.876665587042586	-6.068758657112011	-0.9098917516799765	-0.4603914252698236	-4.336002572818284	-2.642647835973706	-4.36027619168174	-2.8692543912464137	3	missed	0.0
86.80592739999884	6.161046200000783	go_reward	0.6544916000002559	86.84296829999948	88.52276189999975	91.08808639999916	1.6797936000002665	87.8572564999995	90.07176160000017	92.10450610000044	0.6655054000002565	1.0163247999989835	0.8995083999998315	n/a	1.0	n/a	2	0	14	1	go_reward	1	1	0	1	1	1	1	n/a	n/a	1	0.6544916000002559	1.0	1240.8674061000002	1327.7103743999996	1328.7246625999996	1329.390168	1330.9391677000003	1331.9554924999993	n/a	n/a	1332.9719122000006	1333.8714206000004	2019-11-08 17:44:49.062793	-1.5434322052253	0.0	1.9519065426172	1.9519065426172	0.4084743373919	1.9519065426172	1.5434322052253	0.0	1.9519065426172	0.4084743373919	1.9519065426172	19.3009380216129	-8.219740934597226	-1.0154703823816438	1.0420147909372235	-1.8824668460704566	-0.6773303271927609	1.0420147909372235	18.840546596343078	-3.927528235426384	4.292212699170844	-4.36027619168174	4.386820600237317	3	missed	0.0
93.00336309999875	6.358178800001042	nogo_punish	1.0	93.0404039999994	94.41968579999934	96.94498629999907	1.3792817999999443	94.05063419999897	95.92731619999904	97.9571063000003	0.3690516000003754	1.017670100000032	1.4414765000001353	n/a	1.0	n/a	2	0	15	4	nogo_punish	1	-1	0	0	0	1	1	n/a	n/a	0	1.0	1.0	1240.8674061000002	1333.9078100999996	1334.9180402999991	1335.2870918999995	1336.7947222999992	1337.8123923999992	n/a	n/a	1338.8245124000005	1340.2659889000006	2019-11-08 17:44:49.062793	4.97200162763193	-5.30416844886653	0.0	-1.50407652019977	-4.97200162763193	0.0	-4.97200162763193	0.0	-5.30416844886653	0.0	-4.97200162763193	0.0	-1.7043071017399969	-6.319638831248174	-0.9098917516799765	-5.338449908887426	-6.057806292216591	-0.9098917516799765	-0.4603914252698236	-4.336002572818284	-2.631695471078286	-4.36027619168174	-2.8692543912464137	3	missed	0.0
99.40117539999846	6.308205700001054	go_reward	0.267827199999374	99.43821629999911	100.93462399999953	103.50471259999904	1.4964077000004181	100.45555029999923	102.4850993	104.5278202999998	0.47907370000029914	1.0196132999990368	1.218601700000363	n/a	1.0	n/a	2	0	16	1	go_reward	1	1	0	1	1	1	1	n/a	n/a	1	0.267827199999374	1.0	1240.8674061000002	1340.3056223999993	1341.3229563999994	1341.8020300999997	1343.3525054000002	1344.3721186999992	n/a	n/a	1345.3952264	1346.6138281000003	2019-11-08 17:44:49.062793	3.96046321658135	5.5111741481775	1.9519065426172	6.90886690255407	5.91236975919855	1.9519065426172	-3.96046321658135	5.5111741481775	1.9519065426172	5.91236975919855	1.9519065426172	13.789763873435401	-2.715845512790577	4.495703765795856	1.0420147909372235	3.074493513866414	4.82656509461389	1.0420147909372235	13.329372448165577	1.5763671863802662	4.292212699170844	1.1508979564957604	4.386820600237317	3	missed	0.0
105.7717378999987	7.65871960000004	go_punish	1.0	105.80877879999935	108.53673049999975	111.05842879999909	2.7279517000004034	106.81713359999935	110.03794100000073	112.06903160000002	1.719596900000397	1.0204877999983637	1.398466799999369	n/a	1.0	n/a	2	0	17	3	go_punish	1	0	-1	1	0	0	0	n/a	n/a	-1	1.0	1.0	1240.8674061000002	1346.6761848999995	1347.6845396999995	1349.4041366	1350.9053471000009	1351.9258348999992	n/a	n/a	1352.9364377000002	1354.3349044999995	2019-11-08 17:44:49.062793	-0.384816583217135	0.0	0.0	0.0	0.384816583217135	0.0	0.384816583217135	0.0	0.0	0.0	0.384816583217135	-20.0854376850749	-7.061125312589062	-1.0154703823816438	-0.9098917516799765	-3.8343733886876565	-0.7009880813675258	-0.9098917516799765	-20.545829110344723	-4.336002572818284	2.725122739770779	-4.36027619168174	2.4349140576201167	3	missed	0.0
113.46608409999862	6.7050146000001405	nogo_punish	1.0	113.50312499999927	115.38058669999896	117.90328319999935	1.8774616999996852	114.51488359999894	116.88473560000057	118.91686200000004	0.8657031000000188	1.018547599998783	1.2912775999993755	n/a	1.0	n/a	2	0	18	4	nogo_punish	1	-1	0	0	0	1	0	n/a	n/a	0	1.0	1.0	1240.8674061000002	1354.3705310999994	1355.382289699999	1356.247992799999	1357.7521417000007	1358.7706892999995	n/a	n/a	1359.7842681000002	1361.0755456999996	2019-11-08 17:44:49.062793	4.96247987221943	-5.30416844886653	0.0	-1.11427286212781	-4.96247987221943	0.0	-4.96247987221943	0.0	-5.30416844886653	0.0	-4.96247987221943	0.0	-1.7138288571524969	-6.319638831248174	-0.9098917516799765	-4.948646250815466	-6.048284536804091	-0.9098917516799765	-0.4603914252698236	-4.336002572818284	-2.622173715665786	-4.36027619168174	-2.8692543912464137	3	missed	0.0
120.20810519999941	6.387173400000393	nogo_punish	1.0	120.24514610000006	122.31475739999951	124.84000949999995	2.069611299999451	121.25968629999988	123.8279906000007	125.85048739999911	1.0550710999996227	1.0120188999992479	0.7818321000013384	n/a	1.0	n/a	2	0	19	4	nogo_punish	1	-1	0	0	0	1	0	n/a	n/a	0	1.0	1.0	1240.8674061000002	1361.1125522000002	1362.1270924	1363.1821634999997	1364.6953967000009	1365.7074156	n/a	n/a	1366.7178934999993	1367.4997256000006	2019-11-08 17:44:49.062793	4.95442887174994	-5.30416844886653	0.0	-0.830281482705176	-4.95442887174994	0.0	-4.95442887174994	0.0	-5.30416844886653	0.0	-4.95442887174994	0.0	-1.7218798576219871	-6.319638831248174	-0.9098917516799765	-4.664654871392832	-6.0402335363346005	-0.9098917516799765	-0.4603914252698236	-4.336002572818284	-2.6141227151962956	-4.36027619168174	-2.8692543912464137	3	missed	0.0
126.663498599999	7.252925200000391	nogo_reward	1.0	126.70053949999965	129.2067103999998	131.73202990000027	2.506170900000143	127.71521220000068	130.7090836999996	132.74029979999978	1.4914981999991141	1.0229462000006606	1.2131649000002653	n/a	1.0	n/a	2	0	20	2	nogo_reward	1	0	1	0	0	1	0	n/a	n/a	1	1.0	1.0	1240.8674061000002	1367.5679455999998	1368.5826183000008	1370.0741165	1371.5764897999998	1372.5994360000004	n/a	n/a	1373.6077059	1374.8208708000002	2019-11-08 17:44:49.062793	-5.88960453673796	5.5111741481775	0.0	5.5111741481775	5.88960453673796	0.0	5.88960453673796	0.0	5.5111741481775	0.0	5.88960453673796	19.3009380216129	-12.565913266109888	4.495703765795856	-0.9098917516799765	1.6768007594898435	4.8037998721532995	-0.9098917516799765	18.840546596343078	-4.336002572818284	8.229910693291604	-4.36027619168174	7.946088205797617	3	missed	0.0
133.94832909999968	6.615800999999919	nogo_punish	1.0	133.98537000000033	135.7957590999995	138.3297750999991	1.8103890999991563	135.00815189999935	137.30719379999937	139.34719089999976	0.7876072000001386	1.0225812999997288	1.25398010000049	n/a	1.0	n/a	2	0	21	4	nogo_punish	0	0	-1	0	0	1	1	n/a	n/a	-1	1.0	1.0	1240.8674061000002	1374.8527761000005	1375.8755579999995	1376.6631651999996	1378.1745998999995	1379.1971811999992	n/a	n/a	1380.214597	1381.4685771000004	2019-11-08 17:44:49.062793	4.94774442313397	-5.30416844886653	0.0	-0.622174108212826	-4.94774442313397	0.0	-4.94774442313397	0.0	-5.30416844886653	0.0	-4.94774442313397	-20.0854376850749	-1.7285643062379572	-6.319638831248174	-0.9098917516799765	-4.456547496900482	-6.03354908771863	-0.9098917516799765	-20.545829110344723	-4.336002572818284	-2.6074382665803255	-4.36027619168174	-2.8692543912464137	3	missed	0.0
140.62837129999912	6.16056340000091	nogo_reward	1.0	140.66541219999976	142.50261359999968	145.03403590000016	1.8372013999999126	141.68045399999937	144.01038460000018	146.0575033999994	0.8221596000003046	1.0236512999999832	0.7684722000012698	n/a	1.0	n/a	2	0	22	2	nogo_reward	1	0	1	0	0	1	1	n/a	n/a	1	1.0	1.0	1240.8674061000002	1381.5328183	1382.5478600999995	1383.3700196999998	1384.8777907000003	1385.9014420000003	n/a	n/a	1386.9249094999996	1387.6933817000008	2019-11-08 17:44:49.062793	-0.391599988850795	5.5111741481775	5.5111741481775	9.38693030911163	5.9027741370283	5.5111741481775	0.391599988850795	5.5111741481775	5.5111741481775	5.5111741481775	5.9027741370283	13.789763873435401	-7.067908718222722	4.495703765795856	4.601282396497524	5.5525569204239735	4.816969472443639	4.601282396497524	13.329372448165577	1.175171575359216	8.243080293581944	1.1508979564957604	7.946088205797617	3	missed	0.0
146.8257728999995	5.838209300000017	nogo_punish	1.0	146.86281380000014	148.20407589999922	150.72837710000022	1.341262099999085	147.87036179999996	149.70711780000056	151.74367019999954	0.3337140999992698	1.021259299999656	0.9573529000006147	n/a	1.0	n/a	2	0	23	4	nogo_punish	1	-1	0	0	0	1	1	n/a	n/a	0	1.0	1.0	1240.8674061000002	1387.7302199000003	1388.7377679	1389.0714819999994	1390.5745239000007	1391.5957832000004	n/a	n/a	1392.6110762999997	1393.5684292000003	2019-11-08 17:44:49.062793	-0.263534303048827	-5.30416844886653	-5.30416844886653	-5.77297130269255	-5.0406341458177	-5.30416844886653	0.263534303048827	-5.30416844886653	-5.30416844886653	-5.30416844886653	-5.0406341458177	5.30416844886653	-6.939843032420754	-6.319638831248174	-6.214060200546507	-9.607344691380206	-6.126438810402361	-6.214060200546507	4.843777023596707	-9.640171021684814	-2.7003279892640557	-9.66444464054827	-2.8692543912464137	3	missed	0.0
152.7268525999989	6.247670200000357	nogo_reward	1.0	152.76389349999954	154.7135570999999	157.24189599999954	1.949663600000349	153.7848374999994	156.22230750000017	158.25332170000001	0.9287196000004769	1.0195884999993723	0.758241999999882	n/a	1.0	n/a	2	0	24	2	nogo_reward	1	0	1	0	0	1	1	n/a	n/a	1	1.0	1.0	1240.8674061000002	1393.6312995999997	1394.6522435999996	1395.5809632	1397.0897136000003	1398.1093020999997	n/a	n/a	1399.1207278000002	1399.8789698	2019-11-08 17:44:49.062793	3.46270159940091	5.5111741481775	9.38693030911163	12.1291386570077	5.92422870971071	9.38693030911163	-3.46270159940091	9.38693030911163	5.5111741481775	9.38693030911163	5.92422870971071	9.91400771250127	-3.213607129971017	4.495703765795856	8.477038557431653	8.294765268320045	4.838424045126049	8.477038557431653	9.453616287231446	5.050927736293346	8.264534866264354	5.02665411742989	7.946088205797617	3	missed	0.0
159.03602799999862	7.1694155000004685	go_punish	0.3514748999987205	159.07306889999927	161.26164359999893	163.82732310000029	2.1885746999996627	160.0882142999999	162.80855519999955	164.85195600000043	1.173429299999043	1.0187679000007392	1.3905283999993117	n/a	1.0	n/a	2	0	25	3	go_punish	1	0	-1	1	1	1	0	n/a	n/a	0	0.3514748999987205	1.0	1240.8674061000002	1399.9404749999994	1400.9556204	1402.129049699999	1403.6759612999997	1404.6947292000004	n/a	n/a	1405.7193621000006	1407.1098905	2019-11-08 17:44:49.062793	5.5906134386679	0.0	-5.30416844886653	-5.30416844886653	0.286444989801378	-5.30416844886653	-5.5906134386679	0.0	-5.30416844886653	0.286444989801378	-5.30416844886653	0.0	-1.0856952907040274	-1.0154703823816438	-6.214060200546507	-9.138541837554186	-0.7993596747832828	-6.214060200546507	-0.4603914252698236	-4.049557583016906	-2.963862292312886	-4.36027619168174	-2.8692543912464137	3	missed	0.0
166.24561339999832	7.367787500001441	go_reward	0.6445697999988624	166.28265429999897	168.8475314999996	171.42263529999946	2.5648772000006375	167.29631229999904	170.40101099999993	172.43573330000072	1.5512192000005598	1.0216242999995302	1.2147084999996878	n/a	1.0	n/a	2	0	26	1	go_reward	0	0	1	1	1	1	0	n/a	n/a	0	0.6445697999988624	1.0	1240.8674061000002	1407.1500603999991	1408.1637183999992	1409.7149375999998	1411.2684171	1412.2900413999996	n/a	n/a	1413.3031394000009	1414.5178479000006	2019-11-08 17:44:49.062793	7.84708704109256	9.38693030911163	1.9519065426172	10.3937100213557	9.79899358370976	1.9519065426172	-7.84708704109256	9.38693030911163	1.9519065426172	9.79899358370976	1.9519065426172	-9.38693030911163	1.1707783117206327	8.371459926729987	1.0420147909372235	6.559336632668043	8.7131889191251	1.0420147909372235	-9.847321734381454	5.462991010891477	4.292212699170844	5.02665411742989	4.386820600237317	3	missed	0.0
173.65066549999938	6.612972400000217	go_reward	0.2678599000009853	173.68770640000002	175.26201199999923	177.8288776999998	1.5743055999992066	174.69542569999976	176.80873889999953	178.8395500000006	0.5665862999994715	1.020138800000268	1.461128799999642	n/a	1.0	n/a	2	0	27	1	go_reward	1	1	0	1	1	1	0	n/a	n/a	1	0.2678599000009853	1.0	1240.8674061000002	1414.5551125000002	1415.5628318	1416.1294180999994	1417.6761449999997	1418.6962838	n/a	n/a	1419.7069561000008	1421.1680849000004	2019-11-08 17:44:49.062793	5.10317543704844	6.6179645088302	1.9519065426172	7.3474209958037	7.05508197966564	1.9519065426172	-5.10317543704844	6.6179645088302	1.9519065426172	7.05508197966564	1.9519065426172	12.6829735127827	-1.5731332923234866	5.602494126448557	1.0420147909372235	3.513047607116043	5.969277315080979	1.0420147909372235	12.222582087512876	2.7190794068473556	4.292212699170844	2.2576883171484603	4.386820600237317	3	missed	0.0
180.33115500000008	7.225415399999974	go_punish	0.3051532999998017	180.36819590000073	182.99371249999967	185.56528500000059	2.625516599998946	181.37544999999955	184.54334259999996	186.58935270000075	1.618262500000128	1.0219424000006256	1.0042585999999574	n/a	1.0	n/a	2	0	28	3	go_punish	1	0	-1	1	1	1	0	n/a	n/a	0	0.3051532999998017	1.0	1240.8674061000002	1421.2356020000009	1422.2428560999997	1423.8611185999998	1425.4107487	1426.4326911000007	n/a	n/a	1427.456758800001	1428.4610174000009	2019-11-08 17:44:49.062793	5.6011011959443	0.0	-5.30416844886653	-3.83477885502629	0.296932747077774	-5.30416844886653	-5.6011011959443	0.0	-5.30416844886653	0.296932747077774	-5.30416844886653	0.0	-1.0752075334276272	-1.0154703823816438	-6.214060200546507	-7.669152243713946	-0.7888719175068868	-6.214060200546507	-0.4603914252698236	-4.03906982574051	-2.963862292312886	-4.36027619168174	-2.8692543912464137	3	missed	0.0
187.61732479999955	7.692313199999262	nogo_reward	1.0	187.6543657000002	190.44118770000023	192.9707770999994	2.786822000000029	188.67348049999964	191.9537292999994	193.98984519999976	1.7677072000005865	1.0170478000000003	1.3568336999996973	n/a	1.0	n/a	2	0	29	2	nogo_reward	0	1	0	0	0	1	0	n/a	n/a	0	1.0	1.0	1240.8674061000002	1428.5217718000004	1429.5408865999998	1431.3085938000004	1432.8211353999995	1433.8381831999995	n/a	n/a	1434.8572513	1436.2140849999996	2019-11-08 17:44:49.062793	6.18125219312223	5.5111741481775	12.1291386570077	14.0810451996249	5.94788646388548	12.1291386570077	-6.18125219312223	12.1291386570077	5.5111741481775	12.1291386570077	5.94788646388548	-12.1291386570077	-0.49505653624969703	4.495703765795856	11.219246905327724	10.246671810937244	4.862081799300819	11.219246905327724	-12.589530082277525	7.793136084189417	8.288192620439125	7.768862465325961	7.946088205797617	3	missed	0.0
195.37256349999916	6.525916200000211	nogo_reward	1.0	195.4096043999998	197.42143749999923	199.95194049999895	2.0118330999994214	196.4161965000003	198.92620560000069	200.9698454999998	1.0052409999989322	1.0257348999982696	0.9656751000002259	n/a	1.0	n/a	2	0	30	2	nogo_reward	1	0	1	0	0	1	0	n/a	n/a	1	1.0	1.0	1240.8674061000002	1436.2770105	1437.2836026000004	1438.2888435999994	1439.7936117000008	1440.819346599999	n/a	n/a	1441.8372516	1442.8029267000002	2019-11-08 17:44:49.062793	2.59283317044465	5.5111741481775	8.5698710514474	9.96756380582396	5.97703788100275	8.5698710514474	-2.59283317044465	8.5698710514474	5.5111741481775	8.5698710514474	5.97703788100275	10.7310669701655	-4.083475558927277	4.495703765795856	7.659979299767423	6.133190417136304	4.891233216418089	7.659979299767423	10.270675544895676	4.233868478629116	8.317344037556394	4.2095948597656605	7.946088205797617	3	missed	0.0
201.9800738999984	6.41593290000128	go_punish	0.3156709000013507	202.01711479999904	204.00422989999993	206.57540879999942	1.9871151000008922	203.02776649999942	205.55194590000065	207.58752690000074	0.9764634000005117	1.0234628999987763	0.8455207999995764	n/a	1.0	n/a	2	0	31	3	go_punish	1	0	-1	1	1	1	0	n/a	n/a	0	0.3156709000013507	1.0	1240.8674061000002	1442.8845208999992	1443.8951725999996	1444.871636	1446.4193520000008	1447.4428148999996	n/a	n/a	1448.454933000001	1449.3004538000005	2019-11-08 17:44:49.062793	5.61333706542226	0.0	-5.30416844886653	-2.78991188077174	0.309168616555729	-5.30416844886653	-5.61333706542226	0.0	-5.30416844886653	0.309168616555729	-5.30416844886653	0.0	-1.062971663949667	-1.0154703823816438	-6.214060200546507	-6.6242852694593966	-0.7766360480289318	-6.214060200546507	-0.4603914252698236	-4.026833956262555	-2.963862292312886	-4.36027619168174	-2.8692543912464137	3	missed	0.0
208.4353364999988	6.8180282000012085	go_reward	0.2928958999982569	208.47237739999946	210.3361103999996	212.92477399999893	1.8637330000001384	209.48242039999968	211.89862530000028	213.93400719999954	0.853689999999915	1.0261486999986573	1.356398400001126	n/a	1.0	n/a	2	0	32	1	go_reward	1	1	0	1	1	1	0	n/a	n/a	1	0.2928958999982569	1.0	1240.8674061000002	1449.3397834999996	1450.3498264999998	1451.2035164999998	1452.7660314000004	1453.792180099999	n/a	n/a	1454.8014132999997	1456.1578117000008	2019-11-08 17:44:49.062793	8.69181411585818	10.2052890386908	1.9519065426172	10.7368766802117	10.6437206584754	1.9519065426172	-8.69181411585818	10.2052890386908	1.9519065426172	10.6437206584754	1.9519065426172	9.0956489829221	2.0155053864862538	9.189818656309157	1.0420147909372235	6.902503291524044	9.55791599389074	1.0420147909372235	8.635257557652276	6.3077180856571164	4.292212699170844	5.845012847009061	4.386820600237317	3	missed	0.0
215.285700299999	7.733663900000693	nogo_punish	1.0	215.32274119999965	218.11530459999994	220.63881530000072	2.79256340000029	216.341000299999	219.617694999999	221.6552343000003	1.7743043000009493	1.0211203000017122	1.4011708000000453	n/a	1.0	n/a	2	0	33	4	nogo_punish	1	-1	0	0	0	1	0	n/a	n/a	0	1.0	1.0	1240.8674061000002	1456.1901472999998	1457.2084063999991	1458.9827107	1460.4851010999992	1461.5062214000009	n/a	n/a	1462.5226404000005	1463.9238112000005	2019-11-08 17:44:49.062793	1.19090969154178	-5.30416844886653	-3.83477885502629	-4.18991751325452	-5.02568854656807	-3.83477885502629	-1.19090969154178	-3.83477885502629	-5.30416844886653	-3.83477885502629	-5.02568854656807	3.83477885502629	-5.485399037830147	-6.319638831248174	-4.744670606706267	-8.024290901942177	-6.11149321115273	-4.744670606706267	3.3743874297564664	-8.170781427844574	-2.6853823900144254	-8.19505504670803	-2.8692543912464137	3	missed	0.0
223.0526673999991	6.858037399999603	nogo_punish	1.0	223.08970829999976	224.93399630000022	227.46578360000058	1.8442880000004607	224.09624350000036	226.44887329999983	228.47902669999894	0.837752799999862	1.0169103000007453	1.4687190000004193	n/a	1.0	n/a	2	0	34	4	nogo_punish	1	-1	0	0	0	1	0	n/a	n/a	0	1.0	1.0	1240.8674061000002	1463.9571144	1464.9636496000005	1465.8014024000004	1467.3162794	1468.3331897000007	n/a	n/a	1469.346432799999	1470.8151517999995	2019-11-08 17:44:49.062793	2.21993655695109	-5.30416844886653	-2.78991188077174	-3.06035241688402	-5.00984843772283	-2.78991188077174	-2.21993655695109	-2.78991188077174	-5.30416844886653	-2.78991188077174	-5.00984843772283	2.78991188077174	-4.456372172420837	-6.319638831248174	-3.6998036324517165	-6.894725805571676	-6.095653102307491	-3.6998036324517165	2.3295204555019167	-7.125914453590024	-2.669542281169186	-7.15018807245348	-2.8692543912464137	3	missed	0.0
229.97885809999912	7.657283099999631	go_punish	0.3147497000009025	230.01589899999976	232.8591852999998	235.44755989999976	2.8432863000000452	231.02539839999895	234.4237262000006	236.46398880000015	1.8337869000008595	1.0238336999991589	1.2091932999992423	n/a	1.0	n/a	2	0	35	3	go_punish	1	0	-1	1	1	1	0	n/a	n/a	0	0.3147497000009025	1.0	1240.8674061000002	1470.8833051	1471.892804499999	1473.7265914	1475.2911323000008	1476.314966	n/a	n/a	1477.3313949000003	1478.5405881999995	2019-11-08 17:44:49.062793	5.6253829052057	0.0	-5.30416844886653	-2.04229219835493	0.321214456339173	-5.30416844886653	-5.6253829052057	0.0	-5.30416844886653	0.321214456339173	-5.30416844886653	0.0	-1.0509258241662272	-1.0154703823816438	-6.214060200546507	-5.876665587042586	-0.7645902082454878	-6.214060200546507	-0.4603914252698236	-4.014788116479111	-2.963862292312886	-4.36027619168174	-2.8692543912464137	3	missed	0.0
237.6926739999999	6.835987999998906	nogo_reward	1.0	237.72971490000054	239.79131459999894	242.31738140000016	2.0615996999983963	238.73860219999915	241.29173699999956	243.3415232999996	1.0527123999997912	1.0256444000006013	1.224179599999843	n/a	1.0	n/a	2	0	36	2	nogo_reward	1	0	1	0	0	1	0	n/a	n/a	1	1.0	1.0	1240.8674061000002	1478.5971210000007	1479.6060082999993	1480.658720699999	1482.1591430999997	1483.1847875000003	n/a	n/a	1484.2089293999998	1485.4331089999996	2019-11-08 17:44:49.062793	5.62503642126428	5.5111741481775	11.6029817930673	12.6097615053114	5.97794537180307	11.6029817930673	-5.62503642126428	11.6029817930673	5.5111741481775	11.6029817930673	5.97794537180307	7.6979562285456	-1.051272308107647	4.495703765795856	10.693090041387324	8.775388116623745	4.8921407072184095	10.693090041387324	7.2375648032757764	7.266979220249016	8.318251528356715	7.242705601385561	7.946088205797617	3	missed	0.0
244.5802597999991	6.165046500000244	go_reward	0.3086404999994556	244.61730069999976	246.28717619999952	248.8510294000007	1.6698754999997618	245.6326420000005	247.83164639999995	249.86684980000064	0.6545341999990342	1.0193830000007438	0.9154973999993672	n/a	1.0	n/a	2	0	37	1	go_reward	0	0	1	1	1	1	0	n/a	n/a	0	0.3086404999994556	1.0	1240.8674061000002	1485.4847068	1486.5000481000006	1487.1545822999997	1488.6990525	1489.7184355000009	n/a	n/a	1490.7342559000008	1491.6497533000002	2019-11-08 17:44:49.062793	11.2349776389619	12.7365296061054	1.9519065426172	13.1261355579553	13.1868841815791	1.9519065426172	-11.2349776389619	12.7365296061054	1.9519065426172	13.1868841815791	1.9519065426172	-12.7365296061054	4.558668909589972	11.721059223723756	1.0420147909372235	9.291762169267642	12.101079516994439	1.0420147909372235	-13.196921031375224	8.850881608760815	4.292212699170844	8.37625341442366	4.386820600237317	3	missed	0.0
250.7999865999991	7.30215280000084	go_reward	0.2784314000000449	250.83702749999975	253.44125010000062	256.0096813	2.604222600000867	251.85736410000027	254.98312909999913	257.023704199999	1.5838860000003478	1.0265522000008787	1.1154761000016151	n/a	1.0	n/a	2	0	38	1	go_reward	1	1	0	1	1	1	0	n/a	n/a	1	0.2784314000000449	1.0	1240.8674061000002	1491.7044336	1492.7247702000004	1494.3086562000008	1495.8505351999993	1496.8770874000002	n/a	n/a	1497.8911102999991	1499.0065864000007	2019-11-08 17:44:49.062793	7.54329638653613	9.02243697545086	1.9519065426172	9.30958954224333	9.49520292915333	1.9519065426172	-7.54329638653613	9.02243697545086	1.9519065426172	9.49520292915333	1.9519065426172	10.27850104616204	0.866987657164203	8.006966593069217	1.0420147909372235	5.475216153555674	8.409398264568669	1.0420147909372235	9.818109620892216	5.159200356335045	4.292212699170844	4.662160783769121	4.386820600237317	3	missed	0.0
258.16797439999937	6.487241900000299	nogo_reward	1.0	258.2050153	259.75468449999994	262.27528320000056	1.5496691999999257	259.20965479999904	261.2621058000004	263.29373269999974	0.5450297000008959	1.0131774000001315	1.3985245000005762	n/a	1.0	n/a	2	0	39	2	nogo_reward	0	1	0	0	0	1	0	n/a	n/a	0	1.0	1.0	1240.8674061000002	1499.0724214000002	1500.0770608999992	1500.6220906	1502.1295119000006	1503.1426893000007	n/a	n/a	1504.1611388	1505.5596633000005	2019-11-08 17:44:49.062793	7.75597220429294	5.5111741481775	13.7433093183495	14.472765805323	5.98733711405654	13.7433093183495	-7.75597220429294	13.7433093183495	5.5111741481775	13.7433093183495	5.98733711405654	-13.7433093183495	1.0796634749210128	4.495703765795856	12.833417566669523	10.638392416635345	4.90153244947188	12.833417566669523	-14.203700743619324	9.407306745531216	8.327643270610185	9.38303312666776	7.946088205797617	3	missed	0.0
264.72064729999875	6.365721000000121	nogo_reward	1.0	264.7576881999994	266.1264341999995	268.6462052000006	1.368746000000101	265.77275890000055	267.6314101000007	269.6550530000004	0.3536752999989403	1.0147950999999011	1.468356199999107	n/a	1.0	n/a	2	0	40	2	nogo_reward	1	0	1	0	0	1	0	n/a	n/a	1	1.0	1.0	1240.8674061000002	1505.6250942999995	1506.6401650000007	1506.9938402999996	1508.4988162000009	1509.5136113000008	n/a	n/a	1510.5224591000006	1511.9908152999997	2019-11-08 17:44:49.062793	3.74548443083652	5.5111741481775	9.75189346242436	10.2834811039453	6.00640903158784	9.75189346242436	-3.74548443083652	9.75189346242436	5.5111741481775	9.75189346242436	6.00640903158784	9.549044559188541	-2.930824298535407	4.495703765795856	8.842001710744382	6.449107715257644	4.920604367003179	8.842001710744382	9.088653133918717	5.415890889606075	8.346715188141484	5.3916172707426195	7.946088205797617	3	missed	0.0
271.1583462999988	7.758634900001198	go_punish	0.3267040999999153	271.19538719999946	273.94119429999955	276.5068704999994	2.7458071000000928	272.2017297000002	275.4932564999999	277.5290153999995	1.7394645999993372	1.0136139999995066	1.4250067000011768	n/a	1.0	n/a	2	0	41	3	go_punish	1	0	-1	1	1	1	0	n/a	n/a	0	0.3267040999999153	1.0	1240.8674061000002	1512.0627932999996	1513.0691358000004	1514.8086003999997	1516.3606626	1517.3742765999996	n/a	n/a	1518.3964214999996	1519.8214282000008	2019-11-08 17:44:49.062793	5.63633527010113	0.0	-5.30416844886653	-1.50407652019977	0.332166821234601	-5.30416844886653	-5.63633527010113	0.0	-5.30416844886653	0.332166821234601	-5.30416844886653	0.0	-1.0399734592707972	-1.0154703823816438	-6.214060200546507	-5.338449908887426	-0.7536378433500599	-6.214060200546507	-0.4603914252698236	-4.003835751583683	-2.963862292312886	-4.36027619168174	-2.8692543912464137	3	missed	0.0
278.9739823	6.996422799998982	go_punish	0.353907499998968	279.01102320000064	280.93380980000074	283.4961265999991	1.9227866000001086	280.02520600000025	282.48370179999984	284.51342499999896	0.9086038000004919	1.0124247999992804	1.4940210000006573	n/a	1.0	n/a	2	0	42	3	go_punish	1	0	-1	1	1	1	0	n/a	n/a	0	0.353907499998968	1.0	1240.8674061000002	1519.8784293000008	1520.8926121000004	1521.801215900001	1523.3511079	1524.3635326999993	n/a	n/a	1525.380831099999	1526.8748520999998	2019-11-08 17:44:49.062793	5.64585702551363	0.0	-5.30416844886653	-1.11427286212781	0.341688576647099	-5.30416844886653	-5.64585702551363	0.0	-5.30416844886653	0.341688576647099	-5.30416844886653	0.0	-1.0304517038582972	-1.0154703823816438	-6.214060200546507	-4.948646250815466	-0.7441160879375619	-6.214060200546507	-0.4603914252698236	-3.994313996171185	-2.963862292312886	-4.36027619168174	-2.8692543912464137	3	missed	0.0
286.03917079999883	5.899347700000362	nogo_reward	1.0	286.0762116999995	287.53996120000033	290.06401820000065	1.4637495000008585	287.08977629999936	289.04348229999937	291.08506750000015	0.450184900000977	1.0205359000012777	0.890491899999688	n/a	1.0	n/a	2	0	43	2	nogo_reward	1	0	1	0	0	1	0	n/a	n/a	1	1.0	1.0	1240.8674061000002	1526.9436177999996	1527.9571823999995	1528.4073673000005	1529.9108883999995	1530.9314243000008	n/a	n/a	1531.9524736000003	1532.8429655	2019-11-08 17:44:49.062793	6.47303550108674	5.5111741481775	12.4731128794293	12.8627188312792	6.00007737834257	12.4731128794293	-6.47303550108674	12.4731128794293	5.5111741481775	12.4731128794293	6.00007737834257	6.827825142183601	-0.20327322828518657	4.495703765795856	11.563221127749323	9.028345442591544	4.914272713757909	11.563221127749323	6.367433716913777	8.137110306611016	8.340383534896214	8.11283668774756	7.946088205797617	3	missed	0.0
291.98299869999937	6.91717830000016	go_reward	0.2603187000004254	292.0200396	294.45433930000036	297.01593490000073	2.434299700000338	293.0366830999992	295.99554499999977	298.0277385999998	1.4176562000011472	1.0203899000009642	0.9094793000003847	n/a	1.0	n/a	2	0	44	1	go_reward	1	1	0	1	1	1	0	n/a	n/a	1	0.2603187000004254	1.0	1240.8674061000002	1532.8874457000002	1533.9040891999994	1535.3217454000005	1536.8629511	1537.8833410000009	n/a	n/a	1538.8951447	1539.8046240000003	2019-11-08 17:44:49.062793	10.4595026934246	11.9415252379084	1.9519065426172	12.1543363112091	12.4114092360418	1.9519065426172	-10.4595026934246	11.9415252379084	1.9519065426172	12.4114092360418	1.9519065426172	7.359412783704501	3.783193964052673	10.926054855526756	1.0420147909372235	8.319962922521444	11.32560457145714	1.0420147909372235	6.899021358434678	8.075406663223516	4.292212699170844	7.5812490462266595	4.386820600237317	3	missed	0.0
298.9378794999991	6.01723909999987	nogo_punish	1.0	298.97492039999975	300.4110882999994	302.92380579999895	1.4361678999996457	299.985220999999	301.90633159999925	303.9336464000007	0.42586730000039097	1.0174741999996968	1.0585130999988905	n/a	1.0	n/a	2	0	45	4	nogo_punish	1	-1	0	0	0	1	0	n/a	n/a	0	1.0	1.0	1240.8674061000002	1539.8423265	1540.8526270999992	1541.2784943999995	1542.7737376999994	1543.791211899999	n/a	n/a	1544.8010525000009	1545.8595655999998	2019-11-08 17:44:49.062793	2.95260755722094	-5.30416844886653	-2.04229219835493	-2.24928153083057	-4.99489975557587	-2.04229219835493	-2.95260755722094	-2.04229219835493	-5.30416844886653	-2.04229219835493	-4.99489975557587	2.04229219835493	-3.723701172150987	-6.319638831248174	-2.9521839500349065	-6.083654919518226	-6.08070442016053	-2.9521839500349065	1.5819007730851065	-6.3782947711732145	-2.6545935990222254	-6.40256839003667	-2.8692543912464137	3	missed	0.0
304.9991933999993	6.6899738999998135	go_reward	0.2693772999991779	305.03623429999993	306.73418010000023	309.31362160000026	1.6979458000002978	306.0553352000006	308.29856350000045	310.3239702999999	0.6788448999996035	1.0150580999998056	1.4022378999998182	n/a	1.0	n/a	2	0	46	1	go_reward	1	1	0	1	1	1	1	n/a	n/a	1	0.2693772999991779	1.0	1240.8674061000002	1545.9036404	1546.9227413000008	1547.6015862000004	1549.1659696000006	1550.1810277000004	n/a	n/a	1551.1913764	1552.5936143	2019-11-08 17:44:49.062793	12.5228810603287	13.9975737345998	1.9519065426172	14.1561452781712	14.4747876029459	1.9519065426172	-12.5228810603287	13.9975737345998	1.9519065426172	14.4747876029459	1.9519065426172	5.3033642870131	5.846572330956773	12.982103352218157	1.0420147909372235	10.321771889483543	13.38898293836124	1.0420147909372235	4.842972861743276	10.138785030127616	4.292212699170844	9.637297542918061	4.386820600237317	3	missed	0.0
311.75248049999936	6.704267200000686	nogo_reward	1.0	311.7895214	313.490608099999	316.00506359999963	1.7010866999989958	312.797240599999	314.9881081000003	317.0188987999991	0.6933675000000221	1.0169554999993125	1.4748898000016197	n/a	1.0	n/a	2	0	47	2	nogo_reward	1	0	1	0	0	1	0	n/a	n/a	1	1.0	1.0	1240.8674061000002	1552.6569275000002	1553.6646466999991	1554.3580141999992	1555.8555142000005	1556.8724696999998	n/a	n/a	1557.8863048999992	1559.3611947000009	2019-11-08 17:44:49.062793	8.38298865448134	5.5111741481775	14.3871796864498	14.6743322532422	6.00419103196841	14.3871796864498	-8.38298865448134	14.3871796864498	5.5111741481775	14.3871796864498	6.00419103196841	4.9137583351631005	1.7066799251094125	4.495703765795856	13.477287934769823	10.839958864554543	4.918386367383749	13.477287934769823	4.453366909893277	10.051177113631516	8.344497188522054	10.02690349476806	7.946088205797617	3	missed	0.0
318.5008087999995	6.35519480000039	go_reward	0.3134418000008736	318.53784970000015	320.0481940999998	322.63619749999975	1.510344399999667	319.54510069999924	321.6111130999998	323.65270249999935	0.50309340000058	1.0250843999999688	1.240342000001192	n/a	1.0	n/a	2	0	48	1	go_reward	0	0	1	1	1	1	1	n/a	n/a	0	0.3134418000008736	1.0	1240.8674061000002	1559.4052558000003	1560.4125067999994	1560.9156002	1562.4785192	1563.5036036	n/a	n/a	1564.5201085999995	1565.7604506000007	2019-11-08 17:44:49.062793	13.9917341796965	15.4548047169992	1.9519065426172	15.5735888417623	15.9436407223137	1.9519065426172	-13.9917341796965	15.4548047169992	1.9519065426172	15.9436407223137	1.9519065426172	-15.4548047169992	7.3154254503245735	14.439334334617557	1.0420147909372235	11.739215453074642	14.85783605772904	1.0420147909372235	-15.915196142269025	11.607638149495417	4.292212699170844	11.094528525317461	4.386820600237317	3	missed	0.0
324.89308019999953	6.463630799998782	nogo_punish	1.0	324.9301211000002	326.9261709000002	329.45588119999934	1.996049800000037	325.94294099999934	328.4364941999993	330.478873	0.9832299000008788	1.0193870000000516	0.9148788999989392	n/a	1.0	n/a	2	0	49	4	nogo_punish	1	-1	0	0	0	1	0	n/a	n/a	0	1.0	1.0	1240.8674061000002	1565.7975272000003	1566.8103470999995	1567.7935770000004	1569.3039002999994	1570.3232872999995	n/a	n/a	1571.3462791000002	1572.261157999999	2019-11-08 17:44:49.062793	3.47753869647307	-5.30416844886653	-1.50407652019977	-1.66328363865308	-4.98161521667284	-1.50407652019977	-3.47753869647307	-1.50407652019977	-5.30416844886653	-1.50407652019977	-4.98161521667284	1.50407652019977	-3.198770032898857	-6.319638831248174	-2.4139682718797464	-5.497657027340736	-6.067419881257501	-2.4139682718797464	1.0436850949299463	-5.840079093018054	-2.641309060119196	-5.8643527118815095	-2.8692543912464137	3	missed	0.0
331.4308646999998	5.700175599999056	go_punish	0.3192605000003823	331.46790560000045	332.79422759999943	335.34513440000046	1.3263219999989815	332.47373130000074	334.33103739999956	336.3577678999991	0.32049629999869467	1.014097000000902	0.8103133000004163	n/a	1.0	n/a	2	0	50	3	go_punish	1	0	-1	1	1	1	0	n/a	n/a	0	0.3192605000003823	1.0	1240.8674061000002	1572.3353117000006	1573.341137400001	1573.6616336999996	1575.1984434999997	1576.2125405000006	n/a	n/a	1577.2251739999992	1578.0354872999997	2019-11-08 17:44:49.062793	5.65390802598311	0.0	-5.30416844886653	-0.830281482705176	0.349739577116585	-5.30416844886653	-5.65390802598311	0.0	-5.30416844886653	0.349739577116585	-5.30416844886653	0.0	-1.0224007033888167	-1.0154703823816438	-6.214060200546507	-4.664654871392832	-0.7360650874680759	-6.214060200546507	-0.4603914252698236	-3.986262995701699	-2.963862292312886	-4.36027619168174	-2.8692543912464137	3	missed	0.0
337.1922160999984	7.269137299999784	nogo_reward	1.0	337.22925699999905	340.0121244999991	342.5427829	2.7828675000000658	338.24454340000034	341.52014729999973	343.5573308999992	1.7675810999987789	1.0226356000002852	0.9410633999996207	n/a	1.0	n/a	2	0	51	2	nogo_reward	0	1	0	0	0	1	0	n/a	n/a	0	1.0	1.0	1240.8674061000002	1578.0966630999992	1579.1119495000005	1580.8795305999993	1582.3875534	1583.4101890000002	n/a	n/a	1584.4247369999994	1585.365800399999	2019-11-08 17:44:49.062793	9.72898157989093	5.5111741481775	15.7419572837917	15.9547683570924	6.01297570390076	15.7419572837917	-9.72898157989093	15.7419572837917	5.5111741481775	15.7419572837917	6.01297570390076	-15.7419572837917	3.052672850519002	4.495703765795856	14.832065532111724	12.120394968404742	4.927171039316099	14.832065532111724	-16.202348709061525	11.405954710973417	8.353281860454404	11.381681092109961	7.946088205797617	3	missed	0.0
344.5346265999981	6.124578700000484	go_punish	0.3624090999983309	344.57166749999874	346.1453240999999	348.713699599999	1.5736566000011862	345.58304020000105	347.6986095000011	349.72328709999965	0.5622838999988744	1.0150900999979058	0.9729590999995708	n/a	1.0	n/a	2	0	52	3	go_punish	1	0	-1	1	1	1	1	n/a	n/a	0	0.3624090999983309	1.0	1240.8674061000002	1585.439073599999	1586.4504463000012	1587.0127302	1588.5660156000013	1589.5811056999992	n/a	n/a	1590.5906931999998	1591.5636522999994	2019-11-08 17:44:49.062793	5.66059247459908	0.0	-5.30416844886653	-0.622174108212826	0.356424025732556	-5.30416844886653	-5.66059247459908	0.0	-5.30416844886653	0.356424025732556	-5.30416844886653	0.0	-1.0157162547728467	-1.0154703823816438	-6.214060200546507	-4.456547496900482	-0.7293806388521049	-6.214060200546507	-0.4603914252698236	-3.979578547085728	-2.963862292312886	-4.36027619168174	-2.8692543912464137	3	missed	0.0
350.72423010000057	7.249158099999477	nogo_reward	1.0	350.7612710000012	353.1322644999982	355.66024939999807	2.3709934999969846	351.76803100000143	354.63800609999976	356.682920199999	1.3642334999967716	1.0222432999983084	1.3275089000017033	n/a	1.0	n/a	2	0	53	2	nogo_reward	1	0	1	0	0	1	1	n/a	n/a	1	1.0	1.0	1240.8674061000002	1591.6286771000014	1592.6354371000016	1593.9996705999984	1595.5054122	1596.5276554999982	n/a	n/a	1597.5503262999991	1598.8778352000008	2019-11-08 17:44:49.062793	5.16600931821047	5.5111741481775	11.1956768426081	11.3542483861795	6.02966752439764	11.1956768426081	-5.16600931821047	11.1956768426081	5.5111741481775	11.1956768426081	6.02966752439764	8.1052611790048	-1.5102994111614567	4.495703765795856	10.285785090928123	7.519874997491843	4.943862859812979	10.285785090928123	7.6448697537349775	6.859674269789815	8.369973680951285	6.83540065092636	7.946088205797617	3	missed	0.0
358.0196498000005	6.534899499998801	go_reward	0.3144958999982918	358.0566907000011	359.93292839999935	362.50869520000015	1.876237699998228	359.076425199999	361.48286619999817	363.53626949999875	0.8565032000003612	1.025829000001977	1.0553207000011753	n/a	1.0	n/a	2	0	54	1	go_reward	1	1	0	1	1	1	0	n/a	n/a	1	0.3144958999982918	1.0	1240.8674061000002	1598.9240968000013	1599.9438312999991	1600.8003344999995	1602.3502722999983	1603.3761013000003	n/a	n/a	1604.403675599999	1605.4589963	2019-11-08 17:44:49.062793	9.53890775054683	10.9828657693074	1.9519065426172	11.0723083137537	11.490814293164	1.9519065426172	-9.53890775054683	10.9828657693074	1.9519065426172	11.490814293164	1.9519065426172	8.3180722523055	2.862599021174903	9.967395386925757	1.0420147909372235	7.237934925066043	10.40500962857934	1.0420147909372235	7.857680827035677	7.154811720345716	4.292212699170844	6.622589577625661	4.386820600237317	3	missed	0.0
364.5966350999988	6.9719146999996156	go_reward	0.302866099998937	364.63367599999947	367.08762509999906	369.65280579999876	2.4539490999995905	365.65011689999847	368.63251789999936	370.663630699999	1.4375082000005932	1.0202878999994027	0.9419600000001083	n/a	1.0	n/a	2	0	55	1	go_reward	0	0	1	1	1	1	0	n/a	n/a	0	0.302866099998937	1.0	1240.8674061000002	1605.5010820999996	1606.5175229999986	1607.9550311999992	1609.4999239999995	1610.520211899999	n/a	n/a	1611.5310367999991	1612.4729967999992	2019-11-08 17:44:49.062793	11.912687909318	13.363989561655	1.9519065426172	13.4316806072413	13.8645944519352	1.9519065426172	-11.912687909318	13.363989561655	1.9519065426172	13.8645944519352	1.9519065426172	-13.363989561655	5.2363791799460735	12.348519179273357	1.0420147909372235	9.597307218553645	12.77878978735054	1.0420147909372235	-13.824380986924824	9.528591879116917	4.292212699170844	9.00371336997326	4.386820600237317	3	missed	0.0
371.6387250999978	6.082272800002102	go_punish	0.4688523000004352	371.6757659999985	372.97871660000055	375.5733811000009	1.3029506000020774	372.69360190000043	374.54310390000137	376.58467310000015	0.28511470000012196	1.0302771999995457	1.1733657000004314	n/a	1.0	n/a	2	0	56	3	go_punish	0	-1	0	1	1	1	0	n/a	n/a	-1	0.4688523000004352	1.0	1240.8674061000002	1612.5431720999986	1613.5610080000006	1613.8461227000007	1615.4105100000015	1616.440787200001	n/a	n/a	1617.4520792000003	1618.6254449000007	2019-11-08 17:44:49.062793	5.66607434533111	0.0	-5.30416844886653	-0.468802853826023	0.361905896464584	-5.30416844886653	-5.66607434533111	0.0	-5.30416844886653	0.361905896464584	-5.30416844886653	-20.0854376850749	-1.0102343840408166	-1.0154703823816438	-6.214060200546507	-4.30317624251368	-0.7238987681200768	-6.214060200546507	-20.545829110344723	-3.9740966763537	-2.963862292312886	-4.36027619168174	-2.8692543912464137	3	missed	0.0
377.7860025000009	6.35450999999739	go_punish	0.3932702999991306	377.82304340000155	379.23400869999955	381.8150016999989	1.4109652999979971	378.8279270000003	380.78342090000115	382.82639449999806	0.4060816999992767	1.031580799997755	1.3511589000008826	n/a	1.0	n/a	2	0	57	3	go_punish	1	0	-1	1	1	1	0	n/a	n/a	0	0.3932702999991306	1.0	1240.8674061000002	1618.6904495000017	1619.6953331000004	1620.1014147999997	1621.6508270000013	1622.682407799999	n/a	n/a	1623.6938005999982	1625.044959499999	2019-11-08 17:44:49.062793	0.267992145022057	-5.30416844886653	-5.30416844886653	-5.65930710709476	-5.03617630384447	-5.30416844886653	-0.267992145022057	-5.30416844886653	-5.30416844886653	-5.03617630384447	-5.30416844886653	5.30416844886653	-6.40831658434987	-6.319638831248174	-6.214060200546507	-9.493680495782417	-6.12198096842913	-6.214060200546507	4.843777023596707	-9.372178876662755	-2.963862292312886	-9.66444464054827	-2.8692543912464137	3	missed	0.0
384.1737018999993	7.254911200001516	nogo_punish	1.0	384.21074279999993	386.65637740000057	389.179341699999	2.4456346000006306	385.216871300001	388.16263159999835	390.18991559999836	1.4395060999995621	1.0167101000006369	1.2757384000030925	n/a	1.0	n/a	2	0	58	4	nogo_punish	1	-1	0	0	0	1	0	n/a	n/a	0	1.0	1.0	1240.8674061000002	1625.0781489	1626.0842774000012	1627.5237835000007	1629.0300376999985	1630.0467477999991	n/a	n/a	1631.0573216999985	1632.3330601000016	2019-11-08 17:44:49.062793	3.85594957067122	-5.30416844886653	-1.11427286212781	-1.23731432111975	-4.97022243279903	-1.11427286212781	-3.85594957067122	-1.11427286212781	-5.30416844886653	-1.11427286212781	-4.97022243279903	1.11427286212781	-2.820359158700707	-6.319638831248174	-2.0241646138077867	-5.0716877098074065	-6.056027097383691	-2.0241646138077867	0.6538814368579864	-5.450275434946094	-2.629916276245386	-5.474549053809549	-2.8692543912464137	3	missed	0.0
391.4685196999999	6.524601299999631	nogo_punish	1.0	391.50556060000054	393.29263810000134	395.82498300000043	1.7870775000008052	392.5201885000006	394.8023034000016	396.8340736000009	0.7724496000007548	1.0226795999988099	1.1960882999992464	n/a	1.0	n/a	2	0	59	4	nogo_punish	1	-1	0	0	0	1	0	n/a	n/a	0	1.0	1.0	1240.8674061000002	1632.3729667000007	1633.3875946000007	1634.1600442000015	1635.6697095000018	1636.6923891000006	n/a	n/a	1637.701479700001	1638.8975680000003	2019-11-08 17:44:49.062793	4.1303898246908	-5.30416844886653	-0.830281482705176	-0.925814056360619	-4.96067130739598	-0.830281482705176	-4.1303898246908	-0.830281482705176	-5.30416844886653	-0.830281482705176	-4.96067130739598	0.830281482705176	-2.545918904681127	-6.319638831248174	-1.7401732343851526	-4.760187445048276	-6.046475971980641	-1.7401732343851526	0.3698900574353524	-5.16628405552346	-2.620365150842336	-5.190557674386915	-2.8692543912464137	3	missed	0.0
398.0625509999993	7.128052499999967	nogo_reward	1.0	398.09959189999995	400.3334496000007	402.86095810000006	2.2338577000007263	399.1162521999995	401.8335277999995	403.87935710000056	1.2171974000011687	1.0274303000005602	1.348287299999356	n/a	1.0	n/a	2	0	60	2	nogo_reward	1	0	1	0	0	1	0	n/a	n/a	1	1.0	1.0	1240.8674061000002	1638.966998	1639.9836582999997	1641.2008557000008	1642.7009338999997	1643.7283642000002	n/a	n/a	1644.7467632000007	1646.0950505	2019-11-08 17:44:49.062793	7.50225772346423	5.5111741481775	13.5225611052263	13.6413452299894	6.02030338176209	13.5225611052263	-7.50225772346423	13.5225611052263	5.5111741481775	13.5225611052263	6.02030338176209	5.7783769163866	0.825948994092303	4.495703765795856	12.612669353546323	9.806971841301742	4.934498717177429	12.612669353546323	5.317985491116777	9.186558532408016	8.360609538315734	9.16228491354456	7.946088205797617	3	missed	0.0
