onset	duration	trial_type	response_time	cueOnset	targetOnset	fbOnset	cueRT	firstfixOnset	secondfixOnset	waitOnset	firstfixdur	secondfixdur	waitdur	nback_fbOnset	nback_response_time	nback_targetOnset	block	wm	trial	cue	cond	is_common	outcome_go	outcome_nogo	key_correct	key_pressed	is_correct	key_correct_nback	key_pressed_nback	is_correct_nback	outcome	rt	rt_nback	time_scan	time_onset	time_isi1	time_circle	time_isi2	time_feedback	time_same	time_correct	time_iti	time_done	timestamp_scan	DV	Qgo	Qnogo	SV	Wgo	Wnogo	mDV	Qchosen	Qunchosen	Wchosen	Wunchosen	PE	DVC	QgoC	QnogoC	SVC	WgoC	WnogoC	PEC	WchosenC	WunchosenC	QchosenC	QunchosenC	run	outcome_nback	nback_targetResp
0.0	9.627491400000508	nogo_punish	0.5137104999994335	0.05910619999849587	2.6466538999993645	5.205915900000036	2.5875477000008686	1.0659249999989697	4.19129160000012	8.283756699998776	1.5807289000003948	1.014624299999916	1.4028409000002284	7.264058699998721	1.0	6.253335399998839	1	1	1	4	nogo_punish	0	0	-1	0	1	0	0	n/a	0.0	-1	0.5137104999994335	1.0	54.6204701000006	54.6795762999991	55.68639509999957	57.26712399999997	58.81176170000072	59.82638600000064	60.87380549999944	61.88452879999932	62.90422679999938	64.3070676999996	2019-11-08 17:25:02.816074	0.384816583217135	0.0	0.0	0.0	0.384816583217135	0.0	-0.384816583217135	0.0	0.0	0.384816583217135	0.0	0.0	-6.291492146154792	-1.0154703823816438	-0.9098917516799765	-3.8343733886876565	-0.7009880813675258	-0.9098917516799765	-0.4603914252698236	-3.951185989601149	2.3403061565536443	-4.36027619168174	2.4349140576201167	1	missed	0.0
9.669515300000057	9.37438850000035	nogo_punish	1.0	9.728621499998553	12.446981199998845	14.97236299999895	2.718359700000292	10.73403909999979	13.956588899998678	18.06865519999883	1.7129420999990543	1.0157741000002716	1.0343548000000737	17.053048599998874	0.4007753000005323	15.992670999999973	1	1	2	4	nogo_punish	1	-1	0	0	0	1	0	0.0	1.0	0	1.0	0.4007753000005323	54.6204701000006	64.34909159999916	65.3545092000004	67.06745129999945	68.57705899999928	69.59283309999955	70.61314110000058	71.67351869999948	72.68912529999943	73.7234800999995	2019-11-08 17:25:02.816074	2.60495259252612	-3.78642680330927	0.0	-3.78642680330927	-2.60495259252612	0.0	-2.60495259252612	0.0	-3.78642680330927	0.0	-2.60495259252612	0.0	-4.071356136845807	-4.801897185690914	-0.9098917516799765	-7.620800191996926	-3.690757257110781	-0.9098917516799765	-0.4603914252698236	-4.336002572818284	-0.26464643597247584	-4.36027619168174	-1.3515127456891531	1	correct	1.0
19.090415600001506	9.574002800000017	go_reward	0.327817800000048	19.149521800000002	21.600556999999753	24.162233099999867	2.451035199999751	20.164761299998645	23.14623019999999	27.231990199999927	1.4357957000011083	1.0160028999998758	1.4915344000000914	26.223309299999528	0.4763258000002679	25.18805389999943	1	1	3	1	go_reward	1	1	0	1	1	1	0	0.0	1.0	1	0.327817800000048	0.4763258000002679	54.6204701000006	73.7699919000006	74.78523139999925	76.22102710000036	77.7667003000006	78.78270320000047	79.80852400000003	80.84377940000013	81.85246030000053	83.34399470000062	2019-11-08 17:25:02.816074	0.384816583217135	0.0	0.0	0.0	0.384816583217135	0.0	-0.384816583217135	0.0	0.0	0.384816583217135	0.0	19.3009380216129	-6.291492146154792	-1.0154703823816438	-0.9098917516799765	-3.8343733886876565	-0.7009880813675258	-0.9098917516799765	18.840546596343078	-3.951185989601149	2.3403061565536443	-4.36027619168174	2.4349140576201167	1	correct	1.0
28.71202810000068	8.567364200000142	go_reward	0.3245571999996173	28.771134299999176	30.22294669999974	32.78358909999952	1.4518124000005628	29.785864299999957	31.759917699999278	35.861564400000134	0.43708239999978105	1.0236714000002394	1.476934099999184	34.85200850000001	0.4390108000006876	33.809516399998756	1	1	4	1	go_reward	1	1	0	1	1	1	0	0.0	1.0	1	0.3245571999996173	0.4390108000006876	54.6204701000006	83.39160439999978	84.40633440000056	84.84341680000034	86.38038779999988	87.40405920000012	88.42998649999936	89.47247860000061	90.48203450000074	91.95896859999992	2019-11-08 17:25:02.816074	3.2687388832025	3.61886425592594	0.0	3.61886425592594	3.2687388832025	0.0	-3.2687388832025	3.61886425592594	0.0	3.2687388832025	0.0	15.68207376568696	-3.407569846169427	2.603393873544296	-0.9098917516799765	-0.21550913276171668	2.182934218617839	-0.9098917516799765	15.221682340417136	-1.067263689615784	2.3403061565536443	-0.7414119357557998	2.4349140576201167	1	correct	1.0
37.32600550000099	8.96423399999911	go_reward	0.3582456999993155	37.385111699999484	39.91909389999999	42.50102580000019	2.5339822000005086	38.391979099998935	41.474616499999684	45.594968399998834	1.5271148000010584	1.026409300000509	0.75437729999976	44.57411390000016	0.5786551000001054	43.517805299999964	1	1	5	1	go_reward	1	1	0	1	1	1	1	1.0	1.0	1	0.3582456999993155	0.5786551000001054	54.6204701000006	92.00558180000009	93.01244919999954	94.5395640000006	96.09508660000029	97.1214959000008	98.13827540000057	99.19458400000076	100.21543849999944	100.9698157999992	2019-11-08 17:25:02.816074	5.53503618119123	6.46345757416592	0.0	6.46345757416592	5.53503618119123	0.0	-5.53503618119123	6.46345757416592	0.0	5.53503618119123	0.0	12.83748044744698	-1.1412725481806971	5.447987191784277	-0.9098917516799765	2.6290841854782636	4.449231516606569	-0.9098917516799765	12.377089022177156	1.1990336083729458	2.3403061565536443	2.1031813824841805	2.4349140576201167	1	correct	1.0
46.349564300000566	8.828164100001231	nogo_reward	0.4405370999993465	46.40867049999906	48.34282309999979	50.90894990000015	1.9341526000007292	47.42755829999987	49.894165300000154	53.99018590000014	0.9152647999999175	1.0147845999999987	1.2466487000001507	52.96875879999972	0.4990888000011182	51.92620969999916	1	1	6	2	nogo_reward	1	0	1	0	1	0	0	0.0	1.0	0	0.4405370999993465	0.4990888000011182	54.6204701000006	101.02914059999966	102.04802840000048	102.9632932000004	104.51463540000076	105.52942000000075	106.54667979999977	107.58922890000032	108.61065600000074	109.8573047000009	2019-11-08 17:25:02.816074	0.384816583217135	0.0	0.0	0.0	0.384816583217135	0.0	-0.384816583217135	0.0	0.0	0.384816583217135	0.0	0.0	-6.291492146154792	-1.0154703823816438	-0.9098917516799765	-3.8343733886876565	-0.7009880813675258	-0.9098917516799765	-0.4603914252698236	-3.951185989601149	2.3403061565536443	-4.36027619168174	2.4349140576201167	1	correct	1.0
55.226852800000415	8.309159000000363	nogo_reward	0.4575019000003522	55.28595899999891	57.10771249999924	59.6731491999999	1.8217535000003267	56.2902280999988	58.65146019999884	62.753268299999036	0.8174844000004384	1.0216890000010608	0.841849700000239	61.73805100000028	0.5017250000000786	60.701498999998876	1	1	7	2	nogo_reward	1	0	1	0	1	0	0	0.0	1.0	0	0.4575019000003522	0.5017250000000786	54.6204701000006	109.90642909999951	110.9106981999994	111.72818259999984	113.27193029999944	114.2936193000005	115.32196909999948	116.35852110000089	117.37373839999964	118.21558809999988	2019-11-08 17:25:02.816074	0.384816583217135	0.0	0.0	0.0	0.384816583217135	0.0	-0.384816583217135	0.0	0.0	0.384816583217135	0.0	0.0	-6.291492146154792	-1.0154703823816438	-0.9098917516799765	-3.8343733886876565	-0.7009880813675258	-0.9098917516799765	-0.4603914252698236	-3.951185989601149	2.3403061565536443	-4.36027619168174	2.4349140576201167	1	correct	1.0
63.581610600000204	8.901314000000639	nogo_punish	0.3399035000002186	63.6407167999987	65.69434329999967	68.29152939999948	2.0536265000009735	64.64977949999955	67.26487970000015	71.3504095999997	1.0445638000001196	1.026649699999325	1.1916211999996449	70.33347739999954	1.0	69.3190536000002	1	1	8	4	nogo_punish	1	-1	0	0	1	0	0	n/a	0.0	0	0.3399035000002186	1.0	54.6204701000006	118.2611868999993	119.27024960000016	120.31481340000028	121.88534980000075	122.91199950000008	123.9395237000008	124.95394750000014	125.9708797000003	127.16250089999994	2019-11-08 17:25:02.816074	-2.77538814815873	-3.78642680330927	0.0	-2.96825849313256	-2.77538814815873	0.0	2.77538814815873	-3.78642680330927	0.0	-2.77538814815873	0.0	-16.299010881765632	-9.451696877530658	-4.801897185690914	-0.9098917516799765	-6.802631881820217	-3.8611928127433908	-0.9098917516799765	-16.759402307035455	-7.111390720977014	2.3403061565536443	-8.14670299499101	2.4349140576201167	1	missed	0.0
72.53249100000174	8.947546699999307	go_reward	0.3185641000000032	72.59159720000024	74.64778729999853	77.22189259999868	2.0561900999982896	73.59687940000003	76.19531619999907	80.29702759999964	1.0509078999984922	1.0265763999996125	1.242116299999907	79.28360459999931	0.5247581000003265	78.23743850000028	1	1	9	1	go_reward	1	1	0	1	1	1	0	0.0	1.0	1	0.3185641000000032	0.5247581000003265	54.6204701000006	127.21206730000084	128.21734950000064	129.26825739999913	130.81578629999967	131.84236269999928	132.85790860000088	133.9040746999999	134.91749770000024	136.15961400000015	2019-11-08 17:25:02.816074	7.33360014624993	8.72135250610565	0.0	8.72135250610565	7.33360014624993	0.0	-7.33360014624993	8.72135250610565	0.0	7.33360014624993	0.0	10.579585515507251	0.6572914168780031	7.705882123724006	-0.9098917516799765	4.886979117417993	6.247795481665269	-0.9098917516799765	10.119194090237427	2.997597573431646	2.3403061565536443	4.36107631442391	2.4349140576201167	1	correct	1.0
81.54917110000133	8.644480599999952	go_punish	0.352143200001592	81.60827729999983	83.29693909999878	85.88403669999934	1.688661799998954	82.62722419999955	84.85906830000022	88.96127299999898	0.6697148999992351	1.0249683999991248	1.2914849000007962	87.95198209999944	0.4917261999999027	86.90445050000017	1	1	10	3	go_punish	1	0	-1	1	1	1	0	0.0	1.0	0	0.352143200001592	0.4917261999999027	54.6204701000006	136.22874740000043	137.24769430000015	137.91740919999938	139.47953840000082	140.50450679999994	141.52492060000077	142.57245220000004	143.58174309999958	144.87322800000038	2019-11-08 17:25:02.816074	0.384816583217135	0.0	0.0	0.0	0.384816583217135	0.0	-0.384816583217135	0.0	0.0	0.384816583217135	0.0	0.0	-6.291492146154792	-1.0154703823816438	-0.9098917516799765	-3.8343733886876565	-0.7009880813675258	-0.9098917516799765	-0.4603914252698236	-3.951185989601149	2.3403061565536443	-4.36027619168174	2.4349140576201167	1	correct	1.0
90.24174160000075	9.332261600000493	go_reward	0.2880604000001767	90.30084779999925	93.07613309999942	95.65033889999904	2.775285300000178	91.30903789999866	94.62236959999973	98.72328149999885	1.7670952000007674	1.027969299999313	0.9098279000008915	97.71235419999903	0.4594505000004574	96.66383010000027	1	1	11	1	go_reward	1	1	0	1	1	1	1	1.0	1.0	1	0.2880604000001767	0.4594505000004574	54.6204701000006	144.92131789999985	145.92950799999926	147.69660320000003	149.24283970000033	150.27080899999964	151.28430020000087	152.33282429999963	153.34375159999945	154.25357950000034	2019-11-08 17:25:02.816074	8.77369327749107	10.529402391676	0.0	10.529402391676	8.77369327749107	0.0	-8.77369327749107	10.529402391676	0.0	8.77369327749107	0.0	8.771535629936901	2.097384548119143	9.513932009294356	-0.9098917516799765	6.695029002988343	7.687888612906409	-0.9098917516799765	8.311144204667077	4.437690704672786	2.3403061565536443	6.16912619999426	2.4349140576201167	1	correct	1.0
99.62205620000168	8.74011789999895	nogo_punish	0.3914507999998022	99.68116240000018	101.5398925999998	104.1148495999987	1.858730199999627	100.69103679999901	103.08611550000023	107.20335139999952	0.8488558000007913	1.0287340999984735	1.217928899999606	106.19200959999944	0.4905051000005187	105.1476406999991	1	1	12	4	nogo_punish	1	-1	0	0	1	0	0	0.0	1.0	-1	0.3914507999998022	0.4905051000005187	54.6204701000006	154.30163250000078	155.3115068999996	156.1603627000004	157.70658560000084	158.7353196999993	159.7681107999997	160.81247970000004	161.82382150000012	163.04175039999973	2019-11-08 17:25:02.816074	-2.08646874376339	-2.96825849313256	0.0	-2.35022294113959	-2.08646874376339	0.0	2.08646874376339	-2.96825849313256	0.0	-2.08646874376339	0.0	-17.11717919194234	-8.762777473135317	-3.983728875514204	-0.9098917516799765	-6.184596329827246	-3.172273408348051	-0.9098917516799765	-17.577570617212164	-6.4224713165816745	2.3403061565536443	-7.3285346848143	2.4349140576201167	1	correct	1.0
108.41510420000122	8.798004399999627	go_punish	1.0	108.47421039999972	110.70930399999997	113.23809110000002	2.235093600000255	109.4846736999989	112.21654839999974	116.33746339999925	1.2246303000010812	1.021542700000282	0.9347514000000956	115.32222629999887	0.5127107000007527	114.27837799999907	1	1	13	3	go_punish	0	-1	0	1	0	0	0	0.0	1.0	0	1.0	0.5127107000007527	54.6204701000006	163.09468050000032	164.1051437999995	165.32977410000058	166.83701850000034	167.85856120000062	168.89884809999967	169.94269639999948	170.95793349999985	171.89268489999995	2019-11-08 17:25:02.816074	-0.384816583217135	0.0	0.0	0.0	0.384816583217135	0.0	0.384816583217135	0.0	0.0	0.0	0.384816583217135	0.0	-7.061125312589062	-1.0154703823816438	-0.9098917516799765	-3.8343733886876565	-0.7009880813675258	-0.9098917516799765	-0.4603914252698236	-4.336002572818284	2.725122739770779	-4.36027619168174	2.4349140576201167	1	correct	1.0
117.26120990000163	8.958330299999943	nogo_punish	1.0	117.32031610000013	119.76642319999883	122.30689679999887	2.4461070999986987	118.33140279999861	121.28544770000008	125.38200599999982	1.4350204000002122	1.0214490999987902	0.8966404000002512	124.36804729999858	0.6034003999993729	123.33373219999885	1	1	14	4	nogo_punish	0	0	-1	0	0	1	1	1.0	1.0	-1	1.0	0.6034003999993729	54.6204701000006	171.94078620000073	172.95187289999922	174.38689329999943	175.90591780000068	176.92736689999947	177.95420229999945	178.98851739999918	180.00247610000042	180.89911650000067	2019-11-08 17:25:02.816074	4.55732328660854	-6.13664974444887	0.0	-5.66429242147225	-4.55732328660854	0.0	-4.55732328660854	0.0	-6.13664974444887	0.0	-4.55732328660854	-20.0854376850749	-2.118985442763387	-7.152120126830514	-0.9098917516799765	-9.498665810159906	-5.6431279511932	-0.9098917516799765	-20.545829110344723	-4.336002572818284	-2.2170171300548955	-4.36027619168174	-3.701735686828753	1	correct	1.0
126.26808760000131	9.193469099998794	go_reward	0.4623007000009238	126.3271937999998	129.0827509999999	131.65548689999923	2.7555572000000836	127.34415160000029	130.6260371999997	134.75729429999956	1.7385993999996003	1.0294496999995317	0.7633685999990405	133.7393753999986	0.6202759999996488	132.6878214999997	1	1	15	1	go_reward	1	1	0	1	1	1	0	1.0	0.0	1	0.4623007000009238	0.6202759999996488	54.6204701000006	180.9476639000004	181.9646217000009	183.7032211000005	185.2465073000003	186.27595699999983	187.3082916000003	188.3598454999992	189.37776440000016	190.1411329999992	2019-11-08 17:25:02.816074	9.93603406826887	11.9887843764218	0.0	11.9887843764218	9.93603406826887	0.0	-9.93603406826887	11.9887843764218	0.0	9.93603406826887	0.0	7.312153645191101	3.259725338896944	10.973313994040156	-0.9098917516799765	8.154410987734142	8.85022940368421	-0.9098917516799765	6.8517622199212775	5.600031495450587	2.3403061565536443	7.62850818474006	2.4349140576201167	1	wrong	1.0
135.51727560000106	8.441394800000154	go_punish	0.5187733999991906	135.57638179999955	137.45353859999886	140.04910139999993	1.8771567999993124	136.5918819999988	139.02416509999966	143.12551939999867	0.8616566000000603	1.0249363000002631	0.8922572000010405	142.1127564999988	0.5096580999997968	141.06447239999943	1	1	16	3	go_punish	1	0	-1	1	1	1	0	1.0	0.0	0	0.5187733999991906	0.5096580999997968	54.6204701000006	190.19685190000015	191.2123520999994	192.07400869999947	193.64463520000027	194.66957150000053	195.68494250000003	196.7332265999994	197.74598949999927	198.6382467000003	2019-11-08 17:25:02.816074	0.384816583217135	0.0	0.0	0.0	0.384816583217135	0.0	-0.384816583217135	0.0	0.0	0.384816583217135	0.0	0.0	-6.291492146154792	-1.0154703823816438	-0.9098917516799765	-3.8343733886876565	-0.7009880813675258	-0.9098917516799765	-0.4603914252698236	-3.951185989601149	2.3403061565536443	-4.36027619168174	2.4349140576201167	1	wrong	1.0
144.01133530000155	8.511091399999714	go_punish	1.0	144.07044150000004	145.74097079999956	148.26419999999965	1.6705292999995152	145.08176300000017	147.24063260000003	151.33989029999975	0.6592077999993933	1.0235673999996209	1.2416426000000058	150.3275539999995	0.5079959000013332	149.28124019999996	1	1	17	3	go_punish	1	0	-1	1	0	0	0	0.0	1.0	-1	1.0	0.5079959000013332	54.6204701000006	198.69091160000065	199.70223310000077	200.36144090000016	201.86110270000063	202.88467010000025	203.90171030000056	204.9480241000001	205.96036040000035	207.20200300000036	2019-11-08 17:25:02.816074	-0.384816583217135	0.0	0.0	0.0	0.384816583217135	0.0	0.384816583217135	0.0	0.0	0.0	0.384816583217135	-20.0854376850749	-7.061125312589062	-1.0154703823816438	-0.9098917516799765	-3.8343733886876565	-0.7009880813675258	-0.9098917516799765	-20.545829110344723	-4.336002572818284	2.725122739770779	-4.36027619168174	2.4349140576201167	1	correct	1.0
152.5672655000017	8.252061899998807	go_reward	0.3428844999998546	152.6263717000002	154.00615239999937	156.59502979999888	1.3797806999991735	153.63606049999908	155.56849479999983	159.667881899999	0.3700919000002898	1.0265349999990576	1.2105516999999963	158.65721779999876	0.5405437999997957	157.61444469999878	1	1	18	1	go_reward	1	1	0	1	1	1	0	0.0	1.0	1	0.3428844999998546	0.5405437999997957	54.6204701000006	207.2468418000008	208.25653059999968	208.62662249999997	210.18896490000043	211.2154998999995	212.2349147999994	213.27768789999936	214.2883519999996	215.4989036999996	2019-11-08 17:25:02.816074	10.8810049982883	13.1752314400726	0.0	13.1752314400726	10.8810049982883	0.0	-10.8810049982883	13.1752314400726	0.0	10.8810049982883	0.0	6.1257065815403	4.204696268916374	12.159761057690957	-0.9098917516799765	9.340858051384945	9.79520033370364	-0.9098917516799765	5.665315156270476	6.545002425470017	2.3403061565536443	8.814955248390861	2.4349140576201167	1	correct	1.0
160.8762658000014	8.107249599999761	go_punish	1.0	160.9353719999999	162.4217592999994	164.9421274999986	1.4863872999995067	161.9483681999991	163.91537029999927	168.01371759999896	0.47339110000029905	1.026757199999338	1.0289040000006935	166.99418390000028	0.9247778999997536	165.95912709999905	1	1	19	3	go_punish	1	0	-1	1	0	0	1	1.0	1.0	-1	1.0	0.9247778999997536	54.6204701000006	215.5558421000005	216.5688382999997	217.0422294	218.53584039999987	219.5625975999992	220.57959719999965	221.61465400000088	222.63418769999956	223.66309170000025	2019-11-08 17:25:02.816074	-4.96790101409243	0.0	-3.78642680330927	-3.78642680330927	1.18147421078315	-3.78642680330927	4.96790101409243	-3.78642680330927	0.0	-3.78642680330927	1.18147421078315	-16.299010881765632	-11.644209743464357	-1.0154703823816438	-4.696318554989246	-7.620800191996926	0.09566954619848911	-4.696318554989246	-16.759402307035455	-8.122429376127554	3.5217803673367944	-8.14670299499101	2.4349140576201167	1	correct	1.0
169.03738180000073	8.643028200000117	go_punish	0.3099554000000353	169.09648799999923	171.10090789999958	173.6882291000002	2.0044199000003573	170.116292499999	172.66262629999983	176.7655090999997	0.9846154000005924	1.025602800000371	0.9740070999996533	175.7490773999998	0.6321572000015294	174.70777699999962	1	1	20	3	go_punish	1	0	-1	1	1	1	0	0.0	1.0	0	0.3099554000000353	0.6321572000015294	54.6204701000006	223.71695809999983	224.7367625999996	225.7213780000002	227.28309640000043	228.3086992000008	229.32824710000023	230.3695475000004	231.3859792000003	232.35998629999995	2019-11-08 17:25:02.816074	8.56238157915839	0.0	-6.75468529644183	-6.75468529644183	1.80769628271656	-6.75468529644183	-8.56238157915839	0.0	-6.75468529644183	1.80769628271656	-6.75468529644183	0.0	1.8860728497864638	-1.0154703823816438	-7.6645770481218065	-10.589058685129487	0.7218916181318991	-7.6645770481218065	-0.4603914252698236	-2.528306290101724	-4.414379139888185	-4.36027619168174	-4.319771238821713	1	correct	1.0
177.73342700000103	9.290484999999563	nogo_reward	0.2832364999994752	177.79253319999953	180.43367020000005	182.99091819999924	2.6411370000005263	178.81140269999923	181.97647419999885	186.07515280000007	1.6222675000008167	1.0144440000003954	1.0078653999990195	185.0645158999996	0.4712590999988606	184.0176586999987	1	1	21	2	nogo_reward	1	0	1	0	1	0	0	0.0	1.0	0	0.2832364999994752	0.4712590999988606	54.6204701000006	232.41300330000013	233.43187279999984	235.05414030000065	236.59694429999945	237.61138829999985	238.6381287999993	239.6849860000002	240.69562290000067	241.7034882999997	2019-11-08 17:25:02.816074	0.384816583217135	0.0	0.0	0.0	0.384816583217135	0.0	-0.384816583217135	0.0	0.0	0.384816583217135	0.0	0.0	-6.291492146154792	-1.0154703823816438	-0.9098917516799765	-3.8343733886876565	-0.7009880813675258	-0.9098917516799765	-0.4603914252698236	-3.951185989601149	2.3403061565536443	-4.36027619168174	2.4349140576201167	1	correct	1.0
187.0757233000004	8.244118599999666	nogo_punish	1.0	187.1348294999989	188.8768357999998	191.4157323999989	1.7420063000009236	188.14155169999867	190.3863292999995	194.5076930999985	0.7352841000011381	1.0294030999993993	0.8712550000000476	193.48131889999968	0.4310807000001659	192.4387987999999	1	1	22	4	nogo_punish	0	0	-1	0	0	1	0	0.0	1.0	-1	1.0	0.4310807000001659	54.6204701000006	241.7552995999995	242.76202179999927	243.4973059000004	245.0067994000001	246.0362024999995	247.0592689000005	248.10178900000028	249.1281631999991	249.99941819999916	2019-11-08 17:25:02.816074	0.221484440019777	-6.13664974444887	-3.78642680330927	-8.26759815309656	-4.00791124332905	-3.78642680330927	-0.221484440019777	-3.78642680330927	-6.13664974444887	-3.78642680330927	-4.00791124332905	-16.299010881765632	-6.45482428935215	-7.152120126830514	-4.696318554989246	-12.101971541784216	-5.093715907913711	-4.696318554989246	-16.759402307035455	-8.122429376127554	-1.667605086775406	-8.14670299499101	-3.701735686828753	1	correct	1.0
195.37142620000122	8.703716500000155	nogo_punish	0.3066632999998546	195.43053239999972	197.22541379999896	199.79862719999983	1.794881399999241	196.43879689999991	198.7724529999996	202.88972149999972	0.7866168999990464	1.0261742000002414	1.2445274000001518	201.87168519999977	0.3979595000000699	200.8168373999997	1	1	23	4	nogo_punish	1	-1	0	0	1	0	0	0.0	1.0	-1	0.3066632999998546	0.3979595000000699	54.6204701000006	250.05100250000032	251.05926700000052	251.84588389999956	253.3929231000002	254.41909730000043	255.43730750000032	256.4921553000004	257.5101916000003	258.7547190000005	2019-11-08 17:25:02.816074	3.18365165290433	-6.13664974444887	-6.75468529644183	-10.3330149546343	-3.5710336435375	-6.75468529644183	-3.18365165290433	-6.13664974444887	-6.75468529644183	-3.5710336435375	-6.75468529644183	-13.94878794062603	-3.492657076467597	-7.152120126830514	-7.6645770481218065	-14.167388343321957	-4.656838308122161	-7.6645770481218065	-14.409179365895854	-7.907036216355785	-4.414379139888185	-10.496925936130609	-4.319771238821713	1	correct	1.0
204.1319551000015	9.53201110000009	go_punish	0.3087280999989161	204.1910613	206.67113889999928	209.2464158999992	2.4800775999992766	205.2017125000002	208.21720230000028	212.33581979999872	1.4694263999990653	1.0292135999989114	1.387252600001375	211.32153990000006	0.3673197999996773	210.27750129999913	1	1	24	3	go_punish	0	-1	0	1	1	1	0	0.0	1.0	-1	0.3087280999989161	0.3673197999996773	54.6204701000006	258.8115314000006	259.8221826000008	261.2916089999999	262.8376724000009	263.8668859999998	264.89797139999973	265.94201000000066	266.9562898999993	268.3435425000007	2019-11-08 17:25:02.816074	8.26269711774441	0.0	-6.75468529644183	-5.31848143427215	1.50801182130258	-6.75468529644183	-8.26269711774441	0.0	-6.75468529644183	1.50801182130258	-6.75468529644183	-20.0854376850749	1.5863883883724839	-1.0154703823816438	-7.6645770481218065	-9.152854822959807	0.4222071567179191	-7.6645770481218065	-20.545829110344723	-2.827990751515704	-4.414379139888185	-4.36027619168174	-4.319771238821713	1	correct	1.0
213.71703570000136	8.050120500000048	go_reward	0.3180414999987988	213.77614189999986	215.20078329999888	217.7698416000003	1.4246413999990182	214.7988033999991	216.73997309999868	220.8556969000001	0.40197989999978745	1.0298685000016121	0.9705654999997932	219.83677199999875	0.516677499999787	218.79526909999913	1	1	25	1	go_reward	1	1	0	1	1	1	0	0.0	1.0	1	0.3180414999987988	0.516677499999787	54.6204701000006	268.39661200000046	269.4192734999997	269.8212533999995	271.3604431999993	272.3903117000009	273.41573919999973	274.45724209999935	275.4761670000007	276.4467325000005	2019-11-08 17:25:02.816074	11.6543051012708	14.1460882399031	0.0	14.1460882399031	11.6543051012708	0.0	-11.6543051012708	14.1460882399031	0.0	11.6543051012708	0.0	5.1548497817098	4.977996371898874	13.130617857521457	-0.9098917516799765	10.311714851215445	10.56850043668614	-0.9098917516799765	4.694458356439976	7.3183025284525165	2.3403061565536443	9.785812048221361	2.4349140576201167	1	correct	1.0
221.81288860000132	8.2997548000003	go_reward	0.4192182000006141	221.8719947999998	223.7496874999997	226.31981189999902	1.8776926999998977	222.88146450000022	225.29499979999855	229.39752509999926	0.8682229999994888	1.0248121000004744	0.7742245000008552	228.38112600000022	0.3662841999994271	227.33661539999957	1	1	26	1	go_reward	0	0	1	1	1	1	0	0.0	1.0	0	0.4192182000006141	0.3662841999994271	54.6204701000006	276.4924649000004	277.5019346000008	278.3701576000003	279.91546989999915	280.9402819999996	281.9570855000002	283.0015961000008	284.01799519999986	284.7922197000007	2019-11-08 17:25:02.816074	12.2908957398019	14.9452422623164	0.0	14.9452422623164	12.2908957398019	0.0	-12.2908957398019	14.9452422623164	0.0	12.2908957398019	0.0	-14.9452422623164	5.6145870104299735	13.929771879934757	-0.9098917516799765	11.110868873628743	11.20509107521724	-0.9098917516799765	-15.405633687586224	7.9548931669836165	2.3403061565536443	10.58496607063466	2.4349140576201167	1	correct	1.0
230.16593160000048	9.94334440000057	nogo_punish	0.284947000000102	230.22503779999897	233.0118453999985	235.5895856999996	2.78680759999952	231.2406831999997	234.56569969999873	238.67644010000004	1.7711621999987983	1.0238860000008572	1.4919420999995054	237.6598858999987	0.630848299999343	236.6150207999999	1	1	27	4	nogo_punish	1	-1	0	0	1	0	0	0.0	1.0	-1	0.284947000000102	0.630848299999343	54.6204701000006	284.8455078999996	285.8611533000003	287.6323154999991	289.18616979999933	290.2100558000002	291.2354909000005	292.2803559999993	293.29691020000064	294.78885230000014	2019-11-08 17:25:02.816074	1.03816588136768	-8.6325509146048	-6.75468529644183	-11.9865612539961	-5.71651941507415	-6.75468529644183	-1.03816588136768	-8.6325509146048	-6.75468529644183	-5.71651941507415	-6.75468529644183	-11.452886770470101	-5.638142848004247	-9.648021296986443	-7.6645770481218065	-15.820934642683756	-6.802324079658811	-7.6645770481218065	-11.913278195739926	-10.052521987892433	-4.414379139888185	-12.992827106286539	-4.319771238821713	1	correct	1.0
240.16287440000087	9.393138499999623	nogo_punish	1.0	240.22198059999937	243.19062289999965	245.71123149999949	2.9686423000002833	241.23028799999884	244.6976627999993	248.8064588999987	1.9603349000008166	1.013568700000178	0.808660200000304	247.77801360000012	0.3658761000006052	246.74188709999908	1	1	28	4	nogo_punish	1	-1	0	0	0	1	0	0.0	1.0	0	1.0	0.3658761000006052	54.6204701000006	294.8424507	295.85075809999944	297.81109300000026	299.3181328999999	300.3317016000001	301.3623571999997	302.3984837000007	303.4269289999993	304.2355891999996	2019-11-08 17:25:02.816074	0.663813795386864	-10.6178210942362	-6.75468529644183	-13.3212898105093	-7.41849909182869	-6.75468529644183	-0.663813795386864	-6.75468529644183	-10.6178210942362	-6.75468529644183	-7.41849909182869	6.75468529644183	-6.012494933985063	-11.633291476617844	-7.6645770481218065	-17.155663199196958	-8.504303756413352	-7.6645770481218065	6.294293871172006	-11.090687869260114	-5.078192935275046	-11.11496148812357	-8.182907036616083	1	correct	1.0
249.60376850000102	8.016236299999946	nogo_reward	1.0	249.66287469999952	251.14243220000026	253.663797199999	1.4795575000007375	250.669806599999	252.64121449999948	256.7552390000001	0.4726256000012654	1.022582699999532	0.9238719999993918	255.73873129999993	0.6801139999988663	254.69054659999892	1	1	29	2	nogo_reward	1	0	1	0	0	1	0	0.0	1.0	1	1.0	0.6801139999988663	54.6204701000006	304.2833448000001	305.2902766999996	305.76290230000086	307.2616846000001	308.2842672999996	309.3110166999995	310.35920140000053	311.3757091000007	312.29958110000007	2019-11-08 17:25:02.816074	-0.384816583217135	0.0	0.0	0.0	0.384816583217135	0.0	0.384816583217135	0.0	0.0	0.0	0.384816583217135	19.3009380216129	-7.061125312589062	-1.0154703823816438	-0.9098917516799765	-3.8343733886876565	-0.7009880813675258	-0.9098917516799765	18.840546596343078	-4.336002572818284	2.725122739770779	-4.36027619168174	2.4349140576201167	1	correct	1.0
257.66660390000106	8.750017399999706	nogo_punish	1.0	257.72571009999956	259.90240110000013	262.4447771999985	2.1766910000005737	258.7334523999998	261.4207299999998	265.5154032999999	1.1689487000003282	1.0240471999986767	0.960324199999377	264.5057574000002	0.3276339000003645	263.4752899999985	1	1	30	4	nogo_punish	0	0	-1	0	0	1	1	0.0	0.0	-1	1.0	0.3276339000003645	54.6204701000006	312.34618020000016	313.3539225000004	314.52287120000074	316.0412001000004	317.0652472999991	318.0957600999991	319.1262275000008	320.1358734000005	321.09619759999987	2019-11-08 17:25:02.816074	2.66599959627569	-10.6178210942362	-5.31848143427215	-10.6203227489589	-7.98448103054784	-5.31848143427215	-2.66599959627569	-5.31848143427215	-10.6178210942362	-5.31848143427215	-7.98448103054784	-14.76695625080275	-4.0103091330962375	-11.633291476617844	-6.228373185952126	-14.454696137646557	-9.070285695132501	-6.228373185952126	-15.227347676072574	-9.654484007090435	-5.644174873994196	-9.678757625953889	-8.182907036616083	1	wrong	1.0
266.4625839	8.570689800000764	go_reward	0.3054245999992417	266.5216900999985	268.30126240000027	270.90473419999944	1.779572300001746	267.53215660000023	269.88022269999965	273.98123699999996	0.7691058000000339	1.0245114999997895	1.1111428999993223	272.9683967000001	0.307032300001083	271.92473319999954	1	1	31	1	go_reward	1	1	0	1	1	1	0	0.0	1.0	1	0.3054245999992417	0.307032300001083	54.6204701000006	321.1421601999991	322.15262670000084	322.92173250000087	324.50069280000025	325.52520430000004	326.54520330000014	327.5888668000007	328.60170710000057	329.7128499999999	2019-11-08 17:25:02.816074	9.93386899248596	11.987750773313	0.0	11.987750773313	9.93386899248596	0.0	-9.93386899248596	11.987750773313	0.0	9.93386899248596	0.0	7.313187248299901	3.2575602631140335	10.972280390931356	-0.9098917516799765	8.153377384625344	8.8480643279013	-0.9098917516799765	6.852795823030077	5.597866419667676	2.3403061565536443	7.62747458163126	2.4349140576201167	1	correct	1.0
275.0888433	8.349570600001243	go_punish	0.3103523999998288	275.1479494999985	276.4353291999996	278.99747430000025	1.287379700001111	276.15332789999957	277.97904219999873	282.0791835	0.2820013000000472	1.0184321000015188	1.4183365999997477	281.05599959999927	0.4068422000000282	280.0218972999992	1	1	32	3	go_punish	0	-1	0	1	1	1	0	0.0	1.0	-1	0.3103523999998288	0.4068422000000282	54.6204701000006	329.7684195999991	330.77379800000017	331.0557993000002	332.59951229999933	333.61794440000085	334.6423673999998	335.67646969999987	336.6996536000006	338.11799020000035	2019-11-08 17:25:02.816074	5.04455811712492	-3.78642680330927	-6.75468529644183	-8.01451536261184	-1.71012717931691	-6.75468529644183	-5.04455811712492	-3.78642680330927	-6.75468529644183	-1.71012717931691	-6.75468529644183	-16.299010881765632	-1.6317506122470071	-4.801897185690914	-7.6645770481218065	-11.848888751299498	-2.795931843901571	-7.6645770481218065	-16.759402307035455	-6.046129752135194	-4.414379139888185	-8.14670299499101	-4.319771238821713	1	correct	1.0
283.4926876000009	9.228177799999628	go_reward	0.2905728999994608	283.5517937999994	285.9970758999989	288.56664180000007	2.445282099999474	284.5581057999989	287.5462620999988	291.65063219999865	1.438970100000006	1.0203797000012855	1.12933940000039	290.6304671999987	0.3970463000005111	289.5816739999991	1	1	33	1	go_reward	1	1	0	1	1	1	1	0.0	0.0	1	0.2905728999994608	0.3970463000005111	54.6204701000006	338.1722639	339.1785758999995	340.6175459999995	342.1667321999994	343.1871119000007	344.2021440999997	345.2509372999993	346.27110229999926	347.40044169999965	2019-11-08 17:25:02.816074	10.9897606347032	13.3120715193233	0.0	13.3120715193233	10.9897606347032	0.0	-10.9897606347032	13.3120715193233	0.0	10.9897606347032	0.0	5.9888665022896	4.313451905331274	12.296601136941657	-0.9098917516799765	9.477698130635645	9.90395597011854	-0.9098917516799765	5.528475077019777	6.653758061884917	2.3403061565536443	8.95179532764156	2.4349140576201167	1	wrong	1.0
292.77909250000084	8.554263699999865	go_punish	0.4402465999992273	292.83819869999934	294.82536739999887	297.3764675000002	1.987168699999529	293.8493385999991	296.3572729999996	300.4556658999991	0.9760287999997672	1.0191945000005944	0.9367965000001277	299.4421939999993	0.3788389999990613	298.4027413999993	1	1	34	3	go_punish	1	0	-1	1	1	1	1	1.0	1.0	0	0.4402465999992273	0.3788389999990613	54.6204701000006	347.45866879999994	348.4698086999997	349.44583749999947	350.9777431000002	351.9969376000008	353.0232114999999	354.0626640999999	355.0761359999997	356.0129324999998	2019-11-08 17:25:02.816074	2.52659074817699	-6.75468529644183	-6.75468529644183	-10.1454637712595	-4.22809454826484	-6.75468529644183	-2.52659074817699	-6.75468529644183	-6.75468529644183	-4.22809454826484	-6.75468529644183	6.75468529644183	-4.149717981194938	-7.770155678823473	-7.6645770481218065	-13.979837159947156	-5.313899212849501	-7.6645770481218065	6.294293871172006	-8.564097121083124	-4.414379139888185	-11.11496148812357	-4.319771238821713	1	correct	1.0
301.39337180000075	9.058571199999278	go_punish	0.5868845999993937	301.45247799999925	303.4006757999996	305.9605690999997	1.9481978000003437	302.464775299999	304.9482251999998	309.0423148999999	0.9359005000005709	1.0123438999999053	1.46873429999863	308.0204438000001	0.3101116999987425	306.97945309999886	1	1	35	3	go_punish	1	0	-1	1	1	1	0	0.0	1.0	0	0.5868845999993937	0.3101116999987425	54.6204701000006	356.07294809999985	357.0852453999996	358.0211459000002	359.5686953000004	360.5810392000003	361.59992319999947	362.6409139000007	363.6627850000005	365.1315192999991	2019-11-08 17:25:02.816074	3.52620455391829	-5.31848143427215	-6.75468529644183	-8.05950100797974	-3.22848074252354	-6.75468529644183	-3.52620455391829	-5.31848143427215	-6.75468529644183	-3.22848074252354	-6.75468529644183	5.31848143427215	-3.150104175453637	-6.333951816653794	-7.6645770481218065	-11.893874396667396	-4.3142854071082	-7.6645770481218065	4.858090009002327	-7.564483315341824	-4.414379139888185	-9.678757625953889	-4.319771238821713	1	correct	1.0
310.5087607000005	9.355761900000289	nogo_reward	1.0	310.567866899999	312.9222484999991	315.4431792999985	2.3543816000001243	311.5779395999998	314.42006089999995	318.5236201999996	1.3443088999993051	1.023118399998566	1.400008599999694	317.5129883999998	0.3188236999994842	316.467854999999	1	1	36	2	nogo_reward	1	0	1	0	0	1	0	0.0	1.0	1	1.0	0.3188236999994842	54.6204701000006	365.1883369999996	366.1984097000004	367.5427185999997	369.04053100000056	370.0636493999991	371.0883250999996	372.1334585000004	373.1440903000002	374.5440988999999	2019-11-08 17:25:02.816074	3.96898962864937	0.0	3.61886425592594	3.61886425592594	-0.350125372723436	3.61886425592594	-3.96898962864937	3.61886425592594	0.0	3.61886425592594	-0.350125372723436	15.68207376568696	-2.707319100722557	-1.0154703823816438	2.7089725042459634	-0.21550913276171668	-1.435930037308097	2.7089725042459634	15.221682340417136	-0.7171383168923442	1.9901807838302084	-0.7414119357557998	2.4349140576201167	1	correct	1.0
319.9099361000008	8.734484200000225	nogo_punish	0.8544556999986526	319.9690422999993	321.5571581999993	324.1225347999989	1.588115900000048	320.9816496999993	323.099116899999	327.2102478999987	0.5755085000000122	1.023417899999913	1.4932786000007923	326.20033709999916	0.7282245999995212	325.151287499999	1	1	37	4	nogo_punish	1	-1	0	0	1	0	0	0.0	1.0	-1	0.8544556999986526	0.7282245999995212	54.6204701000006	374.5895123999999	375.6021197999999	376.1776282999999	377.7195869999996	378.7430048999995	379.7717575999996	380.82080719999976	381.8307179999993	383.3239966000001	2019-11-08 17:25:02.816074	0.389538160434828	-10.6178210942362	-8.01451536261184	-12.3272579295116	-7.62497720217701	-8.01451536261184	-0.389538160434828	-10.6178210942362	-8.01451536261184	-7.62497720217701	-8.01451536261184	-9.4676165908387	-6.286770568937099	-11.633291476617844	-8.924407114291817	-16.161631318199255	-8.710781866761671	-8.924407114291817	-9.928008016108524	-11.960979774995295	-5.674209206058196	-14.97809728591794	-5.579601304991724	1	correct	1.0
328.70069800000056	8.69263409999985	nogo_reward	1.0	328.75980419999905	331.0601681999997	333.60094430000026	2.300364000000627	329.7741982999996	332.57230619999973	336.6781250999993	1.2859699000000546	1.028638100000535	0.7743131999995967	335.66437640000004	0.6445725000012317	334.628994499999	1	1	38	2	nogo_reward	1	0	1	0	0	1	1	1.0	1.0	1	1.0	0.6445725000012317	54.6204701000006	383.38027429999966	384.3946684000002	385.6806383000003	387.19277630000033	388.22141440000087	389.2494645999996	390.28484650000064	391.2985951999999	392.0729083999995	2019-11-08 17:25:02.816074	7.3918789671406	0.0	6.46345757416592	6.46345757416592	-0.928421392974687	6.46345757416592	-7.3918789671406	6.46345757416592	0.0	6.46345757416592	-0.928421392974687	12.83748044744698	0.7155702377686728	-1.0154703823816438	5.553565822485943	2.6290841854782636	-2.014226057559348	5.553565822485943	12.377089022177156	2.127455001347636	1.4118847635789573	2.1031813824841805	2.4349140576201167	1	correct	1.0
337.4408234000002	8.78238710000005	nogo_punish	1.0	337.4999295999987	339.50978359999857	342.0358311	2.009853999999848	338.5061494999991	341.0150395000001	345.11680049999995	1.0036340999994877	1.0207915999998818	1.1655161999988195	344.1083018999998	0.3246505999995861	343.06414849999965	1	1	39	4	nogo_punish	1	-1	0	0	0	1	1	1.0	1.0	0	1.0	0.3246505999995861	54.6204701000006	392.1203996999993	393.1266195999997	394.1302536999992	395.6355096000007	396.6563012000006	397.68461860000025	398.7287720000004	399.73727060000056	400.9027867999994	2019-11-08 17:25:02.816074	0.918375694311679	-12.2108805727973	-8.01451536261184	-13.6775365887823	-8.93289105692352	-8.01451536261184	-0.918375694311679	-8.01451536261184	-12.2108805727973	-8.01451536261184	-8.93289105692352	8.01451536261184	-5.757933035060248	-13.226350955178944	-8.924407114291817	-17.511909977469955	-10.01869572150818	-8.924407114291817	7.554123937342017	-12.350517935430124	-6.592584900369875	-12.37479155429358	-9.775966515177185	1	correct	1.0
346.2830403000007	9.40353900000082	go_punish	0.2797174000006635	346.3421464999992	348.7238577999997	351.3110746000002	2.381711300000461	347.353358299999	350.2865946999991	354.3881375000001	1.370499500000676	1.0244799000010971	1.3575479999999516	353.3759640999997	0.3735018000006675	352.3380949000002	1	1	40	3	go_punish	1	0	-1	1	1	1	0	0.0	1.0	0	0.2797174000006635	0.3735018000006675	54.6204701000006	400.9626165999998	401.9738283999996	403.3443279000003	404.9070647999997	405.9315447000008	406.9585650000008	407.9964342000003	409.0086076000007	410.36615560000064	2019-11-08 17:25:02.816074	4.28069518921327	-4.22808855930257	-6.75468529644183	-6.45998267460715	-2.47399010722856	-6.75468529644183	-4.28069518921327	-4.22808855930257	-6.75468529644183	-2.47399010722856	-6.75468529644183	4.22808855930257	-2.3956135401586574	-5.243558941684213	-7.6645770481218065	-10.294356063294806	-3.5597947718132206	-7.6645770481218065	3.7676971340327468	-6.809992680046844	-4.414379139888185	-8.58836475098431	-4.319771238821713	1	correct	1.0
355.7415075000008	8.331547800000408	go_punish	0.978436999999758	355.8006136999993	357.4880674999986	360.0404390999993	1.6874537999992754	356.8211185	359.0279437999998	363.1247210000002	0.6669489999985672	1.0124952999995003	1.0074404999995181	362.1089310999996	0.4696648999997705	361.0628871999998	1	1	41	3	go_punish	1	0	-1	1	1	1	0	0.0	1.0	0	0.978436999999758	0.4696648999997705	54.6204701000006	410.4210837999999	411.4415886000006	412.1085375999992	413.6484139000004	414.6609091999999	415.6833573000004	416.7294012000002	417.7451911000008	418.7526316000003	2019-11-08 17:25:02.816074	4.85688576198501	-3.3907784748177	-6.75468529644183	-5.22016897117955	-1.89779953445682	-6.75468529644183	-4.85688576198501	-3.3907784748177	-6.75468529644183	-1.89779953445682	-6.75468529644183	3.3907784748177	-1.8194229673869167	-4.406248857199344	-7.6645770481218065	-9.054542359867206	-2.9836041990414808	-7.6645770481218065	2.9303870495478765	-6.233802107275104	-4.414379139888185	-7.7510546664994395	-4.319771238821713	1	correct	1.0
364.1224909000011	8.241749200000527	nogo_reward	1.0	364.1815970999996	365.7650678999999	368.2852269999985	1.5834708000003275	365.19352079999953	367.27359269999937	371.3781846000002	0.5715471000003731	1.0116342999991161	1.0451616999998805	370.3576309	0.405460400001175	369.31494649999877	1	1	42	2	nogo_reward	0	1	0	0	0	1	0	0.0	1.0	0	1.0	0.405460400001175	54.6204701000006	418.8020672000002	419.81399090000014	420.3855380000005	421.8940628	422.9056970999991	423.93541659999937	424.9781010000006	425.9986547000008	427.0438164000007	2019-11-08 17:25:02.816074	10.1091048659614	0.0	8.72135250610565	8.72135250610565	-1.38775235985572	8.72135250610565	-10.1091048659614	8.72135250610565	0.0	8.72135250610565	-1.38775235985572	-8.72135250610565	3.4327961365894737	-1.0154703823816438	7.8114607544256724	4.886979117417993	-2.473557024440381	7.8114607544256724	-9.181743931375474	4.385349933287365	0.9525537966979243	4.36107631442391	2.4349140576201167	1	correct	1.0
372.4090733000012	8.137128999998822	go_reward	0.3252377999997407	372.4681794999997	373.99718310000026	376.56868849999955	1.5290036000005784	373.4877024999987	375.547342599999	379.6471733999988	0.5094806000015524	1.02134590000054	0.9581350999997085	378.6323250999994	0.2895099999986996	377.5938864	1	1	43	1	go_reward	1	1	0	1	1	1	0	0.0	1.0	1	0.3252377999997407	0.2895099999986996	54.6204701000006	427.0886496000003	428.1081725999993	428.61765320000086	430.1678126999996	431.18915860000016	432.2143565000006	433.2527952	434.2676434999994	435.2257785999991	2019-11-08 17:25:02.816074	11.8236986039746	14.3583074697523	0.0	14.3583074697523	11.8236986039746	0.0	-11.8236986039746	14.3583074697523	0.0	11.8236986039746	0.0	4.942630551860601	5.147389874602673	13.342837087370656	-0.9098917516799765	10.523934081064642	10.73789393938994	-0.9098917516799765	4.482239126590778	7.487696031156316	2.3403061565536443	9.99803127807056	2.4349140576201167	1	correct	1.0
380.5934349000017	8.248489299998312	go_reward	0.535129699999743	380.6525411000002	382.2082266999987	384.7713845999988	1.555685599998526	381.6684074999994	383.75326029999997	387.85408559999996	0.5398191999993287	1.0181242999988172	1.0469447999985277	386.8350732999988	0.3238397000004624	385.7995031999999	1	1	44	1	go_reward	1	1	0	1	1	1	0	0.0	1.0	1	0.535129699999743	0.3238397000004624	54.6204701000006	435.2730112000008	436.2888776	436.8286967999993	438.37373040000057	439.3918546999994	440.4199733000005	441.4555433999994	442.47455570000056	443.5215004999991	2019-11-08 17:25:02.816074	12.4894421638031	15.193673153853	0.0	15.193673153853	12.4894421638031	0.0	-12.4894421638031	15.193673153853	0.0	12.4894421638031	0.0	4.1072648677599	5.8131334344311725	14.178202771471357	-0.9098917516799765	11.359299765165343	11.403637499218439	-0.9098917516799765	3.646873442490077	8.153439590984815	2.3403061565536443	10.83339696217126	2.4349140576201167	1	correct	1.0
388.88872830000037	9.433362800000452	go_reward	0.2860173999997641	388.94783449999886	391.5092844999999	394.0952920999989	2.5614500000010594	389.95736169999867	393.0709716000001	397.1723247999999	1.5519228000012504	1.0243204999987938	1.2088724999994156	396.15882189999866	0.3990605999988474	395.1114827000001	1	1	45	1	go_reward	1	1	0	1	1	1	1	1.0	1.0	1	0.2860173999997641	0.3990605999988474	54.6204701000006	443.56830459999946	444.5778317999993	446.1297546000005	447.6914417000007	448.7157621999995	449.7319528000007	450.77929199999926	451.7927949000005	453.0016673999999	2019-11-08 17:25:02.816074	13.0260161306915	15.867012681818	0.0	15.867012681818	13.0260161306915	0.0	-13.0260161306915	15.867012681818	0.0	13.0260161306915	0.0	3.4339253397949	6.349707401319574	14.851542299436357	-0.9098917516799765	12.032639293130345	11.94021146610684	-0.9098917516799765	2.9735339145250768	8.690013557873216	2.3403061565536443	11.50673649013626	2.4349140576201167	1	correct	1.0
398.376044300001	8.27505740000015	nogo_reward	1.0	398.4351504999995	399.7839664000003	402.3095254999989	1.3488159000007727	399.4524512999996	401.2863196999988	405.3850023999985	0.3315151000006722	1.0232058000001416	1.325205500001175	404.373624599999	0.3558929999999236	403.3314983	1	1	46	2	nogo_reward	0	1	0	0	0	1	0	0.0	1.0	0	1.0	0.3558929999999236	54.6204701000006	453.0556206000001	454.0729214000002	454.4044365000009	455.9067897999994	456.92999559999953	457.9519684000006	458.9940946999996	460.0054724999991	461.33067800000026	2019-11-08 17:25:02.816074	7.93130529399446	0.0	6.91053813575008	6.91053813575008	-1.02076715824438	6.91053813575008	-7.93130529399446	6.91053813575008	0.0	6.91053813575008	-1.02076715824438	-6.91053813575008	1.254996564622533	-1.0154703823816438	6.000646384070103	3.076164747062424	-2.106571822829041	6.000646384070103	-7.370929561019904	2.5745355629317963	1.3195389983092642	2.5502619440683407	2.4349140576201167	1	correct	1.0
406.7096950000014	8.606581099998948	go_punish	0.2715138000003207	406.76880119999987	408.3538422999991	410.9375081999988	1.5850410999992164	407.7869484999992	409.9156284000001	414.0169425999993	0.5668937999998889	1.0218797999986577	1.3584396999995079	412.9961430999993	0.4962274999998044	411.9581362999998	1	1	47	3	go_punish	1	0	-1	1	1	1	0	0.0	1.0	0	0.2715138000003207	0.4962274999998044	54.6204701000006	461.3892713000005	462.4074185999998	462.9743123999997	464.5360985000007	465.5579782999994	466.5786064000004	467.6166131999999	468.6374126999999	469.9958523999994	2019-11-08 17:25:02.816074	5.30171638935837	-2.74101957370759	-6.75468529644183	-4.24957879463388	-1.45296890708346	-6.75468529644183	-5.30171638935837	-2.74101957370759	-6.75468529644183	-1.45296890708346	-6.75468529644183	2.74101957370759	-1.3745923400135567	-3.7564899560892338	-7.6645770481218065	-8.083952183321536	-2.538773571668121	-7.6645770481218065	2.280628148437766	-5.788971479901744	-4.414379139888185	-7.101295765389329	-4.319771238821713	1	correct	1.0
415.3646751000015	9.931716099999903	go_reward	0.2964553000001615	415.4237813	418.2628875999999	420.85974949999945	2.839106299999912	416.4299738999998	419.8278088999996	423.9350958999985	1.8329137000000628	1.0319405999998708	1.4204015000013896	422.9265981999997	0.2895138999992923	421.8889936999986	1	1	48	1	go_reward	1	1	0	1	1	1	0	0.0	1.0	1	0.2964553000001615	0.2895138999992923	54.6204701000006	470.0442514000006	471.0504440000004	472.8833577000005	474.4482790000002	475.48021960000005	476.5094637999992	477.5470683000003	478.5555659999991	479.9759675000005	2019-11-08 17:25:02.816074	13.4621777806387	16.414350903621	0.0	16.414350903621	13.4621777806387	0.0	-13.4621777806387	16.414350903621	0.0	13.4621777806387	0.0	2.886587117991901	6.785869051266774	15.398880521239356	-0.9098917516799765	12.579977514933343	12.37637311605404	-0.9098917516799765	2.426195692722078	9.126175207820417	2.3403061565536443	12.05407471193926	2.4349140576201167	1	correct	1.0
425.349495800001	8.410447700000077	nogo_punish	1.0	425.4086019999995	427.00311669999974	429.5344387999994	1.594514700000218	426.4265213999988	428.5174539999989	432.61693269999887	0.5765953000009176	1.0169848000005004	1.202117000000726	431.5977942999998	0.2745734999989508	430.5576122000002	1	1	49	4	nogo_punish	1	-1	0	0	0	1	0	0.0	1.0	0	1.0	0.2745734999989508	54.6204701000006	480.0290721000001	481.0469914999994	481.62358680000034	483.1379240999995	484.1549089	485.1780823000008	486.2182644000004	487.2374027999995	488.4395198000002	2019-11-08 17:25:02.816074	3.14213879807454	-12.2108805727973	-6.35903696795026	-10.9701812023724	-9.5011757660248	-6.35903696795026	-3.14213879807454	-6.35903696795026	-12.2108805727973	-6.35903696795026	-9.5011757660248	6.35903696795026	-3.534169931297387	-13.226350955178944	-7.268928719630237	-14.804554591060057	-10.586980430609461	-7.268928719630237	5.898645542680437	-10.695039540768544	-7.160869609471156	-10.719313159632	-9.775966515177185	1	correct	1.0
433.8119340000012	8.970048600000155	go_reward	0.2810912999993888	433.8710401999997	435.7380990999991	438.29970649999996	1.8670588999993925	434.8793999999998	437.2811661999986	441.3732399000001	0.858699099999285	1.018540300001348	1.4678488999997512	440.3607479000002	0.3382536999997683	439.3180382999999	1	1	50	1	go_reward	1	1	0	1	1	1	1	0.0	0.0	1	0.2810912999993888	0.3382536999997683	54.6204701000006	488.4915103000003	489.4998701000004	490.3585691999997	491.9016362999992	492.92017660000056	493.9385084000005	494.9812180000008	495.9937100000007	497.46155890000045	2019-11-08 17:25:02.816074	13.8194181363877	16.8626293907328	0.0	16.8626293907328	13.8194181363877	0.0	-13.8194181363877	16.8626293907328	0.0	13.8194181363877	0.0	2.438308630880101	7.143109407015773	15.847159008351156	-0.9098917516799765	13.028256002045143	12.73361347180304	-0.9098917516799765	1.9779172056102776	9.483415563569416	2.3403061565536443	12.50235319905106	2.4349140576201167	1	wrong	1.0
442.83582020000176	8.230348799999774	nogo_reward	1.0	442.89492640000026	444.2713662999995	446.8054050999999	1.3764398999992409	443.91053719999945	445.7864293000002	449.88952059999974	0.3608291000000463	1.0189757999997369	1.2357546000002912	448.86956459999965	0.3703573000002507	447.82700529999966	1	1	51	2	nogo_reward	1	0	1	0	0	1	0	0.0	1.0	1	1.0	0.3703573000002507	54.6204701000006	497.51539650000086	498.53100730000006	498.8918364000001	500.4068994000008	501.4258752000005	502.44747540000026	503.49003470000025	504.50999070000034	505.74574530000064	2019-11-08 17:25:02.816074	6.26483913421708	0.0	5.52532680225593	5.52532680225593	-0.739512331961149	5.52532680225593	-6.26483913421708	5.52532680225593	0.0	5.52532680225593	-0.739512331961149	13.775611219356971	-0.4114695951548466	-1.0154703823816438	4.615435050575954	1.6909534135682733	-1.8253169965458098	4.615435050575954	13.315219794087147	1.1893242294376458	1.6007938245924953	1.1650506105741902	2.4349140576201167	1	correct	1.0
451.1273970000002	8.23340410000128	go_punish	1.0	451.1865031999987	452.90652579999914	455.4219056000002	1.7200226000004477	452.2073251999991	454.4057909999992	458.5042999999987	0.6992006000000401	1.0161146000009467	0.9156073000012839	457.4894943999989	0.7759002000002511	456.4413288999986	1	1	52	3	go_punish	0	-1	0	1	0	0	0	0.0	1.0	0	1.0	0.7759002000002511	54.6204701000006	505.8069732999993	506.8277952999997	507.52699589999975	509.02626109999983	510.0423757000008	511.0617989999992	512.1099644999995	513.1247700999993	514.0403774000006	2019-11-08 17:25:02.816074	-5.64859693890043	-2.23189411530458	-6.75468529644183	-3.48278583306117	-1.1060883575414	-6.75468529644183	5.64859693890043	-6.75468529644183	-2.23189411530458	-6.75468529644183	-1.1060883575414	6.75468529644183	-12.324905668272358	-3.247364497686224	-7.6645770481218065	-7.317159221748827	-2.191893022126061	-7.6645770481218065	6.294293871172006	-11.090687869260114	1.2342177990122443	-11.11496148812357	0.20301994231553655	1	correct	1.0
459.4115980000006	9.551083100001051	go_reward	0.2807714999999007	459.4707041999991	461.98443059999954	464.5473678999988	2.5137264000004507	460.4908928999994	463.5160169999999	467.6274367999995	1.4935377000001608	1.0313508999988699	1.3943505000006553	466.6131958999995	0.2981666999985464	465.57621069999914	1	1	53	1	go_reward	1	1	0	1	1	1	0	0.0	1.0	1	0.2807714999999007	0.2981666999985464	54.6204701000006	514.0911742999997	515.111363	516.6049007000001	518.1364871000005	519.1678379999994	520.1966807999997	521.2336660000001	522.2479069000001	523.6422574000007	2019-11-08 17:25:02.816074	14.114008884657	17.2322582878129	0.0	17.2322582878129	14.114008884657	0.0	-14.114008884657	17.2322582878129	0.0	14.114008884657	0.0	2.0686797338	7.437700155285073	16.216787905431257	-0.9098917516799765	13.397884899125245	13.02820422007234	-0.9098917516799765	1.6082883085301762	9.778006311838716	2.3403061565536443	12.87198209613116	2.4349140576201167	1	correct	1.0
469.0089968000011	8.536090999999942	nogo_punish	1.0	469.0681029999996	470.59832989999995	473.137060699999	1.5302269000003434	470.08735909999996	472.1108016999988	476.21132469999975	0.5109707999999955	1.0262590000002092	1.392869299999802	475.2006911999997	0.2879811000002519	474.15533069999947	1	1	54	4	nogo_punish	1	-1	0	0	0	1	0	0.0	1.0	0	1.0	0.2879811000002519	54.6204701000006	523.6885731000002	524.7078292000006	525.2188000000006	526.7312717999994	527.7575307999996	528.7758008000001	529.8211613000003	530.8317948000004	532.2246641000002	2019-11-08 17:25:02.816074	4.85164334225101	-12.2108805727973	-5.09124251484719	-8.87219685737965	-9.9428858570982	-5.09124251484719	-4.85164334225101	-5.09124251484719	-12.2108805727973	-5.09124251484719	-9.9428858570982	5.09124251484719	-1.824665387120917	-13.226350955178944	-6.001134266527167	-12.706570246067308	-11.028690521682861	-6.001134266527167	4.630851089577367	-9.427245087665474	-7.602579700544556	-9.45151870652893	-9.775966515177185	1	correct	1.0
477.5993386000009	8.323490599999786	nogo_reward	1.0	477.6584447999994	479.0372134999998	481.5658612999996	1.3787687000003643	478.6691995000001	480.5447749999985	484.6295269000002	0.36801399999967543	1.0210863000011159	1.352408499999001	483.6167502999997	0.288667599999826	482.5825728999989	1	1	55	2	nogo_reward	1	0	1	0	0	1	0	0.0	1.0	1	1.0	0.288667599999826	54.6204701000006	532.2789149	533.2896696000007	533.6576836000004	535.1652450999991	536.1863314000002	537.2030429999995	538.2372204000003	539.2499970000008	540.6024054999998	2019-11-08 17:25:02.816074	9.32934264454484	0.0	8.07274318989284	8.07274318989284	-1.256599454652	8.07274318989284	-9.32934264454484	8.07274318989284	0.0	8.07274318989284	-1.256599454652	11.22819483172006	2.6530339151729123	-1.0154703823816438	7.162851438212863	4.238369801205184	-2.3424041192366607	7.162851438212863	10.767803406450236	3.736740617074556	1.0837067019016442	3.7124669982111005	2.4349140576201167	1	correct	1.0
485.97978330000115	8.260377399999925	nogo_reward	1.0	486.03888949999964	487.42385680000007	489.9468175999991	1.384967300000426	487.0551213999988	488.9275553999996	493.0241919	0.36873540000124194	1.0192621999995026	1.2750749999995605	492.01080159999947	0.3334145000007993	490.9669990000002	1	1	56	2	nogo_reward	1	0	1	0	0	1	0	0.0	1.0	1	1.0	0.3334145000007993	54.6204701000006	540.6593596000002	541.6755914999994	542.0443269000007	543.5480255000002	544.5672876999997	545.5874691000008	546.6312717000001	547.6446620000006	548.9197370000002	2019-11-08 17:25:02.816074	11.744638839815	0.0	10.080143422393	10.080143422393	-1.664495417422	10.080143422393	-11.744638839815	10.080143422393	0.0	10.080143422393	-1.664495417422	9.2207945992199	5.068330110443073	-1.0154703823816438	9.170251670713023	6.245770033705344	-2.7503000820066608	9.170251670713023	8.760403173950076	5.744140849574716	0.6758107391316444	5.719867230711261	2.4349140576201167	1	correct	1.0
494.29992910000146	8.486520700000256	go_punish	0.5316895000014483	494.35903529999996	495.7025343999994	498.2990613000002	1.3434990999994625	495.3745760999991	497.2687857000001	501.3695943999992	0.32795830000031856	1.0302756000000954	1.4759616000010283	500.35896109999885	0.4341152000015427	499.3158070999998	1	1	57	3	go_punish	0	-1	0	1	1	1	0	0.0	1.0	-1	0.5316895000014483	0.4341152000015427	54.6204701000006	548.9795054000006	549.9950461999997	550.3230045	551.8892558000007	552.9195314000008	553.9362772000004	554.9794311999995	555.9900644999998	557.4660261000008	2019-11-08 17:25:02.816074	4.08290161185453	-2.23189411530458	-5.31848143427215	-2.87190169541039	-1.23557982241762	-5.31848143427215	-4.08290161185453	-2.23189411530458	-5.31848143427215	-1.23557982241762	-5.31848143427215	-17.85354356977032	-2.5934071175173967	-3.247364497686224	-6.228373185952126	-6.7062750840980465	-2.321384487002281	-6.228373185952126	-18.313934995040142	-5.571582395235904	-2.9781752777185058	-6.59217030698632	-2.8835673766520333	1	correct	1.0
502.84017180000046	8.759947900000043	nogo_punish	1.0	502.89927799999896	504.7070070999998	507.23735529999976	1.80772910000087	503.9087829	506.2157159999988	510.30534439999974	0.7982241999998223	1.0216393000009703	1.353881499999261	509.2968600999993	0.2800480000005336	508.263998299999	1	1	58	4	nogo_punish	1	-1	0	0	0	1	0	0.0	1.0	0	1.0	0.2800480000005336	54.6204701000006	557.5197480999996	558.5292530000006	559.3274772000004	560.8361860999994	561.8578254000004	562.8844683999996	563.9173301999999	564.9258145000003	566.2796959999996	2019-11-08 17:25:02.816074	6.17984225312442	-12.2108805727973	-4.10975973346755	-7.22966499075811	-10.289601986592	-4.10975973346755	-6.17984225312442	-4.10975973346755	-12.2108805727973	-4.10975973346755	-10.289601986592	4.10975973346755	-0.49646647624750706	-13.226350955178944	-5.019651485147527	-11.064038379445766	-11.375406651176661	-5.019651485147527	3.649368308197727	-8.445762306285834	-7.949295830038356	-8.47003592514929	-9.775966515177185	1	correct	1.0
511.6553633000003	8.04093290000128	nogo_punish	1.0	511.7144694999988	513.1544850999999	515.688811	1.440015600001061	512.7301674999999	514.6679967	518.7628568	0.42431759999999485	1.0208142999999836	0.992545600000085	517.7486534999989	0.2996101000007911	516.7106567999999	1	1	59	4	nogo_punish	1	-1	0	0	0	1	0	0.0	1.0	0	1.0	0.2996101000007911	54.6204701000006	566.3349395999994	567.3506376000005	567.7749552000005	569.2884668000006	570.3092811000006	571.3311269000005	572.3691235999995	573.3833269000006	574.3758725000007	2019-11-08 17:25:02.816074	7.2219133114788	-12.2108805727973	-3.34230335301658	-5.93157313943718	-10.5642166644954	-3.34230335301658	-7.2219133114788	-3.34230335301658	-12.2108805727973	-3.34230335301658	-10.5642166644954	3.34230335301658	0.5456045821068729	-13.226350955178944	-4.252195104696557	-9.765946528124836	-11.65002132908006	-4.252195104696557	2.8819119277467564	-7.678305925834865	-8.223910507941754	-7.70257954469832	-9.775966515177185	1	correct	1.0
519.753447000001	9.887665000000197	go_punish	0.2828189000010752	519.8125531999995	522.5903026999986	525.1857762	2.7777494999991177	520.8181015999999	524.1596480999997	528.2608653999996	1.7722010999987106	1.0261281000002782	1.4393528000000515	527.2480254000002	0.3219109999990905	526.2039823999985	1	1	60	3	go_punish	1	0	-1	1	1	1	0	0.0	1.0	0	0.2828189000010752	0.3219109999990905	54.6204701000006	574.4330233000001	575.4385717000005	577.2107727999992	578.7801182000003	579.8062463000006	580.8244524999991	581.8684955000008	582.8813355000002	584.3206883000003	2019-11-08 17:25:02.816074	1.39151688077379	-5.61581729967113	-5.31848143427215	-6.16789520355827	-3.92696455349836	-5.31848143427215	-1.39151688077379	-5.61581729967113	-5.31848143427215	-3.92696455349836	-5.31848143427215	5.61581729967113	-5.284791848598137	-6.631287682052774	-6.228373185952126	-10.002268592245926	-5.012769218083021	-6.228373185952126	5.155425874401307	-8.262967126316644	-2.9781752777185058	-9.97609349135287	-2.8835673766520333	1	correct	1.0
