onset	duration	trial_type	response_time	cueOnset	targetOnset	fbOnset	cueRT	firstfixOnset	secondfixOnset	waitOnset	firstfixdur	secondfixdur	waitdur	nback_fbOnset	nback_response_time	nback_targetOnset	block	wm	trial	cue	cond	is_common	outcome_go	outcome_nogo	key_correct	key_pressed	is_correct	key_correct_nback	key_pressed_nback	is_correct_nback	outcome	rt	rt_nback	time_scan	time_onset	time_isi1	time_circle	time_isi2	time_feedback	time_same	time_correct	time_iti	time_done	timestamp_scan	DV	Qgo	Qnogo	SV	Wgo	Wnogo	mDV	Qchosen	Qunchosen	Wchosen	Wunchosen	PE	DVC	QgoC	QnogoC	SVC	WgoC	WnogoC	PEC	WchosenC	WunchosenC	QchosenC	QunchosenC	run	outcome_nback	nback_targetResp
0.0	7.617534099998011	go_punish	1.0	0.03982520000135992	2.604955800001335	5.141580800001975	2.565130599999975	1.049913499999093	4.1182936000006976	6.1670627999992575	1.555042300002242	1.0232872000012776	1.4902965000001132	n/a	1.0	n/a	2	0	61	3	go_punish	1	0	-1	1	0	0	0	n/a	n/a	-1	1.0	1.0	1712.2291882999998	1712.2690135000012	1713.279101799999	1714.8341441000011	1716.3474819000005	1717.3707691000018	n/a	n/a	1718.396251099999	1719.8865475999992	2019-11-08 17:52:40.418113	-1.75147373550598	-3.83477885502629	-5.30416844886653	-4.10521939113857	-3.55269471336054	-5.30416844886653	1.75147373550598	-5.30416844886653	-3.83477885502629	-5.30416844886653	-3.55269471336054	-14.78126923620837	-8.427782464877907	-4.850249237407933	-6.214060200546507	-7.939592779826227	-4.638499377945201	-6.214060200546507	-15.241660661478194	-9.640171021684814	-1.212388556806896	-9.66444464054827	-1.399864797406173	4	missed	0.0
7.691359599997668	6.683721700002934	nogo_reward	1.0	7.731184799999028	9.913757700000133	12.433688900000561	2.182572900001105	8.745259700001043	11.410855099999026	13.452894300000708	1.16849799999909	1.0228338000015356	0.9620122000012543	n/a	1.0	n/a	2	0	62	2	nogo_reward	1	0	1	0	0	1	1	n/a	n/a	1	1.0	1.0	1712.2291882999998	1719.9603730999988	1720.9744480000008	1722.142946	1723.6400433999988	1724.6628772000004	n/a	n/a	1725.6820826000005	1726.6440948000018	2019-11-08 17:52:40.418113	9.13334803839389	5.5111741481775	15.1546696533555	15.2441121978018	6.02132161496159	15.1546696533555	-9.13334803839389	15.1546696533555	5.5111741481775	15.1546696533555	6.02132161496159	4.146268368257401	2.4570393090219635	4.495703765795856	14.244777901675523	11.409738809114142	4.935516950376929	14.244777901675523	3.6858769429875773	10.818667080537216	8.361627771515234	10.79439346167376	7.946088205797617	4	missed	0.0
14.413324699999066	6.406183999999257	go_reward	0.2931685000003199	14.453149900000426	15.826247500001045	18.40007120000155	1.3730976000006194	15.459498700001859	17.374781900001835	19.411165099998698	0.3667487999991863	1.025289299999713	1.4481688000009854	n/a	1.0	n/a	2	0	63	1	go_reward	0	0	1	1	1	1	0	n/a	n/a	0	0.2931685000003199	1.0	1712.2291882999998	1726.6823382000002	1727.6886870000017	1728.0554358000009	1729.6039702000016	1730.6292595000014	n/a	n/a	1731.6403533999985	1733.0885221999995	2019-11-08 17:52:40.418113	8.08247583360296	9.5247113804149	1.9519065426172	9.57619475526942	10.0343823762202	1.9519065426172	-8.08247583360296	9.5247113804149	1.9519065426172	10.0343823762202	1.9519065426172	-9.5247113804149	1.4061671042310326	8.509240998033256	1.0420147909372235	5.741821366581763	8.94857771163554	1.0420147909372235	-9.985102805684724	5.698379803401917	4.292212699170844	5.16443518873316	4.386820600237317	4	missed	0.0
20.897666599998047	7.329977600002167	go_punish	0.2815125999986776	20.937491799999407	23.434932000000117	26.004214100001263	2.4974402000007103	21.949410100001842	24.983150000000023	27.020184600001812	1.4855218999982753	1.0210641000012401	1.2472847999997612	n/a	1.0	n/a	2	0	64	3	go_punish	1	0	-1	1	1	1	0	n/a	n/a	0	0.2815125999986776	1.0	1712.2291882999998	1733.1666800999992	1734.1785984000016	1735.6641203	1737.2123382999998	1738.233402400001	n/a	n/a	1739.2493729000016	1740.4966577000014	2019-11-08 17:52:40.418113	5.50301970895799	-3.83477885502629	-9.13894730389282	-8.3010696621139	-3.63592759493483	-9.13894730389282	-5.50301970895799	-3.83477885502629	-9.13894730389282	-3.63592759493483	-9.13894730389282	3.83477885502629	-1.1732890204139368	-4.850249237407933	-10.048839055572797	-12.135443050801555	-4.721732259519491	-10.048839055572797	3.3743874297564664	-7.971930167753114	-6.7986411473391755	-8.19505504670803	-6.7040332462727035	4	missed	0.0
28.29050350000034	6.435832299997855	go_punish	0.3273369999988063	28.3303287000017	29.825105100000656	32.395612000000256	1.4947763999989547	29.342673999999306	31.373605900000257	33.41882429999896	0.4824311000013495	1.0220060999999987	1.3473367000005965	n/a	1.0	n/a	2	0	65	3	go_punish	1	0	-1	1	1	1	0	n/a	n/a	0	0.3273369999988063	1.0	1712.2291882999998	1740.5595170000015	1741.571862299999	1742.0542934000005	1743.6027942	1744.6248003	n/a	n/a	1745.6480125999988	1746.9953492999994	2019-11-08 17:52:40.418113	6.57275245427998	-2.78991188077174	-9.13894730389282	-6.03627817183454	-2.56619484961284	-9.13894730389282	-6.57275245427998	-2.78991188077174	-9.13894730389282	-2.56619484961284	-9.13894730389282	2.78991188077174	-0.10355627509194676	-3.805382263153384	-10.048839055572797	-9.870651560522196	-3.6519995141975006	-10.048839055572797	2.3295204555019167	-6.902197422431124	-6.7986411473391755	-7.15018807245348	-6.7040332462727035	4	missed	0.0
34.7976333000006	6.408431500000006	nogo_reward	1.0	34.83745850000196	36.82016260000091	39.345347300001094	1.982704099998955	35.85103600000002	38.327553300001455	40.35475080000106	0.9691266000008909	1.0177939999996397	0.8911392000009073	n/a	1.0	n/a	2	0	66	2	nogo_reward	1	0	1	0	0	1	0	n/a	n/a	1	1.0	1.0	1712.2291882999998	1747.0666468000018	1748.0802242999998	1749.0493509000007	1750.5567416000013	1751.574535600001	n/a	n/a	1752.5839391000009	1753.4750783000018	2019-11-08 17:52:40.418113	10.2793893295335	5.5111741481775	16.306624342025	16.3743153876114	6.02723501249144	16.306624342025	-10.2793893295335	16.306624342025	5.5111741481775	16.306624342025	6.02723501249144	2.9943136795879006	3.6030806001615723	4.495703765795856	15.396732590345023	12.539941998923744	4.941430347906779	15.396732590345023	2.5339222543180773	11.970621769206716	8.367541169045085	11.94634815034326	7.946088205797617	4	missed	0.0
41.249707099999796	6.0208686999976635	go_reward	0.2649247999979707	41.289532300001156	42.86746530000164	45.44111129999851	1.5779330000004848	42.30591199999981	44.416286200001196	46.4562044000013	0.5615533000018331	1.0248250999973152	0.8541965999975218	n/a	1.0	n/a	2	0	67	1	go_reward	0	0	1	1	1	1	0	n/a	n/a	0	0.2649247999979707	1.0	1712.2291882999998	1753.518720600001	1754.5351002999996	1755.0966536000014	1756.645474500001	1757.6702995999983	n/a	n/a	1758.685392700001	1759.5395892999986	2019-11-08 17:52:40.418113	5.38211235061258	6.83025148846705	1.9519065426172	6.86959724255074	7.33401889322978	1.9519065426172	-5.38211235061258	6.83025148846705	1.9519065426172	7.33401889322978	1.9519065426172	-6.83025148846705	-1.294196378759347	5.814781106085407	1.0420147909372235	3.0352238538630836	6.24821422864512	1.0420147909372235	-7.290642913736874	2.9980163204114962	4.292212699170844	2.469975296785311	4.386820600237317	4	missed	0.0
47.346827599998505	7.222097300000314	go_punish	0.2603756000025896	47.386652799999865	49.765202400001726	52.3427769000009	2.378549600001861	48.39954579999903	51.314307000000554	53.36616390000199	1.3656566000026942	1.0284699000003457	1.2425861999981862	n/a	1.0	n/a	2	0	68	3	go_punish	0	-1	0	1	1	1	0	n/a	n/a	-1	0.2603756000025896	1.0	1712.2291882999998	1759.6158410999997	1760.6287340999988	1761.9943907000015	1763.5434953000004	1764.5719652000007	n/a	n/a	1765.5953522000018	1766.8379384	2019-11-08 17:52:40.418113	7.34543139953148	-2.04229219835493	-9.13894730389282	-4.41702985996344	-1.79351590436134	-9.13894730389282	-7.34543139953148	-2.04229219835493	-9.13894730389282	-1.79351590436134	-9.13894730389282	-18.043145486719972	0.6691226701595534	-3.057762580736574	-10.048839055572797	-8.251403248651098	-2.879320568946001	-10.048839055572797	-18.503536911989794	-6.129518477179624	-6.7986411473391755	-6.40256839003667	-6.7040332462727035	4	missed	0.0
54.636567300000024	6.645988299998862	go_punish	0.2744861000028322	54.676392500001384	56.3569279000003	58.92013090000182	1.6805353999989165	55.695301600000676	57.895018100000016	59.93032609999864	0.6616262999996252	1.025112800001807	1.3920547000016086	n/a	1.0	n/a	2	0	69	3	go_punish	1	0	-1	1	1	1	0	n/a	n/a	0	0.2744861000028322	1.0	1712.2291882999998	1766.9055808000012	1767.9244899000005	1768.5861162	1770.1242063999998	1771.1493192000016	n/a	n/a	1772.1595143999984	1773.5515691	2019-11-08 17:52:40.418113	2.50417475553386	-6.80824496906629	-9.13894730389282	-8.55626608300471	-6.63477254835895	-9.13894730389282	-2.50417475553386	-6.80824496906629	-9.13894730389282	-6.63477254835895	-9.13894730389282	6.80824496906629	-4.172133973838067	-7.823715351447934	-10.048839055572797	-12.390639471692367	-7.720577212943611	-10.048839055572797	6.347853543796466	-10.970775121177233	-6.7986411473391755	-11.168521160748028	-6.7040332462727035	4	missed	0.0
61.34198479999759	7.654190600002039	nogo_reward	1.0	61.38180999999895	64.16292339999927	66.69394259999899	2.781113400000322	62.393306999998686	65.66505360000156	67.7110477999995	1.7696164000005865	1.0288889999974344	1.3249528000014834	n/a	1.0	n/a	2	0	70	2	nogo_reward	1	0	1	0	0	1	0	n/a	n/a	1	1.0	1.0	1712.2291882999998	1773.6109982999988	1774.6224952999985	1776.392111699999	1777.8942419000014	1778.9231308999988	n/a	n/a	1779.9402360999993	1781.2651889000008	2019-11-08 17:52:40.418113	11.0897380888017	5.5111741481775	17.1247503952524	17.1762337701069	6.03501230645064	17.1247503952524	-11.0897380888017	17.1247503952524	5.5111741481775	17.1247503952524	6.03501230645064	2.176187626360502	4.413429359429774	4.495703765795856	16.214858643572423	13.341860381419245	4.949207641865979	16.214858643572423	1.7157962010906782	12.788747822434114	8.375318463004284	12.764474203570659	7.946088205797617	4	missed	0.0
69.03464849999727	6.382638400002179	nogo_punish	1.0	69.07447369999863	71.12623320000057	73.66001030000189	2.0517595000019355	70.08293499999854	72.6369486000001	74.67553780000162	1.0432982000020274	1.02306170000179	0.7815742999991926	n/a	1.0	n/a	2	0	71	4	nogo_punish	1	-1	0	0	0	1	0	n/a	n/a	0	1.0	1.0	1712.2291882999998	1781.3036619999984	1782.3121232999983	1783.3554215000004	1784.8661369	1785.8891986000017	n/a	n/a	1786.9047261000014	1787.6863004000006	2019-11-08 17:52:40.418113	4.33061002012617	-5.30416844886653	-0.622174108212826	-0.696681559412761	-4.952784128339	-0.622174108212826	-4.33061002012617	-0.622174108212826	-5.30416844886653	-0.622174108212826	-4.952784128339	0.622174108212826	-2.345698709245757	-6.319638831248174	-1.5320658598928025	-4.531054948100418	-6.038588792923661	-1.5320658598928025	0.16178268294300246	-4.9581766810311105	-2.612477971785356	-4.982450299894566	-2.8692543912464137	4	missed	0.0
75.45341799999733	6.605498900000384	nogo_punish	1.0	75.49324319999869	77.16493529999934	79.69980380000197	1.671692100000655	76.5132429000007	78.67788849999852	80.70719090000057	0.6516923999986375	1.0219153000034567	1.3915511999985029	n/a	1.0	n/a	2	0	72	4	nogo_punish	1	-1	0	0	0	1	0	n/a	n/a	0	1.0	1.0	1712.2291882999998	1787.7224314999985	1788.7424312000005	1789.3941235999991	1790.9070767999983	1791.9289921000018	n/a	n/a	1792.9363792000004	1794.3279303999989	2019-11-08 17:52:40.418113	4.47753466456685	-5.30416844886653	-0.468802853826023	-0.527165402447105	-4.94633751839288	-0.468802853826023	-4.47753466456685	-0.468802853826023	-5.30416844886653	-0.468802853826023	-4.94633751839288	0.468802853826023	-2.198774064805077	-6.319638831248174	-1.3786946055059994	-4.361538791134762	-6.032142182977541	-1.3786946055059994	0.008411428556199418	-4.804805426644307	-2.606031361839236	-4.829079045507763	-2.8692543912464137	4	missed	0.0
82.12150130000009	6.050132999997231	nogo_reward	1.0	82.16132650000145	83.71959079999942	86.25848609999957	1.5582642999979726	83.17827260000195	85.23486369999955	87.27452009999979	0.5413181999974768	1.023622400000022	0.9369393999988915	n/a	1.0	n/a	2	0	73	2	nogo_reward	1	0	1	0	0	1	0	n/a	n/a	1	1.0	1.0	1712.2291882999998	1794.3905148000013	1795.4074609000018	1795.9487790999992	1797.4640519999994	1798.4876743999994	n/a	n/a	1799.5037083999996	1800.4406477999985	2019-11-08 17:52:40.418113	11.6663405679785	5.5111741481775	17.7093876161051	17.7487333701888	6.04304704812663	17.7093876161051	-11.6663405679785	17.7093876161051	5.5111741481775	17.7093876161051	6.04304704812663	1.5915504055077996	4.990031838606573	4.495703765795856	16.799495864425126	13.914359981501143	4.95724238354197	16.799495864425126	1.131158980237976	13.373385043286817	8.383353204680274	13.349111424423361	7.946088205797617	4	missed	0.0
88.21694949999801	7.40352530000041	go_reward	0.3471621999997296	88.25677469999937	90.8850580000003	93.43509389999986	2.6282833000009305	89.26770079999915	92.41560889999892	94.44793429999868	1.6173572000011518	1.019485000000941	1.2123657000011008	n/a	1.0	n/a	2	0	74	1	go_reward	0	0	1	1	1	1	0	n/a	n/a	0	0.3471621999997296	1.0	1712.2291882999998	1800.4859629999992	1801.496889099999	1803.1142463	1804.6447971999987	1805.6642821999997	n/a	n/a	1806.6771225999985	1807.8894882999996	2019-11-08 17:52:40.418113	3.46719743963661	4.92792069265829	1.9519065426172	4.95813199991339	5.41910398225381	1.9519065426172	-3.46719743963661	4.92792069265829	1.9519065426172	5.41910398225381	1.9519065426172	-4.92792069265829	-3.209111289735317	3.9124503102766464	1.0420147909372235	1.1237586112257336	4.333299317669149	1.0420147909372235	-5.3883121179281135	1.0831014094355256	4.292212699170844	0.5676445009765505	4.386820600237317	4	missed	0.0
95.65255099999922	7.43276820000051	nogo_punish	1.0	95.69237620000058	98.23272770000017	100.75239760000113	2.5403514999995878	96.7057529999986	99.73272810000026	101.77575459999935	1.526974700001574	1.019669500000873	1.3493898000017452	n/a	1.0	n/a	2	0	75	4	nogo_punish	1	-1	0	0	0	1	0	n/a	n/a	0	1.0	1.0	1712.2291882999998	1807.9215645000004	1808.9349412999984	1810.461916	1811.9619164	1812.981585900001	n/a	n/a	1814.0049428999992	1815.354332700001	2019-11-08 17:52:40.418113	4.58596653129459	-5.30416844886653	-0.35513865822823	-0.401047279714053	-4.94110518952282	-0.35513865822823	-4.58596653129459	-0.35513865822823	-5.30416844886653	-0.35513865822823	-4.94110518952282	0.35513865822823	-2.0903421980773373	-6.319638831248174	-1.2650304099082064	-4.2354206684017095	-6.026909854107481	-1.2650304099082064	-0.10525276704159359	-4.691141231046514	-2.6007990329691757	-4.71541484990997	-2.8692543912464137	4	missed	0.0
103.14282099999764	6.2735746000000745	nogo_reward	1.0	103.182646199999	104.96994800000175	107.5047086000011	1.7873018000027514	104.19588849999855	106.47581500000138	108.51442139999926	0.7740595000032044	1.0288935999997193	0.9417993999998089	n/a	1.0	n/a	2	0	76	2	nogo_reward	1	0	1	0	0	1	0	n/a	n/a	1	1.0	1.0	1712.2291882999998	1815.4118344999988	1816.4250767999984	1817.1991363000016	1818.7050033000012	1819.733896900001	n/a	n/a	1820.743609699999	1821.6854090999989	2019-11-08 17:52:40.418113	12.0791919948552	5.5111741481775	18.1297396692679	18.159950976523	6.05054767441265	18.1297396692679	-12.0791919948552	18.1297396692679	5.5111741481775	18.1297396692679	6.05054767441265	1.1711983523450016	5.402883265483274	4.495703765795856	17.219847917587924	14.325577587835344	4.964743009827989	17.219847917587924	0.710806927075178	13.793737096449615	8.390853830966295	13.769463477586159	7.946088205797617	4	missed	0.0
109.49080739999772	5.922773700000107	go_punish	0.2801776000014797	109.53063259999908	111.11513529999866	113.68224610000107	1.5845026999995753	110.54488770000148	112.66184920000137	114.6975136000001	0.5702475999971739	1.020396899999696	0.7558926999990945	n/a	1.0	n/a	2	0	77	3	go_punish	1	0	-1	1	1	1	0	n/a	n/a	0	0.2801776000014797	1.0	1712.2291882999998	1821.7598208999989	1822.7740760000013	1823.3443235999985	1824.8910375000012	1825.9114344000009	n/a	n/a	1826.9267019	1827.682594599999	2019-11-08 17:52:40.418113	4.39406186052838	-4.9490517171541	-9.13894730389282	-6.24364430913117	-4.74488544336444	-9.13894730389282	-4.39406186052838	-4.9490517171541	-9.13894730389282	-4.74488544336444	-9.13894730389282	4.9490517171541	-2.282246868843547	-5.964522099535744	-10.048839055572797	-10.078017697818826	-5.830690107949101	-10.048839055572797	4.488660291884277	-9.080888016182724	-6.7986411473391755	-9.30932790883584	-6.7040332462727035	4	missed	0.0
115.4726033000004	5.93979409999929	go_punish	0.2580994999989343	115.51242850000176	117.09616639999854	119.6647077999985	1.5837378999967768	116.5222474000002	118.64092349999919	120.6800035999986	0.573918999998341	1.0237842999993063	0.7722190000024511	n/a	1.0	n/a	2	0	78	3	go_punish	1	0	-1	1	1	1	0	n/a	n/a	0	0.2580994999989343	1.0	1712.2291882999998	1827.7416168000016	1828.7514357	1829.3253546999983	1830.870111799999	1831.8938960999983	n/a	n/a	1832.9091918999984	1833.6814109000009	2019-11-08 17:52:40.418113	5.75232702692608	-3.62019336347691	-9.13894730389282	-4.58472139973346	-3.38662027696673	-9.13894730389282	-5.75232702692608	-3.62019336347691	-9.13894730389282	-3.38662027696673	-9.13894730389282	3.62019336347691	-0.9239817024458468	-4.635663745858554	-10.048839055572797	-8.419094788421116	-4.472424941551391	-10.048839055572797	3.159801938207086	-7.722622849785014	-6.7986411473391755	-7.980469555158649	-6.7040332462727035	4	missed	0.0
121.48089149999964	6.845725200000288	nogo_reward	1.0	121.520716700001	124.00936400000091	126.53378420000104	2.4886472999999114	122.529045700001	125.51227360000121	127.55862989999855	1.480318299999908	1.0215105999998286	0.8078120000027411	n/a	1.0	n/a	2	0	79	2	nogo_reward	1	0	1	0	0	1	0	n/a	n/a	1	1.0	1.0	1712.2291882999998	1833.7499050000008	1834.7582340000008	1836.2385523000007	1837.741461900001	1838.7629725000008	n/a	n/a	1839.7878181999984	1840.595630200001	2019-11-08 17:52:40.418113	12.3766323181367	5.5111741481775	18.4338108505648	18.4571146791198	6.05717853242818	18.4338108505648	-12.3766323181367	18.4338108505648	5.5111741481775	18.4338108505648	6.05717853242818	0.8671271710481001	5.700323588764773	4.495703765795856	17.523919098884825	14.622741290432145	4.9713738678435195	17.523919098884825	0.40673574577827654	14.097808277746516	8.397484688981825	14.07353465888306	7.946088205797617	4	missed	0.0
128.39182479999727	6.865907800001878	nogo_reward	1.0	128.43164999999863	130.2915866000003	132.81076060000123	1.8599366000016744	129.4447637000012	131.79480460000173	133.82307520000177	0.846822899999097	1.0159559999995054	1.474482599998737	n/a	1.0	n/a	2	0	80	2	nogo_reward	0	1	0	0	0	1	0	n/a	n/a	0	1.0	1.0	1712.2291882999998	1840.6608382999984	1841.673952000001	1842.5207749	1844.0239929000015	1845.039948900001	n/a	n/a	1846.0522635000016	1847.5267461000003	2019-11-08 17:52:40.418113	12.5922411368986	5.5111741481775	18.6550914583309	18.6731472440689	6.06285032143234	18.6550914583309	-12.5922411368986	18.6550914583309	5.5111741481775	18.6550914583309	6.06285032143234	-18.6550914583309	5.9159324075266735	4.495703765795856	17.745199706650926	14.838773855381245	4.97704565684768	17.745199706650926	-19.115482883600723	14.319088885512617	8.403156477985984	14.294815266649161	7.946088205797617	4	missed	0.0
135.31592149999778	6.622128999999404	nogo_reward	1.0	135.35574669999914	137.2883384000013	139.79542500000025	1.932591700002149	136.36980720000065	138.78416239999933	140.81265450000092	0.9185312000006434	1.0112626000009186	1.1652211999976316	n/a	1.0	n/a	2	0	81	2	nogo_reward	0	1	0	0	0	1	1	n/a	n/a	0	1.0	1.0	1712.2291882999998	1847.584934999999	1848.5989955000005	1849.517526700001	1851.0133506999991	1852.0246133	n/a	n/a	1853.0418428000007	1854.2070639999984	2019-11-08 17:52:40.418113	7.23192020337714	5.5111741481775	13.3059056820364	13.3199558740049	6.07398547865928	13.3059056820364	-7.23192020337714	13.3059056820364	5.5111741481775	13.3059056820364	6.07398547865928	-13.3059056820364	0.5556114740052127	4.495703765795856	12.396013930356423	9.485582485317245	4.988180814074619	12.396013930356423	-13.766297107306224	8.969903109218116	8.414291635212924	8.94562949035466	7.946088205797617	4	missed	0.0
141.9821837999989	7.0541312999996535	go_reward	0.30851960000291	142.02200900000025	144.0136415000013	146.59090730000025	1.9916325000010602	143.03870680000182	145.56499859999894	147.60733379999851	0.9749346999994941	1.0259087000013096	1.4688065000013921	n/a	1.0	n/a	2	0	82	1	go_reward	1	1	0	1	1	1	0	n/a	n/a	1	0.30851960000291	1.0	1712.2291882999998	1854.2511973	1855.2678951000016	1856.2428298000011	1857.7941868999987	1858.8200956	n/a	n/a	1859.8365220999983	1861.3053285999997	2019-11-08 17:52:40.418113	2.10139187264188	3.57685904162567	1.9519065426172	3.60016287018059	4.05329841525908	1.9519065426172	-2.10139187264188	3.57685904162567	1.9519065426172	4.05329841525908	1.9519065426172	15.72407897998723	-4.574916856730047	2.561388659244026	1.0420147909372235	-0.23421051850706665	2.9674937506744197	1.0420147909372235	15.263687554717405	-0.28270415755920375	4.292212699170844	-0.7834171500560698	4.386820600237317	4	missed	0.0
149.07392409999716	6.543456200001174	nogo_punish	1.0	149.11374929999852	150.6991636999992	153.23644040000022	1.5854144000006727	150.11896089999937	152.21421670000177	154.2507971000009	0.5802027999998245	1.0222236999984489	1.4064083999987815	n/a	1.0	n/a	2	0	83	4	nogo_punish	1	-1	0	0	0	1	0	n/a	n/a	0	1.0	1.0	1712.2291882999998	1861.3429375999983	1862.3481491999992	1862.928351999999	1864.4434050000016	1865.4656287	n/a	n/a	1866.4799854000007	1867.8863937999995	2019-11-08 17:52:40.418113	4.66643795959967	-5.30416844886653	-0.270440536112277	-0.306699890970033	-4.93687849571195	-0.270440536112277	-4.66643795959967	-0.270440536112277	-5.30416844886653	-0.270440536112277	-4.93687849571195	0.270440536112277	-2.009870769772257	-6.319638831248174	-1.1803322877922535	-4.1410732796576895	-6.02268316029661	-1.1803322877922535	-0.1899508891575466	-4.606443108930561	-2.5965723391583055	-4.630716727794017	-2.8692543912464137	4	missed	0.0
155.65365029999884	7.471315300000697	go_reward	0.2925009000027785	155.6934755000002	158.54649889999928	161.13192139999978	2.853023399999074	156.71125129999928	160.11022669999852	162.1457444000007	1.8352476000000024	1.0216947000012624	1.0190464000002066	n/a	1.0	n/a	2	0	84	1	go_reward	1	1	0	1	1	1	1	n/a	n/a	1	0.2925009000027785	1.0	1712.2291882999998	1867.9226638	1868.940439599999	1870.775687199999	1872.3394149999983	1873.3611096999996	n/a	n/a	1874.3749327000005	1875.3939791000007	2019-11-08 17:52:40.418113	6.62641672055283	8.12283010936024	1.9519065426172	8.1408858950982	8.57832326317004	1.9519065426172	-6.62641672055283	8.12283010936024	1.9519065426172	8.57832326317004	1.9519065426172	11.17810791225266	-0.04989200881909728	7.107359726978597	1.0420147909372235	4.306512506410544	7.492518598585379	1.0420147909372235	10.717716486982836	4.242320690351756	4.292212699170844	3.762553917678501	4.386820600237317	4	missed	0.0
163.19046869999875	6.372159099999635	go_punish	0.3426872000018193	163.2302939000001	164.6053479000002	167.1810461999994	1.375054000000091	164.2383976000017	166.15964480000184	168.1917824000011	0.36695029999850703	1.0214013999975577	1.4106705999986389	n/a	1.0	n/a	2	0	85	3	go_punish	1	0	-1	1	1	1	0	n/a	n/a	0	0.3426872000018193	1.0	1712.2291882999998	1875.4594822	1876.4675859000015	1876.8345362	1878.3888331000016	1879.4102344999992	n/a	n/a	1880.420970700001	1881.8316412999995	2019-11-08 17:52:40.418113	6.73440728171703	-2.66446630656775	-9.13894730389282	-3.38728515637195	-2.40454002217579	-9.13894730389282	-6.73440728171703	-2.66446630656775	-9.13894730389282	-2.40454002217579	-9.13894730389282	2.66446630656775	0.058098552345103194	-3.6799366889493936	-10.048839055572797	-7.221658545059606	-3.4903446867604506	-10.048839055572797	2.2040748812979265	-6.740542594994074	-6.7986411473391755	-7.0247424982494895	-6.7040332462727035	4	missed	0.0
169.64779089999888	7.5455551000006835	go_punish	0.3186832999999751	169.68761610000024	172.28841420000026	174.86099960000092	2.60079810000002	170.7067161000009	173.83890750000091	175.87596929999927	1.5816980999993575	1.022092100000009	1.3572019000016553	n/a	1.0	n/a	2	0	86	3	go_punish	1	0	-1	1	1	1	0	n/a	n/a	0	0.3186832999999751	1.0	1712.2291882999998	1881.9168044	1882.9359044000007	1884.5176025	1886.0680958000007	1887.0901879000007	n/a	n/a	1888.105157599999	1889.4623595000007	2019-11-08 17:52:40.418113	7.4487113241872	-1.97287937402579	-9.13894730389282	-2.51764864149858	-1.69023597970562	-9.13894730389282	-7.4487113241872	-1.97287937402579	-9.13894730389282	-1.69023597970562	-9.13894730389282	1.97287937402579	0.7724025948152731	-2.988349756407434	-10.048839055572797	-6.3520220301862365	-2.7760406442902807	-10.048839055572797	1.5124879487559664	-6.026238552523904	-6.7986411473391755	-6.333155565707529	-6.7040332462727035	4	missed	0.0
177.25182949999726	7.039019300001883	nogo_reward	1.0	177.29165469999862	179.35005000000092	181.89593610000134	2.058395300002303	178.30340019999858	180.8703678999991	182.90547629999855	1.046649800002342	1.0255682000022261	1.4251977000019451	n/a	1.0	n/a	2	0	87	2	nogo_reward	1	0	1	0	0	1	0	n/a	n/a	1	1.0	1.0	1712.2291882999998	1889.5208429999984	1890.5325884999984	1891.5792383000007	1893.099556199999	1894.1251244000011	n/a	n/a	1895.1346645999984	1896.5598623000003	2019-11-08 17:52:40.418113	3.48469168182815	5.5111741481775	9.54942715225106	9.56040635045312	6.06473547042291	9.54942715225106	-3.48469168182815	9.54942715225106	5.5111741481775	9.54942715225106	6.06473547042291	9.75151086936184	-3.191617047543777	4.495703765795856	8.639535400571082	5.726032961765463	4.9789308058382495	8.639535400571082	9.291119444092017	5.213424579432775	8.405041626976555	5.18915096056932	7.946088205797617	4	missed	0.0
184.3222081999993	6.366750299999467	nogo_punish	1.0	184.36203340000066	185.7181109000012	188.23506250000014	1.3560775000005378	185.37066789999858	187.21484369999985	189.2538463000019	0.3474430000026132	1.0202188000002934	1.4749373999982254	n/a	1.0	n/a	2	0	88	4	nogo_punish	1	-1	0	0	0	1	0	n/a	n/a	0	1.0	1.0	1712.2291882999998	1896.5912217000005	1897.5998561999984	1897.947299200001	1899.4440319999997	1900.4642508	n/a	n/a	1901.4830346000017	1902.957972	2019-11-08 17:52:40.418113	4.726485376042	-5.30416844886653	-0.206989332475638	-0.235740360988289	-4.93347470851763	-0.206989332475638	-4.726485376042	-0.206989332475638	-5.30416844886653	-0.206989332475638	-4.93347470851763	0.206989332475638	-1.9498233533299274	-6.319638831248174	-1.1168810841556145	-4.070113749675945	-6.01927937310229	-1.1168810841556145	-0.2534020927941856	-4.542991905293922	-2.5931685519639855	-4.567265524157378	-2.8692543912464137	4	missed	0.0
190.75874119999912	7.310793400000193	go_punish	0.2754112000002351	190.79856640000048	193.03258239999923	195.60401020000063	2.2340159999987463	191.81462910000118	194.58206970000128	196.6157658000011	1.2179532999980438	1.0219404999993458	1.4935939999995753	n/a	1.0	n/a	2	0	89	3	go_punish	1	0	-1	1	1	1	0	n/a	n/a	0	0.2754112000002351	1.0	1712.2291882999998	1903.0277547000003	1904.043817400001	1905.261770699999	1906.811258000001	1907.8331985000004	n/a	n/a	1908.844954100001	1910.3385481000005	2019-11-08 17:52:40.418113	7.97128798819956	-1.46941152035604	-9.13894730389282	-1.88226728057876	-1.16765931569325	-9.13894730389282	-7.97128798819956	-1.46941152035604	-9.13894730389282	-1.16765931569325	-9.13894730389282	1.46941152035604	1.2949792588276328	-2.484881902737684	-10.048839055572797	-5.7166406692664165	-2.253463980277911	-10.048839055572797	1.0090200950862165	-5.503661888511534	-6.7986411473391755	-5.82968771203778	-6.7040332462727035	4	missed	0.0
198.14227369999912	5.949414999999817	go_punish	0.4038153999972564	198.18209890000048	199.63910820000092	202.21963089999917	1.4570093000004363	199.19716360000143	201.19413350000104	203.22914559999867	0.44194459999948776	1.0254973999981303	0.9023683000016263	n/a	1.0	n/a	2	0	90	3	go_punish	1	0	-1	1	1	1	0	n/a	n/a	0	0.4038153999972564	1.0	1712.2291882999998	1910.4112872000003	1911.4263519000012	1911.8682965000007	1913.4233218000008	1914.448819199999	n/a	n/a	1915.4583338999985	1916.3607022	2019-11-08 17:52:40.418113	8.35579294900515	-1.10072201881745	-9.13894730389282	-1.41529375441799	-0.783154354887666	-9.13894730389282	-8.35579294900515	-1.10072201881745	-9.13894730389282	-0.783154354887666	-9.13894730389282	1.10072201881745	1.6794842196332223	-2.116192401199094	-10.048839055572797	-5.249667143105647	-1.868959019472327	-10.048839055572797	0.6403305935476264	-5.11915692770595	-6.7986411473391755	-5.46099821049919	-6.7040332462727035	4	missed	0.0
204.16502839999885	7.333123299998988	nogo_reward	1.0	204.2048536000002	206.64768370000093	209.16534460000184	2.4428301000007195	205.21410800000012	208.14850410000145	210.17887680000058	1.4335757000008016	1.0168405000003986	1.3591000999986136	n/a	1.0	n/a	2	0	91	2	nogo_reward	0	1	0	0	0	1	0	n/a	n/a	0	1.0	1.0	1712.2291882999998	1916.4340419	1917.4432963	1918.8768720000007	1920.3776924000013	1921.3945329000016	n/a	n/a	1922.4080651000004	1923.767165199999	2019-11-08 17:52:40.418113	6.36662875851012	5.5111741481775	12.406726829896	12.4153412844635	6.04009807138584	12.406726829896	-6.36662875851012	12.406726829896	5.5111741481775	12.406726829896	6.04009807138584	-12.406726829896	-0.309679970861807	4.495703765795856	11.496835078216023	8.580967895775842	4.954293406801179	11.496835078216023	-12.867118255165824	8.070724257077716	8.380404227939485	8.04645063821426	7.946088205797617	4	missed	0.0
211.5663705000004	6.263065699997469	nogo_reward	1.0	211.60619570000176	213.36148150000008	215.9019788000005	1.755285799998319	212.62554380000051	214.8750266999998	216.9105582000011	0.7359376999995675	1.026952100000699	0.9587031999981264	n/a	1.0	n/a	2	0	92	2	nogo_reward	1	0	1	0	0	1	0	n/a	n/a	1	1.0	1.0	1712.2291882999998	1923.8353840000016	1924.8547321000003	1925.5906698	1927.1042149999996	1928.1311671000003	n/a	n/a	1929.139746500001	1930.098449699999	2019-11-08 17:52:40.418113	2.84659337904147	5.5111741481775	8.885189836999	8.89197563172977	6.03859645795753	8.885189836999	-2.84659337904147	8.885189836999	5.5111741481775	8.885189836999	6.03859645795753	10.4157481846139	-3.829715350330457	4.495703765795856	7.975298085319023	5.057602243042113	4.952791793372869	7.975298085319023	9.955356759344076	4.549187264180716	8.378902614511174	4.524913645317261	7.946088205797617	4	missed	0.0
217.88570419999837	6.7082665000014	nogo_reward	1.0	217.92552939999973	219.60960129999853	222.14375360000122	1.6840718999987985	218.94040940000173	221.11052869999912	223.16051689999972	0.6691918999968038	1.0332249000020965	1.473279000001412	n/a	1.0	n/a	2	0	93	2	nogo_reward	1	0	1	0	0	1	1	n/a	n/a	1	1.0	1.0	1712.2291882999998	1930.1547176999995	1931.1695977000015	1931.8387895999983	1933.339716999999	1934.372941900001	n/a	n/a	1935.3897051999995	1936.862984200001	2019-11-08 17:52:40.418113	5.89455966490138	5.5111741481775	11.9143908334075	11.9197566672772	6.0198311685061	11.9143908334075	-5.89455966490138	11.9143908334075	5.5111741481775	11.9143908334075	6.0198311685061	7.3865471882054	-0.7817490644705467	4.495703765795856	11.004499081727523	8.085383278589543	4.934026503921439	11.004499081727523	6.9261557629355766	7.578388260589216	8.360137325059744	7.554114641725761	7.946088205797617	4	missed	0.0
224.66132089999883	6.3024474999983795	go_punish	0.386075599999458	224.7011461000002	226.19176190000098	228.75976549999905	1.4906158000007963	225.72096329999863	227.73744050000096	229.77162039999894	0.47079860000235385	1.0223249999980908	1.2319731999996293	n/a	1.0	n/a	2	0	94	3	go_punish	1	0	-1	1	1	1	0	n/a	n/a	0	0.386075599999458	1.0	1712.2291882999998	1936.9303344	1937.9501515999984	1938.4209502000008	1939.9666288000008	1940.9889537999989	n/a	n/a	1942.0008086999987	1943.2327818999984	2019-11-08 17:52:40.418113	8.64029838705401	-0.829163440688464	-9.13894730389282	-1.07010345034548	-0.498648916838804	-9.13894730389282	-8.64029838705401	-0.829163440688464	-9.13894730389282	-0.498648916838804	-9.13894730389282	0.829163440688464	1.9639896576820828	-1.8446338230701078	-10.048839055572797	-4.904476839033137	-1.5844535814234648	-10.048839055572797	0.36877201541864046	-4.834651489657088	-6.7986411473391755	-5.1894396323702034	-6.7040332462727035	4	missed	0.0
231.00833309999894	7.164350099999865	nogo_punish	1.0	231.0481583000003	233.80404850000173	236.32312720000118	2.7558902000014314	232.0645923000011	235.3022920000003	237.338802400001	1.7394562000006317	1.0208352000008745	0.8737059999991743	n/a	1.0	n/a	2	0	95	4	nogo_punish	1	-1	0	0	0	1	0	n/a	n/a	0	1.0	1.0	1712.2291882999998	1943.2773466	1944.293780600001	1946.0332368000015	1947.5314803	1948.552315500001	n/a	n/a	1949.5679907000008	1950.4416967	2019-11-08 17:52:40.418113	4.77153164159596	-5.30416844886653	-0.159207118453317	-0.182091399462261	-4.93073876004927	-0.159207118453317	-4.77153164159596	-0.159207118453317	-5.30416844886653	-0.159207118453317	-4.93073876004927	0.159207118453317	-1.904777087775967	-6.319638831248174	-1.0690988701332935	-4.016464788149918	-6.01654342463393	-1.0690988701332935	-0.30118430681650654	-4.495209691271601	-2.5904326034956253	-4.519483310135056	-2.8692543912464137	4	missed	0.0
238.20996480000008	6.32007069999986	nogo_punish	1.0	238.24979000000144	239.6292477999998	242.1687181999987	1.379457799998363	239.2664385999999	241.14244490000056	243.17841590000148	0.36280919999990147	1.026273299998138	1.3914447999998174	n/a	1.0	n/a	2	0	96	4	nogo_punish	0	0	-1	0	0	1	0	n/a	n/a	-1	1.0	1.0	1712.2291882999998	1950.4789783000012	1951.4956268999997	1951.8584360999996	1953.3716332000004	1954.3979064999985	n/a	n/a	1955.4076042000013	1956.799049000001	2019-11-08 17:52:40.418113	4.80550027466702	-5.30416844886653	-0.123041458991933	-0.141323146558991	-4.92854173365895	-0.123041458991933	-4.80550027466702	-0.123041458991933	-5.30416844886653	-0.123041458991933	-4.92854173365895	-19.96239622608297	-1.8708084547049069	-6.319638831248174	-1.0329332106719096	-3.9756965352466476	-6.01434639824361	-1.0329332106719096	-20.42278765135279	-4.459044031810217	-2.5882355771053054	-4.483317650673673	-2.8692543912464137	4	missed	0.0
244.56381129999886	6.792628499999182	nogo_punish	1.0	244.60363650000022	246.9476452999986	249.4721049000002	2.3440087999983916	245.611548000001	248.44987839999908	250.4831066000006	1.3360972999976184	1.0222265000011248	0.9131583999987924	n/a	1.0	n/a	2	0	97	4	nogo_punish	1	-1	0	0	0	1	1	n/a	n/a	0	1.0	1.0	1712.2291882999998	1956.8328248	1957.8407363000008	1959.1768335999984	1960.6790666999989	1961.7012932	n/a	n/a	1962.7122949000004	1963.6254532999992	2019-11-08 17:52:40.418113	-0.374551492562246	-5.30416844886653	-5.39970102252197	-5.4143577318502	-5.02514952995972	-5.39970102252197	0.374551492562246	-5.39970102252197	-5.30416844886653	-5.39970102252197	-5.02514952995972	5.39970102252197	-7.050860221934173	-6.319638831248174	-6.309592774201947	-9.248731120537856	-6.110954194544381	-6.309592774201947	4.939309597252147	-9.735703595340254	-2.684843373406076	-9.75997721420371	-2.8692543912464137	4	missed	0.0
251.44454219999875	6.521448000000191	go_punish	0.2705735000017739	251.4843674000001	253.35021710000024	255.93684090000147	1.8658497000001262	252.50416400000177	254.9106365000007	256.9498973000009	0.8460530999984712	1.026204400000779	1.0559180999994169	n/a	1.0	n/a	2	0	98	3	go_punish	1	0	-1	1	1	1	0	n/a	n/a	0	0.2705735000017739	1.0	1712.2291882999998	1963.7135557	1964.7333523000016	1965.5794054	1967.1398248000005	1968.1660292000013	n/a	n/a	1969.1790856000007	1970.2350037	2019-11-08 17:52:40.418113	8.85197126920141	-0.62800997227934	-9.13894730389282	-0.813490354621827	-0.28697603469141	-9.13894730389282	-8.85197126920141	-0.62800997227934	-9.13894730389282	-0.28697603469141	-9.13894730389282	0.62800997227934	2.1756625398294833	-1.6434803546609837	-10.048839055572797	-4.647863743309483	-1.372780699276071	-10.048839055572797	0.1676185470095164	-4.622978607509694	-6.7986411473391755	-4.98828616396108	-6.7040332462727035	4	missed	0.0
258.0045782999989	6.1557791000007	go_reward	0.3384982999996282	258.04440350000027	259.34541120000017	261.93823749999865	1.3010076999999	259.05870130000017	260.9079633000001	262.9506752999987	0.2867099000000053	1.03027419999853	1.2495073000022785	n/a	1.0	n/a	2	0	99	1	go_reward	1	1	0	1	1	1	0	n/a	n/a	1	0.3384982999996282	1.0	1712.2291882999998	1970.2735918	1971.2878896	1971.5745995	1973.1371516	1974.1674257999985	n/a	n/a	1975.1798635999985	1976.4293709000008	2019-11-08 17:52:40.418113	9.80849944147355	11.3050121861758	1.9519065426172	11.3190623781443	11.7604059840907	1.9519065426172	-9.80849944147355	11.3050121861758	1.9519065426172	11.7604059840907	1.9519065426172	7.995925835437101	3.1321907121016235	10.289541803794156	1.0420147909372235	7.484688989456644	10.674601319506039	1.0420147909372235	7.535534410167277	7.424403411272415	4.292212699170844	6.94473599449406	4.386820600237317	4	missed	0.0
264.19979859999876	6.011524300000019	go_reward	0.4115709999969112	264.2396238000001	265.6852227999989	268.25829950000116	1.445598999998765	265.2579054999985	267.240604300001	269.2763898000012	0.42731730000036805	1.017695200000162	0.974758299998939	n/a	1.0	n/a	2	0	100	1	go_reward	1	1	0	1	1	1	0	n/a	n/a	1	0.4115709999969112	1.0	1712.2291882999998	1976.4688121	1977.4870937999983	1977.9144110999987	1979.4697926000008	1980.487487800001	n/a	n/a	1981.505578100001	1982.4803364	2019-11-08 17:52:40.418113	12.0593391024996	13.5459521335646	1.9519065426172	13.5569313317667	14.0112456451168	1.9519065426172	-12.0593391024996	13.5459521335646	1.9519065426172	14.0112456451168	1.9519065426172	5.754985888048301	5.3830303731276725	12.530481751182956	1.0420147909372235	9.722557943079043	12.925440980532139	1.0420147909372235	5.294594462778478	9.675243072298516	4.292212699170844	9.18567594188286	4.386820600237317	4	missed	0.0
270.2798301	6.3372923999997965	go_punish	0.3492494999991322	270.3196553000014	271.83975719999944	274.42810250000184	1.5201018999980533	271.33935140000176	273.4050632000001	275.4456719000009	0.5004057999976794	1.0230393000017557	1.2112758000002941	n/a	1.0	n/a	2	0	101	3	go_punish	1	0	-1	1	1	1	0	n/a	n/a	0	0.3492494999991322	1.0	1712.2291882999998	1982.5488436000012	1983.5685397000016	1984.0689454999992	1985.6342515	1986.6572908000016	n/a	n/a	1987.6748602000007	1988.886136000001	2019-11-08 17:52:40.418113	9.01030492472535	-0.478180117220163	-9.13894730389282	-0.621669209122797	-0.128642379167467	-9.13894730389282	-9.01030492472535	-0.478180117220163	-9.13894730389282	-0.128642379167467	-9.13894730389282	0.478180117220163	2.333996195353423	-1.4936504996018067	-10.048839055572797	-4.456042597810454	-1.214447043752128	-10.048839055572797	0.01778869195033944	-4.464644951985751	-6.7986411473391755	-4.838456308901903	-6.7040332462727035	4	missed	0.0
276.65713490000053	6.529057899999316	go_reward	0.3010322000009182	276.6969601000019	278.49063079999905	281.0744586000003	1.7936706999971648	277.70335949999935	280.05319750000126	282.0841518999987	0.787271299999702	1.0212610999990375	1.1418661000025168	n/a	1.0	n/a	2	0	102	1	go_reward	1	1	0	1	1	1	1	n/a	n/a	1	0.3010322000009182	1.0	1712.2291882999998	1988.9261484000017	1989.9325477999992	1990.7198190999989	1992.282385800001	1993.3036469	n/a	n/a	1994.3133401999985	1995.455206300001	2019-11-08 17:52:40.418113	13.6607715228683	15.1335074493609	1.9519065426172	15.1421219039284	15.6126780654855	1.9519065426172	-13.6607715228683	15.1335074493609	1.9519065426172	15.6126780654855	1.9519065426172	4.167430572252	6.984462793496373	14.118037066979257	1.0420147909372235	11.307748515240743	14.52687340090084	1.0420147909372235	3.7070391469821766	11.276675492667216	4.292212699170844	10.77323125767916	4.386820600237317	4	missed	0.0
283.2204536999998	6.401330799999414	nogo_punish	1.0	283.26027890000114	285.1177735000017	287.64307479999866	1.8574946000005639	284.2680158000003	286.6174646000002	288.65455849999853	0.8497577000014189	1.0256101999984821	1.0070512000020244	n/a	1.0	n/a	2	0	103	4	nogo_punish	1	-1	0	0	0	1	0	n/a	n/a	0	1.0	1.0	1712.2291882999998	1995.489467200001	1996.4972041	1997.3469618000015	1998.8466529	1999.8722630999985	n/a	n/a	2000.8837467999983	2001.8907980000004	2019-11-08 17:52:40.418113	1.10395907646572	-5.30416844886653	-3.90928630622623	-3.92107716501203	-5.01324538269194	-3.90928630622623	-1.10395907646572	-3.90928630622623	-5.30416844886653	-3.90928630622623	-5.01324538269194	3.90928630622623	-5.572349652906207	-6.319638831248174	-4.819178057906207	-7.755450553699687	-6.0990500472766005	-4.819178057906207	3.4488948809564066	-8.245288879044514	-2.6729392261382956	-8.26956249790797	-2.8692543912464137	4	missed	0.0
289.6606334999997	7.72509060000084	nogo_punish	1.0	289.70045870000104	292.4843045000014	295.005812899999	2.7838458000003357	290.71509439999863	293.9806433999986	296.01706570000147	1.7692101000027378	1.025169500000402	1.4084836000004088	n/a	1.0	n/a	2	0	104	4	nogo_punish	1	-1	0	0	0	1	0	n/a	n/a	0	1.0	1.0	1712.2291882999998	2001.9296470000008	2002.9442826999984	2004.7134928000012	2006.2098316999984	2007.2350011999988	n/a	n/a	2008.2462540000013	2009.6547376000017	2019-11-08 17:52:40.418113	2.15159687851602	-5.30416844886653	-2.84827442939282	-2.85779125910951	-4.99987130790884	-2.84827442939282	-2.15159687851602	-2.84827442939282	-5.30416844886653	-2.84827442939282	-4.99987130790884	2.84827442939282	-4.5247118508559065	-6.319638831248174	-3.7581661810727964	-6.692164647797167	-6.085675972493501	-3.7581661810727964	2.3878830041229966	-7.184277002211104	-2.659565151355196	-7.20855062107456	-2.8692543912464137	4	missed	0.0
297.4495225999999	7.749123099998997	nogo_reward	1.0	297.48934780000127	300.2146568999997	302.7344661999998	2.7253090999984124	298.4964083000009	301.7205098000011	303.74341130000175	1.7182485999987875	1.013956399998733	1.4950595999985126	n/a	1.0	n/a	2	0	105	2	nogo_reward	0	1	0	0	0	1	0	n/a	n/a	0	1.0	1.0	1712.2291882999998	2009.718536100001	2010.7255966000007	2012.4438451999995	2013.949698100001	2014.9636544999996	n/a	n/a	2015.9725996000016	2017.4676592	2019-11-08 17:52:40.418113	8.0137279288079	5.5111741481775	14.030161282015	14.0344200699399	6.01643335320706	14.030161282015	-8.0137279288079	14.030161282015	5.5111741481775	14.030161282015	6.01643335320706	-14.030161282015	1.3374191994359723	4.495703765795856	13.120269530335023	10.200046681252243	4.9306286886224	13.120269530335023	-14.490552707284824	9.694158709196715	8.356739509760704	9.66988509033326	7.946088205797617	4	missed	0.0
305.2303260999979	7.233556400002044	nogo_punish	1.0	305.27015129999927	307.7282143000011	310.24835750000057	2.4580630000018573	306.289738200001	309.23561170000175	311.2619171000006	1.4384761000001163	1.012745799998811	1.2417906000007406	n/a	1.0	n/a	2	0	106	4	nogo_punish	1	-1	0	0	0	1	1	n/a	n/a	0	1.0	1.0	1712.2291882999998	2017.499339599999	2018.5189265000008	2019.957402600001	2021.4648000000016	2022.4775458000004	n/a	n/a	2023.4911054000004	2024.7328960000011	2019-11-08 17:52:40.418113	2.89870905090207	-5.30416844886653	-2.08820081984075	-2.09590679699899	-4.98690987074283	-2.08820081984075	-2.89870905090207	-2.08820081984075	-5.30416844886653	-2.08820081984075	-4.98690987074283	2.08820081984075	-3.777599678469857	-6.319638831248174	-2.9980925715207265	-5.930280185686646	-6.07271453532749	-2.9980925715207265	1.6278093945709264	-6.4242033926590345	-2.6466037141891854	-6.44847701152249	-2.8692543912464137	4	missed	0.0
312.5301770999977	6.46957330000123	nogo_reward	1.0	312.57000229999903	314.4519265999986	316.98539140000094	1.8819242999995822	313.5854499999987	315.9631279999994	317.9931199999992	0.8664765999999418	1.0222634000015205	1.0464556000010816	n/a	1.0	n/a	2	0	107	2	nogo_reward	1	0	1	0	0	1	1	n/a	n/a	1	1.0	1.0	1712.2291882999998	2024.7991905999988	2025.8146382999985	2026.6811148999984	2028.1923162999992	2029.2145797000007	n/a	n/a	2030.222308299999	2031.2687639	2019-11-08 17:52:40.418113	3.9785384386148	5.5111741481775	10.0056044516277	10.0089967716098	6.02706601301289	10.0056044516277	-3.9785384386148	10.0056044516277	5.5111741481775	10.0056044516277	6.02706601301289	9.2953335699852	-2.697770290757127	4.495703765795856	9.095712699947724	6.174623382922143	4.941261348428229	9.095712699947724	8.834942144715376	5.6696018788094165	8.367372169566535	5.645328259945961	7.946088205797617	4	missed	0.0
319.04261129999963	7.649715899999137	go_reward	0.3696589000028325	319.082436500001	321.8729986000003	324.42943709999986	2.790562099999306	320.08958260000145	323.4114192000013	325.4467454000005	1.7834159999988515	1.01801789999854	1.2854069999996227	n/a	1.0	n/a	2	0	108	1	go_reward	1	1	0	1	1	1	0	n/a	n/a	1	0.3696589000028325	1.0	1712.2291882999998	2031.3116248000008	2032.3187709000013	2034.1021869	2035.6406075000011	2036.6586253999997	n/a	n/a	2037.6759337000003	2038.9613407	2019-11-08 17:52:40.418113	14.8067815862571	16.2648774768057	1.9519065426172	16.2716632715365	16.7586881288743	1.9519065426172	-14.8067815862571	16.2648774768057	1.9519065426172	16.7586881288743	1.9519065426172	3.0360605448071993	8.130472856885174	15.249407094424058	1.0420147909372235	12.437289882848845	15.67288346428964	1.0420147909372235	2.575669119537376	12.422685556056017	4.292212699170844	11.904601285123961	4.386820600237317	4	missed	0.0
326.7365371999988	6.812099900001613	go_reward	0.2967470000003231	326.77636240000015	328.7178970999994	331.2843441000007	1.941534699999238	327.79136200000016	330.26770020000185	332.3046184000009	0.9265350999992279	1.0166438999988259	1.2838439000008748	n/a	1.0	n/a	2	0	109	1	go_reward	0	0	1	1	1	1	0	n/a	n/a	0	0.2967470000003231	1.0	1712.2291882999998	2039.0055507	2040.0205503	2040.9470853999992	2042.4968885000017	2043.5135324000005	n/a	n/a	2044.5338067000007	2045.8176506000016	2019-11-08 17:52:40.418113	15.631612656712	17.0759094933873	1.9519065426172	17.081275327257	17.5835191993292	1.9519065426172	-15.631612656712	17.0759094933873	1.9519065426172	17.5835191993292	1.9519065426172	-17.0759094933873	8.955303927340074	16.060439111005657	1.0420147909372235	13.246901938569344	16.49771453474454	1.0420147909372235	-17.536300918657123	13.247516626510915	4.292212699170844	12.71563330170556	4.386820600237317	4	missed	0.0
333.6247012999993	6.210306400000263	go_punish	0.4293839999991178	333.66452650000065	335.07619500000146	337.6391641000009	1.4116685000008147	334.6723492000017	336.6181855	338.657919199999	0.40384579999977177	1.0209786000009444	1.2169137000018964	n/a	1.0	n/a	2	0	110	3	go_punish	1	0	-1	1	1	1	0	n/a	n/a	0	0.4293839999991178	1.0	1712.2291882999998	2045.8937148000005	2046.9015375000015	2047.3053833000013	2048.8473738	2049.8683524000007	n/a	n/a	2050.887107499999	2052.1040212000007	2019-11-08 17:52:40.418113	9.12936339653846	-0.365973109767721	-9.13894730389282	-0.477506276020833	-0.009583907354353	-9.13894730389282	-9.12936339653846	-0.365973109767721	-9.13894730389282	-0.009583907354353	-9.13894730389282	0.365973109767721	2.4530546671665334	-1.3814434921493648	-10.048839055572797	-4.311879664708489	-1.095388571939014	-10.048839055572797	-0.09441831550210256	-4.345586480172637	-6.7986411473391755	-4.72624930144946	-6.7040332462727035	4	missed	0.0
339.8957347999999	6.006761799999822	go_punish	0.4021077999968838	339.93556000000126	341.2844745000002	343.8237143000006	1.3489144999989549	340.9487072000011	342.80961849999994	344.83590299999923	0.3357672999991337	1.0140958000006322	1.1064188000018476	n/a	1.0	n/a	2	0	111	3	go_punish	1	0	-1	1	1	1	0	n/a	n/a	0	0.4021077999968838	1.0	1712.2291882999998	2052.164748300001	2053.177895500001	2053.5136628	2055.0388067999997	2056.0529026000004	n/a	n/a	2057.065091299999	2058.171510100001	2019-11-08 17:52:40.418113	9.21934853962754	-0.281496783675573	-9.13894730389282	-0.368590431910402	0.0804012357347182	-9.13894730389282	-9.21934853962754	-0.281496783675573	-9.13894730389282	0.0804012357347182	-9.13894730389282	0.281496783675573	2.543039810255612	-1.2969671660572168	-10.048839055572797	-4.202963820598058	-1.0054034288499427	-10.048839055572797	-0.17889464159425056	-4.255601337083566	-6.7986411473391755	-4.641772975357313	-6.7040332462727035	4	missed	0.0
345.96677229999887	6.250337299999501	nogo_reward	1.0	346.0065975000002	347.8028172999984	350.3302655000007	1.7962197999981981	347.0134774000003	349.3018649000005	351.3393956	0.78933989999814	1.0284006000001682	0.9175391999997373	n/a	1.0	n/a	2	0	112	2	nogo_reward	1	0	1	0	0	1	0	n/a	n/a	1	1.0	1.0	1712.2291882999998	2058.2357858	2059.2426657	2060.0320055999982	2061.5310532000003	2062.5594538000005	n/a	n/a	2063.5685839	2064.4861230999995	2019-11-08 17:52:40.418113	6.67672184479138	5.5111741481775	12.691792492194	12.6945040595428	6.01507064740267	12.691792492194	-6.67672184479138	12.691792492194	5.5111741481775	12.691792492194	6.01507064740267	6.6091455294189	0.00041311541945265873	4.495703765795856	11.781900740514024	8.860130670855142	4.929265982818009	11.781900740514024	6.148754104149076	8.355789919375717	8.355376803956315	8.331516300512261	7.946088205797617	4	missed	0.0
352.2853284999983	6.0305221999988134	go_punish	0.2813339000022097	352.32515369999965	353.8632127000019	356.43279560000155	1.5380590000022494	353.34628430000157	355.4199575999992	357.4474315000007	0.5169284000003245	1.0128380000023753	0.9082443999977841	n/a	1.0	n/a	2	0	113	3	go_punish	1	0	-1	1	1	1	1	n/a	n/a	0	0.2813339000022097	1.0	1712.2291882999998	2064.5543419999995	2065.5754726000014	2066.0924010000017	2067.649145899999	2068.6619839000014	n/a	n/a	2069.6766198000005	2070.5848641999983	2019-11-08 17:52:40.418113	9.28770006621679	-0.217569667074398	-9.13894730389282	-0.285882175616919	0.148752762323974	-9.13894730389282	-9.28770006621679	-0.217569667074398	-9.13894730389282	0.148752762323974	-9.13894730389282	0.217569667074398	2.6113913368448625	-1.2330400494560418	-10.048839055572797	-4.120255564304576	-0.9370519022606869	-10.048839055572797	-0.24282175819542556	-4.18724981049431	-6.7986411473391755	-4.577845858756137	-6.7040332462727035	4	missed	0.0
358.35369139999966	7.563204999998561	go_reward	0.2651432999991812	358.393516600001	361.37751819999903	363.94734629999994	2.9840015999980096	359.4042440000012	362.93665340000007	364.9599192999999	1.9732741999978316	1.0106928999998672	0.996802299999672	n/a	1.0	n/a	2	0	114	1	go_reward	0	0	1	1	1	1	0	n/a	n/a	0	0.2651432999991812	1.0	1712.2291882999998	2070.622704900001	2071.633432300001	2073.606706499999	2075.1658417	2076.1765345999997	n/a	n/a	2077.1891075999997	2078.1859098999994	2019-11-08 17:52:40.418113	10.7238812942747	12.1495330394807	1.9519065426172	12.1537918274057	12.6757878368919	1.9519065426172	-10.7238812942747	12.1495330394807	1.9519065426172	12.6757878368919	1.9519065426172	-12.1495330394807	4.047572564902772	11.134062657099056	1.0420147909372235	8.319418438718042	11.589983172307239	1.0420147909372235	-12.609924464750524	8.339785264073615	4.292212699170844	7.78925684779896	4.386820600237317	4	missed	0.0
365.9993761000005	7.036325099998521	nogo_reward	1.0	366.0392013000019	368.3348173999984	370.8562078	2.2956160999965505	367.0557670999988	369.84075609999854	371.8736394000007	1.2790502999996534	1.0154517000014494	1.201886999999715	n/a	1.0	n/a	2	0	115	2	nogo_reward	0	1	0	0	0	1	0	n/a	n/a	0	1.0	1.0	1712.2291882999998	2078.2683896000017	2079.2849553999986	2080.5640056999982	2082.0699443999983	2083.0853961	n/a	n/a	2084.1028277000005	2085.3047147	2019-11-08 17:52:40.418113	8.55712982686915	5.5111741481775	14.572440851293	14.5746155979352	6.01531102442382	14.572440851293	-8.55712982686915	14.572440851293	5.5111741481775	14.572440851293	6.01531102442382	-14.572440851293	1.8808210974972237	4.495703765795856	13.662549099613024	10.740242209247544	4.929506359839159	13.662549099613024	-15.032832276562825	10.236438278474717	8.355617180977465	10.212164659611261	7.946088205797617	4	missed	0.0
373.08595069999865	5.907921599999099	nogo_punish	1.0	373.1257759	374.4746210000012	376.9945578000006	1.3488451000011992	374.1375517999986	375.9746846000012	378.01122520000035	0.33706920000258833	1.019873199999438	1.0224722999987534	n/a	1.0	n/a	2	0	116	4	nogo_punish	1	-1	0	0	0	1	0	n/a	n/a	0	1.0	1.0	1712.2291882999998	2085.3549642	2086.3667400999984	2086.703809300001	2088.203872900001	2089.2237461000004	n/a	n/a	2090.2404135	2091.262885799999	2019-11-08 17:52:40.418113	3.43488415770364	-5.30416844886653	-1.54033587505752	-1.54659485953537	-4.97522003276116	-1.54033587505752	-3.43488415770364	-1.54033587505752	-5.30416844886653	-1.54033587505752	-4.97522003276116	1.54033587505752	-3.241424571668287	-6.319638831248174	-2.4502276267374965	-5.380968248223026	-6.061024697345821	-2.4502276267374965	1.0799444497876964	-5.8763384478758045	-2.634913876207516	-5.90061206673926	-2.8692543912464137	4	missed	0.0
379.0335352999973	6.403113600001689	go_reward	0.2682973000009951	379.07336049999867	381.1001631000004	383.69366100000116	2.0268026000017016	380.09356820000176	382.6680473000015	384.70470510000087	1.0065948999986176	1.025613699999667	0.7717689999994946	n/a	1.0	n/a	2	0	117	1	go_reward	1	1	0	1	1	1	0	n/a	n/a	1	0.2682973000009951	1.0	1712.2291882999998	2091.3025487999985	2092.3227565000016	2093.3293514	2094.8972356000013	2095.922849300001	n/a	n/a	2096.9338934000007	2097.7056624	2019-11-08 17:52:40.418113	7.26957901414356	8.69788905197852	1.9519065426172	8.70128137196061	9.22148555676076	1.9519065426172	-7.26957901414356	8.69788905197852	1.9519065426172	9.22148555676076	1.9519065426172	10.603048969634381	0.5932702847716333	7.682418669596876	1.0420147909372235	4.866907983272953	8.135680892176099	1.0420147909372235	10.142657544364557	4.885482983942476	4.292212699170844	4.33761286029678	4.386820600237317	4	missed	0.0
385.4701290999983	6.600026299998717	nogo_punish	1.0	385.50995429999966	387.339505200001	389.8736839000012	1.8295509000013226	386.51864360000036	388.8541793000004	390.8895902000004	0.8208616000006259	1.0195046000008006	1.2203903999979957	n/a	1.0	n/a	2	0	118	4	nogo_punish	1	-1	0	0	0	1	1	n/a	n/a	0	1.0	1.0	1712.2291882999998	2097.7391425999995	2098.7478319	2099.568693500001	2101.0833676	2102.102872200001	n/a	n/a	2103.1187785	2104.339168899998	2019-11-08 17:52:40.418113	3.82207950240953	-5.30416844886653	-1.14302389064046	-1.1481227666167	-4.96510339304999	-1.14302389064046	-3.82207950240953	-1.14302389064046	-5.30416844886653	-1.14302389064046	-4.96510339304999	1.14302389064046	-2.854229226962397	-6.319638831248174	-2.0529156423204364	-4.982496155304356	-6.050908057634651	-2.0529156423204364	0.6826324653706364	-5.4790264634587444	-2.6247972364963457	-5.5033000823222	-2.8692543912464137	4	missed	0.0
392.11250440000003	7.027649600000586	go_reward	0.2618073999983608	392.1523296000014	394.5926009	397.1920290000012	2.440271299998585	393.1673235999988	396.1594121000012	398.21567629999845	1.4252773000011985	1.0326168999999936	0.9643029000035312	n/a	1.0	n/a	2	0	119	1	go_reward	1	1	0	1	1	1	1	n/a	n/a	1	0.2618073999983608	1.0	1712.2291882999998	2104.381517900001	2105.3965118999986	2106.8217892	2108.388600400001	2109.421217300001	n/a	n/a	2110.4448645999983	2111.409167500002	2019-11-08 17:52:40.418113	10.3288509260245	11.7761924454041	1.9519065426172	11.7789040127529	12.2807574686418	1.9519065426172	-10.3288509260245	11.7761924454041	1.9519065426172	12.2807574686418	1.9519065426172	7.524745576208801	3.6525421966525737	10.760722063022456	1.0420147909372235	7.944530624065243	11.19495280405714	1.0420147909372235	7.064354150938978	7.944754895823516	4.292212699170844	7.41591625372236	4.386820600237317	4	missed	0.0
399.18048909999925	6.227947700000641	nogo_punish	1.0	399.2203143000006	400.9258536000016	403.4489356999984	1.7055393000009644	400.2331989000013	402.43183209999916	404.46016529999906	0.6926547000002756	1.0171035999992455	0.9880967000021883	n/a	1.0	n/a	2	0	120	4	nogo_punish	1	-1	0	0	0	1	1	n/a	n/a	0	1.0	1.0	1712.2291882999998	2111.4495026000004	2112.462387200001	2113.1550419000014	2114.661020399999	2115.678123999998	n/a	n/a	2116.689353599999	2117.677450300001	2019-11-08 17:52:40.418113	4.10340597655929	-5.30416844886653	-0.85316576371412	-0.857331527004371	-4.95657174027341	-0.85316576371412	-4.10340597655929	-0.85316576371412	-5.30416844886653	-0.85316576371412	-4.95657174027341	0.85316576371412	-2.572902752812637	-6.319638831248174	-1.7630575153940966	-4.691704915692028	-6.042376404858071	-1.7630575153940966	0.39277433844429643	-5.189168336532404	-2.6162655837197657	-5.21344195539586	-2.8692543912464137	4	missed	0.0
