onset	duration	trial_type	response_time	cueOnset	targetOnset	fbOnset	cueRT	firstfixOnset	secondfixOnset	waitOnset	firstfixdur	secondfixdur	waitdur	nback_fbOnset	nback_response_time	nback_targetOnset	block	wm	trial	cue	cond	is_common	outcome_go	outcome_nogo	key_correct	key_pressed	is_correct	key_correct_nback	key_pressed_nback	is_correct_nback	outcome	rt	rt_nback	time_scan	time_onset	time_isi1	time_circle	time_isi2	time_feedback	time_same	time_correct	time_iti	time_done	timestamp_scan	DV	Qgo	Qnogo	SV	Wgo	Wnogo	mDV	Qchosen	Qunchosen	Wchosen	Wunchosen	PE	DVC	QgoC	QnogoC	SVC	WgoC	WnogoC	PEC	WchosenC	WunchosenC	QchosenC	QunchosenC	run	outcome_nback	nback_targetResp
0.0	8.83123550000164	nogo_punish	1.0	0.0257816999987881	1.8131618000011258	4.338059300000623	1.7873801000023377	1.0329739000012523	3.330345499999112	7.3791322000001855	0.7801878999998735	1.0077138000015111	1.4778850000002421	6.382034099999601	0.3893946000025607	5.354960599998321	2	1	61	2	nogo_punish	1	-1	0	0	0	1	0	0.0	1.0	0	1.0	0.3893946000025607	2177.8126694	2177.8384510999986	2178.845643300001	2179.625831200001	2181.143014899999	2182.1507287000004	2183.167629999998	2184.1947034999994	2185.1918016	2186.6696866	2020-04-24 16:43:11.255652	-0.759909323167018	-0.73581772153604	-1.42158202080773	-1.28304442153154	-0.661672697640713	-1.42158202080773	0.759909323167018	-1.42158202080773	-0.73581772153604	-1.42158202080773	-0.661672697640713	1.42158202080773	-8.33654973403743	-4.597720377422595	-1.8648366386363215	-5.6922748889834835	-7.849331477081332	-1.8648366386363215	0.5161522833580294	-9.025358924877542	-0.6888091908401146	-5.868922526660986	-0.5936344893979307	4	correct	1.0
8.873181900002237	8.132296299998416	nogo_punish	1.0	8.898963600001025	10.439719499998773	12.972030900000846	1.5407558999977482	9.902184700000817	11.9552477000002	16.006703100000323	0.5375347999979567	1.0167832000006456	1.024556799999118	15.014217000000372	0.4048163000006752	13.985473699999147	2	1	62	2	nogo_punish	0	0	-1	0	0	1	0	0.0	1.0	-1	1.0	0.4048163000006752	2177.8126694	2186.711633000001	2187.7148541000006	2188.2523888999986	2189.7679171	2190.7847003000006	2191.798143099999	2192.8268864	2193.8193725	2194.843929299999	2020-04-24 16:43:11.255652	-0.481876751873755	-0.73581772153604	-0.997656644107867	-0.901958201477462	-0.515779892234111	-0.997656644107867	0.481876751873755	-0.997656644107867	-0.73581772153604	-0.997656644107867	-0.515779892234111	-4.186244014619653	-8.058517162744167	-4.597720377422595	-1.4409112619364586	-5.311188668929406	-7.703438671674729	-1.4409112619364586	-5.0916737520693545	-8.60143354817768	-0.5429163854335126	-5.444997149961123	-0.5936344893979307	4	correct	1.0
17.047739400000864	7.886355399998138	nogo_punish	1.0	17.073521099999653	18.501249599998573	21.01730269999871	1.4277284999989206	18.08227780000061	20.003731000001153	24.075825299998996	0.4189717999979621	1.0135716999975557	0.8840511999987939	23.06240569999909	0.4042539000001852	22.033989799998835	2	1	63	2	nogo_punish	1	-1	0	0	0	1	1	1.0	1.0	0	1.0	0.4042539000001852	2177.8126694	2194.8861904999994	2195.8949472000004	2196.3139189999984	2197.816400400001	2198.8299720999985	2199.8466591999986	2200.875075099999	2201.888494699999	2202.7725458999976	2020-04-24 16:43:11.255652	-1.23249143801989	-0.73581772153604	-2.23109043349832	-2.16458558935123	-0.998598995478429	-2.23109043349832	1.23249143801989	-2.23109043349832	-0.73581772153604	-2.23109043349832	-0.998598995478429	2.23109043349832	-8.809131848890301	-4.597720377422595	-2.6743450513269114	-6.573816056803174	-8.186257774919047	-2.6743450513269114	1.3256606960486192	-9.834867337568133	-1.0257354886778305	-6.678430939351577	-0.5936344893979307	4	correct	1.0
24.96151269999973	8.2010632000015	nogo_reward	1.0	24.987294399998518	26.32979140000043	28.863497099999677	1.342497000001913	26.004016899998987	27.84720299999799	31.89800570000125	0.3257745000014438	1.0162941000016872	1.2903518999987682	30.893544899998687	0.4655535999991116	29.870608099998663	2	1	64	4	nogo_reward	1	0	1	0	0	1	0	0.0	1.0	1	1.0	0.4655535999991116	2177.8126694	2202.7999637999983	2203.8166862999988	2204.1424608	2205.6598723999978	2206.6761664999995	2207.6832774999984	2208.7062142999985	2209.710675100001	2211.001027	2020-04-24 16:43:11.255652	3.23755875332576	0.121521195468158	6.5011270540097	6.59232759760338	3.26356830068395	6.5011270540097	-3.23755875332576	6.5011270540097	0.121521195468158	6.5011270540097	3.26356830068395	15.347751014366999	-4.339081657544651	-3.740381460418397	6.057872436181109	2.1830971301514364	-3.9240904787566686	6.057872436181109	14.442321276917298	-1.1026498500601125	3.2364318074845486	2.0537865481564435	0.2637044276062672	4	correct	1.0
33.208371600001556	8.338662499998463	go_reward	0.3702912999979162	33.234153300000344	35.07206749999796	37.618916199997784	1.8379141999976127	34.229363700000704	36.59548860000041	40.673332999999275	0.8427037999972526	1.023427599997376	0.8994827999995323	39.66105799999832	0.6930744999990566	38.63304710000057	2	1	65	3	go_reward	1	1	0	1	1	1	0	0.0	1.0	1	0.3702912999979162	0.6930744999990566	2177.8126694	2211.0468227	2212.0420331000005	2212.8847368999977	2214.408158	2215.4315855999976	2216.4457165000003	2217.473727399998	2218.486002399999	2219.3854851999986	2020-04-24 16:43:11.255652	28.9718976520882	20.4320087134176	0.0	20.4320087134176	28.9718976520882	0.0	-28.9718976520882	20.4320087134176	0.0	28.9718976520882	0.0	1.4168693549591005	21.395257241217788	16.570106057531042	-0.44325461782859144	16.022778245965654	21.78423887264758	-0.44325461782859144	0.5114396175093998	21.368120748018384	-0.02713649319940158	15.984668207564342	0.1421832321381092	4	correct	1.0
41.57635139999911	8.805468500002462	go_punish	0.4559302000016032	41.6021330999979	43.327082399999654	45.874459399998614	1.7249493000017537	42.608355500000926	44.8482353000004	48.92426330000035	0.7187268999987282	1.0262240999982168	1.483338300000014	47.91651000000002	0.5005294000002323	46.88877479999837	2	1	66	1	go_punish	0	-1	0	1	1	1	0	0.0	1.0	-1	0.4559302000016032	0.5005294000002323	2177.8126694	2219.4148024999977	2220.4210249000007	2221.1397517999994	2222.6609047	2223.6871287999984	2224.701444199998	2225.7291794	2226.7369327	2228.220271	2020-04-24 16:43:11.255652	1.70262498110961	-0.944968004057128	-2.58018327742896	-1.30458633855313	-0.877558296319351	-2.58018327742896	-1.70262498110961	-0.944968004057128	-2.58018327742896	-0.877558296319351	-2.58018327742896	-4.238932654670392	-5.874015429760801	-4.806870659943683	-3.0234378952575516	-5.713816806005074	-8.06521707575997	-3.0234378952575516	-5.144362392120092	-8.481335200389164	-2.6073197706283615	-5.392308509910385	-2.438000045290851	4	correct	1.0
50.428180099999736	8.181574700000056	go_reward	0.3430881000022054	50.453961799998524	52.11413020000009	54.670264099997894	1.6601684000015666	51.46019659999729	53.64699829999927	57.720085699999345	0.6539336000028015	1.0232657999986259	0.9154507999992347	56.716212199997244	0.3741861000016797	55.68409859999929	2	1	67	3	go_reward	1	1	0	1	1	1	1	1.0	1.0	1	0.3430881000022054	0.3741861000016797	2177.8126694	2228.2666311999983	2229.272865999997	2229.9267996	2231.459667699999	2232.4829334999977	2233.496767999999	2234.528881599997	2235.532755099999	2236.4482058999984	2020-04-24 16:43:11.255652	29.4971052991455	20.8103187153056	0.0	20.8103187153056	29.4971052991455	0.0	-29.4971052991455	20.8103187153056	0.0	29.4971052991455	0.0	1.0385593530711006	21.920464888275088	16.948416059419042	-0.44325461782859144	16.401088247853654	22.30944651970488	-0.44325461782859144	0.1331296156213999	21.893328395075685	-0.02713649319940158	16.362978209452343	0.1421832321381092	4	correct	1.0
58.6368051999998	7.765786399999342	nogo_reward	0.9426628999972309	58.66258689999859	60.02862220000043	62.577619799998956	1.3660353000018404	59.67072569999846	61.56190000000106	65.62115490000042	0.3578965000019707	1.0157197999978962	0.8072183999975096	64.61505399999851	0.963814300001104	63.59335350000083	2	1	68	4	nogo_reward	0	1	0	0	1	0	0	0.0	1.0	1	0.9426628999972309	0.963814300001104	2177.8126694	2236.4752562999984	2237.4833950999982	2237.8412916	2239.374569400001	2240.3902891999987	2241.4060229000006	2242.4277233999983	2243.4338243	2244.2410426999977	2020-04-24 16:43:11.255652	-5.96803151192877	0.121521195468158	10.9738089115717	11.0427012259244	5.00577739964297	10.9738089115717	5.96803151192877	0.121521195468158	10.9738089115717	5.00577739964297	10.9738089115717	21.72735687290854	-13.544671922799182	-3.740381460418397	10.530554293743108	6.633470758472456	-2.181881379797648	10.530554293743108	20.82192713545884	-2.5979995044268422	10.946672418372298	-4.325819310385099	11.115992143709809	4	correct	1.0
66.43002609999849	8.813187800003107	nogo_reward	0.4424782999994932	66.45580779999727	68.30486140000039	70.83594280000125	1.849053600003117	67.46367750000036	69.82216219999873	73.88519819999829	0.8411839000000327	1.0137806000025193	1.383797400002095	72.86734199999819	0.4754277000029105	71.853695899998	2	1	69	4	nogo_reward	1	0	1	0	1	0	0	0.0	1.0	0	0.4424782999994932	0.4754277000029105	2177.8126694	2244.268477199997	2245.2763469	2246.1175308	2247.6348315999985	2248.648612200001	2249.666365299998	2250.680011399998	2251.697867599998	2253.081665	2020-04-24 16:43:11.255652	1.71103168630977	6.59232759760338	10.9738089115717	14.1308504513261	12.6848405978815	10.9738089115717	-1.71103168630977	6.59232759760338	10.9738089115717	12.6848405978815	10.9738089115717	-6.59232759760338	-5.865608724560641	2.730424941716825	10.530554293743108	9.721619983874156	5.497181818440882	10.530554293743108	-7.49775733505308	5.0810636938116875	10.946672418372298	2.1449870917501235	11.115992143709809	4	correct	1.0
75.28879489999963	8.797063000001799	nogo_punish	1.0	75.31457659999842	77.66428929999938	80.1807750999983	2.349712700000964	76.31490529999837	79.16756880000003	83.21214319999899	1.3493840000010096	1.0132062999982736	0.899496400001226	82.2078988000003	0.3474072999997588	81.19481859999723	2	1	70	2	nogo_punish	1	-1	0	0	0	1	0	0.0	1.0	0	1.0	0.3474072999997588	2177.8126694	2253.127245999998	2254.127574699998	2255.476958699999	2256.9802382	2257.993444499998	2259.007487999997	2260.0205682	2261.0248125999988	2261.924309	2020-04-24 16:43:11.255652	-0.809322915134226	-0.73581772153604	-1.55787867062486	-1.51140495165804	-0.748555755490636	-1.55787867062486	0.809322915134226	-1.55787867062486	-0.73581772153604	-1.55787867062486	-0.748555755490636	1.55787867062486	-8.385963326004637	-4.597720377422595	-2.0011332884534516	-5.920635419109984	-7.9362145349312545	-2.0011332884534516	0.6524489331751593	-9.161655574694672	-0.7756922486900376	-6.005219176478117	-0.5936344893979307	4	correct	1.0
84.11467890000131	8.717776499997854	nogo_reward	1.0	84.1404606000001	86.32173209999792	88.84669410000106	2.1812714999978198	85.15891780000038	87.82404200000065	91.89608609999823	1.1628142999975353	1.022652100000414	0.9621509999997215	90.8833520000012	0.7739488999977766	89.8613075000003	2	1	71	4	nogo_reward	1	0	1	0	0	1	1	0.0	0.0	1	1.0	0.7739488999977766	2177.8126694	2261.95313	2262.9715872	2264.1344014999977	2265.6367114000004	2266.659363500001	2267.6739769	2268.696021400001	2269.708755499998	2270.6709064999977	2020-04-24 16:43:11.255652	2.03978006652927	4.5415741719147	10.9738089115717	9.7905982804694	8.93402884504246	10.9738089115717	-2.03978006652927	10.9738089115717	4.5415741719147	10.9738089115717	8.93402884504246	10.875069156804999	-5.536860344341141	0.679671516028145	10.530554293743108	5.381367813017456	1.746370065601842	10.530554293743108	9.969639419355298	3.3700320075018873	8.906892351843059	6.526468405718443	4.683757404052809	4	wrong	1.0
92.8814667000006	8.085205700001097	nogo_punish	1.0	92.90724839999939	94.30565129999786	96.83963220000123	1.398402899998473	93.92392230000087	95.82272570000032	99.88042159999941	0.3817289999969944	1.016906500000914	1.112032500001078	98.86254179999787	1.0	97.8539781000004	2	1	72	2	nogo_punish	0	0	-1	0	0	1	1	n/a	0.0	-1	1.0	1.0	2177.8126694	2270.719917799999	2271.7365917000006	2272.1183206999976	2273.6353951	2274.652301600001	2275.6666475	2276.6752111999976	2277.693090999999	2278.8051235000003	2020-04-24 16:43:11.255652	-0.519576719965114	-0.73581772153604	-1.09698381463893	-1.064342631936	-0.577407094673814	-1.09698381463893	0.519576719965114	-1.09698381463893	-0.73581772153604	-1.09698381463893	-0.577407094673814	-4.08691684408859	-8.096217130835525	-4.597720377422595	-1.5402384324675213	-5.473573099387944	-7.765065874114432	-1.5402384324675213	-4.992346581538291	-8.700760718708743	-0.6045435878732156	-5.544324320492187	-0.5936344893979307	4	missed	0.0
101.01385680000021	8.344329600000947	go_reward	0.5920693000007304	101.039638499999	102.40124609999884	104.95229479999807	1.361607599999843	102.04460080000035	103.93196160000025	107.98886589999938	0.3566452999984904	1.0203331999978218	1.395102200000565	106.97778600000038	1.0	105.96918219999907	2	1	73	3	go_reward	0	0	1	1	1	1	0	n/a	0.0	1	0.5920693000007304	1.0	2177.8126694	2278.852307899999	2279.8572702	2280.2139154999986	2281.744631	2282.764964199998	2283.781851599999	2284.7904554	2285.801535299999	2287.1966374999997	2020-04-24 16:43:11.255652	29.8716119433423	21.0803199412666	0.0	21.0803199412666	29.8716119433423	0.0	-29.8716119433423	21.0803199412666	0.0	29.8716119433423	0.0	-21.0803199412666	22.29497153247189	17.218417285380042	-0.44325461782859144	16.671089473814654	22.683953163901684	-0.44325461782859144	-21.9857496787163	22.26783503927249	-0.02713649319940158	16.63297943541334	0.1421832321381092	4	missed	0.0
109.4002290999997	8.486672999999428	nogo_punish	1.0	109.4260107999985	110.92666740000004	113.4516749000004	1.5006566000015482	110.42790640000067	112.42965419999791	116.5076925000003	0.4987609999993765	1.0220207000024857	1.4049912999976186	115.4920890000003	0.460251700002118	114.46210130000009	2	1	74	2	nogo_punish	1	-1	0	0	0	1	1	1.0	1.0	0	1.0	0.460251700002118	2177.8126694	2287.2386801999983	2288.2405758000004	2288.7393368	2290.2423235999977	2291.2643443	2292.2747707	2293.3047584	2294.3203619	2295.7253531999977	2020-04-24 16:43:11.255652	-1.26132834158095	-0.73581772153604	-2.30394406620228	-2.28091243118382	-1.04261572462133	-2.30394406620228	1.26132834158095	-2.30394406620228	-0.73581772153604	-2.30394406620228	-1.04261572462133	2.30394406620228	-8.83796875245136	-4.597720377422595	-2.7471986840308715	-6.690142898635764	-8.23027450406195	-2.7471986840308715	1.3985143287525794	-9.907720970272093	-1.0697522178207315	-6.751284572055537	-0.5936344893979307	4	correct	1.0
117.9300742000014	7.863832799997908	nogo_punish	1.0	117.95585590000019	119.46097739999868	121.98413789999995	1.505121499998495	118.9634114000005	120.96301369999901	125.0442924999993	0.4975659999981872	1.0211242000009406	0.775396199998795	124.0306241000003	0.7377408000029391	123.00257370000008	2	1	75	2	nogo_punish	1	-1	0	0	0	1	0	0.0	1.0	0	1.0	0.7377408000029391	2177.8126694	2295.7685253	2296.7760808000003	2297.2736467999985	2298.775683099999	2299.7968072999997	2300.8152431	2301.8432935	2302.856961899999	2303.632358099998	2020-04-24 16:43:11.255652	-0.831448264216762	-0.73581772153604	-1.61165282618787	-1.59533466745902	-0.780204561971108	-1.61165282618787	0.831448264216762	-1.61165282618787	-0.73581772153604	-1.61165282618787	-0.780204561971108	1.61165282618787	-8.408088675087173	-4.597720377422595	-2.0549074440164614	-6.004565134910964	-7.967863341411727	-2.0549074440164614	0.7062230887381693	-9.215429730257682	-0.8073410551705096	-6.058993332041126	-0.5936344893979307	4	correct	1.0
125.82238720000169	8.745386799997505	nogo_reward	1.0	125.84816890000047	128.13791519999722	130.68018019999727	2.28974629999675	126.85802670000021	129.6554614999991	133.72359170000027	1.2798884999970142	1.024718699998175	0.869963999997708	132.71708590000026	0.7667418999990332	131.68840450000107	2	1	76	4	nogo_reward	1	0	1	0	0	1	0	0.0	1.0	1	1.0	0.7667418999990332	2177.8126694	2303.6608383000003	2304.6706961	2305.950584599997	2307.468130899999	2308.492849599997	2309.501073900001	2310.5297553	2311.5362611	2312.4062250999978	2020-04-24 16:43:11.255652	3.75601780274821	4.5415741719147	14.0784669066105	13.3431160845292	10.3224491038623	14.0784669066105	-3.75601780274821	14.0784669066105	4.5415741719147	14.0784669066105	10.3224491038623	7.7704111617662	-3.820622608122201	0.679671516028145	13.635212288781908	8.933885617077255	3.134790324421682	13.635212288781908	6.864981424316499	6.474690002540687	10.295312610662899	9.631126400757243	4.683757404052809	4	correct	1.0
134.61534350000147	8.913683700000547	go_reward	0.3292083000014827	134.64112520000026	136.98011610000003	139.5273471000005	2.3389908999997715	135.6443254999981	138.5041927999996	142.57199990000026	1.3357906000019284	1.023154300000897	0.9828090000005432	141.5654318999991	0.4706498000014107	140.5411742000001	2	1	77	3	go_reward	1	1	0	1	1	1	0	0.0	1.0	1	0.3292083000014827	0.4706498000014107	2177.8126694	2312.4537946	2313.456994899998	2314.7927855	2316.3168621999994	2317.3400165000003	2318.3538436	2319.378101299999	2320.3846693	2321.3674783000006	2020-04-24 16:43:11.255652	30.1407428528416	21.2745626819455	0.0	21.2745626819455	30.1407428528416	0.0	-30.1407428528416	21.2745626819455	0.0	30.1407428528416	0.0	0.5743153864311985	22.56410244197119	17.412660026058944	-0.44325461782859144	16.865332214493556	22.953084073400984	-0.44325461782859144	-0.3311143510185022	22.536965948771787	-0.02713649319940158	16.827222176092242	0.1421832321381092	4	correct	1.0
143.57181350000246	8.074461299998802	nogo_punish	1.0	143.59759520000125	145.2703841999978	147.80031959999997	1.6727889999965555	144.59971039999846	146.78064719999793	150.83334829999922	0.6706737999993493	1.0196724000020367	0.8387082000008377	149.83120889999964	0.4107655999978306	148.81845550000116	2	1	78	2	nogo_punish	1	-1	0	0	0	1	0	0.0	1.0	0	1.0	0.4107655999978306	2177.8126694	2321.410264600001	2322.4123797999982	2323.0830535999976	2324.5933165999977	2325.6129889999997	2326.631124900001	2327.6438782999994	2328.646017699999	2329.4847259	2020-04-24 16:43:11.255652	-0.536611744876907	-0.73581772153604	-1.13692186532272	-1.12531871999218	-0.60031012044581	-1.13692186532272	0.536611744876907	-1.13692186532272	-0.73581772153604	-1.13692186532272	-0.60031012044581	1.13692186532272	-8.113252155747318	-4.597720377422595	-1.5801764831513114	-5.5345491874441235	-7.787968899886429	-1.5801764831513114	0.23149212787301932	-8.740698769392532	-0.6274466136452116	-5.584262371175977	-0.5936344893979307	4	correct	1.0
151.69193150000137	9.44253000000026	go_reward	0.3013470000005327	151.71771320000016	154.3266942999985	156.8705061000005	2.6089810999983456	152.7231680000009	155.851985400001	159.9063605999986	1.6035262999976112	1.018520699999499	1.2538826000018162	158.8949609999986	1.0	157.8854914999979	2	1	79	3	go_reward	1	1	0	1	1	1	1	n/a	0.0	0	0.3013470000005327	1.0	2177.8126694	2329.5303826	2330.5358374000007	2332.1393636999983	2333.664654800001	2334.6831755000003	2335.6981608999977	2336.7076303999984	2337.7190299999984	2338.9729126	2020-04-24 16:43:11.255652	30.3356219902962	21.4153981464517	0.0	21.4153981464517	30.3356219902962	0.0	-30.3356219902962	21.4153981464517	0.0	30.3356219902962	0.0	0.43347992192499873	22.75898157942579	17.553495490565144	-0.44325461782859144	17.006167678999756	23.147963210855583	-0.44325461782859144	-0.47194981552470194	22.731845086226386	-0.02713649319940158	16.968057640598445	0.1421832321381092	4	missed	0.0
161.16437270000097	8.368207899998652	go_punish	0.3002274999998917	161.19015439999976	163.00095289999854	165.55002060000015	1.810798499998782	162.19038150000097	164.5307532999982	168.60473150000007	0.8105713999975706	1.0192673000019568	0.9536307999983364	167.59079129999782	0.4030903000020771	166.56126269999731	2	1	80	1	go_punish	1	0	-1	1	1	1	0	0.0	1.0	0	0.3002274999998917	0.4030903000020771	2177.8126694	2339.0028237999995	2340.0030509000007	2340.8136222999983	2342.343422699998	2343.36269	2344.373932099997	2345.4034606999976	2346.4174009	2347.371031699998	2020-04-24 16:43:11.255652	0.0122057086086267	-2.19592342589459	-2.58018327742896	-2.45372512965896	-2.56797756882034	-2.58018327742896	-0.0122057086086267	-2.19592342589459	-2.58018327742896	-2.56797756882034	-2.58018327742896	2.19592342589459	-7.564434702261784	-6.057826081781145	-3.0234378952575516	-6.862955597110904	-9.755636348260959	-3.0234378952575516	1.2904936884448892	-10.171754472890154	-2.6073197706283615	-6.643263931747846	-2.438000045290851	4	correct	1.0
169.55951840000125	9.03665059999912	nogo_reward	1.0	169.58530010000004	172.11710019999782	174.657545999999	2.531800099997781	170.59372259999918	173.63455509999812	177.71662649999826	1.5233775999986392	1.0229909000008774	0.905324200000905	176.7034377999994	0.4181667999982892	175.67215410000108	2	1	81	4	nogo_reward	1	0	1	0	0	1	0	0.0	1.0	1	1.0	0.4181667999982892	2177.8126694	2347.3979695	2348.406391999999	2349.9297695999976	2351.447224499998	2352.470215399999	2353.484823500001	2354.516107199999	2355.529295899998	2356.434620099999	2020-04-24 16:43:11.255652	4.97128877247926	4.5415741719147	16.2516289272124	15.7942583975677	11.2803401547332	16.2516289272124	-4.97128877247926	16.2516289272124	4.5415741719147	16.2516289272124	11.2803401547332	5.597249141164298	-2.6053516383911512	0.679671516028145	15.80837430938381	11.385027930115758	4.092681375292581	15.80837430938381	4.691819403714597	8.647852023142589	11.253203661533798	11.804288421359145	4.683757404052809	4	correct	1.0
178.6465207000001	8.367799399999058	go_reward	0.3608085999985633	178.6723023999989	180.66832879999902	183.21867059999977	1.9960264000001189	179.68921470000032	182.19542749999937	186.2702338999993	0.9791140999986965	1.0232431000003999	0.7698678999986441	185.25662369999964	0.9784311000003072	184.23386190000065	2	1	82	3	go_reward	1	1	0	1	1	1	0	0.0	1.0	1	0.3608085999985633	0.9784311000003072	2177.8126694	2356.4849717999987	2357.5018841	2358.480998199999	2360.008096899999	2361.0313399999995	2362.0465313000004	2363.0692930999994	2364.082903299999	2364.8527711999977	2020-04-24 16:43:11.255652	21.4321097927525	15.0171717562569	0.0	15.0171717562569	21.4321097927525	0.0	-21.4321097927525	15.0171717562569	0.0	21.4321097927525	0.0	6.831706312119799	13.855469381882088	11.155269100370345	-0.44325461782859144	10.607941288804955	14.244451013311881	-0.44325461782859144	5.926276574670098	13.828332888682686	-0.02713649319940158	10.569831250403643	0.1421832321381092	4	correct	1.0
187.0589875000005	8.173489699998754	nogo_punish	1.0	187.0847691999993	188.446685899999	190.96857109999883	1.3619166999997105	188.0899784000003	189.9486249000006	194.0153938999979	0.35670749999871987	1.0199461999982304	1.2428650000001653	193.0018576999978	0.354472999999416	191.97866069999918	2	1	83	2	nogo_punish	1	-1	0	0	0	1	0	0.0	1.0	0	1.0	0.354472999999416	2177.8126694	2364.897438599999	2365.9026478	2366.259355299999	2367.7612943000004	2368.7812404999986	2369.791330099999	2370.8145270999976	2371.8280632999977	2373.070928299998	2020-04-24 16:43:11.255652	-0.332503116060575	-0.73581772153604	-0.808442656047552	-0.80016735108526	-0.475939539986977	-0.808442656047552	0.332503116060575	-0.808442656047552	-0.73581772153604	-0.808442656047552	-0.475939539986977	0.808442656047552	-7.909143526930986	-4.597720377422595	-1.2516972738761436	-5.209397818537203	-7.663598319427596	-1.2516972738761436	-0.09698708140214862	-8.412219560117364	-0.5030760331863786	-5.255783161900808	-0.5936344893979307	4	correct	1.0
195.27753139999913	10.023492400003306	go_reward	0.305779899998015	195.30331309999792	198.269557600001	200.8206381999994	2.9662445000030857	196.30909179999844	199.80257140000003	203.8788150000005	1.9604658000025665	1.0180667999993602	1.447990500000742	202.87057309999727	0.4245249000014155	201.83367919999728	2	1	84	3	go_reward	0	0	1	1	1	1	1	1.0	1.0	0	0.305779899998015	0.4245249000014155	2177.8126694	2373.1159824999977	2374.121761199998	2376.082227000001	2377.6152408	2378.633307599999	2379.646348599997	2380.683242499997	2381.6914844000003	2383.139474900001	2020-04-24 16:43:11.255652	24.3588209659022	17.1213763127424	0.0	17.1213763127424	24.3588209659022	0.0	-24.3588209659022	17.1213763127424	0.0	24.3588209659022	0.0	-17.1213763127424	16.78218055503179	13.259473656855844	-0.44325461782859144	12.712145845290454	17.171162186461583	-0.44325461782859144	-18.0268060501921	16.755044061832386	-0.02713649319940158	12.674035806889142	0.1421832321381092	4	correct	1.0
205.33065350000152	8.521261900000809	go_punish	0.6487884999987727	205.3564352000003	206.9233720999987	209.4630383999979	1.5669368999983817	206.36235259999785	208.45013940000035	212.52088309999863	0.5610195000008389	1.0128989999975602	1.3568140000024869	211.5098955000003	0.4314263999985996	210.4808335999992	2	1	85	1	go_punish	1	0	-1	1	1	1	0	1.0	0.0	0	0.6487884999987727	0.4314263999985996	2177.8126694	2383.1691046	2384.1750219999976	2384.7360414999985	2386.2628088	2387.2757077999977	2388.293502999999	2389.3225649	2390.3335524999984	2391.690366500001	2020-04-24 16:43:11.255652	0.954314590982241	-1.53437370419548	-2.58018327742896	-1.72053185889869	-1.62586868644672	-2.58018327742896	-0.954314590982241	-1.53437370419548	-2.58018327742896	-1.62586868644672	-2.58018327742896	1.53437370419548	-6.62232581988817	-5.396276360082035	-3.0234378952575516	-6.129762326350634	-8.813527465887338	-3.0234378952575516	0.6289439667457792	-9.229645590516533	-2.6073197706283615	-5.981714210048737	-2.438000045290851	4	wrong	1.0
213.9002142999998	8.52617359999931	nogo_punish	1.0	213.92599599999858	215.40680969999858	217.9345368000004	1.4808136999999988	214.94032669999842	216.92265960000123	220.98851190000005	0.46648300000015297	1.0118771999991623	1.4636576999978388	219.98121909999873	0.4236426999996183	218.95242189999817	2	1	86	2	nogo_punish	1	-1	0	0	0	1	0	0.0	1.0	0	1.0	0.4236426999996183	2177.8126694	2391.7386653999984	2392.752996099998	2393.2194790999984	2394.735329000001	2395.7472062	2396.765091299998	2397.7938884999985	2398.8011813	2400.2648389999977	2020-04-24 16:43:11.255652	-0.18997781095783	-0.73581772153604	-0.579251108057571	-0.573335421659968	-0.389273297099741	-0.579251108057571	0.18997781095783	-0.579251108057571	-0.73581772153604	-0.579251108057571	-0.389273297099741	0.579251108057571	-7.7666182218282405	-4.597720377422595	-1.0225057258861625	-4.982565889111912	-7.576932076540359	-1.0225057258861625	-0.3261786293921297	-8.183028012127384	-0.4164097902991426	-5.026591613910828	-0.5936344893979307	4	correct	1.0
222.45656959999906	8.559331100001145	go_punish	0.357664899998781	222.48235129999784	224.41464219999807	226.95688949999794	1.9322909000002255	223.49471459999813	225.9376602999987	230.00194299999976	0.9199275999999372	1.0192291999992449	1.0397393999992346	228.99686810000003	0.4648444000013114	227.9683403999993	2	1	87	1	go_punish	1	0	-1	1	1	1	1	1.0	1.0	0	0.357664899998781	0.4648444000013114	2177.8126694	2400.2950206999976	2401.307383999998	2402.227311599998	2403.7503296999985	2404.7695588999977	2405.781009799999	2406.8095375	2407.8146123999995	2408.8543517999988	2020-04-24 16:43:11.255652	1.6001896630834	-1.08127462979516	-2.58018327742896	-1.2166470069982	-0.979993614345557	-2.58018327742896	-1.6001896630834	-1.08127462979516	-2.58018327742896	-0.979993614345557	-2.58018327742896	1.08127462979516	-5.976450747787011	-4.943177285681715	-3.0234378952575516	-5.625877474450144	-8.167652393786176	-3.0234378952575516	0.1758448923454594	-8.58377051841537	-2.6073197706283615	-5.528615135648417	-2.438000045290851	4	correct	1.0
231.06188720000137	9.712860100000398	nogo_punish	1.0	231.08766890000015	233.84628239999847	236.38434130000041	2.7586134999983187	232.09461489999785	235.36127270000043	239.41696959999945	1.7516675000006217	1.0230685999999878	1.3835594000011042	238.41256959999782	0.4802770000023884	237.39102930000126	2	1	88	2	nogo_punish	0	0	-1	0	0	1	1	1.0	1.0	-1	1.0	0.4802770000023884	2177.8126694	2408.9003383	2409.9072842999976	2411.6589517999982	2413.1739421	2414.1970107	2415.203698700001	2416.2252389999976	2417.229638999999	2418.6131984000003	2020-04-24 16:43:11.255652	-0.0896449397845666	-0.73581772153604	-0.418073441933032	-0.413838014311471	-0.328428502148466	-0.418073441933032	0.0896449397845666	-0.418073441933032	-0.73581772153604	-0.418073441933032	-0.328428502148466	-4.765827216794488	-7.666285350654977	-4.597720377422595	-0.8613280597616234	-4.823068481763415	-7.516087281589084	-0.8613280597616234	-5.671256954244189	-8.021850346002845	-0.35556499534786756	-4.865413947786289	-0.5936344893979307	4	correct	1.0
240.80453950000083	8.734600600000704	go_punish	0.2652920999971684	240.83032119999962	242.62401160000127	245.16978249999784	1.7936904000016511	241.83455250000088	244.14928880000025	248.21303350000062	0.7894591000003857	1.020493699997587	1.3518882999997004	247.21150370000123	0.4632559000019682	246.18295540000008	2	1	89	1	go_punish	1	0	-1	1	1	1	1	0.0	0.0	0	0.2652920999971684	0.4632559000019682	2177.8126694	2418.6429905999994	2419.6472219000007	2420.436681000001	2421.9619582	2422.9824518999976	2423.9956248	2425.024173100001	2426.0257029000004	2427.3775912	2020-04-24 16:43:11.255652	2.04691929751492	-0.76811956292274	-2.58018327742896	-0.867236459896014	-0.533263979914038	-2.58018327742896	-2.04691929751492	-0.76811956292274	-2.58018327742896	-0.533263979914038	-2.58018327742896	0.76811956292274	-5.529721113355491	-4.6300222188092945	-3.0234378952575516	-5.276466927347958	-7.720922759354656	-3.0234378952575516	-0.1373101745269607	-8.13704088398385	-2.6073197706283615	-5.215460068775997	-2.438000045290851	4	wrong	1.0
249.58593920000203	9.040033999997831	nogo_punish	1.0	249.61172090000082	251.66085050000083	254.1899716999983	2.0491296000000148	250.61602729999913	253.1704653999991	257.24063050000086	1.0448232000017015	1.0195062999991933	1.4111243999977887	256.23673050000116	0.4842414000013377	255.20795029999908	2	1	90	2	nogo_punish	1	-1	0	0	0	1	1	1.0	1.0	0	1.0	0.4842414000013377	2177.8126694	2427.4243903000006	2428.428696699999	2429.4735199000006	2430.983134799999	2432.002641099998	2433.020619699999	2434.049399900001	2435.0532999000006	2436.4644242999984	2020-04-24 16:43:11.255652	-0.960461018516227	-0.73581772153604	-1.82922286907019	-1.82618864706109	-0.868761850553964	-1.82922286907019	0.960461018516227	-1.82922286907019	-0.73581772153604	-1.82922286907019	-0.868761850553964	1.82922286907019	-8.537101429386638	-4.597720377422595	-2.272477486898781	-6.235419114513034	-8.056420629994582	-2.272477486898781	0.9237931316204893	-9.432999773140002	-0.8958983437533656	-6.276563374923446	-0.5936344893979307	4	correct	1.0
258.6690149999995	9.420491799999581	nogo_punish	1.0	258.6947966999983	261.39791549999836	263.93171779999875	2.703118800000084	259.6971290000006	262.90851120000025	266.987300199999	1.7007864999977755	1.0232065999985025	1.127988299998833	265.97428740000123	0.6855325999968045	264.94552769999837	2	1	91	2	nogo_punish	0	0	-1	0	0	1	0	0.0	1.0	-1	1.0	0.6855325999968045	2177.8126694	2436.507466099998	2437.5097984000004	2439.210584899998	2440.7211806	2441.7443871999985	2442.758197099998	2443.786956800001	2444.799969599999	2445.9279578999976	2020-04-24 16:43:11.255652	-0.619296129413883	-0.73581772153604	-1.27722910855144	-1.27505669368801	-0.657932979137559	-1.27722910855144	0.619296129413883	-1.27722910855144	-0.73581772153604	-1.27722910855144	-0.657932979137559	-3.90667155017608	-8.195936540284293	-4.597720377422595	-1.7204837263800314	-5.684287161139954	-7.845591758578178	-1.7204837263800314	-4.812101287625781	-8.881006012621253	-0.6850694723369606	-5.724569614404697	-0.5936344893979307	4	correct	1.0
268.11928140000236	8.511129299997265	go_punish	0.4059726999985287	268.14506310000115	270.11721109999826	272.6617689999989	1.9721479999971052	269.15095920000067	271.6488562999989	275.69429530000025	0.9662518999975873	1.0129127000000153	0.9618970999981684	274.68174639999825	1.0	273.67175850000103	2	1	92	1	go_punish	1	0	-1	1	1	1	0	n/a	0.0	-1	0.4059726999985287	1.0	2177.8126694	2445.957732500001	2446.9636286000004	2447.929880499998	2449.4615256999987	2450.4744383999987	2451.484427900001	2452.494415799998	2453.5069647	2454.468861799998	2020-04-24 16:43:11.255652	2.35846949559713	-0.549853761745562	-2.58018327742896	-0.622912050054742	-0.221713781831833	-2.58018327742896	-2.35846949559713	-0.549853761745562	-2.58018327742896	-0.221713781831833	-2.58018327742896	0.549853761745562	-5.218170915273281	-4.411756417632117	-3.0234378952575516	-5.032142517506686	-7.409372561272452	-3.0234378952575516	-0.3555759757041387	-7.825490685901646	-2.6073197706283615	-4.997194267598819	-2.438000045290851	4	missed	0.0
276.6592597000017	9.758264500000223	nogo_reward	1.0	276.6850414000005	279.4168603000003	281.94194219999963	2.73181889999978	277.68406780000123	280.91871349999974	284.977871399999	1.73279249999905	1.0232286999998905	1.4654345000017202	283.9723980999993	0.8355843999997887	282.95057660000066	2	1	93	4	nogo_reward	1	0	1	0	0	1	0	0.0	1.0	1	1.0	0.8355843999997887	2177.8126694	2454.4977108000003	2455.496737200001	2457.2295297	2458.7313828999995	2459.7546115999994	2460.7632460000004	2461.785067499999	2462.790540799999	2464.2559753000005	2020-04-24 16:43:11.255652	5.83808418730014	4.5415741719147	17.7848985204463	17.5011377548335	11.9468143331462	17.7848985204463	-5.83808418730014	17.7848985204463	4.5415741719147	17.7848985204463	11.9468143331462	4.063979547930398	-1.7385562235702707	0.679671516028145	17.34164390261771	13.091907287381556	4.759155553705582	17.34164390261771	3.158549810480697	10.181121616376489	11.919677839946798	13.337558014593045	4.683757404052809	4	correct	1.0
286.46270509999886	8.364068100003351	go_reward	0.4324310000010882	286.48848679999764	288.2497694999988	290.79075019999846	1.7612827000011748	287.48489179999933	289.77300270000023	293.85184860000027	0.764877699999488	1.0177474999982223	1.0007063000007292	292.83614910000006	0.4250640000027488	291.8052015000003	2	1	94	3	go_reward	1	1	0	1	1	1	0	0.0	1.0	1	0.4324310000010882	0.4250640000027488	2177.8126694	2464.3011561999974	2465.297561199999	2466.0624388999986	2467.5856721	2468.6034195999982	2469.6178709	2470.6488185	2471.664518	2472.665224300001	2020-04-24 16:43:11.255652	17.2947249470499	12.0444762858256	0.0	12.0444762858256	17.2947249470499	0.0	-17.2947249470499	12.0444762858256	0.0	17.2947249470499	0.0	9.8044017825511	9.71808453617949	8.182573629939045	-0.44325461782859144	7.635245818373655	10.107066167609283	-0.44325461782859144	8.898972045101399	9.690948042980088	-0.02713649319940158	7.5971357799723425	0.1421832321381092	4	correct	1.0
294.85663710000154	8.704162599999108	go_punish	0.6118926000017382	294.8824188000003	296.7292964000012	299.29098229999727	1.8468776000008802	295.88795150000124	298.27155449999964	302.34843659999797	0.8413448999999673	1.0194277999976293	1.2381448000014643	301.33479249999846	0.3445949999986624	300.30566990000125	2	1	95	1	go_punish	1	0	-1	1	1	1	0	0.0	1.0	0	0.6118926000017382	0.3445949999986624	2177.8126694	2472.6950882	2473.700620900001	2474.541965800001	2476.0842238999994	2477.103651699997	2478.118339300001	2479.1474618999982	2480.1611059999977	2481.399250799999	2020-04-24 16:43:11.255652	0.468742526544591	-1.92185948466668	-2.58018327742896	-1.97606520569	-2.11144075088437	-2.58018327742896	-0.468742526544591	-1.92185948466668	-2.58018327742896	-2.11144075088437	-2.58018327742896	1.92185948466668	-7.10789788432582	-5.783762140553235	-3.0234378952575516	-6.385295673141944	-9.29909953032499	-3.0234378952575516	1.0164297472169794	-9.715217654954182	-2.6073197706283615	-6.369199990519936	-2.438000045290851	4	correct	1.0
303.5890404999991	8.318994200002635	nogo_reward	1.0	303.6148221999979	305.18217570000024	307.70887419999826	1.5673535000023548	304.6218105000012	306.6997626999987	310.768704300001	0.5603651999990689	1.0091114999995625	1.1651120999995328	309.76049399999874	0.4014434999990044	308.73166049999827	2	1	96	4	nogo_reward	1	0	1	0	0	1	0	0.0	1.0	1	1.0	0.4014434999990044	2177.8126694	2481.4274915999977	2482.434479900001	2482.9948451	2484.5124320999985	2485.521543599998	2486.544329899998	2487.5731633999985	2488.5813737000008	2489.7464858000003	2020-04-24 16:43:11.255652	6.46069091001247	4.5415741719147	18.8749397446485	18.7000473061676	12.414248834636	18.8749397446485	-6.46069091001247	18.8749397446485	4.5415741719147	18.8749397446485	12.414248834636	2.9739383237281984	-1.1159495008579405	0.679671516028145	18.431685126819907	14.290816838715656	5.2265900551953814	18.431685126819907	2.0685085862784978	11.271162840578688	12.387112341436598	14.427599238795244	4.683757404052809	4	correct	1.0
311.9530513999998	9.756456200000684	nogo_punish	1.0	311.9788330999986	314.74419610000086	317.2822257999983	2.765363000002253	312.9801114999973	316.26177789999974	320.33574279999857	1.7640846000035708	1.020447899998544	1.3995465000007243	319.32224460000043	0.4206639000003633	318.2935810999993	2	1	97	2	nogo_punish	1	-1	0	0	0	1	0	0.0	1.0	0	1.0	0.4206639000003633	2177.8126694	2489.7915024999984	2490.792780899997	2492.5568655000006	2494.0744472999995	2495.094895199998	2496.106250499999	2497.134914	2498.1484121999983	2499.547958699999	2020-04-24 16:43:11.255652	-1.32792880871386	-0.73581772153604	-2.42500964788613	-2.42345751337849	-1.09708083917227	-2.42500964788613	1.32792880871386	-2.42500964788613	-0.73581772153604	-2.42500964788613	-1.09708083917227	2.42500964788613	-8.904569219584271	-4.597720377422595	-2.8682642657147213	-6.832687980830434	-8.284739618612889	-2.8682642657147213	1.5195799104364291	-10.028786551955942	-1.1242173323716715	-6.8723501537393865	-0.5936344893979307	4	correct	1.0
321.73768539999946	8.143722900000284	nogo_reward	1.0	321.76346709999825	323.089959999998	325.6372128000007	1.326492899999721	322.7707526999984	324.61324020000075	328.69185100000004	0.31920729999956166	1.0239725999999791	1.2153389999984938	327.6876262999981	0.5171884999981557	326.65788049999946	2	1	98	4	nogo_reward	1	0	1	0	0	1	1	1.0	1.0	1	1.0	0.5171884999981557	2177.8126694	2499.576136499998	2500.583422099998	2500.9026293999977	2502.4259096000005	2503.4498822000005	2504.4705498999992	2505.500295699998	2506.5045204	2507.7198593999983	2020-04-24 16:43:11.255652	6.91097629633716	4.5415741719147	19.6555632813154	19.5490819785357	12.7445869849782	19.6555632813154	-6.91097629633716	19.6555632813154	4.5415741719147	19.6555632813154	12.7445869849782	2.1933147870613006	-0.6656641145332509	0.679671516028145	19.21230866348681	15.139851511083755	5.556928205537582	19.21230866348681	1.2878850496115999	12.051786377245586	12.717450491778798	15.208222775462142	4.683757404052809	4	correct	1.0
329.91112119999843	8.085474900003192	go_punish	0.3432852999976603	329.9369028999972	331.5049766999987	334.05016999999907	1.5680738000014571	330.94286720000036	333.0378954999983	337.09151229999816	0.5621094999983143	1.0122745000007853	0.9308655000022554	336.0865998999984	0.3483546999996179	335.067947	2	1	99	1	go_punish	1	0	-1	1	1	1	0	0.0	1.0	0	0.3432852999976603	0.3483546999996179	2177.8126694	2507.749572299997	2508.7555366	2509.3176460999985	2510.850564899998	2511.862839399999	2512.8806164	2513.899269299998	2514.904181699998	2515.8350472	2020-04-24 16:43:11.255652	1.27449792002702	-1.34281324869977	-2.58018327742896	-1.38329306051797	-1.30568535740194	-2.58018327742896	-1.27449792002702	-1.34281324869977	-2.58018327742896	-1.30568535740194	-2.58018327742896	1.34281324869977	-6.302142490843391	-5.204715904586325	-3.0234378952575516	-5.792523527969914	-8.493344136842559	-3.0234378952575516	0.43738351125006925	-8.909462261471752	-2.6073197706283615	-5.790153754553026	-2.438000045290851	4	correct	1.0
338.02642320000086	9.404818300001352	go_punish	1.0	338.05220489999965	340.51797169999963	343.05090059999975	2.465766799999983	339.05738339999925	342.0353191000004	346.10411330000034	1.4605883000003814	1.0155814999993709	1.3529099000006681	345.09051320000117	0.3903295999989495	344.06192850000025	2	1	100	1	go_punish	0	-1	0	1	0	0	0	0.0	1.0	0	1.0	0.3903295999989495	2177.8126694	2515.8648742999994	2516.870052799999	2518.3306410999994	2519.8479885	2520.8635699999995	2521.8745979	2522.903182600001	2523.9167827	2525.269692600001	2020-04-24 16:43:11.255652	-1.82633707616396	-0.946412525891172	-2.58018327742896	-0.976837271108964	-0.753846201265003	-2.58018327742896	1.82633707616396	-2.58018327742896	-0.946412525891172	-2.58018327742896	-0.753846201265003	2.58018327742896	-9.40297748703437	-4.808315181777727	-3.0234378952575516	-5.386067738560908	-7.941504980705622	-3.0234378952575516	1.6747535399792595	-10.183960181498772	-0.7809826944644046	-7.027523783282216	-0.8042292937530627	4	correct	1.0
347.48025920000146	8.892484600000898	go_reward	0.4207021000001987	347.50604090000024	350.04156690000036	352.5987386999991	2.535526000000118	348.5026288999984	351.5746010000007	355.6445308999978	1.5389380000019628	1.0241376999983913	0.7539946000033524	354.63061159999825	0.6017850999996881	353.6182993999978	2	1	101	3	go_reward	1	1	0	1	1	1	0	0.0	1.0	1	0.4207021000001987	0.6017850999996881	2177.8126694	2525.3187103	2526.315298299998	2527.8542363	2529.3872704000005	2530.411408099999	2531.4309687999976	2532.443280999998	2533.4572002999976	2534.211194900001	2020-04-24 16:43:11.255652	21.4715356821277	15.0464326525765	0.0	15.0464326525765	21.4715356821277	0.0	-21.4715356821277	15.0464326525765	0.0	21.4715356821277	0.0	6.802445415800198	13.89489527125729	11.184529996689946	-0.44325461782859144	10.637202185124558	14.283876902687084	-0.44325461782859144	5.897015678350497	13.867758778057889	-0.02713649319940158	10.599092146723244	0.1421832321381092	4	correct	1.0
356.4010010999991	8.920476000002964	nogo_reward	1.0	356.4267827999979	358.47102909999785	360.9944121000012	2.0442462999999407	357.4336688999979	359.97402209999973	364.02895580000086	1.0373601999999664	1.0203900000014983	1.3183030000000144	363.0225418999985	0.5827184000008856	362.0095024999978	2	1	102	4	nogo_reward	1	0	1	0	0	1	0	0.0	1.0	1	1.0	0.5827184000008856	2177.8126694	2534.2394521999977	2535.2463382999977	2536.2836984999976	2537.7866914999995	2538.807081500001	2539.8221718999976	2540.8352112999983	2541.8416252000006	2543.1599282000006	2020-04-24 16:43:11.255652	7.2388277454285	4.5415741719147	20.2185691367368	20.1550728277866	12.9797413913083	20.2185691367368	-7.2388277454285	20.2185691367368	4.5415741719147	20.2185691367368	12.9797413913083	1.6303089316398989	-0.3378126654419109	0.679671516028145	19.77531451890821	15.745842360334656	5.792082611867682	19.77531451890821	0.7248791941901982	12.614792232666987	12.952604898108898	15.771228630883543	4.683757404052809	4	correct	1.0
365.3494986000005	9.07085029999871	nogo_reward	1.0	365.3752802999993	367.8290290000009	370.35985409999967	2.453748700001597	366.3824499999978	369.3395724999973	373.38875110000026	1.446579000003112	1.0202816000023631	1.0573794999977508	372.38961999999856	0.4006969000001845	371.3764093	2	1	103	4	nogo_reward	0	1	0	0	0	1	0	0.0	1.0	0	1.0	0.4006969000001845	2177.8126694	2543.187949699999	2544.1951193999976	2545.6416984000007	2547.152241899997	2548.1725234999994	2549.1890786999998	2550.2022893999983	2551.2014205	2552.258799999998	2020-04-24 16:43:11.255652	7.47911699424711	4.5415741719147	20.627428658746	20.5908704343119	13.1483116644989	20.627428658746	-7.47911699424711	20.627428658746	4.5415741719147	20.627428658746	13.1483116644989	-20.627428658746	-0.097523416623301	0.679671516028145	20.184174040917405	16.181639966859954	5.960652885058281	20.184174040917405	-21.5328583961957	13.023651754676186	13.121175171299498	16.180088152892743	4.683757404052809	4	correct	1.0
374.4694058999994	9.009518300001218	go_reward	0.4195289999988745	374.4951875999982	376.97875129999784	379.52486120000003	2.4835636999996495	375.4970557999991	378.5029412000008	382.55791399999725	1.4816954999987502	1.021919999999227	0.9467919000021539	381.54498849999845	0.4255918000017118	380.5305961999984	2	1	104	3	go_reward	0	0	1	1	1	1	0	0.0	1.0	0	0.4195289999988745	0.4255918000017118	2177.8126694	2552.307856999998	2553.309725199999	2554.7914206999976	2556.3156106000006	2557.3375306	2558.343265599998	2559.3576578999982	2560.370583399997	2561.317375299999	2020-04-24 16:43:11.255652	24.3100572500777	17.0860013982684	0.0	17.0860013982684	24.3100572500777	0.0	-24.3100572500777	17.0860013982684	0.0	24.3100572500777	0.0	-17.0860013982684	16.73341683920729	13.224098742381846	-0.44325461782859144	12.676770930816456	17.122398470637084	-0.44325461782859144	-17.991431135718102	16.706280346007887	-0.02713649319940158	12.638660892415144	0.1421832321381092	4	correct	1.0
383.5230009000006	8.948091099999147	go_reward	0.4610599999978149	383.5487825999994	385.41009740000027	387.95149770000035	1.861314800000855	384.5530802000003	386.927642799998	391.00189090000003	0.857017199999973	1.023854900002334	1.4949827999985246	390.0006251999989	0.6037732000004326	388.9674846999992	2	1	105	3	go_reward	1	1	0	1	1	1	0	0.0	1.0	1	0.4610599999978149	0.6037732000004326	2177.8126694	2561.361451999999	2562.3657496	2563.2227668	2564.740312199998	2565.7641671	2566.780154099999	2567.8132945999987	2568.8145603	2570.3095430999983	2020-04-24 16:43:11.255652	17.2111409121477	11.9836321459129	0.0	11.9836321459129	17.2111409121477	0.0	-17.2111409121477	11.9836321459129	0.0	17.2111409121477	0.0	9.8652459224638	9.63450050127729	8.121729490026345	-0.44325461782859144	7.574401678460956	10.023482132707084	-0.44325461782859144	8.959816185014098	9.607364008077889	-0.02713649319940158	7.536291640059643	0.1421832321381092	4	correct	1.0
392.50076360000094	8.030915799998184	go_punish	0.4797474000006332	392.5265452999997	393.96053150000125	396.5164841999981	1.4339862000015273	393.53227860000015	395.493544999998	399.5480833000006	0.42825290000109817	1.0229392000001098	1.00937779999731	398.540375699999	0.3973522999986016	397.52783290000025	2	1	106	1	go_punish	0	-1	0	1	1	1	0	0.0	1.0	-1	0.4797474000006332	0.3973522999986016	2177.8126694	2570.3392146999995	2571.344948	2571.773200900001	2573.3062143999978	2574.329153599998	2575.3405023	2576.353045099999	2577.3607527000004	2578.3701304999977	2020-04-24 16:43:11.255652	1.14430913215152	-0.946412525891172	-1.79065575868599	-0.695539076322558	-0.646346626534467	-1.79065575868599	-1.14430913215152	-0.946412525891172	-1.79065575868599	-0.646346626534467	-1.79065575868599	-4.237488132836348	-6.432331278718891	-4.808315181777727	-2.233910376514581	-5.104769543774502	-7.834005405975086	-2.233910376514581	-5.142917870286048	-8.250123530604279	-1.8177922518853915	-5.393753031744429	-1.6484725265478808	4	correct	1.0
400.56174330000067	9.794871300000977	go_punish	0.4056166999980632	400.58752499999946	403.4194704000006	405.9690732999993	2.831945400001132	401.59263809999993	404.9454747999994	409.025261700001	1.8268323000006603	1.0235984999999346	1.3571345999994264	408.0164846999983	0.7330285000025469	406.98325760000125	2	1	107	1	go_punish	0	-1	0	1	1	1	0	0.0	1.0	-1	0.4056166999980632	0.7330285000025469	2177.8126694	2578.4001943999992	2579.4053074999997	2581.2321398000004	2582.758144199999	2583.781742699999	2584.795927000001	2585.829154099998	2586.837931100001	2588.1950657	2020-04-24 16:43:11.255652	-0.615552106776119	-2.19786985435068	-1.79065575868599	-2.02451924180681	-2.40620786546211	-1.79065575868599	0.615552106776119	-2.19786985435068	-1.79065575868599	-2.40620786546211	-1.79065575868599	-2.98603080437684	-8.19219251764653	-6.059772510237234	-2.233910376514581	-6.433749709258754	-9.593866644902729	-2.233910376514581	-3.891460541826541	-10.009984769531922	-1.8177922518853915	-6.6452103602039365	-1.6484725265478808	4	correct	1.0
410.40497790000154	8.56282629999987	go_reward	0.3285226999978476	410.43075960000033	412.64960969999856	415.20699459999787	2.2188500999982352	411.433265199998	414.183744399998	418.2402928999986	1.2163445000005595	1.023250199999893	0.7532930000015767	417.2341342000004	0.4613757999977679	416.2208277	2	1	108	3	go_reward	1	1	0	1	1	1	0	0.0	1.0	1	0.3285226999978476	0.4613757999977679	2177.8126694	2588.243429	2589.245934599998	2590.4622790999983	2591.9964137999978	2593.0196639999976	2594.0334970999997	2595.0468036	2596.0529622999984	2596.8062553	2020-04-24 16:43:11.255652	21.3800101289909	14.9797825464214	0.0	14.9797825464214	21.3800101289909	0.0	-21.3800101289909	14.9797825464214	0.0	21.3800101289909	0.0	6.869095521955298	13.80336971812049	11.117879890534846	-0.44325461782859144	10.570552078969456	14.192351349550282	-0.44325461782859144	5.963665784505597	13.776233224921087	-0.02713649319940158	10.532442040568144	0.1421832321381092	4	correct	1.0
419.0119513999998	8.97911910000039	go_reward	0.4271860000008018	419.0377330999986	420.9480348000002	423.4893151000001	1.9103017000015825	420.0442225999982	422.47126790000084	426.5392590999986	0.9038122000019939	1.0180471999992733	1.4775931000003766	425.52604499999916	0.484616099998675	424.49664619999794	2	1	109	3	go_reward	1	1	0	1	1	1	0	0.0	1.0	1	0.4271860000008018	0.484616099998675	2177.8126694	2596.8504024999984	2597.856891999998	2598.7607042	2600.2839373000006	2601.3019845	2602.3093155999977	2603.338714399999	2604.3519284999984	2605.8295215999988	2020-04-24 16:43:11.255652	24.2233321730665	17.0228478525264	0.0	17.0228478525264	24.2233321730665	0.0	-24.2233321730665	17.0228478525264	0.0	24.2233321730665	0.0	4.826030215850299	16.646691762196088	13.160945196639846	-0.44325461782859144	12.613617385074456	17.03567339362588	-0.44325461782859144	3.920600478400598	16.619555268996685	-0.02713649319940158	12.575507346673144	0.1421832321381092	4	correct	1.0
428.02136000000246	8.428771599999891	go_punish	1.0	428.04714170000125	429.3886190999988	431.92127839999785	1.3414773999975296	429.04662069999995	430.9073719000012	434.986425399999	0.341998399998829	1.013906499996665	1.489487900002132	433.976659299999	0.4160922999981267	432.9391772999993	2	1	110	1	go_punish	0	-1	0	1	0	0	0	1.0	0.0	0	1.0	0.4160922999981267	2177.8126694	2605.859811100001	2606.8592900999997	2607.2012884999986	2608.720041300001	2609.7339477999976	2610.751846699999	2611.789328699999	2612.799094799999	2614.288582700001	2020-04-24 16:43:11.255652	1.83001122802346	-3.0618361176405	-1.79065575868599	-2.9411654800258	-3.62066698670945	-1.79065575868599	-1.83001122802346	-1.79065575868599	-3.0618361176405	-1.79065575868599	-3.62066698670945	1.79065575868599	-5.7466291828469505	-6.923738773527055	-2.233910376514581	-7.350395947477743	-10.80832576615007	-2.233910376514581	0.8852260212362892	-9.394432662755802	-3.6478034799088515	-6.237996264539246	-2.9196528855023907	4	wrong	1.0
436.49689410000065	8.502354799999011	go_reward	0.4260055000013381	436.52267579999943	438.2021544999993	440.7501091999984	1.6794786999998905	437.5147264000011	439.7291822000011	443.79441540000016	0.6874280999982147	1.0209269999973003	1.230615199998283	442.78088949999847	0.4844601000004331	441.75183170000037	2	1	111	3	go_reward	1	1	0	1	1	1	1	1.0	1.0	1	0.4260055000013381	0.4844601000004331	2177.8126694	2614.335345199999	2615.327395800001	2616.014823899999	2617.541851600001	2618.562778599998	2619.5645011	2620.5935588999982	2621.6070848	2622.837699999998	2020-04-24 16:43:11.255652	26.1801834137055	18.428954917968	0.0	18.428954917968	26.1801834137055	0.0	-26.1801834137055	18.428954917968	0.0	26.1801834137055	0.0	3.4199231504086995	18.60354300283509	14.567052262081445	-0.44325461782859144	14.019724450516055	18.992524634264882	-0.44325461782859144	2.514493412958999	18.57640650963569	-0.02713649319940158	13.981614412114743	0.1421832321381092	4	correct	1.0
445.04418780000196	9.57293109999955	go_reward	0.3626788000001397	445.06996950000075	447.8395901000008	450.404721899999	2.769620600000053	446.07622970000057	449.3815847999981	453.4460757999991	1.7633604000002379	1.0231371000008949	1.1968248000011954	452.4324863999973	0.4147976999993261	451.41937019999796	2	1	112	3	go_reward	1	1	0	1	1	1	0	0.0	1.0	1	0.3626788000001397	0.4147976999993261	2177.8126694	2622.8826389000005	2623.8888991000003	2625.6522595000006	2627.194254199998	2628.217391299999	2629.2320395999977	2630.245155799997	2631.258745199999	2632.45557	2020-04-24 16:43:11.255652	27.5383732676016	19.405072732028	0.0	19.405072732028	27.5383732676016	0.0	-27.5383732676016	19.405072732028	0.0	27.5383732676016	0.0	2.4438053363486993	19.96173285673119	15.543170076141445	-0.44325461782859144	14.995842264576055	20.350714488160982	-0.44325461782859144	1.5383755988989987	19.93459636353179	-0.02713649319940158	14.957732226174743	0.1421832321381092	4	correct	1.0
454.6475197	9.105033300002106	go_punish	1.0	454.67330139999876	457.2376932000011	459.77302889999964	2.5643918000023405	455.6782962000002	458.7548964999992	462.81564370000024	1.5593970000008994	1.018132400000468	0.9626910000006319	461.80934989999923	0.8280154000021867	460.787272099999	2	1	113	1	go_punish	1	0	-1	1	0	0	0	0.0	1.0	-1	1.0	0.8280154000021867	2177.8126694	2632.4859707999985	2633.4909656	2635.050362600001	2636.567565899999	2637.5856982999994	2638.5999414999987	2639.622019299999	2640.6283131	2641.5910041000006	2020-04-24 16:43:11.255652	2.02764059663783	-3.0618361176405	-1.25329458105754	-2.05363491728223	-3.28093517769537	-1.25329458105754	-2.02764059663783	-1.25329458105754	-3.0618361176405	-1.25329458105754	-3.28093517769537	-3.93060607766998	-5.54899981423258	-6.923738773527055	-1.6965491988861314	-6.462865384734174	-10.468593957135989	-1.6965491988861314	-4.836035815119681	-8.857071485127353	-3.3080716708947713	-5.700635086910797	-2.9196528855023907	4	correct	1.0
463.8003377000023	9.206948499999271	go_reward	0.3167914999976347	463.82611940000106	466.24419700000044	468.78467800000044	2.4180775999993784	464.82428689999915	467.76129809999884	471.81072710000126	1.4199101000012888	1.0233799000016006	1.222340799999074	470.80340430000115	1.0	469.79342659999793	2	1	114	3	go_reward	1	1	0	1	1	1	1	n/a	0.0	0	0.3167914999976347	1.0	2177.8126694	2641.638788800001	2642.636956299999	2644.0568664	2645.5739674999986	2646.5973474	2647.6060959999977	2648.616073700001	2649.623396500001	2650.8457373	2020-04-24 16:43:11.255652	28.488617590713	20.0882392409863	0.0	20.0882392409863	28.488617590713	0.0	-28.488617590713	20.0882392409863	0.0	28.488617590713	0.0	1.7606388273903981	20.91197717984259	16.226336585099745	-0.44325461782859144	15.679008773534356	21.300958811272384	-0.44325461782859144	0.8552090899406974	20.884840686643187	-0.02713649319940158	15.640898735133044	0.1421832321381092	4	missed	0.0
473.03634140000213	9.196278799998254	nogo_reward	1.0	473.0621231000009	475.4701562999985	478.00911659999883	2.4080331999975897	474.06306860000086	476.9856822999973	481.0516622	1.4070876999976463	1.0234343000015542	1.2067396999991615	480.0480165999984	0.6141967000003206	479.0229958999994	2	1	115	4	nogo_reward	1	0	1	0	0	1	0	0.0	1.0	1	1.0	0.6141967000003206	2177.8126694	2650.8747925000007	2651.8757380000006	2653.2828256999983	2654.798351699997	2655.8217859999986	2656.835665299999	2657.860685999998	2658.8643316	2660.071071299999	2020-04-24 16:43:11.255652	3.69981174757422	4.5415741719147	14.4252250838842	14.4054495742476	10.7254133363099	14.4252250838842	-3.69981174757422	14.4252250838842	4.5415741719147	14.4252250838842	10.7254133363099	7.423652984492499	-3.876828663296191	0.679671516028145	13.981970466055609	9.996219106795657	3.537754556869282	13.981970466055609	6.518223247042798	6.821448179814388	10.698276843110499	9.977884578030944	4.683757404052809	4	correct	1.0
482.26564169999983	8.975962799999252	go_punish	0.607937500000844	482.2914233999986	484.2881409000006	486.8273119999981	1.996717500001978	483.2874209000006	485.8127295999989	489.867931199999	1.0007200000000012	1.014582399999199	1.3994549999988521	488.86691219999966	0.5349109999988286	487.84532629999785	2	1	116	1	go_punish	1	0	-1	1	1	1	0	0.0	1.0	0	0.607937500000844	0.5349109999988286	2177.8126694	2660.1040927999984	2661.1000903000004	2662.1008103000004	2663.6253989999987	2664.639981399998	2665.6579956999976	2666.6795815999994	2667.680600599999	2669.0800555999976	2020-04-24 16:43:11.255652	-1.2222252393796	-3.0618361176405	-2.4095660834583	-2.97160499987663	-3.63179132283791	-2.4095660834583	1.2222252393796	-3.0618361176405	-2.4095660834583	-3.63179132283791	-2.4095660834583	3.0618361176405	-8.798865650250011	-6.923738773527055	-2.8528207012868916	-7.380835467328573	-10.819450102278529	-2.8528207012868916	2.1564063801907993	-11.235568226907723	-2.4367025766577015	-7.509176623493756	-2.267382851320191	4	correct	1.0
491.2701779000017	8.064419799997268	nogo_reward	1.0	491.2959596000005	492.58183880000115	495.1114653000009	1.285879200000636	492.3025776000004	494.0991704000012	498.1714113999992	0.2792612000007466	1.012294899999688	1.1889679999985674	497.1580449000003	0.470781199997873	496.12925139999834	2	1	117	4	nogo_reward	0	1	0	0	0	1	1	1.0	1.0	0	1.0	0.470781199997873	2177.8126694	2669.1086290000003	2670.115247	2670.394508200001	2671.911839800001	2672.9241347000006	2673.941920799998	2674.9707143	2675.984080799999	2677.1730487999976	2020-04-24 16:43:11.255652	5.06610073153277	4.5415741719147	16.6736697436228	16.6642424649991	11.60756901209	16.6736697436228	-5.06610073153277	16.6736697436228	4.5415741719147	16.6736697436228	11.60756901209	-16.6736697436228	-2.510539679337641	0.679671516028145	16.23041512579421	12.255011997547154	4.419910232649381	16.23041512579421	-17.5790994810725	9.069892839552987	11.580432518890598	12.226329237769543	4.683757404052809	4	correct	1.0
499.3630296000015	8.421152499998698	nogo_reward	1.0	499.38881130000027	500.95305989999997	503.48747870000125	1.5642485999997007	500.3967940999978	502.47039389999964	506.53252739999925	0.5562658000021656	1.0170848000016122	1.277436399999715	505.5193259999983	0.424055399998906	504.49614880000127	2	1	118	4	nogo_reward	1	0	1	0	0	1	0	0.0	1.0	1	1.0	0.424055399998906	2177.8126694	2677.2014807	2678.2094634999976	2678.7657292999997	2680.2830632999994	2681.300148100001	2682.308818200001	2683.331995399998	2684.345196799999	2685.6226331999987	2020-04-24 16:43:11.255652	2.03971469524562	4.5415741719147	11.7035431495094	11.7003897216505	9.6638284542638	11.7035431495094	-2.03971469524562	11.7035431495094	4.5415741719147	11.7035431495094	9.6638284542638	10.145334918867299	-5.536925715624791	0.679671516028145	11.260288531680809	7.291159254198557	2.476169674823182	11.260288531680809	9.239905181417598	4.099766245439588	9.636691961064399	7.2562026436561435	4.683757404052809	4	correct	1.0
507.8148645000001	8.121556900001451	go_punish	0.5011534000004758	507.8406461999989	509.3130051000012	511.87310030000026	1.4723589000022912	508.84528940000064	510.85314210000115	514.9347556000002	0.4677157000005536	1.0199581999991096	1.0274475000001075	513.9185543999997	0.423390300002211	512.8887407000007	2	1	119	1	go_punish	1	0	-1	1	1	1	0	0.0	1.0	0	0.5011534000004758	0.423390300002211	2177.8126694	2685.6533155999987	2686.6579588000004	2687.125674500001	2688.665811500001	2689.6857697	2690.7014101000004	2691.7312237999995	2692.747425	2693.7748725	2020-04-24 16:43:11.255652	0.042071785659295	-2.13821254253099	-2.4095660834583	-2.08165199538146	-2.36749429779901	-2.4095660834583	-0.042071785659295	-2.13821254253099	-2.4095660834583	-2.36749429779901	-2.4095660834583	2.13821254253099	-7.534568625211116	-6.000115198417545	-2.8528207012868916	-6.490882462833404	-9.555153077239629	-2.8528207012868916	1.2327828050812895	-9.971271201868824	-2.4367025766577015	-6.585553048384247	-2.267382851320191	4	correct	1.0
515.9818909999995	8.462921600003028	nogo_punish	1.0	516.0076726999982	517.666924900001	520.203685099998	1.6592522000028112	517.0135421999989	519.1819258	523.2561967999973	0.653382700002112	1.0217592999979388	1.2143975000039973	522.2440021999978	0.4444640000001527	521.2296943000006	2	1	120	2	nogo_punish	1	-1	0	0	0	1	0	0.0	1.0	0	1.0	0.4444640000001527	2177.8126694	2693.820342099998	2694.8262115999987	2695.479594300001	2696.9945952	2698.0163544999978	2699.0423637000004	2700.0566715999976	2701.068866199997	2702.283263700001	2020-04-24 16:43:11.255652	-0.876446645950644	-0.73581772153604	-1.69382277809843	-1.69271832467615	-0.817376132147783	-1.69382277809843	0.876446645950644	-1.69382277809843	-0.73581772153604	-1.69382277809843	-0.817376132147783	1.69382277809843	-8.453087056821055	-4.597720377422595	-2.1370773959270215	-6.101948792128094	-8.005034911588401	-2.1370773959270215	0.7883930406487294	-9.297599682168244	-0.8445126253471846	-6.141163283951687	-0.5936344893979307	4	correct	1.0
