onset	duration	trial_type	response_time	cueOnset	targetOnset	fbOnset	cueRT	firstfixOnset	secondfixOnset	waitOnset	firstfixdur	secondfixdur	waitdur	nback_fbOnset	nback_response_time	nback_targetOnset	block	wm	trial	cue	cond	is_common	outcome_go	outcome_nogo	key_correct	key_pressed	is_correct	key_correct_nback	key_pressed_nback	is_correct_nback	outcome	rt	rt_nback	time_scan	time_onset	time_isi1	time_circle	time_isi2	time_feedback	time_same	time_correct	time_iti	time_done	timestamp_scan	DV	Qgo	Qnogo	SV	Wgo	Wnogo	mDV	Qchosen	Qunchosen	Wchosen	Wunchosen	PE	DVC	QgoC	QnogoC	SVC	WgoC	WnogoC	PEC	WchosenC	WunchosenC	QchosenC	QunchosenC	run	outcome_nback	nback_targetResp
0.0	5.94824460000018	nogo_reward	0.2951979999998002	0.02152829999977257	1.4479993999993894	3.9951715000006516	1.4264710999996169	1.027231699999902	2.9800064000010025	5.008127700000841	0.4207676999994874	1.015165099999649	0.9616451999991114	n/a	1.0	n/a	1	0	61	4	nogo_reward	1	0	1	0	1	0	0	n/a	n/a	0	0.2951979999998002	1.0	1105.917821699999	1105.9393499999987	1106.9450533999989	1107.3658210999984	1108.8978281	1109.9129931999996	n/a	n/a	1110.9259493999998	1111.887594599999	2020-04-24 16:25:19.355601	3.62541407589101	3.02065785171243	3.44311483641515	3.53780826220092	7.06852891230617	3.44311483641515	-3.62541407589101	3.02065785171243	3.44311483641515	7.06852891230617	3.44311483641515	-3.02065785171243	-3.951226334979401	-0.8412448041741252	2.9998602185865586	-0.8714222052510237	-0.11912986713444873	2.9998602185865586	-3.9260875891621305	-0.5352479917636428	3.4159783432157487	-1.4266826541408268	3.5852980685532594	2	missed	0.0
5.991900000000896	7.793090699999084	go_reward	0.2904314999996131	6.013428300000669	8.78274749999946	11.331755799999883	2.7693191999987903	7.020334099999673	10.308166700000584	12.339469300000928	1.7624133999997866	1.023589099999299	1.4670496999988245	n/a	1.0	n/a	1	0	62	3	go_reward	1	1	0	1	1	1	0	n/a	n/a	1	0.2904314999996131	1.0	1105.917821699999	1111.9312499999996	1112.9381557999986	1114.7005691999984	1116.2259883999996	1117.2495774999988	n/a	n/a	1118.257291	1119.7243406999987	2020-04-24 16:25:19.355601	30.8946542402476	15.2522348230992	0.0	15.2522348230992	30.8946542402476	0.0	-30.8946542402476	15.2522348230992	0.0	30.8946542402476	0.0	6.596643245277498	23.31801382937719	11.390332167212646	-0.44325461782859144	10.843004355647256	23.706995460806983	-0.44325461782859144	5.691213507827797	23.290877336177786	-0.02713649319940158	10.804894317245944	0.1421832321381092	2	missed	0.0
13.824317700000393	7.045498499999667	nogo_reward	0.2765951000001223	13.845846000000165	16.4215791000006	18.970074000000523	2.575733100000434	14.850764500000878	17.953671999999642	19.980591900000945	1.5708145999997214	1.0164020000008804	0.9107525999988866	n/a	1.0	n/a	1	0	63	4	nogo_reward	0	1	0	0	1	0	1	n/a	n/a	1	0.2765951000001223	1.0	1105.917821699999	1119.7636676999991	1120.7685861999998	1122.3394007999996	1123.8714936999986	1124.8878956999995	n/a	n/a	1125.8984136	1126.8091661999988	2020-04-24 16:25:19.355601	2.58828018636816	2.53986030332566	3.44311483641515	2.97928593651044	6.03139502278331	3.44311483641515	-2.58828018636816	2.53986030332566	3.44311483641515	6.03139502278331	3.44311483641515	19.30901776505104	-4.988360224502251	-1.3220423525608949	2.9998602185865586	-1.429944530941504	-1.1562637566573084	2.9998602185865586	18.403588027601337	-1.5723818812865025	3.4159783432157487	-1.9074802025275965	3.5852980685532594	2	missed	0.0
20.907077200001368	6.792604799999026	nogo_reward	0.3379413000002387	20.92860550000114	23.362379500000316	25.903070000000298	2.4337739999991754	21.94230509999943	24.88800100000094	26.915430299999343	1.4200744000008854	1.0150689999993574	0.8057800000008228	n/a	1.0	n/a	1	0	64	4	nogo_reward	1	0	1	0	1	0	0	n/a	n/a	0	0.3379413000002387	1.0	1105.917821699999	1126.8464272	1127.8601267999984	1129.2802011999993	1130.8058227	1131.8208916999993	n/a	n/a	1132.8332519999983	1133.6390319999991	2020-04-24 16:25:19.355601	8.59673217296434	5.58219301479018	3.44311483641515	5.95613622708755	12.0398470093795	3.44311483641515	-8.59673217296434	5.58219301479018	3.44311483641515	12.0398470093795	3.44311483641515	-5.58219301479018	1.0200917620939283	1.720290358903625	2.9998602185865586	1.5469057596356066	4.852188229938881	2.9998602185865586	-6.487622752239881	4.436070105309687	3.4159783432157487	1.1348525089369232	3.5852980685532594	2	missed	0.0
27.7357592999997	6.231302500000311	go_punish	1.0	27.757287599999472	29.431812900000295	31.97055420000106	1.6745253000008233	28.766753199999584	30.94740380000053	32.979480600001125	0.665059700000711	1.0231504000005316	1.009109499998658	n/a	1.0	n/a	1	0	65	1	go_punish	1	0	-1	1	0	0	0	n/a	n/a	-1	1.0	1.0	1105.917821699999	1133.6751092999984	1134.6845748999986	1135.3496345999993	1136.8652254999995	1137.8883759	n/a	n/a	1138.8973023	1139.9064117999988	2020-04-24 16:25:19.355601	0.464034544557323	-1.59016282357993	-3.80922341640214	-3.41341137573972	-4.27325796095947	-3.80922341640214	-0.464034544557323	-3.80922341640214	-1.59016282357993	-3.80922341640214	-4.27325796095947	-1.37467724232538	-7.112605866313088	-5.452065479466485	-4.252478034230732	-7.822641843191664	-11.460916740400089	-4.252478034230732	-2.2801069797750806	-11.413000320471953	-4.300394454158872	-8.256563922255397	-1.447979591441821	2	missed	0.0
34.00318940000034	6.430906600000526	go_punish	1.0	34.02471770000011	35.95304880000003	38.487122000000454	1.928331099999923	35.03298990000053	37.46984809999935	39.49303940000027	0.9200588999995034	1.0172739000011006	0.9625849000003655	n/a	1.0	n/a	1	0	66	1	go_punish	1	0	-1	1	0	0	0	n/a	n/a	-1	1.0	1.0	1105.917821699999	1139.942539399999	1140.9508115999995	1141.870870499999	1143.3876697999983	1144.4049436999994	n/a	n/a	1145.4108610999992	1146.3734459999996	2020-04-24 16:25:19.355601	0.524634582929248	-1.59016282357993	-4.01087698351308	-3.68762634338112	-4.53551156644233	-4.01087698351308	-0.524634582929248	-4.01087698351308	-1.59016282357993	-4.01087698351308	-4.53551156644233	-1.1730236752144396	-7.052005827941163	-5.452065479466485	-4.454131601341672	-8.096856810833064	-11.723170345882949	-4.454131601341672	-2.0784534126641403	-11.614653887582893	-4.562648059641732	-8.458217489366337	-1.447979591441821	2	missed	0.0
40.471075600000404	5.9739644000001135	nogo_punish	1.0	40.49260390000018	42.06181540000034	44.59114310000041	1.569211500000165	41.50773599999934	43.571393199999875	45.597923499999524	0.554079400001001	1.0197499000005337	0.8686448000007658	n/a	1.0	n/a	1	0	67	2	nogo_punish	1	-1	0	0	0	1	0	n/a	n/a	0	1.0	1.0	1105.917821699999	1146.4104255999991	1147.4255576999983	1147.9796370999993	1149.4892148999988	1150.5089647999994	n/a	n/a	1151.5157451999985	1152.3843899999993	2020-04-24 16:25:19.355601	2.29929272436593	-2.07163351494992	-1.21899081972517	-2.10459649652731	-3.5182835440911	-1.21899081972517	-2.29929272436593	-1.21899081972517	-2.07163351494992	-1.21899081972517	-3.5182835440911	1.21899081972517	-5.277347686504481	-5.933536170836475	-1.6622454375537614	-6.513826963979254	-10.705942323531719	-1.6622454375537614	0.3135610822754693	-8.822767723794982	-3.5454200372905014	-5.666331325578427	-1.9294502828118107	2	missed	0.0
46.482866500000455	6.641129800000499	nogo_punish	1.0	46.50439480000023	48.35920660000011	50.889073700000154	1.8548117999998794	47.517476900000474	49.86929400000008	51.90256109999973	0.8417296999996324	1.019779700000072	1.2429635000009966	n/a	1.0	n/a	1	0	68	2	nogo_punish	1	-1	0	0	0	1	0	n/a	n/a	0	1.0	1.0	1105.917821699999	1152.4222164999992	1153.4352985999994	1154.277028299999	1155.787115699999	1156.8068953999991	n/a	n/a	1157.8203827999987	1159.0633462999997	2020-04-24 16:25:19.355601	2.16932793485161	-2.07163351494992	-1.01946590892152	-1.7633964026614	-3.18879384377312	-1.01946590892152	-2.16932793485161	-1.01946590892152	-2.07163351494992	-1.01946590892152	-3.18879384377312	1.01946590892152	-5.4073124760188005	-5.933536170836475	-1.4627205267501113	-6.172626870113344	-10.376452623213739	-1.4627205267501113	0.11403617147181921	-8.623242812991332	-3.215930336972521	-5.466806414774776	-1.9294502828118107	2	missed	0.0
53.16518310000015	5.712223700000095	go_reward	0.4789277999989281	53.18671139999992	54.57938819999981	57.13092739999934	1.3926767999998901	54.19635879999987	56.110481300000174	58.13984150000033	0.38302939999994123	1.0204460999991625	0.7590935999996873	n/a	1.0	n/a	1	0	69	3	go_reward	1	1	0	1	1	1	0	n/a	n/a	1	0.4789277999989281	1.0	1105.917821699999	1159.104533099999	1160.1141804999988	1160.4972098999988	1162.0283029999991	1163.0487490999983	n/a	n/a	1164.0576631999993	1164.816756799999	2020-04-24 16:25:19.355601	32.8778116429782	16.2502845309002	0.0	16.2502845309002	32.8778116429782	0.0	-32.8778116429782	16.2502845309002	0.0	32.8778116429782	0.0	5.5985935374765	25.30117123210779	12.388381875013645	-0.44325461782859144	11.841054063448254	25.690152863537584	-0.44325461782859144	4.693163800026799	25.27403473890839	-0.02713649319940158	11.802944025046942	0.1421832321381092	2	missed	0.0
58.92275400000108	6.367265699998825	go_reward	0.2902612999987468	58.94428230000085	60.51494839999941	63.06464749999941	1.5706660999985615	59.953730900000664	62.040248400000564	64.07330469999943	0.5612174999987474	1.0243990999988455	1.2382433000002493	n/a	1.0	n/a	1	0	70	3	go_reward	1	1	0	1	1	1	0	n/a	n/a	1	0.2902612999987468	1.0	1105.917821699999	1164.8621039999998	1165.8715525999996	1166.4327700999984	1167.9580700999995	1168.9824691999984	n/a	n/a	1169.9911263999984	1171.2293696999986	2020-04-24 16:25:19.355601	34.5433014233805	17.0893781503692	0.0	17.0893781503692	34.5433014233805	0.0	-34.5433014233805	17.0893781503692	0.0	34.5433014233805	0.0	4.759499918007499	26.966661012510087	13.227475494482645	-0.44325461782859144	12.680147682917255	27.35564264393988	-0.44325461782859144	3.8540701805577986	26.939524519310687	-0.02713649319940158	12.642037644515943	0.1421832321381092	2	missed	0.0
65.32707830000095	6.740334899999425	go_punish	1.0	65.34860660000072	67.40971650000029	69.9458336000007	2.0611098999995647	66.36469179999949	68.92305260000103	70.95442410000032	1.0450247000007948	1.022780999999668	1.1345173999998224	n/a	1.0	n/a	1	0	71	1	go_punish	1	0	-1	1	0	0	0	n/a	n/a	-1	1.0	1.0	1105.917821699999	1171.2664282999997	1172.2825134999985	1173.3275381999993	1174.8408743	1175.8636552999997	n/a	n/a	1176.8722457999993	1178.006763199999	2020-04-24 16:25:19.355601	0.573099190356357	-1.59016282357993	-4.18139899183949	-3.91711958227764	-4.75449818219584	-4.18139899183949	-0.573099190356357	-4.18139899183949	-1.59016282357993	-4.18139899183949	-4.75449818219584	-1.0025016668880298	-7.0035412205140535	-5.452065479466485	-4.624653609668082	-8.326350049729584	-11.942156961636458	-4.624653609668082	-1.9079314043377305	-11.785175895909303	-4.7816346753952415	-8.628739497692747	-1.447979591441821	2	missed	0.0
72.10501260000092	5.869084099998645	nogo_punish	1.0	72.12654090000069	73.69505680000111	76.21534910000082	1.5685159000004205	73.13255609999942	75.19871899999998	77.22061500000018	0.5625007000016922	1.0166301000008389	0.7750099999991562	n/a	1.0	n/a	1	0	72	2	nogo_punish	1	-1	0	0	0	1	0	n/a	n/a	0	1.0	1.0	1105.917821699999	1178.0443625999997	1179.0503777999984	1179.6128785	1181.116540699999	1182.1331707999998	n/a	n/a	1183.1384366999991	1183.9134466999983	2020-04-24 16:25:19.355601	2.06168701939488	-2.07163351494992	-0.854061002443386	-1.48004660895339	-2.91574802183827	-0.854061002443386	-2.06168701939488	-0.854061002443386	-2.07163351494992	-0.854061002443386	-2.91574802183827	0.854061002443386	-5.514953391475531	-5.933536170836475	-1.2973156202719776	-5.8892770764053335	-10.103406801278888	-1.2973156202719776	-0.05136873500631467	-8.457837906513198	-2.9428845150376715	-5.301401508296642	-1.9294502828118107	2	missed	0.0
78.0147534000007	7.312888299999031	go_punish	0.2538643000007141	78.03628170000047	80.80420539999977	83.36434960000042	2.767923699999301	79.0457150000002	82.34475030000067	84.37815650000084	1.7584903999995731	1.0195992999997543	0.9710134999986622	n/a	1.0	n/a	1	0	73	1	go_punish	1	0	-1	1	1	1	1	n/a	n/a	0	0.2538643000007141	1.0	1105.917821699999	1183.9541033999994	1184.9635366999992	1186.7220270999987	1188.2625719999996	1189.2821712999994	n/a	n/a	1190.2959781999998	1191.2669916999985	2020-04-24 16:25:19.355601	-0.611864406524013	-1.59016282357993	-4.32582314045067	-4.10953007514569	-4.93768754697468	-4.32582314045067	0.611864406524013	-1.59016282357993	-4.32582314045067	-4.93768754697468	-4.32582314045067	1.59016282357993	-8.188504817394424	-5.452065479466485	-4.769077758279262	-8.518760542597633	-12.125346326415299	-4.769077758279262	0.6847330861302294	-12.541464451044494	-4.352959633650072	-6.037503329433187	-4.1836399083125615	2	missed	0.0
85.36429370000042	6.334310300000652	go_punish	0.3905102999997325	85.38582200000019	86.67857130000084	89.2239425000007	1.2927493000006507	86.39807550000114	88.20424409999941	90.23076840000067	0.28049579999969865	1.019698400001289	1.4893639000001713	n/a	1.0	n/a	1	0	74	1	go_punish	1	0	-1	1	1	1	0	n/a	n/a	0	0.3905102999997325	1.0	1105.917821699999	1191.3036436999992	1192.3158972	1192.5963929999998	1194.1220657999984	1195.1417641999997	n/a	n/a	1196.1485900999996	1197.6379539999998	2020-04-24 16:25:19.355601	0.278284897568496	-1.33191704768537	-4.32582314045067	-3.45294128112587	-4.04753824288217	-4.32582314045067	-0.278284897568496	-1.33191704768537	-4.32582314045067	-4.04753824288217	-4.32582314045067	1.33191704768537	-7.298355513301915	-5.193819703571925	-4.769077758279262	-7.862171748577814	-11.235197022322788	-4.769077758279262	0.4264873102356692	-11.651315146951983	-4.352959633650072	-5.779257553538627	-4.1836399083125615	2	missed	0.0
91.73493969999981	6.26331850000156	nogo_reward	0.3012147999997978	91.75646799999959	93.12410020000061	95.6577913000001	1.367632200001026	92.76582120000057	94.63285949999954	96.66668120000031	0.35827900000003865	1.0249318000005587	1.3531053000008342	n/a	1.0	n/a	1	0	75	4	nogo_reward	0	1	0	0	1	0	0	n/a	n/a	1	0.3012147999997978	1.0	1105.917821699999	1197.6742896999986	1198.6836428999995	1199.0419218999996	1200.5506811999985	1201.575612999999	n/a	n/a	1202.5845028999993	1203.9376082	2020-04-24 16:25:19.355601	6.73376495490191	4.67872866672569	3.44311483641515	4.99741954735323	10.1768797913171	3.44311483641515	-6.73376495490191	4.67872866672569	3.44311483641515	10.1768797913171	3.44311483641515	17.17014940165101	-0.8428754559685006	0.8168260108391352	2.9998602185865586	0.5881890799012863	2.9892210118764817	2.9998602185865586	16.26471966420131	2.5731028872472876	3.4159783432157487	0.23138816087243352	3.5852980685532594	2	missed	0.0
98.03380630000015	7.1181752000009055	nogo_reward	0.3025668999998743	98.05533459999992	100.28254770000058	102.81940849999933	2.227213100000654	99.07075579999946	101.79903790000026	103.82581709999977	1.211791900001117	1.0203705999990689	1.347692700001062	n/a	1.0	n/a	1	0	76	4	nogo_reward	1	0	1	0	1	0	0	n/a	n/a	0	0.3025668999998743	1.0	1105.917821699999	1203.973156299999	1204.9885774999984	1206.2003693999995	1207.7168595999992	1208.7372301999983	n/a	n/a	1209.7436387999987	1211.0913314999998	2020-04-24 16:25:19.355601	12.0595550719782	7.37121163932125	3.44311483641515	7.64321188664777	15.5026699083933	3.44311483641515	-12.0595550719782	7.37121163932125	3.44311483641515	15.5026699083933	3.44311483641515	-7.37121163932125	4.48291466110779	3.509308983434695	2.9998602185865586	3.2339814191958265	8.31501112895268	2.9998602185865586	-8.27664137677095	7.898893004323487	3.4159783432157487	2.923871133467993	3.5852980685532594	2	missed	0.0
105.18983950000097	6.754334199998766	nogo_reward	0.2850851999992301	105.21136780000074	107.17922420000104	109.71533260000069	1.9678564000003007	106.21210280000014	108.69576740000048	110.7224098000006	0.9671214000009059	1.0195652000002156	1.2432921999989048	n/a	1.0	n/a	1	0	77	4	nogo_reward	1	0	1	0	1	0	1	n/a	n/a	0	0.2850851999992301	1.0	1105.917821699999	1211.1291894999997	1212.129924499999	1213.0970459	1214.6135890999994	1215.6331542999997	n/a	n/a	1216.6402314999996	1217.8835236999985	2020-04-24 16:25:19.355601	9.63130224941471	6.17767192650451	3.44311483641515	6.41015782952255	13.0744170858299	3.44311483641515	-9.63130224941471	6.17767192650451	3.44311483641515	13.0744170858299	3.44311483641515	-6.17767192650451	2.0546618385442983	2.3157692706179547	2.9998602185865586	2.0009273620706063	5.886758306389281	2.9998602185865586	-7.08310166395421	5.470640181760087	3.4159783432157487	1.730331420651253	3.5852980685532594	2	missed	0.0
111.98466250000092	5.943293299998913	nogo_reward	0.3864166999992449	112.0061908000007	113.36592130000099	115.91182579999986	1.3597305000002962	113.02351160000012	114.8909635	116.92523950000032	0.34240970000087145	1.0208622999998624	1.0242445999992924	n/a	1.0	n/a	1	0	78	4	nogo_reward	1	0	1	0	1	0	1	n/a	n/a	0	0.3864166999992449	1.0	1105.917821699999	1217.9240124999997	1218.941333299999	1219.283743	1220.808785199999	1221.8296474999988	n/a	n/a	1222.8430611999993	1223.8673057999986	2020-04-24 16:25:19.355601	7.61548621853067	5.18611635205809	3.44311483641515	5.38511201850334	11.0586010549458	3.44311483641515	-7.61548621853067	5.18611635205809	3.44311483641515	11.0586010549458	3.44311483641515	-5.18611635205809	0.03884580766025891	1.3242136961715354	2.9998602185865586	0.9758815510513958	3.8709422755051817	2.9998602185865586	-6.091546089507791	3.4548241508759876	3.4159783432157487	0.7387758462048337	3.5852980685532594	2	missed	0.0
117.9708210000008	6.742879199999152	go_reward	0.3074722000001202	117.99234930000057	119.85063620000074	122.40271279999979	1.8582869000001665	119.00081479999994	121.37739309999961	123.41197800000009	0.849821400000792	1.025319700000182	1.3232504999996308	n/a	1.0	n/a	1	0	79	3	go_reward	1	1	0	1	1	1	0	n/a	n/a	1	0.3074722000001202	1.0	1105.917821699999	1223.9101709999995	1224.918636499999	1225.7684578999997	1227.2952147999986	1228.3205344999988	n/a	n/a	1229.329799699999	1230.6530501999987	2020-04-24 16:25:19.355601	35.9443883646833	17.7960272137795	0.0	17.7960272137795	35.9443883646833	0.0	-35.9443883646833	17.7960272137795	0.0	35.9443883646833	0.0	4.0528508545971995	28.367747953812888	13.934124557892945	-0.44325461782859144	13.386796746327555	28.75672958524268	-0.44325461782859144	3.147421117147499	28.340611460613488	-0.02713649319940158	13.348686707926243	0.1421832321381092	2	missed	0.0
124.75204900000062	7.684141399999135	nogo_punish	1.0	124.7735773000004	127.54295380000053	130.0721164000006	2.769376500000135	125.77934579999965	129.06007390000013	131.0745545000011	1.763608000000886	1.0120425000004616	1.3831641999984186	n/a	1.0	n/a	1	0	80	2	nogo_punish	1	-1	0	0	0	1	0	n/a	n/a	0	1.0	1.0	1105.917821699999	1230.6913989999994	1231.6971674999986	1233.4607754999995	1234.977895599999	1235.9899380999996	n/a	n/a	1236.9923762	1238.3755403999985	2020-04-24 16:25:19.355601	1.9723785729073	-2.07163351494992	-0.716705685312072	-1.2443333046577	-2.68908425821937	-0.716705685312072	-1.9723785729073	-0.716705685312072	-2.07163351494992	-0.716705685312072	-2.68908425821937	0.716705685312072	-5.604261837963111	-5.933536170836475	-1.1599603031406636	-5.653563772109644	-9.876743037659988	-1.1599603031406636	-0.18872405213762866	-8.320482589381884	-2.7162207514187715	-5.164046191165329	-1.9294502828118107	2	missed	0.0
132.47425020000082	6.079772299999604	nogo_punish	1.0	132.4957785000006	133.83142860000044	136.36029240000062	1.3356500999998389	133.50489190000008	135.34106520000023	137.36483109999972	0.3265367000003607	1.0192272000003868	1.2107197000004817	n/a	1.0	n/a	1	0	81	2	nogo_punish	1	-1	0	0	0	1	0	n/a	n/a	0	1.0	1.0	1105.917821699999	1238.4136001999996	1239.422713599999	1239.7492502999994	1241.2588868999992	1242.2781140999996	n/a	n/a	1243.2826527999987	1244.4933724999992	2020-04-24 16:25:19.355601	1.89815127540886	-2.07163351494992	-0.602449104690122	-1.04791349251048	-2.50060038009899	-0.602449104690122	-1.89815127540886	-0.602449104690122	-2.07163351494992	-0.602449104690122	-2.50060038009899	0.602449104690122	-5.67848913546155	-5.933536170836475	-1.0457037225187134	-5.457143959962424	-9.688259159539609	-1.0457037225187134	-0.30298063275957865	-8.206226008759934	-2.5277368732983914	-5.049789610543379	-1.9294502828118107	2	missed	0.0
138.59663120000005	6.340691400000651	go_reward	0.4088100000008126	138.61815949999982	140.47649760000058	143.03335379999953	1.8583381000007648	139.62632640000083	142.0093651999996	144.04293280000093	0.8501711999997497	1.0239885999999387	0.9159180999995442	n/a	1.0	n/a	1	0	82	3	go_reward	1	1	0	1	1	1	0	n/a	n/a	1	0.4088100000008126	1.0	1105.917821699999	1244.5359811999988	1245.5441480999998	1246.3943192999996	1247.9271868999986	1248.9511754999985	n/a	n/a	1249.9607545	1250.8766725999994	2020-04-24 16:25:19.355601	37.1250299735063	18.3921335719812	0.0	18.3921335719812	37.1250299735063	0.0	-37.1250299735063	18.3921335719812	0.0	37.1250299735063	0.0	3.4567444963954976	29.54838956263589	14.530230916094647	-0.44325461782859144	13.982903104529257	29.937371194065683	-0.44325461782859144	2.551314758945797	29.52125306943649	-0.02713649319940158	13.944793066127945	0.1421832321381092	2	missed	0.0
144.9773569000008	7.33170439999958	go_reward	0.4627369000008912	144.9988852000006	147.41048670000055	149.9611746999999	2.4116014999999607	145.98975000000064	148.93715599999996	150.97819710000113	1.4207366999999067	1.0240186999999423	1.3523924999990413	n/a	1.0	n/a	1	0	83	3	go_reward	1	1	0	1	1	1	0	n/a	n/a	1	0.4627369000008912	1.0	1105.917821699999	1250.9167068999996	1251.9075716999996	1253.3283083999995	1254.854977699999	1255.8789963999989	n/a	n/a	1256.8960188	1258.2484112999991	2020-04-24 16:25:19.355601	38.1215647185644	18.8958217006204	0.0	18.8958217006204	38.1215647185644	0.0	-38.1215647185644	18.8958217006204	0.0	38.1215647185644	0.0	2.9530563677563	30.54492430769399	15.033919044733844	-0.44325461782859144	14.486591233168454	30.933905939123783	-0.44325461782859144	2.0476266303065995	30.51778781449459	-0.02713649319940158	14.448481194767142	0.1421832321381092	2	missed	0.0
152.34604229999968	5.958159499999965	nogo_reward	0.4173646999988705	152.36757059999945	153.92693970000073	156.47633750000023	1.5593691000012768	153.381511900001	155.46247330000006	157.48933480000073	0.545427799999743	1.013864200000171	0.836395299998685	n/a	1.0	n/a	1	0	84	4	nogo_reward	1	0	1	0	1	0	0	n/a	n/a	0	0.4173646999988705	1.0	1105.917821699999	1258.2853922999984	1259.2993336	1259.8447613999997	1261.380294999999	1262.3941591999992	n/a	n/a	1263.4071564999997	1264.2435517999984	2020-04-24 16:25:19.355601	5.93921555144748	4.36097127063063	3.44311483641515	4.53154114259794	9.38233038786263	3.44311483641515	-5.93921555144748	4.36097127063063	3.44311483641515	9.38233038786263	3.44311483641515	-4.36097127063063	-1.6374248594229313	0.49906861474407505	2.9998602185865586	0.12231067514599658	2.194671608422012	2.9998602185865586	-5.266401008080331	1.7785534837928179	3.4159783432157487	-0.08636923522262663	3.5852980685532594	2	missed	0.0
158.3464299999996	6.726617400001487	go_reward	0.3652125999997224	158.36795829999937	160.5380877000007	163.08678110000074	2.170129400001315	159.36951930000032	162.06334770000103	164.09622219999983	1.1685684000003675	1.0234333999997034	0.9983535000010306	n/a	1.0	n/a	1	0	85	3	go_reward	1	1	0	1	1	1	1	n/a	n/a	1	0.3652125999997224	1.0	1105.917821699999	1264.2857799999983	1265.2873409999993	1266.4559093999997	1267.9811694	1269.0046027999997	n/a	n/a	1270.0140438999988	1271.0123973999998	2020-04-24 16:25:19.355601	38.9640834575101	19.322115487001	0.0	19.322115487001	38.9640834575101	0.0	-38.9640834575101	19.322115487001	0.0	38.9640834575101	0.0	2.5267625813756993	31.38744304663969	15.460212831114445	-0.44325461782859144	14.912885019549055	31.776424678069482	-0.44325461782859144	1.6213328439259986	31.36030655344029	-0.02713649319940158	14.874774981147743	0.1421832321381092	2	missed	0.0
165.11061400000108	7.580318899999838	go_punish	0.2840077000000747	165.13214230000085	168.10919579999972	170.65583010000046	2.977053499998874	166.1425078000011	169.64172710000094	171.66379960000086	1.9666879999986122	1.0141029999995226	1.048661599999832	n/a	1.0	n/a	1	0	86	1	go_punish	1	0	-1	1	1	1	0	n/a	n/a	0	0.2840077000000747	1.0	1105.917821699999	1271.0499639999998	1272.0603295	1274.0270174999987	1275.5595488	1276.5736517999994	n/a	n/a	1277.5816212999998	1278.6302828999997	2020-04-24 16:25:19.355601	1.01780285880192	-1.11750122289125	-4.32582314045067	-2.90617243099665	-3.30802028164875	-4.32582314045067	-1.01780285880192	-1.11750122289125	-4.32582314045067	-3.30802028164875	-4.32582314045067	1.11750122289125	-6.558837552068491	-4.979403878777805	-4.769077758279262	-7.315402898448594	-10.495679061089369	-4.769077758279262	0.2120714854415493	-10.911797185718562	-4.352959633650072	-5.564841728744507	-4.1836399083125615	2	missed	0.0
172.72741540000038	5.821670199999289	go_punish	0.3645716999999422	172.74894370000015	174.25575209999988	176.80201839999972	1.506808399999727	173.76453690000017	175.78210209999997	177.81544229999963	0.49121519999971497	1.0199162999997498	0.7551715999998123	n/a	1.0	n/a	1	0	87	1	go_punish	1	0	-1	1	1	1	0	n/a	n/a	0	0.3645716999999422	1.0	1105.917821699999	1278.6667653999991	1279.6823585999991	1280.1735737999988	1281.699923799999	1282.7198400999987	n/a	n/a	1283.7332639999986	1284.4884355999984	2020-04-24 16:25:19.355601	1.63323228124618	-0.939173695466124	-4.32582314045067	-2.4500785686328	-2.69259085920449	-4.32582314045067	-1.63323228124618	-0.939173695466124	-4.32582314045067	-2.69259085920449	-4.32582314045067	0.939173695466124	-5.943408129624231	-4.801076351352679	-4.769077758279262	-6.859309036084744	-9.880249638645108	-4.769077758279262	0.03374395801642327	-10.296367763274302	-4.352959633650072	-5.386514201319381	-4.1836399083125615	2	missed	0.0
178.59107980000044	6.090940599999158	go_reward	0.3369247999999061	178.61260810000022	179.94820679999975	182.49800680000044	1.3355986999995366	179.6215462	181.47439219999978	183.50730730000032	0.32666059999974095	1.0236146000006556	1.196241399999053	n/a	1.0	n/a	1	0	88	3	go_reward	1	1	0	1	1	1	0	n/a	n/a	1	0.3369247999999061	1.0	1105.917821699999	1284.5304297999992	1285.539367899999	1285.8660284999987	1287.3922138999988	1288.4158284999994	n/a	n/a	1289.4251289999993	1290.6213703999983	2020-04-24 16:25:19.355601	39.6775453776438	19.6834894808049	0.0	19.6834894808049	39.6775453776438	0.0	-39.6775453776438	19.6834894808049	0.0	39.6775453776438	0.0	2.1653885875717975	32.10090496677339	15.821586824918347	-0.44325461782859144	15.274259013352957	32.489886598203185	-0.44325461782859144	1.2599588501220969	32.07376847357399	-0.02713649319940158	15.236148974951645	0.1421832321381092	2	missed	0.0
184.72266479999962	6.721732600000905	nogo_reward	0.3048447000001033	184.7441930999994	187.03445980000106	189.5791733999995	2.2902667000016663	185.7558012999998	188.56086669999968	190.5814076000006	1.2786585000012565	1.0183066999998118	0.8845180999996956	n/a	1.0	n/a	1	0	89	4	nogo_reward	0	1	0	0	1	0	0	n/a	n/a	1	0.3048447000001033	1.0	1105.917821699999	1290.6620147999984	1291.6736229999988	1292.9522815	1294.4786883999986	1295.4969950999985	n/a	n/a	1296.4992292999996	1297.3837473999993	2020-04-24 16:25:19.355601	4.54295384898762	3.67315923853486	3.44311483641515	3.81956724297568	7.98606868540277	3.44311483641515	-4.54295384898762	3.67315923853486	3.44311483641515	7.98606868540277	3.44311483641515	18.175718829841838	-3.0336865618827913	-0.1887434173516951	2.9998602185865586	-0.5896632244762636	0.798409905962151	2.9998602185865586	17.270289092392137	0.38229178133295694	3.4159783432157487	-0.7741812673183968	3.5852980685532594	2	missed	0.0
191.48035530000016	7.217625900000712	nogo_reward	0.3468362999992678	191.50188359999993	194.24946860000114	196.79686910000055	2.7475850000012088	192.51689830000032	195.7768159999996	197.80427749999944	1.7325703000008161	1.0200531000009505	0.9152320000011969	n/a	1.0	n/a	1	0	90	4	nogo_reward	1	0	1	0	1	0	0	n/a	n/a	0	0.3468362999992678	1.0	1105.917821699999	1297.419705299999	1298.4347199999993	1300.1672903	1301.6946376999986	1302.7146907999995	n/a	n/a	1303.7220991999984	1304.6373311999996	2020-04-24 16:25:19.355601	10.2507052674442	6.54198780464047	3.44311483641515	6.6678291188802	13.6938201038593	3.44311483641515	-10.2507052674442	6.54198780464047	3.44311483641515	13.6938201038593	3.44311483641515	-6.54198780464047	2.6740648565737892	2.6800851487539146	2.9998602185865586	2.2585986514282563	6.506161324418682	2.9998602185865586	-7.44741754209017	6.090043199789488	3.4159783432157487	2.094647298787213	3.5852980685532594	2	missed	0.0
198.7361688000001	7.179010600000765	go_reward	0.3301758000015979	198.75769709999986	201.11012590000064	203.65368189999936	2.35242880000078	199.77365850000024	202.63044850000006	204.65649830000052	1.3364674000004015	1.0232333999992989	1.2802094000001034	n/a	1.0	n/a	1	0	91	3	go_reward	1	1	0	1	1	1	0	n/a	n/a	1	0.3301758000015979	1.0	1105.917821699999	1304.6755187999988	1305.6914801999992	1307.0279475999996	1308.548270199999	1309.5715035999983	n/a	n/a	1310.5743199999995	1311.8545293999996	2020-04-24 16:25:19.355601	40.2826875625654	19.9903186429514	0.0	19.9903186429514	40.2826875625654	0.0	-40.2826875625654	19.9903186429514	0.0	40.2826875625654	0.0	1.8585594254252982	32.70604715169499	16.128415987064844	-0.44325461782859144	15.581088175499456	33.09502878312478	-0.44325461782859144	0.9531296879755975	32.67891065849559	-0.02713649319940158	15.542978137098144	0.1421832321381092	2	missed	0.0
205.95389539999996	6.4628055000011955	nogo_reward	0.3033338999994157	205.97542369999974	207.67394799999965	210.2174068000004	1.6985242999999173	206.98806900000113	209.19799799999964	211.22524840000005	0.685878999998522	1.0194088000007469	1.212980800000878	n/a	1.0	n/a	1	0	92	4	nogo_reward	1	0	1	0	1	0	1	n/a	n/a	0	0.3033338999994157	1.0	1105.917821699999	1311.8932453999987	1312.9058907	1313.5917696999986	1315.1158196999986	1316.1352284999994	n/a	n/a	1317.143070099999	1318.3560509	2020-04-24 16:25:19.355601	8.13554529445558	5.49286951389789	3.44311483641515	5.60117982079111	11.5786601308707	3.44311483641515	-8.13554529445558	5.49286951389789	3.44311483641515	11.5786601308707	3.44311483641515	-5.49286951389789	0.5589048835851695	1.6309668580113352	2.9998602185865586	1.191949353339166	4.391001351430082	2.9998602185865586	-6.398299251347591	3.9748832268008876	3.4159783432157487	1.0455290080446336	3.5852980685532594	2	missed	0.0
212.45259590000023	7.056385899999441	go_punish	0.3180219000005309	212.4741242	214.95622290000028	217.49266650000027	2.4820987000002788	213.48919240000032	216.47300879999966	218.50594889999934	1.4670304999999644	1.0196577000006073	1.0245612000001074	n/a	1.0	n/a	1	0	93	1	go_punish	1	0	-1	1	1	1	0	n/a	n/a	0	0.3180219000005309	1.0	1105.917821699999	1318.391945899999	1319.4070140999993	1320.8740445999993	1322.3908304999986	1323.4104881999992	n/a	n/a	1324.4237705999983	1325.4483317999984	2020-04-24 16:25:19.355601	2.14626370497325	-0.790610686887378	-4.32582314045067	-2.06898014636245	-2.17955943547741	-4.32582314045067	-2.14626370497325	-0.790610686887378	-4.32582314045067	-2.17955943547741	-4.32582314045067	0.790610686887378	-5.430376705897161	-4.652513342773933	-4.769077758279262	-6.478210613814394	-9.36721821491803	-4.769077758279262	-0.11481905056232267	-9.783336339547223	-4.352959633650072	-5.237951192740635	-4.1836399083125615	2	missed	0.0
219.5475273000011	6.596039799999062	nogo_punish	1.0	219.56905560000087	221.2247650999998	223.75795029999972	1.6557094999989204	220.57699950000097	222.73406989999967	224.76844569999935	0.6477655999988201	1.0238804000000528	1.3966497000005802	n/a	1.0	n/a	1	0	94	2	nogo_punish	0	0	-1	0	0	1	0	n/a	n/a	-1	1.0	1.0	1105.917821699999	1325.4868772999998	1326.4948212	1327.1425867999988	1328.6518915999986	1329.6757719999987	n/a	n/a	1330.6862673999983	1332.082917099999	2020-04-24 16:25:19.355601	1.83635203964484	-2.07163351494992	-0.507246599102407	-0.88396064414612	-2.34359863874724	-0.507246599102407	-1.83635203964484	-0.507246599102407	-2.07163351494992	-0.507246599102407	-2.34359863874724	-4.676654059625113	-5.740288371225571	-5.933536170836475	-0.9505012169309984	-5.293191111598063	-9.53125741818786	-0.9505012169309984	-5.582083797074814	-8.11102350317222	-2.3707351319466414	-4.954587104955664	-1.9294502828118107	2	missed	0.0
226.17877920000137	6.792686499999036	go_punish	0.3657956999995804	226.20030750000114	227.98943370000075	230.5218177000006	1.7891261999996004	227.20883069999945	229.5069325000004	231.52607929999976	0.7806030000012925	1.014885200000208	1.466914700000416	n/a	1.0	n/a	1	0	95	1	go_punish	0	-1	0	1	1	1	1	n/a	n/a	-1	0.3657956999995804	1.0	1105.917821699999	1332.1181292	1333.1266523999984	1333.9072553999997	1335.4247541999994	1336.4396393999996	n/a	n/a	1337.4439009999987	1338.9108156999991	2020-04-24 16:25:19.355601	2.5746526952103	-0.666637876466239	-4.32582314045067	-1.75001388502874	-1.75117044524037	-4.32582314045067	-2.5746526952103	-0.666637876466239	-4.32582314045067	-1.75117044524037	-4.32582314045067	-4.517262782261281	-5.0019877156601105	-4.528540532352794	-4.769077758279262	-6.159244352480684	-8.938829224680989	-4.769077758279262	-5.422692519710981	-9.354947349310184	-4.352959633650072	-5.1139783823194955	-4.1836399083125615	2	missed	0.0
233.0086766000004	6.392530999999508	nogo_reward	0.3055535000003146	233.03020490000017	234.94876149999982	237.48842130000048	1.918556599999647	234.04382720000103	236.47468859999935	238.48973939999996	0.9049342999987857	1.0137327000011283	0.9329964999997173	n/a	1.0	n/a	1	0	96	4	nogo_reward	1	0	1	0	1	0	0	n/a	n/a	0	0.3055535000003146	1.0	1105.917821699999	1338.9480265999991	1339.9616489	1340.8665831999988	1342.3925102999983	1343.4062429999994	n/a	n/a	1344.407561099999	1345.3405575999986	2020-04-24 16:25:19.355601	6.37676752519383	4.61976750518368	3.44311483641515	4.71311371729929	9.81988236160898	3.44311483641515	-6.37676752519383	4.61976750518368	3.44311483641515	9.81988236160898	3.44311483641515	-4.61976750518368	-1.199872885676581	0.7578648492971252	2.9998602185865586	0.30388324984734627	2.632223582168362	2.9998602185865586	-5.52519724263338	2.216105457539168	3.4159783432157487	0.1724269993304235	3.5852980685532594	2	missed	0.0
239.43772010000066	7.678680600000007	go_punish	0.3323321999996551	239.45924840000043	242.1849297000008	244.7252601	2.7256813000003604	240.47362650000105	243.70191739999973	245.73504400000093	1.7113031999997474	1.0233427000002848	1.4028849999995145	n/a	1.0	n/a	1	0	97	1	go_punish	0	-1	0	1	1	1	1	n/a	n/a	-1	0.3323321999996551	1.0	1105.917821699999	1345.3770700999994	1346.3914482	1348.1027513999998	1349.6197390999987	1350.643081799999	n/a	n/a	1351.6528657	1353.0557506999994	2020-04-24 16:25:19.355601	1.3293409924109	-1.38120964617564	-4.32582314045067	-2.30080439088934	-2.99648214803977	-4.32582314045067	-1.3293409924109	-1.38120964617564	-4.32582314045067	-2.99648214803977	-4.32582314045067	-3.80269101255188	-6.2472994184595105	-5.243112302062195	-4.769077758279262	-6.710034858341284	-10.184140927480389	-4.769077758279262	-4.70812075000158	-10.600259052109582	-4.352959633650072	-5.828550152028897	-4.1836399083125615	2	missed	0.0
247.15392609999958	7.788720700000567	nogo_reward	0.3602931999994325	247.17545439999935	250.0150281999995	252.56270580000114	2.839573800000153	248.18894580000074	251.54229440000017	253.5649625999995	1.8260823999987679	1.0204114000009668	1.3992125000004307	n/a	1.0	n/a	1	0	98	4	nogo_reward	1	0	1	0	1	0	1	n/a	n/a	0	0.3602931999994325	1.0	1105.917821699999	1353.0932760999983	1354.1067674999997	1355.9328498999985	1357.4601160999991	1358.4805275	n/a	n/a	1359.4827842999985	1360.881996799999	2020-04-24 16:25:19.355601	4.91183924950111	3.89192112590172	3.44311483641515	3.97247683212372	8.35495408591626	3.44311483641515	-4.91183924950111	3.89192112590172	3.44311483641515	8.35495408591626	3.44311483641515	-3.89192112590172	-2.664801161369301	0.03001847001516511	2.9998602185865586	-0.43675363532822375	1.1672953064756415	2.9998602185865586	-4.79735086335142	0.7511771818464474	3.4159783432157487	-0.5554193799515366	3.5852980685532594	2	missed	0.0
254.98101000000133	6.594277999998667	nogo_punish	1.0	255.0025383000011	257.0080403000011	259.5435553999996	2.0055019999999786	256.00848740000015	258.52456750000056	260.55742649999934	0.9995529000009356	1.018987899999047	1.0393898000004356	n/a	1.0	n/a	1	0	99	2	nogo_punish	1	-1	0	0	0	1	0	n/a	n/a	0	1.0	1.0	1105.917821699999	1360.92036	1361.9263090999991	1362.925862	1364.4423891999995	1365.4613770999986	n/a	n/a	1366.4752481999983	1367.5146379999987	2020-04-24 16:25:19.355601	1.75203893939478	-2.07163351494992	-1.24598351854214	-1.56507484619729	-2.99802245793691	-1.24598351854214	-1.75203893939478	-1.24598351854214	-2.07163351494992	-1.24598351854214	-2.99802245793691	1.24598351854214	-5.824601471475631	-5.933536170836475	-1.6892381363707314	-5.974305313649234	-10.185681237377528	-1.6892381363707314	0.3405537810924393	-8.849760422611952	-3.0251589511363113	-5.693324024395396	-1.9294502828118107	2	missed	0.0
261.6131537000001	6.565583699999479	nogo_punish	1.0	261.6346819999999	263.4301618999998	265.97134189999997	1.7954798999999184	262.65060319999975	264.94697310000083	266.98844570000074	0.7795587000000523	1.024368799999138	1.2118199999986246	n/a	1.0	n/a	1	0	100	2	nogo_punish	0	0	-1	0	0	1	0	n/a	n/a	-1	1.0	1.0	1105.917821699999	1367.5525036999989	1368.5684248999987	1369.3479835999988	1370.8647947999998	1371.889163599999	n/a	n/a	1372.9062673999997	1374.1180873999983	2020-04-24 16:25:19.355601	1.71299813228804	-2.07163351494992	-1.04410211506423	-1.31481787458226	-2.75710024735227	-1.04410211506423	-1.71299813228804	-1.04410211506423	-2.07163351494992	-1.04410211506423	-2.75710024735227	-4.13979854366329	-5.863642278582371	-5.933536170836475	-1.4873567328928214	-5.724048342034203	-9.94475902679289	-1.4873567328928214	-5.0452282811129905	-8.647879019134043	-2.7842367405516715	-5.4914426209174865	-1.9294502828118107	2	missed	0.0
268.2158228999997	7.056111700001566	nogo_punish	1.0	268.23735119999947	270.8519453000008	273.3800697000006	2.614594100001341	269.25121390000095	272.36038440000084	274.3934258999998	1.6007313999998587	1.0196852999997645	0.9000370000012481	n/a	1.0	n/a	1	0	101	2	nogo_punish	1	-1	0	0	0	1	1	n/a	n/a	0	1.0	1.0	1105.917821699999	1374.1551728999984	1375.1690356	1376.7697669999998	1378.2782060999998	1379.2978913999996	n/a	n/a	1380.3112475999988	1381.2112846	2020-04-24 16:25:19.355601	1.6477461015469	-2.07163351494992	-1.69462868913921	-1.92466605453113	-3.34237479068611	-1.69462868913921	-1.6477461015469	-1.69462868913921	-2.07163351494992	-1.69462868913921	-3.34237479068611	1.69462868913921	-5.9288943093235105	-5.933536170836475	-2.1378833069678014	-6.333896521983074	-10.53003357012673	-2.1378833069678014	0.7891989516895093	-9.298405593209022	-3.3695112838855112	-6.141969194992466	-1.9294502828118107	2	missed	0.0
275.3081394000001	6.4000522999995155	go_punish	0.5883391000006668	275.32966769999985	276.69791149999946	279.2499638999998	1.3682437999996182	276.33917649999967	278.2308119999998	280.26365110000006	0.35873499999979686	1.0191518999999971	1.4660688999993	n/a	1.0	n/a	1	0	102	1	go_punish	1	0	-1	1	1	1	0	n/a	n/a	0	0.5883391000006668	1.0	1105.917821699999	1381.2474893999988	1382.2569981999986	1382.6157331999984	1384.1486336999988	1385.1677855999988	n/a	n/a	1386.181472799999	1387.6475416999983	2020-04-24 16:25:19.355601	0.292796473282028	-1.97719510095271	-4.32582314045067	-2.75900118966118	-4.03302666716864	-4.32582314045067	-0.292796473282028	-1.97719510095271	-4.32582314045067	-4.03302666716864	-4.32582314045067	1.97719510095271	-7.283843937588383	-5.839097756839265	-4.769077758279262	-7.1682316571131235	-11.22068544660926	-4.769077758279262	1.0717653635030093	-11.636803571238453	-4.352959633650072	-6.424535606805967	-4.1836399083125615	2	missed	0.0
281.74357670000063	6.80331329999899	go_punish	1.0	281.7651050000004	283.62288380000064	286.1488838000005	1.8577788000002329	282.7805984000006	285.13946510000096	287.15223289999994	0.842285400000037	1.0094186999995145	1.4161853999994491	n/a	1.0	n/a	1	0	103	1	go_punish	1	0	-1	1	0	0	0	n/a	n/a	-1	1.0	1.0	1105.917821699999	1387.6829266999994	1388.6984200999996	1389.5407054999996	1391.0572868	1392.0667054999994	n/a	n/a	1393.070054599999	1394.4862399999984	2020-04-24 16:25:19.355601	-1.03212050283709	-1.65694547350055	-4.32582314045067	-2.32264427056301	-3.29370263761358	-4.32582314045067	1.03212050283709	-4.32582314045067	-1.65694547350055	-4.32582314045067	-3.29370263761358	-0.8580775182768496	-8.608760913707501	-5.518848129387105	-4.769077758279262	-6.7318747380149535	-10.481361417054199	-4.769077758279262	-1.7635072557265503	-11.929600044520484	-3.320839130812981	-8.773163646303928	-1.5147622413624409	2	missed	0.0
288.58487090000017	6.237599199999977	nogo_punish	1.0	288.60639919999994	290.08965119999993	292.62284530000034	1.4832519999999931	289.62255580000055	291.5987968999998	293.6316962000001	0.4670953999993799	1.024048400000538	1.21230219999984	n/a	1.0	n/a	1	0	104	2	nogo_punish	0	0	-1	0	0	1	0	n/a	n/a	-1	1.0	1.0	1105.917821699999	1394.524220899999	1395.5403774999995	1396.007472899999	1397.5166185999988	1398.5406669999993	n/a	n/a	1399.549517899999	1400.7618200999989	2020-04-24 16:25:19.355601	1.62469289337452	-2.07163351494992	-1.41968045547294	-1.61545692273968	-3.04437334884746	-1.41968045547294	-1.62469289337452	-1.41968045547294	-2.07163351494992	-1.41968045547294	-3.04437334884746	-3.76422020325458	-5.951947517495891	-5.933536170836475	-1.8629350733015315	-6.024687390191624	-10.232032128288079	-1.8629350733015315	-4.66964994070428	-9.023457359542753	-3.0715098420468614	-5.8670209613261965	-1.9294502828118107	2	missed	0.0
294.8599062000012	7.38158250000015	go_punish	1.0	294.881434500001	297.23893730000054	299.78012500000114	2.3575027999995655	295.8865168000011	298.75565330000063	300.7980292000011	1.3524204999994254	1.024471700000504	1.4649878000000172	n/a	1.0	n/a	1	0	105	1	go_punish	1	0	-1	1	0	0	1	n/a	n/a	-1	1.0	1.0	1105.917821699999	1400.7992562	1401.8043385	1403.1567589999995	1404.6734749999996	1405.6979467	n/a	n/a	1406.7158509	1408.1808387	2020-04-24 16:25:19.355601	-0.718022772234819	-1.65694547350055	-4.4483342972993	-2.77685665376141	-3.73031152506448	-4.4483342972993	0.718022772234819	-4.4483342972993	-1.65694547350055	-4.4483342972993	-3.73031152506448	-0.7355663614282202	-8.29466318310523	-5.518848129387105	-4.891588915127891	-7.186087121213354	-10.917970304505099	-4.891588915127891	-1.6409960988779209	-12.052111201369112	-3.757448018263881	-8.895674803152556	-1.5147622413624409	2	missed	0.0
302.2791890999997	7.004136700001254	nogo_punish	1.0	302.3007173999995	304.26407500000096	306.80104589999974	1.9633576000014727	303.3031353999995	305.78072220000104	307.81348609999986	0.9609396000014385	1.0203236999986984	1.4913680000008753	n/a	1.0	n/a	1	0	106	2	nogo_punish	1	-1	0	0	0	1	1	n/a	n/a	0	1.0	1.0	1105.917821699999	1408.2185390999985	1409.2209570999985	1410.1818967	1411.6985439	1412.7188675999987	n/a	n/a	1413.7313077999988	1415.2226757999997	2020-04-24 16:25:19.355601	1.57286994197057	-2.07163351494992	-2.00957895396132	-2.17645376672575	-3.58244889593188	-2.00957895396132	-1.57286994197057	-2.00957895396132	-2.07163351494992	-2.00957895396132	-3.58244889593188	2.00957895396132	-6.003770468899841	-5.933536170836475	-2.4528335717899115	-6.585684234177694	-10.770107675372499	-2.4528335717899115	1.1041492165116193	-9.613355858031133	-3.6095853891312815	-6.456919459814577	-1.9294502828118107	2	missed	0.0
309.32657560000007	6.440985900000896	go_reward	0.3254526000000624	309.34810389999984	310.77869350000014	313.34343179999996	1.430589600000303	310.3426227	312.3197221999999	314.3525867999999	0.4360708000001523	1.0237096000000747	1.4365030000008119	n/a	1.0	n/a	1	0	107	3	go_reward	1	1	0	1	1	1	0	n/a	n/a	1	0.3254526000000624	1.0	1105.917821699999	1415.2659255999988	1416.260444399999	1416.696515199999	1418.2375438999989	1419.261253499999	n/a	n/a	1420.270408499999	1421.7069114999997	2020-04-24 16:25:19.355601	40.7967675803729	20.2512458899298	0.0	20.2512458899298	40.7967675803729	0.0	-40.7967675803729	20.2512458899298	0.0	40.7967675803729	0.0	1.5976321784469008	33.22012716950249	16.389343234043242	-0.44325461782859144	15.842015422477854	33.60910880093228	-0.44325461782859144	0.6922024409972001	33.19299067630309	-0.02713649319940158	15.803905384076542	0.1421832321381092	2	missed	0.0
315.8076742000012	7.27697839999928	go_reward	0.3880694999988918	315.829202500001	318.3532414000001	320.90870019999966	2.524038899999141	316.83935250000104	319.8849011000002	321.90975629999934	1.513888899999074	1.0237990999994508	1.1964246000009098	n/a	1.0	n/a	1	0	108	3	go_reward	1	1	0	1	1	1	0	n/a	n/a	1	0.3880694999988918	1.0	1105.917821699999	1421.7470242	1422.7571742	1424.271063099999	1425.8027227999992	1426.8265218999986	n/a	n/a	1427.8275779999983	1429.0240025999992	2020-04-24 16:25:19.355601	41.2341707465702	20.4734829529122	0.0	20.4734829529122	41.2341707465702	0.0	-41.2341707465702	20.4734829529122	0.0	41.2341707465702	0.0	1.3753951154644994	33.65753033569979	16.611580297025643	-0.44325461782859144	16.064252485460255	34.04651196712958	-0.44325461782859144	0.46996537801479876	33.63039384250039	-0.02713649319940158	16.026142447058945	0.1421832321381092	2	missed	0.0
323.12470210000015	6.062693300000092	go_reward	0.3086481999998796	323.1462303999999	324.71761400000105	327.2688792000008	1.571383600001127	324.15699380000115	326.2504348000002	328.27840540000034	0.560620199999903	1.0184444000005897	0.930518299999676	n/a	1.0	n/a	1	0	109	3	go_reward	1	1	0	1	1	1	1	n/a	n/a	1	0.3086481999998796	1.0	1105.917821699999	1429.064052099999	1430.0748155	1430.6354357	1432.1682564999992	1433.1867008999998	n/a	n/a	1434.1962270999993	1435.126745399999	2020-04-24 16:25:19.355601	41.606907535398	20.6630570528561	0.0	20.6630570528561	41.606907535398	0.0	-41.606907535398	20.6630570528561	0.0	41.606907535398	0.0	1.1858210155205988	34.03026712452759	16.801154396969544	-0.44325461782859144	16.253826585404155	34.41924875595738	-0.44325461782859144	0.28039127807089814	34.00313063132819	-0.02713649319940158	16.21571654700284	0.1421832321381092	2	missed	0.0
329.22616480000033	6.393408100000443	nogo_punish	1.0	329.2476931000001	330.99236139999994	333.5212198999998	1.7446682999998302	330.25993630000085	332.5019508000007	334.53471360000003	0.7324250999990909	1.0192690999990646	1.1063876000005166	n/a	1.0	n/a	1	0	110	2	nogo_punish	1	-1	0	0	0	1	0	n/a	n/a	0	1.0	1.0	1105.917821699999	1435.165514799999	1436.1777579999998	1436.910183099999	1438.4197724999997	1439.4390415999987	n/a	n/a	1440.452535299999	1441.5589228999995	2020-04-24 16:25:19.355601	1.56111292598075	-2.07163351494992	-1.68423739587447	-1.82669323316935	-3.24535032185522	-1.68423739587447	-1.56111292598075	-1.68423739587447	-2.07163351494992	-1.68423739587447	-3.24535032185522	1.68423739587447	-6.015527484889661	-5.933536170836475	-2.1274920137030615	-6.235923700621294	-10.433009101295838	-2.1274920137030615	0.7788076584247694	-9.288014299944283	-3.2724868150546214	-6.131577901727727	-1.9294502828118107	2	missed	0.0
335.6555218000012	6.840701399998352	nogo_reward	0.403186800000185	335.677050100001	337.46003310000015	340.0173278000002	1.7829829999991489	336.69515499999943	338.9927432000004	341.02866670000003	0.7648781000007148	1.0245845999997982	1.4890847999993184	n/a	1.0	n/a	1	0	111	4	nogo_reward	0	1	0	0	1	0	0	n/a	n/a	1	0.403186800000185	1.0	1105.917821699999	1441.5948718	1442.6129766999984	1443.377854799999	1444.9105648999994	1445.9351494999992	n/a	n/a	1446.946488399999	1448.4355731999983	2020-04-24 16:25:19.355601	3.6896110795132	3.28414798890805	3.44311483641515	3.353756287198	7.13272591592835	3.44311483641515	-3.6896110795132	3.28414798890805	3.44311483641515	7.13272591592835	3.44311483641515	18.56473007946865	-3.8870293313572106	-0.577754666978505	2.9998602185865586	-1.055474180253944	-0.05493286351226878	2.9998602185865586	17.65930034201895	-0.47105098814146285	3.4159783432157487	-1.1631925169452066	3.5852980685532594	2	missed	0.0
342.5388939000004	5.694911900000079	go_reward	0.4484181999996508	342.5604222000002	343.9259079000003	346.4798618999994	1.3654857000001357	343.5687734000003	345.45906749999995	347.47615849999966	0.3571345000000292	1.0207943999994313	0.7791756000005989	n/a	1.0	n/a	1	0	112	3	go_reward	0	0	1	1	1	1	0	n/a	n/a	0	0.4484181999996508	1.0	1105.917821699999	1448.4782438999991	1449.4865950999992	1449.8437295999993	1451.376889199999	1452.3976835999983	n/a	n/a	1453.3939801999986	1454.1731557999992	2020-04-24 16:25:19.355601	41.9250216733659	20.8250134779172	0.0	20.8250134779172	41.9250216733659	0.0	-41.9250216733659	20.8250134779172	0.0	41.9250216733659	0.0	-20.8250134779172	34.34838126249549	16.963110822030643	-0.44325461782859144	16.415783010465255	34.73736289392528	-0.44325461782859144	-21.7304432153669	34.32124476929609	-0.02713649319940158	16.37767297206394	0.1421832321381092	2	missed	0.0
348.2739732000009	6.61617490000026	nogo_reward	0.9227796000013768	348.2955015000007	350.12325079999937	352.6539515000004	1.8277492999986862	349.3066078000011	351.64870510000014	353.66824950000046	0.8166429999982938	1.00524640000026	1.243426900000486	n/a	1.0	n/a	1	0	113	4	nogo_reward	1	0	1	0	1	0	1	n/a	n/a	0	0.9227796000013768	1.0	1105.917821699999	1454.2133231999996	1455.2244295	1456.0410724999983	1457.566526799999	1458.5717731999994	n/a	n/a	1459.5860711999994	1460.8294981	2020-04-24 16:25:19.355601	9.54088826456723	6.21891259504775	3.44311483641515	6.27913849552825	12.9840031009824	3.44311483641515	-9.54088826456723	6.21891259504775	3.44311483641515	12.9840031009824	3.44311483641515	-6.21891259504775	1.9642478536968184	2.357009939161195	2.9998602185865586	1.8699080280763063	5.796344321541782	2.9998602185865586	-7.12434233249745	5.380226196912588	3.4159783432157487	1.7715720891944935	3.5852980685532594	2	missed	0.0
354.9291738000011	6.752925099999857	nogo_punish	1.0	354.95070210000085	356.99626480000006	359.5247500000007	2.045562699999209	355.9568763999996	358.5130322999994	360.5382924000007	1.0393884000004618	1.011717700001327	1.1653347999999824	n/a	1.0	n/a	1	0	114	2	nogo_punish	1	-1	0	0	0	1	0	n/a	n/a	0	1.0	1.0	1105.917821699999	1460.8685237999998	1461.8746980999986	1462.914086499999	1464.4308539999984	1465.4425716999997	n/a	n/a	1466.4561140999997	1467.6214488999997	2020-04-24 16:25:19.355601	1.55157882562458	-2.07163351494992	-1.41398299735807	-1.53577529751577	-2.96556182298264	-1.41398299735807	-1.55157882562458	-1.41398299735807	-2.07163351494992	-1.41398299735807	-2.96556182298264	1.41398299735807	-6.025061585245831	-5.933536170836475	-1.8572376151866614	-5.945005764967714	-10.153220602423259	-1.8572376151866614	0.5085532599083693	-9.017759901427883	-2.9926983161820413	-5.8613235032113264	-1.9294502828118107	2	missed	0.0
361.7192677000003	6.423768399999972	go_punish	0.4697349999987636	361.74079600000005	363.21558709999954	365.770346700001	1.4747910999994929	362.7482946	364.7506121999995	366.78379510000013	0.46729249999953026	1.0197345000015048	1.3807692999998835	n/a	1.0	n/a	1	0	115	1	go_punish	1	0	-1	1	1	1	0	n/a	n/a	0	0.4697349999987636	1.0	1105.917821699999	1467.658617699999	1468.666116299999	1469.1334087999985	1470.6684338999985	1471.6881684	n/a	n/a	1472.701616799999	1474.082386099999	2020-04-24 16:25:19.355601	0.458961630335573	-1.65694547350055	-4.55241722252316	-3.15545858699343	-4.09345559218759	-4.55241722252316	-0.458961630335573	-1.65694547350055	-4.55241722252316	-4.09345559218759	-4.55241722252316	1.65694547350055	-7.117678780534838	-5.518848129387105	-4.9956718403517515	-7.564689054445374	-11.28111437162821	-4.9956718403517515	0.7515157360508493	-11.697232496257403	-4.579553715722562	-6.104285979353807	-4.410233990385051	2	missed	0.0
368.18050949999997	7.409562599999845	go_punish	0.5295304999999644	368.20203779999974	370.69265989999985	373.24543900000026	2.4906221000001096	369.2098017999999	372.2257257000001	374.2588787000004	1.4828580999999303	1.0197133000001486	1.3527216999991651	n/a	1.0	n/a	1	0	116	1	go_punish	1	0	-1	1	1	1	0	n/a	n/a	0	0.5295304999999644	1.0	1105.917821699999	1474.1198594999987	1475.127623499999	1476.6104815999988	1478.143547399999	1479.1632606999992	n/a	n/a	1480.1767003999994	1481.5294220999986	2020-04-24 16:25:19.355601	1.20780495396576	-1.39095533632676	-4.55241722252316	-2.65338936641953	-3.3446122685574	-4.55241722252316	-1.20780495396576	-1.39095533632676	-4.55241722252316	-3.3446122685574	-4.55241722252316	1.39095533632676	-6.368835456904651	-5.252857992213315	-4.9956718403517515	-7.062619833871474	-10.53227104799802	-4.9956718403517515	0.48552559887705926	-10.948389172627213	-4.579553715722562	-5.838295842180017	-4.410233990385051	2	missed	0.0
375.6296607000004	6.210287999999991	nogo_reward	0.2976404000000912	375.65118900000016	377.3276289000007	379.88061279999965	1.6764399000005596	376.6627053000011	378.8606225000003	380.89870379999934	0.6649235999996108	1.0199902999993355	0.9627732000008109	n/a	1.0	n/a	1	0	117	4	nogo_reward	1	0	1	0	1	0	0	n/a	n/a	0	0.2976404000000912	1.0	1105.917821699999	1481.5690106999991	1482.580527	1483.2454505999997	1484.7784441999993	1485.7984344999986	n/a	n/a	1486.8165254999983	1487.7792986999991	2020-04-24 16:25:19.355601	7.54426980472721	5.22419003968894	3.44311483641515	5.27636423156591	10.9873846411424	3.44311483641515	-7.54426980472721	5.22419003968894	3.44311483641515	10.9873846411424	3.44311483641515	-5.22419003968894	-0.03237060614320075	1.3622873838023852	2.9998602185865586	0.8671337641139658	3.7997258617017815	2.9998602185865586	-6.129619777138641	3.3836077370725874	3.4159783432157487	0.7768495338356836	3.5852980685532594	2	missed	0.0
381.87895460000095	6.016777200000206	nogo_punish	1.0	381.9004829000007	383.4038942999996	385.9320796000011	1.5034113999988676	382.90539999999964	384.91237720000026	386.95420060000106	0.49849429999994754	1.0197024000008241	0.9630594999998721	n/a	1.0	n/a	1	0	118	2	nogo_punish	1	-1	0	0	0	1	0	n/a	n/a	0	1.0	1.0	1105.917821699999	1487.8183045999997	1488.8232216999986	1489.3217159999986	1490.8301988999992	1491.8499013	n/a	n/a	1492.8720223	1493.8350818	2020-04-24 16:25:19.355601	1.54383340592049	-2.07163351494992	-1.1891025070831	-1.29338239060447	-2.7329359130036	-1.1891025070831	-1.54383340592049	-1.1891025070831	-2.07163351494992	-1.1891025070831	-2.7329359130036	1.1891025070831	-6.032807004949921	-5.933536170836475	-1.6323571249116915	-5.702612858056414	-9.920594692444219	-1.6323571249116915	0.2836727696333994	-8.792879411152914	-2.7600724062030015	-5.636443012936357	-1.9294502828118107	2	missed	0.0
387.9394067000012	7.404833999999028	go_reward	0.3981395999999222	387.960935000001	390.51315179999983	393.06333910000103	2.5522167999988596	388.9678079999994	392.0381846	394.07240040000033	1.5453438000004098	1.0251545000010083	1.293368599999667	n/a	1.0	n/a	1	0	119	3	go_reward	1	1	0	1	1	1	0	n/a	n/a	1	0.3981395999999222	1.0	1105.917821699999	1493.8787567	1494.8856296999984	1496.4309734999988	1497.956006299999	1498.9811608	n/a	n/a	1499.9902220999993	1501.283590699999	2020-04-24 16:25:19.355601	35.3242114655125	17.5204673777296	0.0	17.5204673777296	35.3242114655125	0.0	-35.3242114655125	17.5204673777296	0.0	35.3242114655125	0.0	4.3284106906471	27.747571054642087	13.658564721843044	-0.44325461782859144	13.111236910277654	28.13655268607188	-0.44325461782859144	3.4229809531973996	27.720434561442687	-0.02713649319940158	13.073126871876342	0.1421832321381092	2	missed	0.0
395.3857499000005	7.387866299999587	go_reward	0.3132033000001684	395.4072782000003	397.847048900001	400.3959605	2.439770700000736	396.4165821000006	399.3792751000001	401.4066335999996	1.4304668000004312	1.0166853999999148	1.3885109000002558	n/a	1.0	n/a	1	0	120	3	go_reward	1	1	0	1	1	1	0	n/a	n/a	1	0.3132033000001684	1.0	1105.917821699999	1501.3250998999993	1502.3344037999996	1503.7648706	1505.297096799999	1506.313782199999	n/a	n/a	1507.3244552999986	1508.7129661999988	2020-04-24 16:25:19.355601	36.6985398443483	18.2080334738651	0.0	18.2080334738651	36.6985398443483	0.0	-36.6985398443483	18.2080334738651	0.0	36.6985398443483	0.0	3.6408445945115986	29.121899433477893	14.346130817978546	-0.44325461782859144	13.798803006413156	29.510881064907686	-0.44325461782859144	2.735414857061898	29.094762940278493	-0.02713649319940158	13.760692968011844	0.1421832321381092	2	missed	0.0
