onset	duration	trial_type	response_time	cueOnset	targetOnset	fbOnset	cueRT	firstfixOnset	secondfixOnset	waitOnset	firstfixdur	secondfixdur	waitdur	nback_fbOnset	nback_response_time	nback_targetOnset	block	wm	trial	cue	cond	is_common	outcome_go	outcome_nogo	key_correct	key_pressed	is_correct	key_correct_nback	key_pressed_nback	is_correct_nback	outcome	rt	rt_nback	time_scan	time_onset	time_isi1	time_circle	time_isi2	time_feedback	time_same	time_correct	time_iti	time_done	timestamp_scan	DV	Qgo	Qnogo	SV	Wgo	Wnogo	mDV	Qchosen	Qunchosen	Wchosen	Wunchosen	PE	DVC	QgoC	QnogoC	SVC	WgoC	WnogoC	PEC	WchosenC	WunchosenC	QchosenC	QunchosenC	run	outcome_nback	nback_targetResp
0.0	8.779410399962217	nogo_reward	0.5987618999788538	0.048595100059174	2.2756564000155777	4.826061500003561	2.2270612999564037	1.0563756000483409	3.805112599977292	7.874740900006145	1.2192807999672368	1.0209489000262693	0.9532646000152454	6.861296400078572	1.0	5.852510199998505	1	1	1	2	nogo_reward	1	0	1	0	1	0	0	n/a	0.0	1	0.5987618999788538	1.0	84.26034869998693	84.30894380004611	85.31672430003528	86.53600510000251	88.06546129996423	89.0864101999905	90.11285889998544	91.1216451000655	92.13508959999308	93.08835420000833	2019-12-11 16:17:20.848330	0.331451420903946	0.0	0.0	0.0	0.331451420903946	0.0	-0.331451420903946	0.0	0.0	0.331451420903946	0.0	0.0	-3.6004819468366676	-0.9965996558942452	-1.20967495745538	-2.9447298819156233	-0.528070741853021	-1.20967495745538	-1.7917885967677798	-2.6691138230725358	0.931368123764134	-2.9627582153970535	0.7564836020474288	1	missed	0.0
8.81454119994305	10.047101199976154	go_reward	0.532000600011088	8.863136300002225	11.819288600003347	14.366394600016065	2.956152300001122	9.858343600062668	13.355333700077608	17.426079600001685	1.9609449999406792	1.0110608999384567	1.4841578999766938	16.41304710006807	0.6806935000931844	15.372614299994908	1	1	2	1	go_reward	0	0	1	1	1	1	0	1.0	0.0	0	0.532000600011088	0.6806935000931844	84.26034869998693	93.12348499998916	94.1186923000496	96.07963729999028	97.61568240006454	98.626743300003	99.63296299998184	100.673395800055	101.68642829998862	103.17058619996531	2019-12-11 16:17:20.848330	0.331451420903946	0.0	0.0	0.0	0.331451420903946	0.0	-0.331451420903946	0.0	0.0	0.331451420903946	0.0	0.0	-3.6004819468366676	-0.9965996558942452	-1.20967495745538	-2.9447298819156233	-0.528070741853021	-1.20967495745538	-1.7917885967677798	-2.6691138230725358	0.931368123764134	-2.9627582153970535	0.7564836020474288	1	wrong	1.0
18.89988279994577	9.590631800005198	go_punish	0.2480121999979019	18.948477900004946	21.7163647999987	24.268226900021546	2.767886899993755	19.958728000055984	23.24828080006411	27.32675280002877	1.7576367999427163	1.019946099957437	1.2123568999813727	26.316265400033444	0.576815800042823	25.275974599993788	1	1	3	3	go_punish	1	0	-1	1	1	1	0	0.0	1.0	0	0.2480121999979019	0.576815800042823	84.26034869998693	103.20882659999188	104.21907670004292	105.97671349998564	107.50862950005104	108.52857560000848	109.53632329998072	110.57661410002038	111.5871015000157	112.79945839999708	2019-12-11 16:17:20.848330	0.331451420903946	0.0	0.0	0.0	0.331451420903946	0.0	-0.331451420903946	0.0	0.0	0.331451420903946	0.0	0.0	-3.6004819468366676	-0.9965996558942452	-1.20967495745538	-2.9447298819156233	-0.528070741853021	-1.20967495745538	-1.7917885967677798	-2.6691138230725358	0.931368123764134	-2.9627582153970535	0.7564836020474288	1	correct	1.0
28.526472599944086	8.334322300041109	nogo_punish	0.4288787000114098	28.57506770000326	30.01753040007314	32.57685339997988	1.442462700069882	29.58939300000202	31.552454899996505	35.61932000005619	0.42813740007112244	1.024398499983377	1.2900699999881766	34.61114499997346	0.881612200057134	33.58880220004359	1	1	4	4	nogo_punish	1	-1	0	0	1	0	0	0.0	1.0	-1	0.4288787000114098	0.881612200057134	84.26034869998693	112.8354163999902	113.84974169998895	114.27787910006008	115.81280359998344	116.83720209996682	117.84915090003052	118.8714936999604	119.87966870004313	121.1697387000313	2019-12-11 16:17:20.848330	0.331451420903946	0.0	0.0	0.0	0.331451420903946	0.0	-0.331451420903946	0.0	0.0	0.331451420903946	0.0	-5.69411691570176	-3.6004819468366676	-0.9965996558942452	-1.20967495745538	-2.9447298819156233	-0.528070741853021	-1.20967495745538	-7.4859055124695395	-2.6691138230725358	0.931368123764134	-2.9627582153970535	0.7564836020474288	1	correct	1.0
36.89234439993743	9.172090300009586	nogo_punish	1.0	36.9409394999966	39.36593820003327	41.88813370000571	2.4249987000366673	37.94479280000087	40.8781417000573	44.92430569999851	1.421145400032401	1.0099919999484115	1.1887241000076756	43.918909600004554	0.4640178000554442	42.89736880001146	1	1	5	4	nogo_punish	1	-1	0	0	0	1	0	0.0	1.0	0	1.0	0.4640178000554442	84.26034869998693	121.20128819998354	122.2051414999878	123.6262869000202	125.13849040004423	126.14848239999264	127.1577174999984	128.1792582999915	129.18465439998545	130.37337849999312	2019-12-11 16:17:20.848330	-0.215653136025513	-0.069079226255899	0.0	-0.069079226255899	0.215653136025513	0.0	0.215653136025513	0.0	-0.069079226255899	0.0	0.215653136025513	0.0	-4.147586503766126	-1.0656788821501442	-1.20967495745538	-3.013809108171522	-0.6438690267314542	-1.20967495745538	-1.7917885967677798	-3.0005652439764816	1.147021259789647	-2.9627582153970535	0.6874043757915298	1	correct	1.0
46.10065199993551	7.850152599974535	nogo_reward	1.0	46.14924709999468	47.53597640001681	50.06196680001449	1.3867293000221252	47.14500869996846	49.040651399991475	53.1089128999738	0.3909677000483498	1.0213154000230134	0.8904867999954149	52.098042299970984	0.8289035999914631	51.07540800003335	1	1	6	2	nogo_reward	1	0	1	0	0	1	0	1.0	0.0	1	1.0	0.8289035999914631	84.26034869998693	130.40959579998162	131.4053573999554	131.79632510000374	133.3010000999784	134.32231550000142	135.33575670002028	136.35839099995792	137.36926159996074	138.25974839995615	2019-12-11 16:17:20.848330	-0.716918119587398	0.228024844518241	0.0	0.228024844518241	0.716918119587398	0.0	0.716918119587398	0.0	0.228024844518241	0.0	0.716918119587398	19.9212513644119	-4.648851487328011	-0.7685748113760041	-1.20967495745538	-2.7167050373973822	-0.1426040431695691	-1.20967495745538	18.12946276764412	-3.0005652439764816	1.648286243351532	-2.9627582153970535	0.9845084465656698	1	wrong	1.0
53.98325369996019	8.767853899975307	nogo_punish	1.0	54.03184880001936	55.8702661000425	58.400941999978386	1.8384173000231385	55.02658840001095	57.37982550007291	61.446742100059055	0.8436777000315487	1.0211164999054745	1.3529605999356136	60.44606940005906	0.5161572999786586	59.423208500025794	1	1	7	4	nogo_punish	1	-1	0	0	0	1	1	1.0	1.0	0	1.0	0.5161572999786586	84.26034869998693	138.2921975000063	139.28693709999789	140.13061480002943	141.64017420005985	142.66129069996532	143.68355720001273	144.706418100046	145.707090800046	147.0600513999816	2019-12-11 16:17:20.848330	-0.2176904437793	-0.069079226255899	0.0	-0.0662281054473166	0.2176904437793	0.0	0.2176904437793	0.0	-0.069079226255899	0.0	0.2176904437793	0.0	-4.1496238115199136	-1.0656788821501442	-1.20967495745538	-3.0109579873629397	-0.6418317189776671	-1.20967495745538	-1.7917885967677798	-3.0005652439764816	1.149058567543434	-2.9627582153970535	0.6874043757915298	1	correct	1.0
62.78553589992225	7.814966000034474	nogo_reward	0.6614324999973178	62.834130999981426	64.17784550006036	66.70925590000115	1.3437145000789315	63.8494217999978	65.68769890000112	69.75893810007256	0.32842370006255805	1.0215570000000298	0.8901588999433443	68.75535079999827	0.4207261999836191	67.72565939999186	1	1	8	2	nogo_reward	1	0	1	0	1	0	1	1.0	1.0	0	0.6614324999973178	0.4207261999836191	84.26034869998693	147.09447969996836	148.10977049998473	148.4381942000473	149.94804759998806	150.9696045999881	151.9860080999788	153.0156994999852	154.0192868000595	154.90944570000283	2019-12-11 16:17:20.848330	0.639544966415846	0.228024844518241	0.228024844518241	0.44654160842864	0.867569810934087	0.228024844518241	-0.639544966415846	0.228024844518241	0.228024844518241	0.867569810934087	0.228024844518241	-0.228024844518241	-3.2923884013247675	-0.7685748113760041	-0.981650112937139	-2.498188273486983	0.008047648177119893	-0.981650112937139	-2.0198134412860207	-2.1329954330423946	1.1593929682823751	-2.7347333708788124	0.9845084465656698	1	correct	1.0
70.63272849994246	7.92233590001706	nogo_punish	1.0	70.68132360000163	72.26196649996564	74.7881108999718	1.5806428999640048	71.70019250002221	73.77778180001769	77.84425000008196	0.5617739999434264	1.010329099954106	0.7594094999367371	76.8336712999735	0.4265071999980137	75.80584569997154	1	1	9	4	nogo_punish	1	-1	0	0	0	1	1	1.0	1.0	0	1.0	0.4265071999980137	84.26034869998693	154.94167229998857	155.96054120000915	156.52231519995257	158.03813050000463	159.04845959995873	160.06619439995848	161.09401999996044	162.1045987000689	162.86400820000563	2019-12-11 16:17:20.848330	-0.219266685874248	-0.069079226255899	0.0	-0.0640490829629574	0.219266685874248	0.0	0.219266685874248	0.0	-0.069079226255899	0.0	0.219266685874248	0.0	-4.151200053614861	-1.0656788821501442	-1.20967495745538	-3.0087789648785805	-0.6402554768827191	-1.20967495745538	-1.7917885967677798	-3.0005652439764816	1.150634809638382	-2.9627582153970535	0.6874043757915298	1	correct	1.0
78.59456100000534	8.91052579996176	go_punish	1.0	78.64315610006452	81.1500755000161	83.66973660001531	2.5069193999515846	79.64254390005954	82.65462709998246	86.71535640000366	1.5075315999565646	1.0151095000328496	0.83832550002262	85.69590579997748	0.8710858001140878	84.6742438999936	1	1	10	3	go_punish	1	0	-1	1	0	0	0	1.0	0.0	-1	1.0	0.8710858001140878	84.26034869998693	162.90350480005145	163.90289260004647	165.41042420000304	166.9149757999694	167.93008530000225	168.93459259998053	169.95625449996442	170.9757050999906	171.8140306000132	2019-12-11 16:17:20.848330	-0.331451420903946	0.0	0.0	0.0	0.331451420903946	0.0	0.331451420903946	0.0	0.0	0.0	0.331451420903946	-5.69411691570176	-4.26338478864456	-0.9965996558942452	-1.20967495745538	-2.9447298819156233	-0.528070741853021	-1.20967495745538	-7.4859055124695395	-3.0005652439764816	1.26281954466808	-2.9627582153970535	0.7564836020474288	1	wrong	1.0
87.5365781999426	8.930345700006	go_reward	0.5096237000543624	87.58517330000177	89.8668103000382	92.41804710007273	2.281637000036426	88.58894230006263	91.39734040002804	95.46592049999163	1.2778679999755695	1.0207067000446841	1.0495985000161454	94.4555022000568	0.5989803000120446	93.43439900001977	1	1	11	1	go_reward	0	0	1	1	1	1	0	0.0	1.0	0	0.5096237000543624	0.5989803000120446	84.26034869998693	171.8455219999887	172.84929100004956	174.12715900002513	175.65768910001498	176.67839580005966	177.6947477000067	178.71585090004373	179.72626919997856	180.7758676999947	2019-12-11 16:17:20.848330	0.331451420903946	0.0	0.0	0.0	0.331451420903946	0.0	-0.331451420903946	0.0	0.0	0.331451420903946	0.0	0.0	-3.6004819468366676	-0.9965996558942452	-1.20967495745538	-2.9447298819156233	-0.528070741853021	-1.20967495745538	-1.7917885967677798	-2.6691138230725358	0.931368123764134	-2.9627582153970535	0.7564836020474288	1	correct	1.0
96.50300519994926	8.313083200017047	nogo_reward	0.8070928000379354	96.55160030000843	97.93228219996675	100.4863861000631	1.3806818999583186	97.57284020003866	99.4704532000469	103.52722150005866	0.35944199992809445	1.015932900016196	1.3374619999668198	102.52175850002095	0.5284298999467865	101.50392060005106	1	1	12	2	nogo_reward	1	0	1	0	1	0	0	0.0	1.0	0	0.8070928000379354	0.5284298999467865	84.26034869998693	180.81194899999537	181.8331889000256	182.19263089995368	183.73080190003384	184.74673480005004	185.764269300038	186.78210720000789	187.7875702000456	189.1250322000124	2019-12-11 16:17:20.848330	0.617982865973032	0.218516763910399	0.228024844518241	0.429752999746826	0.846007710491274	0.228024844518241	-0.617982865973032	0.218516763910399	0.228024844518241	0.846007710491274	0.228024844518241	-0.218516763910399	-3.3139505017675814	-0.7780828919838462	-0.981650112937139	-2.5149768821687974	-0.013514452265693144	-0.981650112937139	-2.0103053606781787	-2.1545575334852076	1.1593929682823751	-2.7442414514866544	0.9845084465656698	1	correct	1.0
104.84928319999017	8.789979499997571	nogo_punish	0.8034005999797955	104.89787830004934	106.88409329997376	109.43857420003039	1.9862149999244139	105.90002270007972	108.41488850000314	112.47559879999608	0.9840705998940393	1.0236857000272437	1.2122590000508353	111.46230770007239	0.6480479999445379	110.44920160004403	1	1	13	4	nogo_punish	1	-1	0	0	1	0	0	0.0	1.0	-1	0.8034005999797955	0.6480479999445379	84.26034869998693	189.15822700003628	190.16037140006665	191.1444419999607	192.67523719999008	193.69892290001732	194.70955030003097	195.72265640005932	196.735947499983	197.94820650003385	2019-12-11 16:17:20.848330	0.220544275713312	-0.069079226255899	0.0	-0.0622892302210187	0.220544275713312	0.0	-0.220544275713312	-0.069079226255899	0.0	0.220544275713312	0.0	-5.625037689445861	-3.7113890920273014	-1.0656788821501442	-1.20967495745538	-3.007019112136642	-0.6389778870436551	-1.20967495745538	-7.416826286213641	-2.7800209682631696	0.931368123764134	-3.0318374416529523	0.7564836020474288	1	correct	1.0
113.67324619996356	8.755999700049927	nogo_reward	0.6623164999764413	113.72184130002273	115.56517329998314	118.10530759999531	1.8433319999604123	114.72375660005491	117.08476740005426	121.15643460000865	0.8414166999282315	1.0205401999410526	1.3214064000640064	120.14494969998486	0.666667600045912	119.12279729999136	1	1	14	2	nogo_reward	1	0	1	0	1	0	1	0.0	0.0	0	0.6623164999764413	0.666667600045912	84.26034869998693	197.98219000000967	198.98410530004185	199.82552199997008	201.3451161000412	202.36565629998225	203.3831459999783	204.4052983999718	205.4167832999956	206.7381897000596	2019-12-11 16:17:20.848330	0.601173284900734	0.211236235836427	0.228024844518241	0.416604796446194	0.829198129418976	0.228024844518241	-0.601173284900734	0.211236235836427	0.228024844518241	0.829198129418976	0.228024844518241	-0.211236235836427	-3.3307600828398796	-0.7853634200578181	-0.981650112937139	-2.5281250854694295	-0.030324033337991163	-0.981650112937139	-2.003024832604207	-2.1713671145575058	1.1593929682823751	-2.7515219795606267	0.9845084465656698	1	wrong	1.0
122.46291429991834	8.108308800030471	nogo_punish	0.7290905999252573	122.51150939997751	124.16935049998574	126.72416910005268	1.657841100008227	123.51286770007576	125.69987030001357	129.7609475000063	0.6564827999099805	1.0242988000391051	0.8588707000016882	128.75558990007266	0.5670437000226229	127.74340110004414	1	1	15	4	nogo_punish	1	-1	0	0	1	0	1	0.0	0.0	-1	0.7290905999252573	0.5670437000226229	84.26034869998693	206.77185809996445	207.7732164000627	208.42969919997267	209.9602190000005	210.9845178000396	212.00374980003107	213.0159386000596	214.02129619999323	214.88016689999492	2019-12-11 16:17:20.848330	0.108675631436997	-0.135307331703216	0.0	-0.129879210339447	0.108675631436997	0.0	-0.108675631436997	-0.135307331703216	0.0	0.108675631436997	0.0	-5.558809583998544	-3.823257736303616	-1.1319069875974612	-1.20967495745538	-3.0746090922550704	-0.7508465313199701	-1.20967495745538	-7.350598180766323	-2.8918896125394844	0.931368123764134	-3.0980655471002696	0.7564836020474288	1	wrong	1.0
130.60720319999385	8.581016800017096	nogo_reward	0.835564500070177	130.65579830005302	132.39483520004435	134.93478700006384	1.7390368999913335	131.66099880007096	133.92306870000905	137.99345660000105	0.7338363999733986	1.0117183000547811	1.2433585000690641	136.9803717000177	0.6718430999899283	135.95249569998123	1	1	16	2	nogo_reward	1	0	1	0	1	0	1	1.0	1.0	0	0.835564500070177	0.6718430999899283	84.26034869998693	214.91614700003996	215.9213475000579	216.6551839000313	218.183417399996	219.19513570005077	220.21284439996816	221.24072040000465	222.253805299988	223.49716380005705	2019-12-11 16:17:20.848330	0.587445813563988	0.205368560609767	0.228024844518241	0.405793589796788	0.815470658082229	0.228024844518241	-0.587445813563988	0.205368560609767	0.228024844518241	0.815470658082229	0.228024844518241	-0.205368560609767	-3.3444875541766255	-0.7912310952844781	-0.981650112937139	-2.5389362921188354	-0.04405150467473817	-0.981650112937139	-1.9971571573775468	-2.1850945858942525	1.1593929682823751	-2.7573896547872865	0.9845084465656698	1	correct	1.0
139.22152649995405	9.340533299953677	nogo_punish	1.0	139.27012160001323	142.09630119998474	144.6206909000175	2.8261795999715105	140.26856480003335	143.6109651000006	147.664089399972	1.827736399951391	1.009725800016895	0.9465654999949038	146.66021040000487	0.6665033000754192	145.63998269999865	1	1	17	4	nogo_punish	1	-1	0	0	0	1	1	1.0	1.0	0	1.0	0.6665033000754192	84.26034869998693	223.53047030000016	224.52891350002028	226.35664989997167	227.87131379998755	228.88103960000444	229.9003313999856	230.9205590999918	231.92443809995893	232.87100359995384	2019-12-11 16:17:20.848330	-0.0008865813390057	-0.199356414666173	0.0	-0.19479930064521	0.0008865813390057	0.0	0.0008865813390057	0.0	-0.199356414666173	0.0	0.0008865813390057	0.0	-3.932819949079619	-1.1959560705604182	-1.20967495745538	-3.1395291825608336	-0.8586355814179615	-1.20967495745538	-1.7917885967677798	-3.0005652439764816	0.9322547051031397	-2.9627582153970535	0.5571271873812558	1	correct	1.0
148.60150929994413	9.617959200055367	go_punish	1.0	148.6501044000033	151.4084065000061	153.93919190007728	2.758302100002794	149.6508636000799	152.9193923000712	156.99360679998065	1.757542899926193	1.0197996000060812	1.2744568000780134	155.97917970002163	0.5280110999010503	154.9464878999861	1	1	18	3	go_punish	0	-1	0	1	0	0	0	0.0	1.0	0	1.0	0.5280110999010503	84.26034869998693	232.91045309999024	233.91121230006684	235.66875519999303	237.17974100005813	238.1995406000642	239.20683659997303	240.23952840000857	241.2539554999676	242.5284123000456	2019-12-11 16:17:20.848330	-0.353811588537311	0.0	-0.069079226255899	-0.069079226255899	0.284732362281412	-0.069079226255899	0.353811588537311	-0.069079226255899	0.0	-0.069079226255899	0.284732362281412	0.069079226255899	-4.285744956277925	-0.9965996558942452	-1.278754183711279	-3.013809108171522	-0.5747898004755552	-1.278754183711279	-1.7227093705118808	-3.0696444702323804	1.216100486045546	-3.0318374416529523	0.7564836020474288	1	correct	1.0
158.25144489994273	8.805566900060484	go_reward	1.0	158.3000400000019	160.0715033999877	162.58361610001882	1.7714633999858052	159.29694480006586	161.57546229998115	165.64374770002905	0.7745585999218463	1.008153800037661	1.4618592000333308	164.63621580007023	0.4175607999786734	163.60303460003345	1	1	19	1	go_reward	1	1	0	1	0	0	0	0.0	1.0	0	1.0	0.4175607999786734	84.26034869998693	242.56038869998883	243.5572935000528	244.33185209997464	245.8358109999681	246.84396480000575	247.8633833000204	248.89656450005717	249.904096400016	251.36595560004932	2019-12-11 16:17:20.848330	-0.331451420903946	0.0	0.0	0.0	0.331451420903946	0.0	0.331451420903946	0.0	0.0	0.0	0.331451420903946	0.0	-4.26338478864456	-0.9965996558942452	-1.20967495745538	-2.9447298819156233	-0.528070741853021	-1.20967495745538	-1.7917885967677798	-3.0005652439764816	1.26281954466808	-2.9627582153970535	0.7564836020474288	1	correct	1.0
167.09307049994825	8.385353400022694	nogo_reward	1.0	167.14166560000743	169.0639259000309	171.5897648000391	1.9222603000234812	168.15657450002618	170.57354560005476	174.63658519997261	0.9073514000047282	1.0162191999843344	0.890433800057508	173.61969730001874	0.630274900002405	172.6031992000062	1	1	20	2	nogo_reward	1	0	1	0	0	1	0	0.0	1.0	1	1.0	0.630274900002405	84.26034869998693	251.40201429999436	252.41692320001312	253.32427460001784	254.8338943000417	255.85011350002603	256.86354789999314	257.8800460000057	258.89693389995955	259.78736770001706	2019-12-11 16:17:20.848330	-0.575776027829567	0.200425029187021	0.228024844518241	0.396531203877763	0.803800872347808	0.228024844518241	0.575776027829567	0.228024844518241	0.200425029187021	0.228024844518241	0.803800872347808	19.69322651989366	-4.50770939557018	-0.7961746267072242	-0.981650112937139	-2.5481986780378603	-0.055721290409159185	-0.981650112937139	17.90143792312588	-2.7725403994582405	1.735168996111942	-2.7347333708788124	0.9569086312344498	1	correct	1.0
175.51219239993952	8.117905299994163	nogo_reward	1.0	175.5607874999987	177.10923339996953	179.63689319998957	1.5484458999708295	176.56206140003633	178.61589170002844	182.67704950005276	0.5471719999331981	1.0210014999611303	1.001643299940099	181.66316130000632	0.4281661000568419	180.65128720004577	1	1	21	2	nogo_reward	0	1	0	0	0	1	0	0.0	1.0	0	1.0	0.4281661000568419	84.26034869998693	259.82113619998563	260.82241010002326	261.36958209995646	262.8762404000154	263.8972418999765	264.9116359000327	265.92350999999326	266.9373982000397	267.9390414999798	2019-12-11 16:17:20.848330	-0.508766908378554	0.200425029187021	0.44654160842864	0.616355441805098	0.955308516807195	0.44654160842864	0.508766908378554	0.44654160842864	0.200425029187021	0.44654160842864	0.955308516807195	-0.44654160842864	-4.440700276119167	-0.7961746267072242	-0.76313334902674	-2.328374440110525	0.09578635405022784	-0.76313334902674	-2.23833020519642	-2.554023635547842	1.886676640571329	-2.5162166069684133	0.9569086312344498	1	correct	1.0
183.66474909998948	8.177898399997446	nogo_reward	1.0	183.71334420004865	185.06129169999622	187.59007060003933	1.3479474999475656	184.71780630003195	186.56649130000733	190.64792700007092	0.3434853999642655	1.0235793000319973	1.2433155999751762	189.63635040004738	0.4871544999768957	188.6032036000397	1	1	22	2	nogo_reward	1	0	1	0	0	1	1	0.0	0.0	1	1.0	0.4871544999768957	84.26034869998693	267.9736929000356	268.9781550000189	269.32164039998315	270.82683999999426	271.85041930002626	272.86355230002664	273.8966991000343	274.90827570005786	276.15159130003303	2019-12-11 16:17:20.848330	-0.513401442139984	0.200425029187021	0.429752999746826	0.599400795330491	0.943154441886809	0.429752999746826	0.513401442139984	0.429752999746826	0.200425029187021	0.429752999746826	0.943154441886809	19.491498364665077	-4.445334809880597	-0.7961746267072242	-0.779921957708554	-2.3453290865851324	0.08363227912984184	-0.779921957708554	17.699709767897296	-2.5708122442296557	1.874522565650943	-2.5330052156502276	0.9569086312344498	1	wrong	1.0
191.87556459999178	9.28376899997238	nogo_reward	1.0	191.92415970005095	194.24912579997908	196.77012030000333	2.324966099928133	192.9292182000354	195.7543232999742	199.82698070001788	1.31990759994369	1.0157970000291243	1.3809480000054464	198.81294279999565	0.3864758999552578	197.7780493000755	1	1	23	2	nogo_reward	1	0	1	0	0	1	1	1.0	1.0	1	1.0	0.3864758999552578	84.26034869998693	276.1845084000379	277.1895669000223	278.509474499966	280.01467199996114	281.03046899999026	282.03839800006244	283.0732914999826	284.0873294000048	285.46827740001027	2019-12-11 16:17:20.848330	-0.44576244094264	0.200425029187021	0.644629640964436	0.813253650125286	1.09039208190708	0.644629640964436	0.44576244094264	0.644629640964436	0.200425029187021	0.644629640964436	1.09039208190708	19.276621723447466	-4.377695808683254	-0.7961746267072242	-0.565045316490944	-2.1314762317903373	0.2308699191501129	-0.565045316490944	17.484833126679685	-2.3559356030120457	2.021760205671214	-2.3181285744326177	0.9569086312344498	1	correct	1.0
201.19343430001754	9.384472999954596	nogo_reward	1.0	201.24202940007672	204.03307440003846	206.56284510006668	2.7910449999617413	202.2583098000614	205.53909500001464	209.6182378999656	1.7747645999770612	1.023750100052041	1.0082645000657067	208.60490739997476	0.4557654000818729	207.57578830001876	1	1	24	2	nogo_reward	1	0	1	0	0	1	1	1.0	1.0	1	1.0	0.4557654000818729	84.26034869998693	285.50237810006365	286.51865850004833	288.2934231000254	289.7994437000016	290.8231938000536	291.8361370000057	292.8652560999617	293.87858659995254	294.88685110001825	2019-12-11 16:17:20.848330	-0.379827557162286	0.200425029187021	0.852335198225428	1.0194347443463	1.23216275538771	0.852335198225428	0.379827557162286	0.852335198225428	0.200425029187021	0.852335198225428	1.23216275538771	19.068916166186472	-4.3117609249029	-0.7961746267072242	-0.357339759229952	-1.9252951375693232	0.3726405926307428	-0.357339759229952	17.277127569418692	-2.1482300457510535	2.163530879151844	-2.1104230171716254	0.9569086312344498	1	correct	1.0
210.61515969992615	9.11674040008802	go_punish	1.0	210.66375479998533	212.72508990007918	215.25265190005308	2.0613351000938565	211.67729060002603	214.2289231000468	218.30564070004039	1.047799300053157	1.0237288000062676	1.4748545000329614	217.3011800000677	0.5786424999823794	216.26581969996914	1	1	25	3	go_punish	1	0	-1	1	0	0	0	0.0	1.0	-1	1.0	0.5786424999823794	84.26034869998693	294.92410349997226	295.93763930001296	296.9854386000661	298.48927180003375	299.51300060004	300.5261683999561	301.5615287000546	302.5659894000273	304.0408439000603	2019-12-11 16:17:20.848330	-0.352997775482515	0.0	-0.0662281054473166	-0.0662281054473166	0.286769670035199	-0.0662281054473166	0.352997775482515	-0.0662281054473166	0.0	-0.0662281054473166	0.286769670035199	-5.6278888102544435	-4.284931143223129	-0.9965996558942452	-1.2759030629026966	-3.0109579873629397	-0.5727524927217682	-1.2759030629026966	-7.419677407022223	-3.066793349423798	1.218137793799333	-3.02898632084437	0.7564836020474288	1	correct	1.0
219.77034279995132	8.90870290005114	nogo_punish	1.0	219.8189379000105	221.67232430004515	224.20123310002964	1.8533864000346512	220.82928240008187	223.18087869999	227.26556700002402	0.843041899963282	1.0203544000396505	1.462073800037615	226.25276479998138	0.6435971000464633	225.21793070004787	1	1	26	4	nogo_punish	1	-1	0	0	0	1	0	0.0	1.0	0	1.0	0.6435971000464633	84.26034869998693	304.07928659999743	305.0896311000688	305.9326730000321	307.4412273999769	308.4615818000166	309.4782794000348	310.5131134999683	311.52591570001096	312.98798950004857	2019-12-11 16:17:20.848330	-0.0053450101543374	-0.199356414666173	0.0	-0.18858725742064	0.0053450101543374	0.0	0.0053450101543374	0.0	-0.199356414666173	0.0	0.0053450101543374	0.0	-3.937278377894951	-1.1959560705604182	-1.20967495745538	-3.1333171393362633	-0.8541771526026297	-1.20967495745538	-1.7917885967677798	-3.0005652439764816	0.9367131339184714	-2.9627582153970535	0.5571271873812558	1	correct	1.0
228.71131049992982	8.812706500058994	go_reward	1.0	228.759905599989	230.79957759997342	233.3261653999798	2.039671999984421	229.75584330002312	232.30627309996635	236.37492009997368	1.0437342999503016	1.0198923000134528	1.197692000074312	235.36683830001857	0.5945760000031441	234.3379033000674	1	1	27	1	go_reward	1	1	0	1	0	0	0	0.0	1.0	0	1.0	0.5945760000031441	84.26034869998693	313.02025429997593	314.01619200001005	315.05992629996035	316.5666217999533	317.58651409996673	318.59825200005434	319.6271870000055	320.6352687999606	321.8329608000349	2019-12-11 16:17:20.848330	-0.331451420903946	0.0	0.0	0.0	0.331451420903946	0.0	0.331451420903946	0.0	0.0	0.0	0.331451420903946	0.0	-4.26338478864456	-0.9965996558942452	-1.20967495745538	-2.9447298819156233	-0.528070741853021	-1.20967495745538	-1.7917885967677798	-3.0005652439764816	1.26281954466808	-2.9627582153970535	0.7564836020474288	1	correct	1.0
237.55959459999576	8.577463699970394	nogo_reward	0.8672102000564337	237.60818970005494	239.54530440003145	242.10608280007727	1.9371146999765188	238.6235777999973	241.08543189999182	245.15960510005243	0.9217266000341624	1.0206509000854567	1.0260482999728993	244.1466104000574	0.3730477999197319	243.12253350007813	1	1	28	2	nogo_reward	1	0	1	0	1	0	0	0.0	1.0	0	0.8672102000564337	0.3730477999197319	84.26034869998693	321.86853840004187	322.8839264999842	323.8056531000184	325.34578059997875	326.3664315000642	327.38288220006507	328.40695910004433	329.41995380003937	330.44600210001227	2019-12-11 16:17:20.848330	0.315287483759208	0.200425029187021	1.05430904814283	1.21959372449316	1.36959653190204	1.05430904814283	-0.315287483759208	0.200425029187021	1.05430904814283	1.36959653190204	1.05430904814283	-0.200425029187021	-3.6166458839814055	-0.7961746267072242	-0.1553659093125499	-1.7251361574224633	0.5100743691450729	-0.1553659093125499	-1.992213625954801	-1.6309687120744416	1.9856771719069641	-2.7623331862100327	1.810792650190259	1	correct	1.0
246.17693269997835	8.590738900005817	go_punish	1.0	246.22552780003753	248.00538210000377	250.53418780001812	1.779854299966246	247.23846360004973	249.5140864000423	253.5826953999931	0.7669184999540448	1.0201013999758288	1.2335713000502437	252.56872059998568	0.910263300058432	251.5472155000316	1	1	29	3	go_punish	1	0	-1	1	0	0	0	0.0	1.0	-1	1.0	0.910263300058432	84.26034869998693	330.48587650002446	331.49881230003666	332.2657307999907	333.7744351000292	334.79453650000505	335.80756420001853	336.8290692999726	337.84304409998003	339.0766154000303	2019-12-11 16:17:20.848330	-0.374755162726469	0.0	-0.133128309218856	-0.133128309218856	0.241626853507613	-0.133128309218856	0.374755162726469	-0.133128309218856	0.0	-0.133128309218856	0.241626853507613	-5.560988606482904	-4.306688530467082	-0.9965996558942452	-1.342803266674236	-3.0778581911344793	-0.6178953092493541	-1.342803266674236	-7.3527772032506835	-3.1336935531953376	1.172994977271747	-3.0958865246159095	0.7564836020474288	1	correct	1.0
254.80462029995397	9.355748299974948	go_punish	0.810832199989818	254.85321540001314	257.2296747000655	259.78126409999095	2.3764593000523746	255.87014670006465	258.7600879999809	262.8260729999747	1.3595280000008643	1.0211761000100523	1.3828907000133768	261.8184589999728	0.2810138999484479	260.7953580999747	1	1	30	3	go_punish	1	0	-1	1	1	1	0	0.0	1.0	0	0.810832199989818	0.2810138999484479	84.26034869998693	339.1135641000001	340.1304954000516	341.49002340005245	343.02043669996783	344.0416127999779	345.0557067999616	346.0788076999597	347.08642169996165	348.469312399975	2019-12-11 16:17:20.848330	0.395819254402164	0.0	-0.197596561924234	-0.197596561924234	0.19822269247793	-0.197596561924234	-0.395819254402164	0.0	-0.197596561924234	0.19822269247793	-0.197596561924234	0.0	-3.5361141133384493	-0.9965996558942452	-1.407271519379614	-3.1423264438398575	-0.6612994702790371	-1.407271519379614	-1.7917885967677798	-2.8023425514985516	0.7337715618399	-2.9627582153970535	0.5588870401231948	1	correct	1.0
264.1980676999083	8.773621600004844	nogo_reward	1.0	264.24666279996745	266.6796034000581	269.2115696000401	2.43294060009066	265.25248909997754	268.18734840000985	272.24588479998056	1.427114300080575	1.0242212000302402	0.7743995999917388	271.2343176000286	0.710029200068675	270.21456059999764	1	1	31	2	nogo_reward	1	0	1	0	0	1	0	0.0	1.0	1	1.0	0.710029200068675	84.26034869998693	348.5070114999544	349.5128377999645	350.93995210004505	352.4476970999968	353.471918300027	354.4749092999846	355.4946663000155	356.5062334999675	357.28063309995923	2019-12-11 16:17:20.848330	-0.28736675698572	0.196106174690743	1.05430904814283	1.1867572231214	1.34167580512855	1.05430904814283	0.28736675698572	1.05430904814283	0.196106174690743	1.05430904814283	1.34167580512855	18.86694231626907	-4.219300124726334	-0.8004934812035022	-0.1553659093125499	-1.7579726587942233	0.48215364237158287	-0.1553659093125499	17.07515371950129	-1.9462561958336515	2.273043928892684	-1.9084491672542234	0.9525897767381718	1	correct	1.0
273.0071824999759	7.85338149999734	nogo_reward	1.0	273.05577760003507	274.4299726000754	276.96246359997895	1.374195000040345	274.07091989996843	275.9391193999909	280.0127031999873	0.35905270010698587	1.0233441999880597	0.8964559000451118	279.00292410003027	0.7367453000042588	277.96683479996864	1	1	32	2	nogo_reward	1	0	1	0	0	1	0	0.0	1.0	1	1.0	0.7367453000042588	84.26034869998693	357.316126300022	358.33126859995537	358.69032130006235	360.1994680999778	361.2228122999659	362.2271834999556	363.2632728000172	364.27305189997423	365.16950780001935	2019-12-11 16:17:20.848330	-0.227737519020372	0.196106174690743	1.25147700216169	1.38717556109349	1.47921452118206	1.25147700216169	0.227737519020372	1.25147700216169	0.196106174690743	1.25147700216169	1.47921452118206	18.669774362250212	-4.159670886760986	-0.8004934812035022	0.041802044706310104	-1.5575543208221334	0.6196923584250928	0.041802044706310104	16.877985765482432	-1.7490882418147915	2.410582644946194	-1.7112812132353634	0.9525897767381718	1	correct	1.0
280.8996910999995	8.952399599948023	go_punish	1.0	280.94828620005865	282.9196776000317	285.4559020000743	1.9713913999730721	281.95146240002947	284.43833939998876	288.4853869000217	0.9682152000022484	1.0175626000855118	1.4152988999849754	287.4786298000254	1.0	286.4679214999779	1	1	33	3	go_punish	1	0	-1	1	0	0	0	n/a	0.0	-1	1.0	1.0	84.26034869998693	365.2086349000456	366.2118111000164	367.18002630001865	368.6986880999757	369.7162507000612	370.7282701999648	371.7389785000123	372.74573560000863	374.1610344999936	2019-12-11 16:17:20.848330	-0.400511324044435	0.0	-0.197596561924234	-0.191077172493822	0.202914762120201	-0.197596561924234	0.400511324044435	-0.197596561924234	0.0	-0.197596561924234	0.202914762120201	-5.496520353777526	-4.3324446917850485	-0.9965996558942452	-1.407271519379614	-3.135807054409445	-0.6566074006367661	-1.407271519379614	-7.288308950545305	-3.1981618059007157	1.134282885884335	-3.1603547773212877	0.7564836020474288	1	missed	0.0
289.88602159998845	8.27060349995736	nogo_punish	1.0	289.9346167000476	291.26087800005917	293.77976850001147	1.326261300011538	290.93290390004404	292.76713970000856	296.81545500003267	0.32797410001512617	1.0126288000029149	1.3897651999723166	295.8111776000587	0.5969323000172153	294.7916947000195	1	1	34	4	nogo_punish	1	-1	0	0	0	1	0	0.0	1.0	0	1.0	0.5969323000172153	84.26034869998693	374.19496540003456	375.193252600031	375.5212267000461	377.0274883999955	378.0401171999984	379.0520434000064	380.07152630004566	381.0758037000196	382.4655688999919	2019-12-11 16:17:20.848330	-0.008972796704569	-0.199356414666173	0.0	-0.183557740511048	0.008972796704569	0.0	0.008972796704569	0.0	-0.199356414666173	0.0	0.008972796704569	0.0	-3.9409061644451824	-1.1959560705604182	-1.20967495745538	-3.1282876224266714	-0.8505493660523982	-1.20967495745538	-1.7917885967677798	-3.0005652439764816	0.940340920468703	-2.9627582153970535	0.5571271873812558	1	correct	1.0
298.1980431999546	8.158581300056483	go_punish	0.2467384000774473	298.2466383000138	299.8166782000335	302.3782376999734	1.570039900019708	299.2542359000072	301.35733819997404	305.43693129997706	0.562442300026305	1.0208994999993593	0.9682883000932065	304.4178598000436	0.8468261999078095	303.39470519998576	1	1	35	3	go_punish	1	0	-1	1	1	1	1	0.0	0.0	0	0.2467384000774473	0.8468261999078095	84.26034869998693	382.5069870000007	383.5145845999941	384.0770269000204	385.617686899961	386.63858639996033	387.6550538999727	388.6782085000305	389.697279999964	390.6655683000572	2019-12-11 16:17:20.848330	0.420147717915114	0.0	-0.260156398749721	-0.25490950838187	0.159991319165392	-0.260156398749721	-0.420147717915114	0.0	-0.260156398749721	0.159991319165392	-0.260156398749721	0.0	-3.5117856498254993	-0.9965996558942452	-1.469831356205101	-3.1996393902974933	-0.6995308435915751	-1.469831356205101	-1.7917885967677798	-2.8405739248110895	0.671211725014413	-2.9627582153970535	0.4963272032977078	1	wrong	1.0
306.3948754000012	7.976435599965043	go_punish	0.647703199996613	306.44347050006036	307.92483819997864	310.46472200006247	1.4813676999182803	307.45571520004887	309.45333020004904	313.5074369000504	0.46912299992976614	1.0113918000134277	0.9124691999750212	312.50056409998797	0.4407380999764427	311.47288200003095	1	1	36	3	go_punish	1	0	-1	1	1	1	0	1.0	0.0	0	0.647703199996613	0.4407380999764427	84.26034869998693	390.7038192000473	391.7160639000358	392.1851868999656	393.713678900036	394.7250707000494	395.7332307000179	396.7609127999749	397.7677856000373	398.68025480001234	2019-12-11 16:17:20.848330	0.425386014268097	0.0	-0.260156398749721	-0.24762738876225	0.165229615518376	-0.260156398749721	-0.425386014268097	0.0	-0.260156398749721	0.165229615518376	-0.260156398749721	0.0	-3.5065473534725164	-0.9965996558942452	-1.469831356205101	-3.1923572706778733	-0.6942925472385911	-1.469831356205101	-1.7917885967677798	-2.8353356284581057	0.671211725014413	-2.9627582153970535	0.4963272032977078	1	wrong	1.0
314.4049555999227	8.394458200083989	nogo_punish	0.7874855999834836	314.45355069998186	315.7959691999713	318.32682299998123	1.342418499989435	315.44646360003384	317.31163250003004	321.37840519996826	0.34950559993745856	1.0151904999511885	1.4696037000975934	320.36076840001624	0.6849257000721991	319.34067890001467	1	1	37	4	nogo_punish	1	-1	0	0	1	0	0	0.0	1.0	-1	0.7874855999834836	0.6849257000721991	84.26034869998693	398.7138993999688	399.7068123000208	400.05631789995823	401.571981200017	402.58717169996817	403.6010276000016	404.6211171000032	405.6387538999552	407.1083576000528	2019-12-11 16:17:20.848330	0.0120492341019645	-0.199356414666173	0.0	-0.179286645381411	0.0120492341019645	0.0	-0.0120492341019645	-0.199356414666173	0.0	0.0120492341019645	0.0	-5.494760501035587	-3.9198841336386487	-1.1959560705604182	-1.20967495745538	-3.124016527297034	-0.8474729286550027	-1.20967495745538	-7.286549097803366	-2.988516009874517	0.931368123764134	-3.1621146300632264	0.7564836020474288	1	correct	1.0
322.8320161999436	8.601754100061953	nogo_punish	1.0	322.8806113000028	324.54717460006947	327.08345590007957	1.6665633000666844	323.88526040001307	326.06313660007436	330.13277160003787	0.6619142000564011	1.0203193000052124	1.3495938000268666	329.11953400005586	0.3108510000165552	328.09181540005375	1	1	38	4	nogo_punish	1	-1	0	0	0	1	0	0.0	1.0	0	1.0	0.3108510000165552	84.26034869998693	407.1409599999897	408.1456091	408.8075233000564	410.3234853000613	411.3438046000665	412.3521641000407	413.3798827000428	414.3931203000248	415.74271410005167	2019-12-11 16:17:20.848330	0.0942602938381905	-0.261645644887192	0.0	-0.244600211044385	-0.0942602938381905	0.0	-0.0942602938381905	0.0	-0.261645644887192	0.0	-0.0942602938381905	0.0	-3.837673073902423	-1.2582453007814371	-1.20967495745538	-3.1893300929600086	-0.9537824565951576	-1.20967495745538	-1.7917885967677798	-3.0005652439764816	0.8371078299259436	-2.9627582153970535	0.4948379571602368	1	correct	1.0
331.47037979995366	8.104055300005712	nogo_punish	1.0	331.51897490001284	333.09498180006636	335.61941649997607	1.5760069000535282	332.5328851999948	334.6104124999838	338.6642917999998	0.5620966000715839	1.0090039999922737	0.958738400018774	337.66027580003714	0.8426617999793962	336.6378895000089	1	1	39	4	nogo_punish	1	-1	0	0	0	1	1	0.0	0.0	0	1.0	0.8426617999793962	84.26034869998693	415.77932359999977	416.7932338999817	417.3553305000533	418.87076119997073	419.879765199963	420.89823819999583	421.9206245000241	422.9246404999867	423.8833789000055	2019-12-11 16:17:20.848330	0.0897915777773897	-0.261645644887192	0.0	-0.238334100058573	-0.0897915777773897	0.0	-0.0897915777773897	0.0	-0.261645644887192	0.0	-0.0897915777773897	0.0	-3.8421417899632235	-1.2582453007814371	-1.20967495745538	-3.1830639819741964	-0.9493137405343568	-1.20967495745538	-1.7917885967677798	-3.0005652439764816	0.8415765459867444	-2.9627582153970535	0.4948379571602368	1	wrong	1.0
339.6061619999819	9.37457620003255	go_reward	0.2106894999742508	339.6547571000411	342.0769719000673	344.6288921000669	2.422214800026211	340.65395289997105	343.6179533000104	347.6769645999884	1.4230190000962466	1.010938800056465	1.3523687000852078	346.66427010006737	0.4318522000685334	345.65079640003387	1	1	40	1	go_reward	0	0	1	1	1	1	0	0.0	1.0	0	0.2106894999742508	0.4318522000685334	84.26034869998693	423.915105800028	424.914301599958	426.3373206000542	427.87830199999735	428.8892408000538	429.9111451000208	430.9246188000543	431.93731329997536	433.28968200006057	2019-12-11 16:17:20.848330	0.331451420903946	0.0	0.0	0.0	0.331451420903946	0.0	-0.331451420903946	0.0	0.0	0.331451420903946	0.0	0.0	-3.6004819468366676	-0.9965996558942452	-1.20967495745538	-2.9447298819156233	-0.528070741853021	-1.20967495745538	-1.7917885967677798	-2.6691138230725358	0.931368123764134	-2.9627582153970535	0.7564836020474288	1	correct	1.0
349.020383499912	8.884905600105412	go_punish	1.0	349.06897859997116	350.93823880003765	353.4698126000585	1.869260200066492	350.08004949998576	352.445820300025	356.5075871000299	0.8581893000518903	1.0239923000335125	1.4462971000466496	355.50002280005714	0.8944019000045955	354.47715240006795	1	1	41	3	go_punish	1	0	-1	1	0	0	0	0.0	1.0	-1	1.0	0.8944019000045955	84.26034869998693	433.3293272999581	434.3403981999727	435.1985875000246	436.7061690000119	437.73016130004544	438.7375011000549	439.7603715000441	440.76793580001686	442.2142329000635	2019-12-11 16:17:20.848330	-0.429756514506513	0.0	-0.260156398749721	-0.241560463315572	0.169600115756792	-0.260156398749721	0.429756514506513	-0.260156398749721	0.0	-0.260156398749721	0.169600115756792	-5.433960516952039	-4.361689882247126	-0.9965996558942452	-1.469831356205101	-3.1862903452311953	-0.6899220470001751	-1.469831356205101	-7.225749113719819	-3.2607216427262027	1.1009682395209262	-3.2229146141467746	0.7564836020474288	1	correct	1.0
357.9439900999423	9.553918799967505	go_punish	0.1723196000093594	357.9925852000015	360.71034580003464	363.2538608000614	2.7177606000331593	359.004703200073	362.23321159998886	366.3030581000494	1.7056425999616636	1.020649200072512	1.2434458999196067	365.2996346000582	0.219985399977304	364.27168090001214	1	1	42	3	go_punish	1	0	-1	1	1	1	0	0.0	1.0	0	0.1723196000093594	0.219985399977304	84.26034869998693	442.2529338999884	443.2650519000599	444.9706945000216	446.4935602999758	447.5142095000483	448.5320295999991	449.55998330004513	450.5634068000363	451.8068526999559	2019-12-11 16:17:20.848330	0.447803251267614	0.0	-0.321137613829186	-0.305367925506123	0.126665637438428	-0.321137613829186	-0.447803251267614	0.0	-0.321137613829186	0.126665637438428	-0.321137613829186	0.0	-3.4841301164729996	-0.9965996558942452	-1.530812571284566	-3.2500978074217466	-0.7328565253185391	-1.530812571284566	-1.7917885967677798	-2.8738996065380538	0.6102305099349481	-2.9627582153970535	0.43534598821824283	1	correct	1.0
367.5361836999655	8.199863799964078	go_punish	0.0055116000585258	367.58477880002465	369.09008300001733	371.63659250002826	1.505304199992679	368.58996290003415	370.62641460006125	374.6769188999897	0.5001200999831781	1.0101778999670046	1.1077236999990419	373.66251659998665	0.6441218999680132	372.6504365999717	1	1	43	3	go_punish	1	0	-1	1	1	1	1	0.0	0.0	0	0.0055116000585258	0.6441218999680132	84.26034869998693	451.8451275000116	452.8503116000211	453.35043170000426	454.8867633000482	455.8969412000152	456.91078529995866	457.9228652999736	458.9372675999766	460.04499129997566	2019-12-11 16:17:20.848330	0.453216369773901	0.0	-0.321137613829186	-0.297786617631246	0.132078755944715	-0.321137613829186	-0.453216369773901	0.0	-0.321137613829186	0.132078755944715	-0.321137613829186	0.0	-3.4787169979667123	-0.9965996558942452	-1.530812571284566	-3.2425164995468694	-0.7274434068122522	-1.530812571284566	-1.7917885967677798	-2.8684864880317664	0.6102305099349481	-2.9627582153970535	0.43534598821824283	1	wrong	1.0
375.7722880999791	8.894952200003843	go_reward	0.8957081000553444	375.8208832000383	378.31996390002314	380.87071869999636	2.4990806999848587	376.83639710000716	379.85145449999254	383.91021060000634	1.4835668000159785	1.0192642000038177	0.8056248000357868	382.90723670006264	0.5468816000502557	381.8787767000031	1	1	44	1	go_reward	1	1	0	1	1	1	0	1.0	0.0	1	0.8957081000553444	0.5468816000502557	84.26034869998693	460.0812319000252	461.0967457999941	462.5803126000101	464.1118031999795	465.1310673999833	466.13912539999	467.1675854000496	468.1705592999933	468.97618410002906	2019-12-11 16:17:20.848330	0.331451420903946	0.0	0.0	0.0	0.331451420903946	0.0	-0.331451420903946	0.0	0.0	0.331451420903946	0.0	19.9212513644119	-3.6004819468366676	-0.9965996558942452	-1.20967495745538	-2.9447298819156233	-0.528070741853021	-1.20967495745538	18.12946276764412	-2.6691138230725358	0.931368123764134	-2.9627582153970535	0.7564836020474288	1	wrong	1.0
384.7004848999204	8.442158700083382	go_reward	0.4038078000303358	384.7490799999796	386.17792699998245	388.7333191999933	1.428847000002861	385.7558188000694	387.70991840003984	391.7854937000666	0.4221081999130547	1.0234007999534356	1.4057449999963865	390.76985839998815	0.5175032999832183	389.74705690005794	1	1	45	1	go_reward	1	1	0	1	1	1	0	1.0	0.0	1	0.4038078000303358	0.5175032999832183	84.26034869998693	469.0094286999665	470.0161675000563	470.4382756999694	471.9702671000268	472.9936678999802	474.0074056000449	475.0302070999751	476.0458424000535	477.4515874000499	2019-12-11 16:17:20.848330	0.716918119587398	0.228024844518241	0.0	0.228024844518241	0.716918119587398	0.0	-0.716918119587398	0.228024844518241	0.0	0.716918119587398	0.0	19.69322651989366	-3.2150152481532155	-0.7685748113760041	-1.20967495745538	-2.7167050373973822	-0.1426040431695691	-1.20967495745538	17.90143792312588	-2.2836471243890837	0.931368123764134	-2.7347333708788124	0.7564836020474288	1	wrong	1.0
393.1747027999955	9.006954899989012	go_reward	0.618141199927777	393.22329790005466	395.4083755000029	397.95398760004906	2.1850775999482153	394.23153930006083	396.93213289999403	401.0027521000011	1.176836199942045	1.0218547000550302	1.227500700042583	399.9917314000195	0.4309329999377951	398.97175730008166	1	1	46	1	go_reward	0	0	1	1	1	1	1	1.0	1.0	0	0.618141199927777	0.4309329999377951	84.26034869998693	477.4836466000416	478.49188800004777	479.6687241999898	481.19248159998097	482.214336300036	483.2321060000686	484.2520801000064	485.263100799988	486.4906015000306	2019-12-11 16:17:20.848330	1.08608657484449	0.44654160842864	0.0	0.44654160842864	1.08608657484449	0.0	-1.08608657484449	0.44654160842864	0.0	1.08608657484449	0.0	-0.44654160842864	-2.8458467928961237	-0.5500580474656052	-1.20967495745538	-2.498188273486983	0.22656441208752276	-1.20967495745538	-2.23833020519642	-1.9144786691319917	0.931368123764134	-2.5162166069684133	0.7564836020474288	1	correct	1.0
402.2146226000041	9.28695430001244	go_reward	0.726458300021477	402.26321770006325	404.99227200006135	407.52857019996736	2.729054299998097	403.2570267000701	406.51374389999546	410.5854795000051	1.7352452999912202	1.0148262999719009	0.9646925000706119	409.5781279000221	0.338812300004065	408.54281730006915	1	1	47	1	go_reward	1	1	0	1	1	1	1	1.0	1.0	1	0.726458300021477	0.338812300004065	84.26034869998693	486.5235664000502	487.51737540005706	489.2526207000483	490.7740925999824	491.7889188999543	492.8031660000561	493.838476600009	494.845828199992	495.8105207000626	2019-12-11 16:17:20.848330	1.0572439463277	0.429752999746826	0.0	0.429752999746826	1.0572439463277	0.0	-1.0572439463277	0.429752999746826	0.0	1.0572439463277	0.0	19.491498364665077	-2.8746894214129135	-0.5668466561474191	-1.20967495745538	-2.5149768821687974	0.19772178357073278	-1.20967495745538	17.699709767897296	-1.9433212976487817	0.931368123764134	-2.5330052156502276	0.7564836020474288	1	correct	1.0
411.5430515999906	7.611025499994923	go_punish	1.0	411.59164670004975	412.89008879999164	415.41171880008187	1.2984420999418944	412.60883799998555	414.39540300006047	418.4435994999949	0.2812508000060916	1.0163158000214025	0.759072700049785	417.42959139996674	0.521358500001952	416.41834079998074	1	1	48	3	go_punish	1	0	-1	1	0	0	0	1.0	0.0	-1	1.0	0.521358500001952	84.26034869998693	495.8519954000367	496.8691866999725	497.1504374999786	498.6557517000474	499.6720675000688	500.6786894999677	501.6899400999537	502.7039481999818	503.4630209000316	2019-12-11 16:17:20.848330	-0.457873423590281	0.0	-0.321137613829186	-0.291261866967764	0.136735809761094	-0.321137613829186	0.457873423590281	-0.321137613829186	0.0	-0.321137613829186	0.136735809761094	-5.372979301872574	-4.389806791330894	-0.9965996558942452	-1.530812571284566	-3.2359917488833876	-0.7227863529958731	-1.530812571284566	-7.164767898640354	-3.3217028578056675	1.068103933525228	-3.2838958292262395	0.7564836020474288	1	wrong	1.0
419.1887200999772	8.002563999965787	nogo_reward	0.6602504000766203	419.2373152000364	420.71143030002713	423.25370940007264	1.4741150999907404	420.25316940003546	422.23303690005554	426.30782210000325	0.4582608999916715	1.020672500017099	0.9320570999989286	425.299203600036	0.2643887000158429	424.27019640000077	1	1	49	2	nogo_reward	1	0	1	0	1	0	0	0.0	1.0	0	0.6602504000766203	0.2643887000158429	84.26034869998693	503.4976639000233	504.5135181000224	504.97177900001407	506.4933856000425	507.5140581000596	508.5305450999877	509.5595523000229	510.5681707999902	511.5002278999891	2019-12-11 16:17:20.848330	0.168029880007409	0.196106174690743	1.44445546548195	1.58156071614156	1.61248534548936	1.44445546548195	-0.168029880007409	0.196106174690743	1.44445546548195	1.61248534548936	1.44445546548195	-0.196106174690743	-3.7639034877332045	-0.8004934812035022	0.2347805080265699	-1.3631691657740634	0.7529631827323928	0.2347805080265699	-1.987894771458523	-1.3880798984871217	2.375823589246084	-2.7666520407063104	2.2009390675293785	1	correct	1.0
427.2264361999696	9.163290199940093	nogo_reward	0.3041061999974772	427.2750313000288	429.88954630005173	432.4280919000739	2.614515000022948	428.2807410999667	431.41728659998626	435.4796088000294	1.608805200085044	1.010805300087668	0.9587126999394968	434.46519630006514	0.7064147000201046	433.4372731000185	1	1	50	2	nogo_reward	1	0	1	0	1	0	0	0.0	1.0	0	0.3041061999974772	0.7064147000201046	84.26034869998693	511.5353800000157	512.5410897999536	514.1498950000387	515.6776352999732	516.6884406000609	517.6976218000054	518.7255450000521	519.7399575000163	520.6986701999558	2019-12-11 16:17:20.848330	0.13648823679482	0.192224422596114	1.44445546548195	1.54303696887102	1.58094370227677	1.44445546548195	-0.13648823679482	0.192224422596114	1.44445546548195	1.58094370227677	1.44445546548195	-0.192224422596114	-3.7954451309457933	-0.8043752332981311	0.2347805080265699	-1.4016929130446034	0.7214215395198029	0.2347805080265699	-1.9840130193638938	-1.4196215416997116	2.375823589246084	-2.7705337928009395	2.2009390675293785	1	correct	1.0
436.4293677000096	9.64297159994021	go_punish	1.0	436.4779628000688	439.0640246999683	441.5781389999902	2.586061899899505	437.4860945000546	440.55990100000054	444.63121790008154	1.5779301999136806	1.0182379999896511	1.4897164999274537	443.61833009996917	0.543826200067997	442.58289900003	1	1	51	3	go_punish	1	0	-1	1	0	0	0	0.0	1.0	-1	1.0	0.543826200067997	84.26034869998693	520.7383115000557	521.7464432000415	523.3243733999552	524.8202496999875	525.8384876999771	526.843247700017	527.8786787999561	528.8915666000685	530.3812830999959	2019-12-11 16:17:20.848330	-0.474910519580768	0.0	-0.380755697981106	-0.354520001438499	0.0941548215996616	-0.380755697981106	0.474910519580768	-0.380755697981106	0.0	-0.380755697981106	0.0941548215996616	-5.313361217720654	-4.406843887321381	-0.9965996558942452	-1.590430655436486	-3.2992498833541224	-0.7653673411573055	-1.590430655436486	-7.105149814488434	-3.3813209419575876	1.0255229453637957	-3.3435139133781595	0.7564836020474288	1	correct	1.0
446.1041430999758	8.369573800009675	go_reward	0.3916823000181466	446.15273820003495	447.7179972999729	450.2729029000038	1.5652590999379754	447.1563330000499	449.2494767999742	453.31042830005754	0.5616642999229953	1.02342610002961	1.2118836999870837	452.29366069997195	1.0	451.28505369997583	1	1	52	1	go_reward	1	1	0	1	1	1	0	n/a	0.0	0	0.3916823000181466	1.0	84.26034869998693	530.4130869000219	531.4166817000369	531.9783459999599	533.5098254999612	534.5332515999908	535.5454023999628	536.5540093999589	537.5707770000445	538.7826607000316	2019-12-11 16:17:20.848330	1.4200333887122	0.644629640964436	0.0	0.644629640964436	1.4200333887122	0.0	-1.4200333887122	0.644629640964436	0.0	1.4200333887122	0.0	19.276621723447466	-2.5118999790284136	-0.35197001492980917	-1.20967495745538	-2.3001002409511875	0.560511225955233	-1.20967495745538	17.484833126679685	-1.5805318552642815	0.931368123764134	-2.3181285744326177	0.7564836020474288	1	missed	0.0
454.510438599973	8.993973899981938	nogo_reward	0.437665699981153	454.55903370003216	456.570112299989	459.1153555000201	2.011078599956818	455.56438180000987	458.1017146999948	462.1607734999852	1.0057304999791086	1.013640800025314	1.3922341000288725	461.1468332000077	0.3204628999810666	460.1232650000602	1	1	53	2	nogo_reward	0	1	0	0	1	0	0	1.0	0.0	1	0.437665699981153	0.3204628999810666	84.26034869998693	538.8193824000191	539.8247304999968	540.8304609999759	542.3620633999817	543.375704200007	544.3836137000471	545.4071818999946	546.4211221999722	547.813356300001	2019-12-11 16:17:20.848330	0.1090794945307	0.188659608823978	1.44445546548195	1.50987178809113	1.55353496001265	1.44445546548195	-0.1090794945307	0.188659608823978	1.44445546548195	1.55353496001265	1.44445546548195	19.732591755587922	-3.8228538732099135	-0.8079400470702671	0.2347805080265699	-1.4348580938244933	0.6940127972556829	0.2347805080265699	17.94080315882014	-1.4470302839638316	2.375823589246084	-2.7740986065730757	2.2009390675293785	1	wrong	1.0
463.53869989991654	8.125800300040282	nogo_reward	1.0	463.5872949999757	465.09595340001397	467.62456779996864	1.5086584000382572	464.60346270003356	466.6010840999661	470.6656446000561	0.49249069998040795	1.0234837000025436	1.0474506999598816	469.6612859000452	0.865444099996239	468.6387127999915	1	1	54	2	nogo_reward	1	0	1	0	0	1	0	1.0	0.0	1	1.0	0.865444099996239	84.26034869998693	547.8476436999626	548.8638114000205	549.3563021000009	550.861432799953	551.8849164999556	552.8990614999784	553.9216346000321	554.925993300043	555.9734440000029	2019-12-11 16:17:20.848330	-0.470016029602431	0.413357805464881	1.44445546548195	1.70834953929257	1.91447149508438	1.44445546548195	0.470016029602431	1.44445546548195	0.413357805464881	1.44445546548195	1.91447149508438	18.47679589892995	-4.401949397343045	-0.5832418504293642	0.2347805080265699	-1.2363803426230533	1.0549493323274128	0.2347805080265699	16.68500730216217	-1.5561097784945317	2.845839618848514	-1.5183027499151036	1.1698414075123098	1	wrong	1.0
471.70399549999274	8.884347099927254	go_punish	1.0	471.7525906000519	473.56791860004887	476.0930770999985	1.8153279999969527	472.7556804000633	475.0807146000443	479.15398860001005	0.8122381999855861	1.012362499954179	1.4829490999691188	478.1436173999682	0.2208234000718221	477.1089507000288	1	1	55	3	go_punish	1	0	-1	1	0	0	0	1.0	0.0	-1	1.0	0.2208234000718221	84.26034869998693	556.0129393000389	557.0160291000502	557.8282673000358	559.3410633000312	560.3534257999854	561.3692994000157	562.4039660999551	563.414337299997	564.8972863999661	2019-12-11 16:17:20.848330	-0.492398848201892	0.0	-0.439157025239806	-0.415416768077297	0.0532418229620861	-0.439157025239806	0.492398848201892	-0.439157025239806	0.0	-0.439157025239806	0.0532418229620861	-5.254959890461954	-4.424332215942505	-0.9965996558942452	-1.648831982695186	-3.3601466499929202	-0.806280339794881	-1.648831982695186	-7.046748487229734	-3.4397222692162877	0.9846099467262202	-3.4019152406368596	0.7564836020474288	1	wrong	1.0
480.62268939998467	8.663050999981351	nogo_punish	1.0	480.67128450004384	482.3492777000647	484.8866217000177	1.6779932000208646	481.6631423999788	483.8653775000712	487.93500060006045	0.6861353000858799	1.0212441999465227	1.3993348999647424	486.9211645000614	0.3564199999673292	485.9023396000266	1	1	56	4	nogo_punish	1	-1	0	0	0	1	0	0.0	1.0	0	1.0	0.3564199999673292	84.26034869998693	564.9316332000308	565.9234910999658	566.6096264000516	568.1257262000581	569.1469704000046	570.1626883000135	571.1815132000484	572.1953493000474	573.5946842000121	2019-12-11 16:17:20.848330	0.0859796855851305	-0.261645644887192	0.0	-0.232993592411823	-0.0859796855851305	0.0	-0.0859796855851305	0.0	-0.261645644887192	0.0	-0.0859796855851305	0.0	-3.845953682155483	-1.2582453007814371	-1.20967495745538	-3.1777234743274465	-0.9455018483420976	-1.20967495745538	-1.7917885967677798	-3.0005652439764816	0.8453884381790036	-2.9627582153970535	0.4948379571602368	1	correct	1.0
489.31929499993566	9.311068500042893	nogo_reward	0.7937344000674784	489.36789009999484	491.89813149999827	494.44204540003557	2.5302414000034332	490.3696116000647	493.42089579999447	497.5136074000038	1.528519899933599	1.021149600041099	1.1653512000339106	496.49349760008045	0.61125479999464	495.45966240006965	1	1	57	2	nogo_reward	1	0	1	0	1	0	0	0.0	1.0	0	0.7937344000674784	0.61125479999464	84.26034869998693	573.6282387999818	574.6299603000516	576.1584801999852	577.6812444999814	578.7023941000225	579.7200111000566	580.7538463000674	581.7739560999908	582.9393073000247	2019-12-11 16:17:20.848330	0.412138399799362	0.413357805464881	1.63367017852322	1.89986041129851	2.04580857832258	1.63367017852322	-0.412138399799362	0.413357805464881	1.63367017852322	2.04580857832258	1.63367017852322	-0.413357805464881	-3.5197949679412512	-0.5832418504293642	0.42399522106783993	-1.0448694706171133	1.186286415565613	0.42399522106783993	-2.2051464022326606	-0.9547566656539015	2.5650383022873537	-2.5494004099321725	2.3901537805706488	1	correct	1.0
498.67092639999464	8.27147029992193	go_punish	0.8900117999874055	498.7195215000538	500.3858171000611	502.92346109997015	1.6662956000072882	499.7298696000362	501.9024402999785	505.9753475000616	0.6559475000249222	1.0210207999916747	1.015644299914129	504.9623142000055	0.4873143000295385	503.9334737000754	1	1	58	3	go_punish	1	0	-1	1	1	1	0	0.0	1.0	0	0.8900117999874055	0.4873143000295385	84.26034869998693	582.9798702000408	583.9902183000231	584.646165800048	586.1627889999654	587.1838097999571	588.1938224000623	589.2226628999924	590.2356962000486	591.2513404999627	2019-12-11 16:17:20.848330	0.510077517611601	0.0	-0.496445097999945	-0.474491009392842	0.0136324196116565	-0.496445097999945	-0.510077517611601	0.0	-0.496445097999945	0.0136324196116565	-0.496445097999945	0.0	-3.4218558501290124	-0.9965996558942452	-1.706120055455325	-3.4192208913084654	-0.8458897431453106	-1.706120055455325	-1.7917885967677798	-2.986932824364825	0.434923025764189	-2.9627582153970535	0.2600385040474838	1	correct	1.0
506.9767148999963	8.53151739994064	go_reward	0.3404888999648392	507.02531000005547	508.8132913999725	511.3656651000492	1.7879813999170437	508.03270079998765	510.34483109996654	514.4224728000117	0.7805905999848619	1.0208340000826865	1.1343545999843627	513.4143092000159	0.638682399992831	512.380505100009	1	1	59	1	go_reward	1	1	0	1	1	1	0	1.0	0.0	1	0.3404888999648392	0.638682399992831	84.26034869998693	591.2856587000424	592.2930494999746	593.0736400999594	594.6051797999535	595.6260138000362	596.640853799996	597.6746579000028	598.6828214999987	599.817176099983	2019-12-11 16:17:20.848330	1.38506414252634	0.624310353707187	0.0	0.624310353707187	1.38506414252634	0.0	-1.38506414252634	0.624310353707187	0.0	1.38506414252634	0.0	19.296941010704714	-2.5468692252142735	-0.37228930218705814	-1.20967495745538	-2.3204195282084363	0.5255419797693728	-1.20967495745538	17.505152413936933	-1.6155011014501417	0.931368123764134	-2.3384478616898665	0.7564836020474288	1	wrong	1.0
515.5420593000017	8.82570799998939	nogo_punish	0.886177200009115	515.5906544000609	518.0655889000045	520.6139924000017	2.474934499943629	516.598663700046	519.5907331000781	523.6510399000254	1.4669251999584958	1.0232592999236658	0.7653225000249222	522.6377852000296	0.4287102000089362	521.6248280999716	1	1	60	4	nogo_punish	1	-1	0	0	1	0	0	0.0	1.0	-1	0.886177200009115	0.4287102000089362	84.26034869998693	599.8510031000478	600.859012400033	602.3259375999914	603.851081800065	604.8743410999887	605.8851767999586	606.8981339000165	607.9113886000123	608.6767111000372	2019-12-11 16:17:20.848330	-0.0826147385264874	-0.261645644887192	0.0	-0.228263125166557	-0.0826147385264874	0.0	0.0826147385264874	-0.261645644887192	0.0	-0.0826147385264874	0.0	-5.432471270814568	-4.0145481062671005	-1.2582453007814371	-1.20967495745538	-3.17299300708218	-0.9421369012834545	-1.20967495745538	-7.224259867582347	-3.083179982502969	0.931368123764134	-3.2244038602842453	0.7564836020474288	1	correct	1.0
