onset	duration	trial_type	response_time	cueOnset	targetOnset	fbOnset	cueRT	firstfixOnset	secondfixOnset	waitOnset	firstfixdur	secondfixdur	waitdur	nback_fbOnset	nback_response_time	nback_targetOnset	block	wm	trial	cue	cond	is_common	outcome_go	outcome_nogo	key_correct	key_pressed	is_correct	key_correct_nback	key_pressed_nback	is_correct_nback	outcome	rt	rt_nback	time_scan	time_onset	time_isi1	time_circle	time_isi2	time_feedback	time_same	time_correct	time_iti	time_done	timestamp_scan	DV	Qgo	Qnogo	SV	Wgo	Wnogo	mDV	Qchosen	Qunchosen	Wchosen	Wunchosen	PE	DVC	QgoC	QnogoC	SVC	WgoC	WnogoC	PEC	WchosenC	WunchosenC	QchosenC	QunchosenC	run	outcome_nback	nback_targetResp
0.0	6.562207899987698	go_punish	0.3581670999992639	0.02490220003539889	1.5281945000170936	4.084909100027403	1.5032922999816947	1.0271756000004189	3.0615767000128926	5.0953137000324205	0.5010189000166747	1.0233324000145103	1.491796399990676	n/a	1.0	n/a	1	0	61	2	go_punish	0	-1	0	1	1	1	0	n/a	n/a	-1	0.3581670999992639	1.0	947.287707099982	947.3126093000174	948.3148826999824	948.815901599999	950.3492837999949	951.3726162000094	n/a	n/a	952.3830208000144	953.874817200005	2020-10-16 10:47:17.235855	7.60522700044222	-0.383654446152802	-7.05227837743672	-1.30241735548737	0.552948623005501	-7.05227837743672	-7.60522700044222	-0.383654446152802	-7.05227837743672	0.552948623005501	-7.05227837743672	-9.806940185448099	-0.09114245561310863	-2.2153824001061255	-9.138026559263356	-6.7287671025711635	-3.3409302447687637	-9.138026559263356	-11.105821128115227	-6.285049629822612	-6.193907174209498	-6.108175345080327	-5.2452336142891545	2	missed	0.0
6.634725099953471	7.208140200003982	nogo_reward	1.0	6.65962729998887	9.438605899980871	11.946076599997696	2.7789785999920014	7.670460099994898	10.930575700011218	12.95631879998848	1.768145799985973	1.0155008999864776	0.911448700004371	n/a	1.0	n/a	1	0	62	3	nogo_reward	1	0	1	0	0	1	0	n/a	n/a	1	1.0	1.0	947.287707099982	953.9473343999708	954.9581671999769	956.7263129999628	958.2182827999932	959.2337836999797	n/a	n/a	960.2440258999704	961.1554745999748	2020-10-16 10:47:17.235855	7.44286168730752	0.0	13.4748565734294	13.4748565734294	6.03199488612184	13.4748565734294	-7.44286168730752	13.4748565734294	0.0	13.4748565734294	6.03199488612184	10.7751730376292	-0.25350776874780845	-1.8317279539533236	11.389108391602765	8.048506826345609	2.138116018347575	11.389108391602765	9.476292094962071	6.636858320601288	6.890366089349063	7.750335674501875	1.8070447631475657	2	missed	0.0
13.87735679995967	7.193244800029788	nogo_punish	1.0	13.90225899999507	16.330979800026398	18.86050140002044	2.4287208000313285	14.910640400019588	17.847385100030806	19.86730410001485	1.4203394000068101	1.0131162999896333	1.228199700010009	n/a	1.0	n/a	1	0	63	1	nogo_punish	1	-1	0	0	0	1	0	n/a	n/a	0	1.0	1.0	947.287707099982	961.189966099977	962.1983475000015	963.6186869000084	965.1350922000128	966.1482085000024	n/a	n/a	967.1550111999968	968.3832109000068	2020-10-16 10:47:17.235855	3.09374797417391	-7.05227837743672	-3.80148079254334	-3.95622535725016	-6.89522876671725	-3.80148079254334	-3.09374797417391	-3.80148079254334	-7.05227837743672	-3.80148079254334	-6.89522876671725	3.80148079254334	-4.602621481881418	-8.884006331390044	-5.887228974369976	-9.382575104333952	-10.789107634491515	-5.887228974369976	2.5025998498762103	-10.639479045371452	-6.0368575634900274	-9.526001691470865	-5.2452336142891545	2	missed	0.0
21.112616999947818	7.857478300051412	nogo_reward	1.0	21.137519199983217	24.11366889998328	26.629362499981653	2.9761497000000645	22.147537800017858	25.616756600036865	27.637035200023206	1.9661310999654233	1.0126058999447878	1.3579623000114225	n/a	1.0	n/a	1	0	64	3	nogo_reward	0	1	0	0	0	1	1	n/a	n/a	0	1.0	1.0	947.287707099982	968.4252262999652	969.4352448999998	971.4013759999652	972.9044637000188	973.9170695999636	n/a	n/a	974.9247423000052	976.2827046000166	2020-10-16 10:47:17.235855	9.77789764291837	0.0	17.114829692596	17.114829692596	7.33693204967762	17.114829692596	-9.77789764291837	17.114829692596	0.0	17.114829692596	7.33693204967762	-17.114829692596	2.081528186863042	-1.8317279539533236	15.029081510769364	11.688479945512206	3.4430531819033554	15.029081510769364	-18.41371063526313	10.276831439767887	8.195303252904843	11.390308793668474	1.8070447631475657	2	missed	0.0
29.008552799990866	7.245098499988558	go_punish	0.4265121999778785	29.033455000026265	31.55786170001386	34.107219099998474	2.524406699987594	30.040923400025463	33.089159600029234	35.12404349999281	1.5169382999883965	1.0180594999692403	1.1545100000220145	n/a	1.0	n/a	1	0	65	2	go_punish	1	0	-1	1	1	1	0	n/a	n/a	0	0.4265121999778785	1.0	947.287707099982	976.3211621000082	977.3286305000074	978.8455687999958	980.3768667000112	981.3949261999804	n/a	n/a	982.4117505999748	983.5662605999968	2020-10-16 10:47:17.235855	3.46441273155419	-3.65163554141896	-7.05227837743672	-4.2738540569968	-3.58786564588253	-7.05227837743672	-3.46441273155419	-3.65163554141896	-7.05227837743672	-3.58786564588253	-7.05227837743672	3.65163554141896	-4.2319567245011385	-5.483363495372283	-9.138026559263356	-9.700203804080594	-7.481744513656794	-9.138026559263356	2.3527545987518304	-10.425863898710643	-6.193907174209498	-9.376156440346485	-5.2452336142891545	2	missed	0.0
36.28900719998626	7.64967489999276	go_reward	0.3862327999668196	36.31390940002166	38.944175600016024	41.49491250002768	2.6302661999943666	37.32804220001003	40.47004990000289	42.505013899994196	1.6161334000059924	1.0248626000247896	1.4585704000202213	n/a	1.0	n/a	1	0	66	4	go_reward	1	1	0	1	1	1	0	n/a	n/a	1	0.3862327999668196	1.0	947.287707099982	983.6016165000036	984.615749299992	986.231882699998	987.7577569999848	988.7826196000096	n/a	n/a	989.7927209999762	991.2512913999964	2020-10-16 10:47:17.235855	33.6336047728403	23.9089856039619	0.0	23.9089856039619	33.6336047728403	0.0	-33.6336047728403	23.9089856039619	0.0	33.6336047728403	0.0	0.341044007096702	25.93723531678497	22.077257650008576	-2.085748181826636	18.482635856878105	29.739725905066035	-2.085748181826636	-0.9578369355704275	26.795606520012186	0.8583712032272223	18.184464705034372	1.8070447631475657	2	missed	0.0
43.97552769997867	7.299433899985161	go_reward	0.3347116999793798	44.00042990001407	46.355606600002034	48.89627850003319	2.3551766999879646	45.00433870003326	47.88105680001922	49.90006170002766	1.351267899968775	1.0152217000139672	1.3998020999715663	n/a	1.0	n/a	1	0	67	4	go_reward	1	1	0	1	1	1	0	n/a	n/a	1	0.3347116999793798	1.0	947.287707099982	991.288136999996	992.2920458000152	993.643313699984	995.1687639000012	996.1839856000151	n/a	n/a	997.1877688000096	998.5875708999812	2020-10-16 10:47:17.235855	33.7587629969468	24.0030645562107	0.0	24.0030645562107	33.7587629969468	0.0	-33.7587629969468	24.0030645562107	0.0	33.7587629969468	0.0	0.24696505484790165	26.06239354089147	22.171336602257377	-2.085748181826636	18.576714809126905	29.864884129172534	-2.085748181826636	-1.0519158878192278	26.920764744118685	0.8583712032272223	18.278543657283173	1.8070447631475657	2	missed	0.0
51.32013009994989	6.708281800034342	nogo_reward	1.0	51.34503229998529	53.27261079999164	55.799045499996396	1.927578500006348	52.35166410001705	54.77421519998484	56.8094453000233	0.9209466999745928	1.0248303000115584	1.243868799996335	n/a	1.0	n/a	1	0	68	3	nogo_reward	1	0	1	0	0	1	0	n/a	n/a	1	1.0	1.0	947.287707099982	998.6327393999672	999.639371199999	1000.5603178999736	1002.0619222999668	1003.0867525999784	n/a	n/a	1004.0971524000053	1005.3410212000016	2020-10-16 10:47:17.235855	6.08743827033441	0.0	11.3694657601849	11.3694657601849	5.28202748985047	11.3694657601849	-6.08743827033441	11.3694657601849	0.0	11.3694657601849	5.28202748985047	12.8805638508737	-1.6089311857209188	-1.8317279539533236	9.283717578358264	5.943116013101107	1.388148622076205	9.283717578358264	11.581682908206572	4.531467507356787	6.140398693077692	5.6449448612573745	1.8070447631475657	2	missed	0.0
58.06414089997986	7.124917900015134	nogo_punish	1.0	58.08904310001526	60.38687039999081	62.92413230001705	2.297827299975552	59.10065640002722	61.90339220000908	63.92889799998386	1.2862139999635929	1.0207401000079699	1.2850630000465344	n/a	1.0	n/a	1	0	69	1	nogo_punish	1	-1	0	0	0	1	0	n/a	n/a	0	1.0	1.0	947.287707099982	1005.3767501999972	1006.3883635000092	1007.6745774999728	1009.191099299991	1010.211839399999	n/a	n/a	1011.2166050999658	1012.5016681000124	2020-10-16 10:47:17.235855	3.99650491279313	-7.05227837743672	-2.50368051249608	-2.61485601287016	-6.50018542528921	-2.50368051249608	-3.99650491279313	-2.50368051249608	-7.05227837743672	-2.50368051249608	-6.50018542528921	2.50368051249608	-3.6998645432621986	-8.884006331390044	-4.5894286943227165	-8.041205759953954	-10.394064293063476	-4.5894286943227165	1.2047995698289504	-9.341678765324193	-5.641814222061988	-8.228201411423605	-5.2452336142891545	2	missed	0.0
65.22452969994629	6.264090800017584	go_punish	0.3627087000058964	65.24943189998169	67.1106963999921	69.66345990001003	1.8612645000104067	66.26589300000364	68.64159170002688	70.6752818999812	0.8448033999884501	1.021868199983146	0.8382408000180703	n/a	1.0	n/a	1	0	70	2	go_punish	1	0	-1	1	1	1	0	n/a	n/a	0	0.3627087000058964	1.0	947.287707099982	1012.5371389999636	1013.5536000999856	1014.398403499974	1015.9292988000088	1016.951166999992	n/a	n/a	1017.9629889999632	1018.8012297999812	2020-10-16 10:47:17.235855	5.14542192538587	-2.39793152114445	-7.05227837743672	-2.82359380981773	-1.90685645205085	-7.05227837743672	-5.14542192538587	-2.39793152114445	-7.05227837743672	-1.90685645205085	-7.05227837743672	2.39793152114445	-2.5509475306694585	-4.229659475097773	-9.138026559263356	-8.249943556901524	-5.800735319825115	-9.138026559263356	1.0990505784773206	-8.744854704878962	-6.193907174209498	-8.122452420071976	-5.2452336142891545	2	missed	0.0
71.53086159995303	7.0410261999933255	nogo_reward	1.0	71.55576379998843	73.60414030001289	76.12459870002942	2.0483765000244603	72.55896420002682	75.10440700000629	77.13394989998812	1.0451760999860653	1.0201917000231333	1.4628400999936275	n/a	1.0	n/a	1	0	71	3	nogo_reward	1	0	1	0	0	1	0	n/a	n/a	1	1.0	1.0	947.287707099982	1018.8434708999704	1019.8466713000088	1020.8918473999948	1022.3921140999882	1023.4123058000114	n/a	n/a	1024.42165699997	1025.8844970999637	2020-10-16 10:47:17.235855	8.8846081492791	0.0	15.7327539133723	15.7327539133723	6.84814576409324	15.7327539133723	-8.8846081492791	15.7327539133723	0.0	15.7327539133723	6.84814576409324	8.517275697686301	1.188238693223771	-1.8317279539533236	13.647005731545663	10.306404166288505	2.954266896318975	13.647005731545663	7.218394755019172	8.894755660544186	7.7065169673204625	10.008233014444773	1.8070447631475657	2	missed	0.0
78.60687979997601	6.6395790000096895	go_punish	0.4187155000399798	78.63178200001141	80.96164659998624	83.50696189998428	2.329864599974826	79.63433630001975	82.49187640001753	84.51163219998114	1.3273102999664843	1.0150854999667445	0.7597288000399658	n/a	1.0	n/a	1	0	72	2	go_punish	0	-1	0	1	1	1	1	n/a	n/a	-1	0.4187155000399798	1.0	947.287707099982	1025.9194890999934	1026.9220434000017	1028.2493536999682	1029.7795834999995	1030.7946689999662	n/a	n/a	1031.799339299963	1032.559068100003	2020-10-16 10:47:17.235855	6.22435024513219	-1.59348739637886	-7.05227837743672	-1.88749257493326	-0.827928132304532	-7.05227837743672	-6.22435024513219	-1.59348739637886	-7.05227837743672	-0.827928132304532	-7.05227837743672	-8.59710723522204	-1.472019210923138	-3.4252153503321834	-9.138026559263356	-7.313842322017053	-4.721807000078797	-9.138026559263356	-9.89598817788917	-7.665926385132645	-6.193907174209498	-7.318008295306385	-5.2452336142891545	2	missed	0.0
85.27883559995098	7.377851600002032	nogo_punish	1.0	85.30373779998638	87.85519269999361	90.3956790000085	2.5514549000072293	86.30791209998995	89.37226570001815	91.40586050000286	1.5472806000036599	1.0234132999903522	1.2757288999855518	n/a	1.0	n/a	1	0	73	1	nogo_punish	0	0	-1	0	0	1	0	n/a	n/a	-1	1.0	1.0	947.287707099982	1032.5914448999683	1033.595619199972	1035.1428997999756	1036.6599728	1037.6833860999905	n/a	n/a	1038.6935675999848	1039.9692964999704	2020-10-16 10:47:17.235855	4.57777539998551	-7.05227837743672	-1.66870474677205	-1.74917030363599	-6.24648014675756	-1.66870474677205	-4.57777539998551	-1.66870474677205	-7.05227837743672	-1.66870474677205	-6.24648014675756	-8.52188988482885	-3.118594056069818	-8.884006331390044	-3.754452928598686	-7.175520050719783	-10.140359014531825	-3.754452928598686	-9.820770827495979	-8.506702999600163	-5.388108943530337	-7.393225645699575	-5.2452336142891545	2	missed	0.0
92.69527559995186	7.121405000041705	go_reward	0.3224507999839261	92.72017779998725	95.48481240001286	98.04061520000698	2.7646346000256017	93.72559350001404	97.01665700000024	99.04222880001214	1.7592188999988139	1.0239582000067458	0.7993540000168196	n/a	1.0	n/a	1	0	74	4	go_reward	1	1	0	1	1	1	0	n/a	n/a	1	0.3224507999839261	1.0	947.287707099982	1040.0078848999692	1041.013300599996	1042.7725194999948	1044.3043640999822	1045.328322299989	n/a	n/a	1046.329935899994	1047.129289900011	2020-10-16 10:47:17.235855	33.8476657753849	24.0699992039412	0.0	24.0699992039412	33.8476657753849	0.0	-33.8476657753849	24.0699992039412	0.0	33.8476657753849	0.0	0.1800304071173997	26.151296319329568	22.23827124998788	-2.085748181826636	18.643649456857407	29.95378690761063	-2.085748181826636	-1.1188505355497298	27.009667522556782	0.8583712032272223	18.345478305013675	1.8070447631475657	2	missed	0.0
99.85301079996862	6.281581000017468	nogo_punish	1.0	99.87791300000401	101.23535159998585	103.75923150003666	1.3574385999818332	100.89446550002333	102.73894690000463	104.77374430000793	0.3408860999625176	1.0202846000320278	1.3857497000135481	n/a	1.0	n/a	1	0	75	1	nogo_punish	1	-1	0	0	0	1	1	n/a	n/a	0	1.0	1.0	947.287707099982	1047.165620099986	1048.1821726000053	1048.5230586999678	1050.0266539999866	1051.0469386000186	n/a	n/a	1052.06145139999	1053.4472011000034	2020-10-16 10:47:17.235855	2.56554859528628	-7.05227837743672	-4.50830827221339	-4.56696160611823	-7.07385686749967	-4.50830827221339	-2.56554859528628	-4.50830827221339	-7.05227837743672	-4.50830827221339	-7.07385686749967	4.50830827221339	-5.130820860769049	-8.884006331390044	-6.594056454040026	-9.993311353202024	-10.967735735273934	-6.594056454040026	3.2094273295462603	-11.346306525041502	-6.215485664272447	-10.232829171140915	-5.2452336142891545	2	missed	0.0
106.17406789999222	6.776773999969009	go_punish	0.336826300015673	106.19897010002762	108.0534476999893	110.60797910002304	1.8544775999616832	107.20880419999605	109.58738360000996	111.6222278000206	0.8446434999932535	1.020595500013087	1.353516299976036	n/a	1.0	n/a	1	0	76	2	go_punish	1	0	-1	1	1	1	0	n/a	n/a	0	0.336826300015673	1.0	947.287707099982	1053.4866772000096	1054.496511299978	1055.3411547999713	1056.875090699992	1057.895686200005	n/a	n/a	1058.9099349000026	1060.2634511999786	2020-10-16 10:47:17.235855	2.54955798224347	-4.45440201729013	-7.05227837743672	-4.65933960426592	-4.50272039519325	-7.05227837743672	-2.54955798224347	-4.45440201729013	-7.05227837743672	-4.50272039519325	-7.05227837743672	4.45440201729013	-5.146811473811859	-6.2861299712434535	-9.138026559263356	-10.085689351349714	-8.396599262967515	-9.138026559263356	3.1555210746230005	-11.340718648021362	-6.193907174209498	-10.178922916217655	-5.2452336142891545	2	missed	0.0
112.99395319999894	6.617661099997349	nogo_reward	1.0	113.01885540003434	115.20015789999172	117.73401900002511	2.1813024999573827	114.02381550002622	116.71723579999514	118.73554960003855	1.176342399965506	1.0167832000299768	0.9009668999931364	n/a	1.0	n/a	1	0	77	3	nogo_reward	1	0	1	0	0	1	0	n/a	n/a	1	1.0	1.0	947.287707099982	1060.3065625000163	1061.3115226000082	1062.4878649999737	1064.004942899977	1065.021726100007	n/a	n/a	1066.0232567000205	1066.9242236000136	2020-10-16 10:47:17.235855	10.704985185399	0.0	18.5611070121157	18.5611070121157	7.85612182671668	18.5611070121157	-10.704985185399	18.5611070121157	0.0	18.5611070121157	7.85612182671668	5.688922598942902	3.0086157293436715	-1.8317279539533236	16.47535883028906	13.134757265031904	3.962242958942415	16.47535883028906	4.3900416562757725	11.723108759287586	8.714493029943903	12.836586113188172	1.8070447631475657	2	missed	0.0
119.64718789997255	6.0785323000166045	go_punish	0.8169752999674529	119.67209010000795	121.1252747999971	123.68166190001659	1.4531846999891513	120.68804760003707	122.65926460002095	124.69688629999303	0.43722719996003434	1.0223972999956459	1.0537361000315286	n/a	1.0	n/a	1	0	78	2	go_punish	1	0	-1	1	1	1	1	n/a	n/a	0	0.8169752999674529	1.0	947.287707099982	1066.95979719999	1067.975754700019	1068.412981899979	1069.946971700003	1070.9693689999986	n/a	n/a	1071.984593399975	1073.0383295000065	2020-10-16 10:47:17.235855	4.53290238273093	-2.93622211074157	-7.05227837743672	-3.08033180445239	-2.51937599470579	-7.05227837743672	-4.53290238273093	-2.93622211074157	-7.05227837743672	-2.51937599470579	-7.05227837743672	2.93622211074157	-3.163467073324399	-4.767950064694894	-9.138026559263356	-8.506681551536182	-6.413254862480055	-9.138026559263356	1.6373411680744405	-9.357374247533903	-6.193907174209498	-8.660743009669096	-5.2452336142891545	2	missed	0.0
125.79042799997842	5.923913299979176	nogo_reward	1.0	125.81533020001382	127.17913390003389	129.69948110001894	1.3638037000200711	126.81816239998454	128.69416290003585	130.71367929998098	0.3609715000493452	1.005318199983094	1.0255642000120133	n/a	1.0	n/a	1	0	79	3	nogo_reward	0	1	0	0	0	1	1	n/a	n/a	0	1.0	1.0	947.287707099982	1073.1030372999958	1074.1058694999665	1074.4668410000158	1075.9818700000178	1076.987188200001	n/a	n/a	1078.001386399963	1079.026950599975	2020-10-16 10:47:17.235855	11.9024980249174	0.0	20.4140983132099	20.4140983132099	8.51160028829248	20.4140983132099	-11.9024980249174	20.4140983132099	0.0	20.4140983132099	8.51160028829248	-20.4140983132099	4.206128568862071	-1.8317279539533236	18.328350131383267	14.987748566126108	4.617721420518214	18.328350131383267	-21.71297925587703	13.576100060381789	9.369971491519701	14.689577414282375	1.8070447631475657	2	missed	0.0
131.75440879998496	6.354525499977171	nogo_reward	1.0	131.77931100002036	133.57684579998033	136.1141325000209	1.7975347999599762	132.79101500002446	135.08809050003754	137.1230098999805	0.7858307999558747	1.026041999983363	1.010826600017026	n/a	1.0	n/a	1	0	80	3	nogo_reward	1	0	1	0	0	1	0	n/a	n/a	1	1.0	1.0	947.287707099982	1079.0670181000023	1080.0787221000064	1080.8645528999623	1082.3757976000195	1083.4018396000029	n/a	n/a	1084.4107169999625	1085.4215435999795	2020-10-16 10:47:17.235855	7.48660819252489	0.0	13.5331598200658	13.5331598200658	6.04655162754092	13.5331598200658	-7.48660819252489	13.5331598200658	0.0	13.5331598200658	6.04655162754092	10.716869790992801	-0.20976126353043867	-1.8317279539533236	11.447411638239164	8.106810072982007	2.152672759766655	11.447411638239164	9.417988848325672	6.695161567237687	6.904922830768142	7.808638921138274	1.8070447631475657	2	missed	0.0
138.14428529998986	6.083786599978339	nogo_punish	1.0	138.16918750002526	139.83317370002635	142.36116119998053	1.6639862000010908	139.17673930001922	141.34389610000665	143.36153550003667	0.6564344000071287	1.0172650999738835	0.8914385999669321	n/a	1.0	n/a	1	0	81	1	nogo_punish	0	0	-1	0	0	1	0	n/a	n/a	-1	1.0	1.0	947.287707099982	1085.4568946000072	1086.4644464000012	1087.1208808000083	1088.6316031999886	1089.6488682999625	n/a	n/a	1090.6492426000186	1091.5406811999856	2020-10-16 10:47:17.235855	3.64239648542394	-7.05227837743672	-2.9751371455591	-3.01818353713507	-6.61753363098304	-2.9751371455591	-3.64239648542394	-2.9751371455591	-7.05227837743672	-2.9751371455591	-6.61753363098304	-7.2154574860418	-4.0539729706313885	-8.884006331390044	-5.060885327385736	-8.444533284218863	-10.511412498757306	-5.060885327385736	-8.51433842870893	-9.813135398387214	-5.759162427755817	-8.699658044486625	-5.2452336142891545	2	missed	0.0
144.2684722999693	6.222000300011132	nogo_reward	1.0	144.2933745000047	146.20483330002764	148.74649410002155	1.911458800022956	145.2979578000378	147.7207908999991	149.7572938000086	0.9068754999898374	1.0257032000224626	0.7580810000072233	n/a	1.0	n/a	1	0	82	3	nogo_reward	1	0	1	0	0	1	1	n/a	n/a	1	1.0	1.0	947.287707099982	1091.5810815999866	1092.5856649000198	1093.4925404000096	1095.008497999981	1096.0342012000035	n/a	n/a	1097.0450008999906	1097.8030818999978	2020-10-16 10:47:17.235855	9.81557175081882	0.0	17.1662916796172	17.1662916796172	7.35071992879839	17.1662916796172	-9.81557175081882	17.1662916796172	0.0	17.1662916796172	7.35071992879839	7.0837379314414015	2.1192022947634923	-1.8317279539533236	15.080543497790563	11.739941932533405	3.456841061024125	15.080543497790563	5.784856988774272	10.328293426789086	8.209091132025613	11.441770780689673	1.8070447631475657	2	missed	0.0
150.5283889999846	7.888432600011583	nogo_punish	1.0	150.55329120002	153.39778519998083	155.9332450000221	2.8444939999608323	151.5670460999828	154.91283600003237	156.95053329999803	1.830739099998027	1.0204089999897406	1.4911905000335537	n/a	1.0	n/a	1	0	83	1	nogo_punish	1	-1	0	0	0	1	1	n/a	n/a	0	1.0	1.0	947.287707099982	1097.840998300002	1098.8547531999648	1100.6854922999628	1102.2005431000143	1103.220952100004	n/a	n/a	1104.23824039998	1105.7294309000135	2020-10-16 10:47:17.235855	1.94665440461701	-7.05227837743672	-5.36999039357617	-5.40179031173341	-7.31664479819319	-5.36999039357617	-1.94665440461701	-5.36999039357617	-7.05227837743672	-5.36999039357617	-7.31664479819319	5.36999039357617	-5.749715051438319	-8.884006331390044	-7.4557385754028065	-10.828140058817203	-11.210523665967454	-7.4557385754028065	4.071109450909041	-12.207988646404283	-6.458273594965967	-11.094511292503697	-5.2452336142891545	2	missed	0.0
158.45222689997172	6.766054000006989	go_punish	0.2884758000145666	158.47712910000712	160.4628556999961	163.00596320000489	1.9857265999889933	159.49499989999492	161.99460760003456	164.00899070000753	0.967855800001189	1.0113555999703294	1.2341924000065774	n/a	1.0	n/a	1	0	84	2	go_punish	1	0	-1	1	1	1	0	n/a	n/a	0	0.2884758000145666	1.0	947.287707099982	1105.764836199989	1106.7827069999769	1107.750562799978	1109.2823147000165	1110.2936702999868	n/a	n/a	1111.2966977999895	1112.530890199996	2020-10-16 10:47:17.235855	5.81014694985517	-1.95804124313706	-7.05227837743672	-2.06023216596746	-1.24213142758155	-7.05227837743672	-5.81014694985517	-1.95804124313706	-7.05227837743672	-1.24213142758155	-7.05227837743672	1.95804124313706	-1.8862225062001583	-3.7897691970903837	-9.138026559263356	-7.486581913051253	-5.136010295355815	-9.138026559263356	0.6591603004699305	-8.080129680409662	-6.193907174209498	-7.682562142064585	-5.2452336142891545	2	missed	0.0
165.25919839995913	6.337529800017592	nogo_reward	1.0	165.28410059999453	167.108432499983	169.64848380000342	1.824331899988465	166.29573300003574	168.62460239999916	170.65860710002028	0.8126994999472572	1.0238814000042566	0.9630232999918462	n/a	1.0	n/a	1	0	85	3	nogo_reward	1	0	1	0	0	1	0	n/a	n/a	1	1.0	1.0	947.287707099982	1112.5718076999765	1113.5834401000177	1114.396139599965	1115.9123094999811	1116.9361908999854	n/a	n/a	1117.9463142000022	1118.909337499994	2020-10-16 10:47:17.235855	11.3304228383629	0.0	19.5200676509328	19.5200676509328	8.18964481256991	19.5200676509328	-11.3304228383629	19.5200676509328	0.0	19.5200676509328	8.18964481256991	4.729961960125802	3.634053382307571	-1.8317279539533236	17.434319469106164	14.093717903849004	4.295765944795645	17.434319469106164	3.4310810174586726	12.682069398104685	9.048016015797131	13.795546752005272	1.8070447631475657	2	missed	0.0
171.63370669999858	6.888821000000462	nogo_punish	1.0	171.65860890003398	173.90046690002794	176.4298776999932	2.241857999993954	172.6733609000222	175.40931860002468	177.44409290002693	1.2271060000057332	1.0205590999685228	1.1033370000075138	n/a	1.0	n/a	1	0	86	1	nogo_punish	1	-1	0	0	0	1	0	n/a	n/a	0	1.0	1.0	947.287707099982	1118.946316000016	1119.9610680000042	1121.18817400001	1122.6970257000066	1123.7175847999752	n/a	n/a	1124.731800000009	1125.8351370000164	2020-10-16 10:47:17.235855	3.22826137704152	-7.05227837743672	-3.54985604104054	-3.5734960645482	-6.77811741808207	-3.54985604104054	-3.22826137704152	-3.54985604104054	-7.05227837743672	-3.54985604104054	-6.77811741808207	3.54985604104054	-4.468108079013808	-8.884006331390044	-5.635604222867176	-8.999845811631992	-10.671996285856334	-5.635604222867176	2.2509750983734103	-10.387854293868653	-5.919746214854848	-9.274376939968064	-5.2452336142891545	2	missed	0.0
178.55631559999915	6.592664299998205	nogo_punish	1.0	178.58121780003455	180.161797399982	182.70245189999707	1.5805795999474412	179.59894170000928	181.67755339998996	183.70136200002173	0.5628556999727152	1.0248985000071116	1.4725201000110246	n/a	1.0	n/a	1	0	87	1	nogo_punish	0	0	-1	0	0	1	0	n/a	n/a	-1	1.0	1.0	947.287707099982	1125.8689249000165	1126.8866487999912	1127.449504499964	1128.965260499972	1129.990158999979	n/a	n/a	1130.9890691000037	1132.4615892000147	2020-10-16 10:47:17.235855	4.0579114904847	-7.05227837743672	-2.37369293301018	-2.39137337575889	-6.43160442349487	-2.37369293301018	-4.0579114904847	-2.37369293301018	-7.05227837743672	-2.37369293301018	-6.43160442349487	-7.816901698590721	-3.6384579655706286	-8.884006331390044	-4.459441114836816	-7.817723122842683	-10.325483291269135	-4.459441114836816	-9.11578264125785	-9.211691185838292	-5.573233220267648	-8.098213831937706	-5.2452336142891545	2	missed	0.0
185.19019090000074	7.699421599972993	nogo_reward	1.0	185.21509310003614	187.9787951000036	190.494313000003	2.763701999967452	186.2263196000132	189.48514340003055	191.49792280001554	1.7524754999903962	1.009169599972438	1.4165918999935911	n/a	1.0	n/a	1	0	88	3	nogo_reward	1	0	1	0	0	1	0	n/a	n/a	1	1.0	1.0	947.287707099982	1132.502800200018	1133.5140266999952	1135.2665021999856	1136.7728505000125	1137.782020099985	n/a	n/a	1138.7856298999975	1140.202221799991	2020-10-16 10:47:17.235855	12.326526541388	0.0	21.0614834699748	21.0614834699748	8.73495692858682	21.0614834699748	-12.326526541388	21.0614834699748	0.0	21.0614834699748	8.73495692858682	3.188546141083801	4.630157085332672	-1.8317279539533236	18.975735288148165	15.635133722891005	4.841078060812555	18.975735288148165	1.8896651984166717	14.223485217146687	9.593328131814042	15.336962571047273	1.8070447631475657	2	missed	0.0
192.92879049998032	5.7142778999984785	go_punish	0.6253613000153564	192.95369270001572	194.33687210001528	196.8798301999924	1.3831793999995625	193.9562075000141	195.85980289999895	197.8926837000182	0.3806646000011824	1.020027299993444	0.7752868999959901	n/a	1.0	n/a	1	0	89	2	go_punish	1	0	-1	1	1	1	0	n/a	n/a	0	0.6253613000153564	1.0	947.287707099982	1140.2413997999977	1141.243914599996	1141.6245791999972	1143.147509999981	1144.1675372999744	n/a	n/a	1145.1803908000002	1145.9556776999962	2020-10-16 10:47:17.235855	6.64279346683602	-1.3199794390989	-7.05227837743672	-1.39303155127543	-0.409484910600703	-7.05227837743672	-6.64279346683602	-1.3199794390989	-7.05227837743672	-0.409484910600703	-7.05227837743672	1.3199794390989	-1.0535759892193086	-3.1517073930522237	-9.138026559263356	-6.8193812983592235	-4.303363778374968	-9.138026559263356	0.02109849643177042	-7.247483163428816	-6.193907174209498	-7.044500338026426	-5.2452336142891545	2	missed	0.0
198.67757649999112	7.662274000001844	nogo_punish	1.0	198.70247870002652	201.4556181000081	203.99426340003276	2.753139399981592	199.7205937000109	202.97240830003295	205.00613350002106	1.7350243999972008	1.0218550999998115	1.358619200007297	n/a	1.0	n/a	1	0	90	1	nogo_punish	1	-1	0	0	0	1	0	n/a	n/a	0	1.0	1.0	947.287707099982	1145.9901858000085	1147.0083007999929	1148.74332519999	1150.260115400015	1151.2819705000147	n/a	n/a	1152.293840600003	1153.6524598000103	2020-10-16 10:47:17.235855	2.21030695194619	-7.05227837743672	-4.98802549127902	-5.00132560572396	-7.19833244322521	-4.98802549127902	-2.21030695194619	-4.98802549127902	-7.05227837743672	-4.98802549127902	-7.19833244322521	4.98802549127902	-5.486062504109139	-8.884006331390044	-7.073773673105656	-10.427675352807753	-11.092211310999474	-7.073773673105656	3.68914454861189	-11.826023744107133	-6.339961239997987	-10.712546390206544	-5.2452336142891545	2	missed	0.0
206.38066829997115	6.256419899989851	nogo_reward	1.0	206.40557050000655	208.16327610000747	210.68679310003074	1.757705600000918	207.41103940003097	209.66793569998129	211.69677690003311	0.7522366999764927	1.0188574000494555	0.9652134999632835	n/a	1.0	n/a	1	0	91	3	nogo_reward	1	0	1	0	0	1	0	n/a	n/a	1	1.0	1.0	947.287707099982	1153.6932775999885	1154.698746500013	1155.4509831999894	1156.9556427999632	1157.9745002000127	n/a	n/a	1158.984484000015	1159.9496974999784	2020-10-16 10:47:17.235855	12.9881508965756	0.0	22.0810448546742	22.0810448546742	9.09289395809861	22.0810448546742	-12.9881508965756	22.0810448546742	0.0	22.0810448546742	9.09289395809861	2.1689847563844005	5.291781440520272	-1.8317279539533236	19.995296672847566	16.654695107590406	5.1990150903243455	19.995296672847566	0.870103813717271	15.243046601846087	9.951265161325832	16.356523955746674	1.8070447631475657	2	missed	0.0
212.67375499999616	6.0442966999835335	nogo_punish	1.0	212.69865720003156	214.23304329998803	216.76611339999374	1.534386099956464	213.7072802000331	215.74498540000093	217.77909740002372	0.5257630999549292	1.0211279999928138	0.9638564999913797	n/a	1.0	n/a	1	0	92	1	nogo_punish	1	-1	0	0	0	1	1	n/a	n/a	0	1.0	1.0	947.287707099982	1159.9863643000135	1160.994987300015	1161.52075039997	1163.0326924999829	1164.0538204999757	n/a	n/a	1165.0668045000057	1166.030660999997	2020-10-16 10:47:17.235855	3.39738511815317	-7.05227837743672	-3.30460455219429	-3.31466532161575	-6.70198967034746	-3.30460455219429	-3.39738511815317	-3.30460455219429	-7.05227837743672	-3.30460455219429	-6.70198967034746	3.30460455219429	-4.298984337902159	-8.884006331390044	-5.390352734020926	-8.741015068699543	-10.595868538121724	-5.390352734020926	2.005723609527161	-10.142602805022403	-5.843618467120238	-9.029125451121816	-5.2452336142891545	2	missed	0.0
218.75439639994875	6.0820822000387125	go_punish	0.5637089000083506	218.77929859998414	220.2804983999814	222.82263880001835	1.5011997999972664	219.78570100001514	221.8115226000083	223.8348918000121	0.4947973999662736	1.0111162000100649	1.0264890000107698	n/a	1.0	n/a	1	0	93	2	go_punish	1	0	-1	1	1	1	0	n/a	n/a	0	0.5637089000083506	1.0	947.287707099982	1166.067005699966	1167.073408099997	1167.5682054999634	1169.0992296999902	1170.1103459000003	n/a	n/a	1171.122598899994	1172.1490879000048	2020-10-16 10:47:17.235855	7.19180250728258	-0.898991951357237	-7.05227837743672	-0.9516199619035	0.139524129845865	-7.05227837743672	-7.19180250728258	-0.898991951357237	-7.05227837743672	0.139524129845865	-7.05227837743672	0.898991951357237	-0.504566948772748	-2.7307199053105604	-9.138026559263356	-6.377969708987293	-3.7543547379284	-9.138026559263356	-0.3998889913098925	-6.6984741229822475	-6.193907174209498	-6.623512850284762	-5.2452336142891545	2	missed	0.0
224.8760961999651	6.2880714000202715	nogo_reward	1.0	224.9009984000005	226.25294390000647	228.79427720000956	1.351945500005968	225.89793229999498	227.76817520003544	229.79034469998453	0.355011600011494	1.0261019999741166	1.3987251000362448	n/a	1.0	n/a	1	0	94	3	nogo_reward	1	0	1	0	0	1	0	n/a	n/a	1	1.0	1.0	947.287707099982	1172.1887054999825	1173.185639399977	1173.5406509999884	1175.0558823000174	1176.0819842999915	n/a	n/a	1177.0780517999665	1178.4767769000027	2020-10-16 10:47:17.235855	13.43176496757	0.0	22.7617870539876	22.7617870539876	9.33002208641758	22.7617870539876	-13.43176496757	22.7617870539876	0.0	22.7617870539876	9.33002208641758	1.4882425570710005	5.735395511514672	-1.8317279539533236	20.676038872160966	17.335437306903806	5.436143218643315	20.676038872160966	0.189361614403871	15.923788801159487	10.188393289644802	17.037266155060074	1.8070447631475657	2	missed	0.0
231.202135599975	6.045747899974231	nogo_punish	1.0	231.2270378000104	232.52431160002027	235.04466100002185	1.2972738000098616	232.24152939999487	234.0284125999898	236.05691049998893	0.28278220002539456	1.0162484000320546	1.2158751999957076	n/a	1.0	n/a	1	0	95	1	nogo_punish	1	-1	0	0	0	1	0	n/a	n/a	0	1.0	1.0	947.287707099982	1178.5147448999924	1179.5292364999768	1179.8120187000022	1181.3161196999718	1182.3323681000038	n/a	n/a	1183.344617599971	1184.5604927999666	2020-10-16 10:47:17.235855	4.16748854792965	-7.05227837743672	-2.21462039827697	-2.22227143012063	-6.38210894620662	-2.21462039827697	-4.16748854792965	-2.21462039827697	-7.05227837743672	-2.21462039827697	-6.38210894620662	2.21462039827697	-3.5288809081256787	-8.884006331390044	-4.300368580103607	-7.648621177204423	-10.275987813980885	-4.300368580103607	0.9157394556098406	-9.052618651105083	-5.523737742979398	-7.939141297204495	-5.2452336142891545	2	missed	0.0
237.28580709995003	6.800236700044707	go_reward	0.5002804999821819	237.31070929998543	239.10994830000016	241.66097169998113	1.7992390000147225	238.3241633999861	240.63669830001902	242.67049669998244	0.7857849000140504	1.0242733999621123	1.4404493000477032	n/a	1.0	n/a	1	0	96	4	go_reward	1	1	0	1	1	1	0	n/a	n/a	1	0.5002804999821819	1.0	947.287707099982	1184.5984163999674	1185.611870499968	1186.397655399982	1187.924405400001	1188.948678799963	n/a	n/a	1189.9582037999644	1191.398653100012	2020-10-16 10:47:17.235855	33.9112554620565	24.1179485936452	0.0	24.1179485936452	33.9112554620565	0.0	-33.9112554620565	24.1179485936452	0.0	33.9112554620565	0.0	0.13208101741340172	26.214886006001173	22.286220639691876	-2.085748181826636	18.691598846561405	30.017376594282236	-2.085748181826636	-1.1667999252537278	27.073257209228387	0.8583712032272223	18.393427694717673	1.8070447631475657	2	missed	0.0
244.12197799998103	6.41350089997286	go_reward	0.386744000017643	244.14688020001643	246.01545390003605	248.57135079999	1.868573700019624	245.15627630002575	247.5470766000218	249.5830724000117	0.8591776000102982	1.024274199968204	0.9773086999775842	n/a	1.0	n/a	1	0	97	4	go_reward	1	1	0	1	1	1	0	n/a	n/a	1	0.386744000017643	1.0	947.287707099982	1191.4345872999984	1192.4439834000077	1193.303161000018	1194.8347837000038	1195.859057899972	n/a	n/a	1196.8707794999937	1197.8480881999712	2020-10-16 10:47:17.235855	33.9570466147864	24.1525262982285	0.0	24.1525262982285	33.9570466147864	0.0	-33.9570466147864	24.1525262982285	0.0	33.9570466147864	0.0	0.09750331283009928	26.26067715873107	22.32079834427518	-2.085748181826636	18.726176551144707	30.063167747012134	-2.085748181826636	-1.2013776298370302	27.119048361958285	0.8583712032272223	18.428005399300975	1.8070447631475657	2	missed	0.0
250.57500149996486	7.230236000032164	go_reward	0.3715101000270806	250.59990370000025	253.05065759999013	255.60600520001037	2.450753899989877	251.6122994000326	254.5828737000121	256.6174967000262	1.43835819995752	1.0231314999982715	1.21264300000621	n/a	1.0	n/a	1	0	98	4	go_reward	0	0	1	1	1	1	1	n/a	n/a	0	0.3715101000270806	1.0	947.287707099982	1197.8876107999822	1198.9000065000146	1200.338364699972	1201.870580799994	1202.8937122999923	n/a	n/a	1203.9052038000082	1205.1178468000144	2020-10-16 10:47:17.235855	33.9902367552885	24.1776219973504	0.0	24.1776219973504	33.9902367552885	0.0	-33.9902367552885	24.1776219973504	0.0	33.9902367552885	0.0	-24.1776219973504	26.29386729923317	22.345894043397077	-2.085748181826636	18.751272250266606	30.096357887514234	-2.085748181826636	-25.47650294001753	27.152238502460385	0.8583712032272223	18.453101098422874	1.8070447631475657	2	missed	0.0
257.8417541999952	5.753836299991235	go_punish	0.5445117999915965	257.8666564000306	259.1956325999928	261.74750090000464	1.3289761999621987	258.86730560002627	260.72700770001404	262.76163329998974	0.3283269999665208	1.0204931999905966	0.8588594000320882	n/a	1.0	n/a	1	0	99	2	go_punish	1	0	-1	1	1	1	0	n/a	n/a	0	0.5445117999915965	1.0	947.287707099982	1205.1543635000126	1206.1550127000082	1206.4833396999747	1208.014714799996	1209.0352079999866	n/a	n/a	1210.0493403999717	1210.9081998000038	2020-10-16 10:47:17.235855	7.55766957611801	-0.618239672422297	-7.05227837743672	-0.656437081324159	0.50539119868129	-7.05227837743672	-7.55766957611801	-0.618239672422297	-7.05227837743672	0.50539119868129	-7.05227837743672	0.618239672422297	-0.13869987993731847	-2.4499676263756207	-9.138026559263356	-6.0827868284079525	-3.388487669092975	-9.138026559263356	-0.6806412702448325	-6.332607054146823	-6.193907174209498	-6.342760571349823	-5.2452336142891545	2	missed	0.0
263.63155419996474	6.030692100001033	nogo_punish	1.0	263.65645640000014	265.22968270001013	267.76676850003435	1.573226300009992	264.6674015999889	266.74581430002615	268.7808558000253	0.5622811000212096	1.020954200008191	0.9062926999758929	n/a	1.0	n/a	1	0	100	1	nogo_punish	1	-1	0	0	0	1	0	n/a	n/a	0	1.0	1.0	947.287707099982	1210.944163499982	1211.9551086999709	1212.517389799992	1214.033521400008	1215.0544756000163	n/a	n/a	1216.0685629000072	1216.9748555999831	2020-10-16 10:47:17.235855	4.67328101400563	-7.05227837743672	-1.5002150129861	-1.50606323847731	-6.17349602699173	-1.5002150129861	-4.67328101400563	-1.5002150129861	-7.05227837743672	-1.5002150129861	-6.17349602699173	1.5002150129861	-3.0230884420496986	-8.884006331390044	-3.585963194812736	-6.932412985561103	-10.067374894765994	-3.585963194812736	0.20133407031897055	-8.338213265814213	-5.315124823764507	-7.224735911913625	-5.2452336142891545	2	missed	0.0
269.7019329999457	5.800167900044471	go_punish	0.5806719000102021	269.7268351999811	271.045387100021	273.58174579998024	1.3185519000398926	270.720031999983	272.562549400027	274.59259359998407	0.3253551000379957	1.0191963999532163	0.9344095000415109	n/a	1.0	n/a	1	0	101	2	go_punish	1	0	-1	1	1	1	1	n/a	n/a	0	0.5806719000102021	1.0	947.287707099982	1217.014542299963	1218.007739099965	1218.333094200003	1219.850256500009	1220.8694528999622	n/a	n/a	1221.880300699966	1222.8147102000075	2020-10-16 10:47:17.235855	7.80395338505633	-0.429109699229362	-7.05227837743672	-0.457032431745213	0.75167500761961	-7.05227837743672	-7.80395338505633	-0.429109699229362	-7.05227837743672	0.75167500761961	-7.05227837743672	0.429109699229362	0.10758392900100144	-2.2608376531826857	-9.138026559263356	-5.883382178829006	-3.142203860154655	-9.138026559263356	-0.8697712434377676	-6.0863232452085025	-6.193907174209498	-6.153630598156887	-5.2452336142891545	2	missed	0.0
275.53680939995684	5.90789329999825	go_reward	0.3369212999823503	275.56171159999224	277.14323310001066	279.68613669998024	1.5815215000184253	276.58104489999835	278.67482439999014	280.69303170003707	0.5621882000123151	1.0113122999900952	0.7765731999534182	n/a	1.0	n/a	1	0	102	4	go_reward	0	0	1	1	1	1	0	n/a	n/a	0	0.3369212999823503	1.0	947.287707099982	1222.8494186999742	1223.8687519999803	1224.4309401999926	1225.962531499972	1226.9738437999622	n/a	n/a	1227.980738800019	1228.7573119999724	2020-10-16 10:47:17.235855	23.0119990914317	16.0889470029036	0.0	16.0889470029036	23.0119990914317	0.0	-23.0119990914317	16.0889470029036	0.0	23.0119990914317	0.0	-16.0889470029036	15.315629635376371	14.257219048950274	-2.085748181826636	10.662597255819804	19.118120223657435	-2.085748181826636	-17.387827945570727	16.17400083860359	0.8583712032272223	10.364426103976072	1.8070447631475657	2	missed	0.0
281.4797088999767	6.452529800008051	go_reward	0.2713424999965355	281.5046111000121	283.5068106999971	286.06335429998614	2.0021995999850333	282.510941900022	285.0391910999898	287.073267000029	0.9958687999751419	1.0241631999963374	0.8838738999911584	n/a	1.0	n/a	1	0	103	4	go_reward	1	1	0	1	1	1	0	n/a	n/a	1	0.2713424999965355	1.0	947.287707099982	1228.792318199994	1229.798649000004	1230.794517799979	1232.3268981999718	1233.351061399968	n/a	n/a	1234.360974100011	1235.244848000002	2020-10-16 10:47:17.235855	15.8605714600892	10.8097029210362	0.0	10.8097029210362	15.8605714600892	0.0	-15.8605714600892	10.8097029210362	0.0	15.8605714600892	0.0	13.4403266900224	8.164202004033871	8.977974967082876	-2.085748181826636	5.383353173952407	11.966692592314935	-2.085748181826636	12.141445747355272	9.022573207261088	0.8583712032272223	5.0851820221086745	1.8070447631475657	2	missed	0.0
287.9727987999795	7.307868600008078	go_punish	0.5365426000207663	287.9977010000149	290.57356799999263	293.11074999999266	2.575866999977734	288.99990320001973	292.08916849998093	294.1235131000286	1.573664799972903	1.0215815000117345	1.18205649999436	n/a	1.0	n/a	1	0	104	2	go_punish	1	0	-1	1	1	1	0	n/a	n/a	0	0.5365426000207663	1.0	947.287707099982	1235.2854080999969	1236.2876103000017	1237.8612750999746	1239.376875599963	1240.3984570999746	n/a	n/a	1241.4112202000106	1242.593276700005	2020-10-16 10:47:17.235855	7.97133146940293	-0.300476304084862	-7.05227837743672	-0.321028937725449	0.919053091966215	-7.05227837743672	-7.97133146940293	-0.300476304084862	-7.05227837743672	0.919053091966215	-7.05227837743672	0.300476304084862	0.2749620133476016	-2.1322042580381857	-9.138026559263356	-5.7473786848092425	-2.97482577580805	-9.138026559263356	-0.9984046385822676	-5.918945160861898	-6.193907174209498	-6.024997203012387	-5.2452336142891545	2	missed	0.0
295.32197209994774	6.133502900018584	nogo_reward	1.0	295.34687429998314	296.91817800002184	299.4358722000035	1.5713037000386976	296.35728549998055	298.42077690002054	300.43924680002954	0.560892500041291	1.0150952999829315	1.0411303999721895	n/a	1.0	n/a	1	0	105	3	nogo_reward	1	0	1	0	0	1	0	n/a	n/a	1	1.0	1.0	947.287707099982	1242.634581399965	1243.6449925999625	1244.2058851000038	1245.7084840000025	1246.7235792999854	n/a	n/a	1247.7269539000115	1248.7680842999837	2020-10-16 10:47:17.235855	13.73185587014	0.0	23.2203668732755	23.2203668732755	9.48851100313553	23.2203668732755	-13.73185587014	23.2203668732755	0.0	23.2203668732755	9.48851100313553	1.0296627377831022	6.035486414084672	-1.8317279539533236	21.134618691448864	17.794017126191704	5.594632135361265	21.134618691448864	-0.26921820488402726	16.382368620447387	10.346882206362752	17.495845974347972	1.8070447631475657	2	missed	0.0
301.49177179997787	7.421469499997329	go_reward	0.3764249000232667	301.51667400001327	304.23461630003305	306.79065260000095	2.7179423000197858	302.53263680002453	305.7689548000345	307.80370889999915	1.7019795000085196	1.0216977999664323	1.1344346000114456	n/a	1.0	n/a	1	0	106	4	go_reward	0	0	1	1	1	1	0	n/a	n/a	0	0.3764249000232667	1.0	947.287707099982	1248.8043810999952	1249.8203439000065	1251.522323400015	1253.0566619000165	1254.078359699983	n/a	n/a	1255.091415999981	1256.2258505999926	2020-10-16 10:47:17.235855	22.1572488126238	15.4359972087772	0.0	15.4359972087772	22.1572488126238	0.0	-22.1572488126238	15.4359972087772	0.0	22.1572488126238	0.0	-15.4359972087772	14.46087935656847	13.604269254823876	-2.085748181826636	10.009647461693408	18.263369944849533	-2.085748181826636	-16.73487815144433	15.319250559795686	0.8583712032272223	9.711476309849676	1.8070447631475657	2	missed	0.0
308.95643949997634	7.009043900004599	go_reward	1.0	308.98134170001174	311.0236391000218	313.5601978999913	2.0422974000100567	309.98105880001106	312.53907320002315	314.5740640999867	1.0425803000107408	1.0211246999681407	1.4163215000296532	n/a	1.0	n/a	1	0	107	4	go_reward	1	1	0	1	0	0	0	n/a	n/a	0	1.0	1.0	947.287707099982	1256.2690487999937	1257.268765899993	1258.3113462000038	1259.826780300005	1260.8479049999733	n/a	n/a	1261.8617711999686	1263.2780926999983	2020-10-16 10:47:17.235855	-15.1981275934289	10.3049549062773	0.0	10.3049549062773	15.1981275934289	0.0	15.1981275934289	0.0	10.3049549062773	0.0	15.1981275934289	0.0	-22.89449704948423	8.473226952323976	-2.085748181826636	4.878605159193508	11.304248725654634	-2.085748181826636	-1.2988809426671295	-6.837998252828113	16.056498796656122	-5.724520898927525	12.111999669424867	2	missed	0.0
316.0019517999608	6.5451507000252604	nogo_punish	1.0	316.0268539999962	318.03035290003766	320.5647976000329	2.00349890004145	317.04226590000314	319.543174999999	321.57787249999853	0.9880870000345112	1.0216226000338793	0.994132200022932	n/a	1.0	n/a	1	0	108	1	nogo_punish	1	-1	0	0	0	1	0	n/a	n/a	0	1.0	1.0	947.287707099982	1263.3145610999782	1264.329972999985	1265.3180600000196	1266.830882099981	1267.8525047000148	n/a	n/a	1268.8655795999805	1269.8597118000034	2020-10-16 10:47:17.235855	5.00929828648016	-7.05227837743672	-1.02663830790574	-1.03113040049902	-6.03593659438589	-1.02663830790574	-5.00929828648016	-1.02663830790574	-7.05227837743672	-1.02663830790574	-6.03593659438589	1.02663830790574	-2.6870711695751686	-8.884006331390044	-3.1123864897323763	-6.457480147582813	-9.929815462160155	-3.1123864897323763	-0.27224263476138955	-7.864636560733853	-5.177565391158668	-6.7511592068332655	-5.2452336142891545	2	missed	0.0
322.58252060000086	6.452001599944197	go_reward	0.4346352000138722	322.60742280003626	324.256436900003	326.80530990002455	1.6490140999667346	323.60777230002	325.78052780003065	327.81572260003315	0.6486645999830216	1.0247820999938995	1.2437017999473028	n/a	1.0	n/a	1	0	109	4	go_reward	1	1	0	1	1	1	1	n/a	n/a	1	0.4346352000138722	1.0	947.287707099982	1269.8951299000182	1270.895479400002	1271.544143999985	1273.0682349000126	1274.0930170000065	n/a	n/a	1275.103429700015	1276.3471314999624	2020-10-16 10:47:17.235855	14.010705657119	10.3049549062773	0.0	6.947023106665	14.010705657119	0.0	-14.010705657119	10.3049549062773	0.0	14.010705657119	0.0	13.9450747047813	6.314336201063672	8.473226952323976	-2.085748181826636	1.520673359581207	10.116826789344735	-2.085748181826636	12.646193762114171	7.172707404290888	0.8583712032272223	4.580434007349775	1.8070447631475657	2	missed	0.0
329.0722290999838	7.390256499988027	nogo_punish	1.0	329.0971313000192	331.5489072999918	334.07695060002163	2.4517759999725968	330.1129605000025	333.06583590002276	335.0858353000368	1.435946799989324	1.0111146999988705	1.4015524999704212	n/a	1.0	n/a	1	0	110	1	nogo_punish	1	-1	0	0	0	1	1	n/a	n/a	0	1.0	1.0	947.287707099982	1276.3848384000012	1277.4006675999844	1278.8366143999738	1280.3535430000047	1281.3646577000036	n/a	n/a	1282.3735424000188	1283.7750948999892	2020-10-16 10:47:17.235855	5.2349266881688	-7.05227837743672	-0.709354246965903	-0.712820832760865	-5.9442809351347	-0.709354246965903	-5.2349266881688	-0.709354246965903	-7.05227837743672	-0.709354246965903	-5.9442809351347	0.709354246965903	-2.4614427678865285	-8.884006331390044	-2.7951024287925392	-6.1391705798446585	-9.838159802908965	-2.7951024287925392	-0.5895266957012265	-7.547352499794016	-5.085909731907478	-6.4338751458934285	-5.2452336142891545	2	missed	0.0
336.4984840999823	6.279652800003532	go_reward	1.0	336.5233863000177	337.8822778000032	340.407552800025	1.358891499985475	337.5287558999845	339.3977206000128	341.41710560000513	0.3535219000186771	1.0098322000121698	1.3859335000161082	n/a	1.0	n/a	1	0	111	4	go_reward	0	0	1	1	0	0	1	n/a	n/a	1	1.0	1.0	947.287707099982	1283.8110933999997	1284.8164629999665	1285.1699848999851	1286.6854276999948	1287.695259900007	n/a	n/a	1288.704812699987	1290.0907462000032	2020-10-16 10:47:17.235855	-20.8761066835981	15.0540255787568	0.0	12.8336773987364	20.8761066835981	0.0	20.8761066835981	0.0	15.0540255787568	0.0	20.8761066835981	24.2500296110586	-28.57247613965343	13.222297624803476	-2.085748181826636	7.407327651652607	16.982227815823833	-2.085748181826636	22.951148668391472	-6.837998252828113	21.73447788682532	-5.724520898927525	16.861070341904366	2	missed	0.0
342.81124019995355	6.852168600016512	nogo_punish	1.0	342.83614239998894	344.66387330001464	347.19148249999864	1.8277309000256992	343.83926259999873	346.16873440000916	348.2035765000038	0.82461070001591	1.0227480999894851	1.4847345000016503	n/a	1.0	n/a	1	0	112	1	nogo_punish	1	-1	0	0	0	1	1	n/a	n/a	0	1.0	1.0	947.287707099982	1290.123849499971	1291.1269696999807	1291.9515803999966	1293.4564414999911	1294.4791895999806	n/a	n/a	1295.4912835999858	1296.9760180999874	2020-10-16 10:47:17.235855	5.38796286769546	-7.05227837743672	-0.494641151329159	-0.497328320860536	-5.88260401902462	-0.494641151329159	-5.38796286769546	-0.494641151329159	-7.05227837743672	-0.494641151329159	-5.88260401902462	0.494641151329159	-2.308406588359868	-8.884006331390044	-2.580389333155795	-5.923678067944329	-9.776482886798885	-2.580389333155795	-0.8042397913379705	-7.332639404157272	-5.024232815797397	-6.219162050256684	-5.2452336142891545	2	missed	0.0
349.7017676999676	7.282614500029013	go_reward	0.5938743999577127	349.726669900003	352.20923139998933	354.76415840000834	2.482561499986332	350.73436770000274	353.74435430002643	355.77067400002863	1.4748636999865994	1.0198040999819113	1.238610400003381	n/a	1.0	n/a	1	0	113	4	go_reward	0	0	1	1	1	1	1	n/a	n/a	0	0.5938743999577127	1.0	947.287707099982	1297.014376999985	1298.0220747999847	1299.4969384999713	1301.0320614000084	1302.0518654999903	n/a	n/a	1303.0583811000106	1304.296991500014	2020-10-16 10:47:17.235855	14.1295010600151	15.0540255787568	8.10700247209176	16.644020816994	22.2365035321069	8.10700247209176	-14.1295010600151	15.0540255787568	8.10700247209176	22.2365035321069	8.10700247209176	-15.0540255787568	6.4331316039597715	13.222297624803476	6.021254290265125	11.217671069910207	18.342624664332636	6.021254290265125	-16.35290652142393	15.398505279278789	8.965373675318983	9.329504679829274	9.914047235239327	2	missed	0.0
357.02956090000225	6.449963499966543	nogo_reward	1.0	357.05446310003765	358.75493609998387	361.2812435000088	1.7004729999462143	358.06745269999385	360.25640310003666	362.2910417999957	0.6874833999900147	1.0248403999721631	1.2133848000084981	n/a	1.0	n/a	1	0	114	3	nogo_reward	1	0	1	0	0	1	0	n/a	n/a	1	1.0	1.0	947.287707099982	1304.3421702000196	1305.3551597999758	1306.0426431999658	1307.5441102000186	1308.5689505999908	n/a	n/a	1309.5787488999777	1310.7921336999862	2020-10-16 10:47:17.235855	13.93657596069	0.0	23.5319218889324	23.5319218889324	9.59534592824236	23.5319218889324	-13.93657596069	23.5319218889324	0.0	23.5319218889324	9.59534592824236	0.7181077221262022	6.2402065046346715	-1.8317279539533236	21.446173707105764	18.105572141848604	5.701467060468095	21.446173707105764	-0.5807732205409273	16.693923636104287	10.453717131469581	17.807400990004872	1.8070447631475657	2	missed	0.0
363.5200168999727	7.370591700018849	go_punish	1.0	363.5449191000081	366.0266456999817	368.56729410000855	2.4817265999736264	364.547584199987	367.5415768999957	369.56650730001286	1.4790614999947138	1.0257172000128776	1.3490035000140779	n/a	1.0	n/a	1	0	115	2	go_punish	1	0	-1	1	0	0	0	n/a	n/a	-1	1.0	1.0	947.287707099982	1310.83262619999	1311.835291299969	1313.3143527999637	1314.8292839999776	1315.8550011999905	n/a	n/a	1316.8542143999948	1318.203217900009	2020-10-16 10:47:17.235855	-8.08612611947747	-0.21218741404505	-7.05227837743672	-0.227415474596749	1.03384774204075	-7.05227837743672	8.08612611947747	-7.05227837743672	-0.21218741404505	-7.05227837743672	1.03384774204075	-3.13831625416418	-15.7824955755328	-2.0439153679983737	-9.138026559263356	-5.653765221680542	-2.860031125733515	-9.138026559263356	-4.43719719683131	-13.890276630264832	1.892218945267972	-12.776799276364246	1.5948573491025158	2	missed	0.0
370.9289490999654	5.981482600036543	go_reward	0.7187797999940813	370.9538513000008	372.4365326000262	374.9656487000176	1.4826813000254333	371.96831840003154	373.96821870002907	375.9723228000222	0.4682141999946907	0.9974299999885261	0.9630111000151373	n/a	1.0	n/a	1	0	116	4	go_reward	0	0	1	1	1	1	0	n/a	n/a	0	0.7187797999940813	1.0	947.287707099982	1318.2415583999828	1319.2560255000135	1319.7242397000082	1321.255925800011	1322.2533557999996	n/a	n/a	1323.2600299000042	1324.2230410000193	2020-10-16 10:47:17.235855	7.08267881153781	10.0193843494021	8.10700247209176	11.0289734251374	15.1896812836296	8.10700247209176	-7.08267881153781	10.0193843494021	8.10700247209176	15.1896812836296	8.10700247209176	-10.0193843494021	-0.6136906445175185	8.187656395448776	6.021254290265125	5.6026236780536065	11.295802415855334	6.021254290265125	-11.31826529206923	8.351683030801487	8.965373675318983	4.294863450474575	9.914047235239327	2	missed	0.0
376.95057159999874	5.963929999968741	nogo_reward	1.0	376.97547380003414	378.45638200000406	380.98211390001245	1.4809081999699174	377.98723030003055	379.9642490000116	381.99248000001546	0.4691516999735086	1.017864900000859	0.9469237999874167	n/a	1.0	n/a	1	0	117	3	nogo_reward	1	0	1	0	0	1	0	n/a	n/a	1	1.0	1.0	947.287707099982	1324.263180900016	1325.2749374000125	1325.744089099986	1327.2519560999935	1328.2698209999944	n/a	n/a	1329.2801870999974	1330.2271108999848	2020-10-16 10:47:17.235855	14.0773637196043	0.0	23.7453218655672	23.7453218655672	9.66795814596293	23.7453218655672	-14.0773637196043	23.7453218655672	0.0	23.7453218655672	9.66795814596293	0.5047077454914017	6.380994263548971	-1.8317279539533236	21.65957368374056	18.318972118483405	5.7740792781886645	21.65957368374056	-0.7941731971757278	16.907323612739084	10.526329349190151	18.020800966639673	1.8070447631475657	2	missed	0.0
382.94883719994687	6.313308600045275	go_reward	0.4980873999884352	382.97373939998226	384.4040176999989	386.9703335000087	1.4302783000166528	383.9911010999932	385.9455098999898	387.97105829999794	0.4129166000057012	1.0248236000188626	1.3159897000296041	n/a	1.0	n/a	1	0	118	4	go_reward	1	1	0	1	1	1	1	n/a	n/a	1	0.4980873999884352	1.0	947.287707099982	1330.2614464999642	1331.2788081999752	1331.6917247999809	1333.2332169999718	1334.2580405999906	n/a	n/a	1335.25876539998	1336.5747551000095	2020-10-16 10:47:17.235855	2.50065174345493	6.73496783692109	8.10700247209176	7.38172032034333	10.6076542155467	8.10700247209176	-2.50065174345493	6.73496783692109	8.10700247209176	10.6076542155467	8.10700247209176	17.51506177413751	-5.195717712600398	4.903239882967767	6.021254290265125	1.955370573259537	6.713775347772436	6.021254290265125	16.216180831470382	3.7696559627185877	8.965373675318983	1.0104469379935646	9.914047235239327	2	missed	0.0
389.3017667999957	6.450922299991362	go_reward	0.686675600009039	389.3266690000311	391.05845160002366	393.5914191000048	1.7317825999925844	390.3348296000041	392.57739420002315	394.59115360002045	0.7236220000195317	1.0140248999816777	1.1864377000019886	n/a	1.0	n/a	1	0	119	4	go_reward	1	1	0	1	1	1	0	n/a	n/a	1	0.686675600009039	1.0	947.287707099982	1336.614376100013	1337.622536699986	1338.3461587000056	1339.865101300005	1340.8791261999868	n/a	n/a	1341.8788607000024	1343.0652984000044	2020-10-16 10:47:17.235855	10.4924231075907	12.6767516394228	8.10700247209176	13.0944282743457	18.5994255796824	8.10700247209176	-10.4924231075907	12.6767516394228	8.10700247209176	18.5994255796824	8.10700247209176	11.5732779716358	2.796053651535371	10.845023685469476	6.021254290265125	7.668078527261907	14.705546711908134	6.021254290265125	10.274397028968671	11.761427326854287	8.965373675318983	6.952230740495275	9.914047235239327	2	missed	0.0
395.7929826999898	6.69717090000654	nogo_reward	1.0	395.8178849000252	397.5031762000291	400.04387500003224	1.6852913000038825	396.8299315000187	399.017140400014	401.05240929999866	0.6732447000104003	1.0267346000182442	1.4626465000330882	n/a	1.0	n/a	1	0	120	3	nogo_reward	1	0	1	0	0	1	0	n/a	n/a	1	1.0	1.0	947.287707099982	1343.1055920000072	1344.1176386000006	1344.790883300011	1346.304847499996	1347.3315821000142	n/a	n/a	1348.3401163999806	1349.8027629000137	2020-10-16 10:47:17.235855	14.1749358600639	0.0	23.892643489769	23.892643489769	9.71770762970511	23.892643489769	-14.1749358600639	23.892643489769	0.0	23.892643489769	9.71770762970511	0.35738612128960057	6.478566404008572	-1.8317279539533236	21.806895307942362	18.466293742685206	5.823828761930845	21.806895307942362	-0.9414948213775289	17.054645236940885	10.576078832932332	18.168122590841474	1.8070447631475657	2	missed	0.0
