onset	duration	trial_type	response_time	cueOnset	targetOnset	fbOnset	cueRT	firstfixOnset	secondfixOnset	waitOnset	firstfixdur	secondfixdur	waitdur	nback_fbOnset	nback_response_time	nback_targetOnset	block	wm	trial	cue	cond	is_common	outcome_go	outcome_nogo	key_correct	key_pressed	is_correct	key_correct_nback	key_pressed_nback	is_correct_nback	outcome	rt	rt_nback	time_scan	time_onset	time_isi1	time_circle	time_isi2	time_feedback	time_same	time_correct	time_iti	time_done	timestamp_scan	DV	Qgo	Qnogo	SV	Wgo	Wnogo	mDV	Qchosen	Qunchosen	Wchosen	Wunchosen	PE	DVC	QgoC	QnogoC	SVC	WgoC	WnogoC	PEC	WchosenC	WunchosenC	QchosenC	QunchosenC	run	outcome_nback	nback_targetResp
0.0	7.081925600068644	go_punish	0.322704300051555	0.027402299921732265	2.0325807998888195	4.596544699975993	2.005178499967087	1.03184959990881	3.568228499963425	5.615320699987706	1.0007311999800095	1.0283162000125685	1.4940072000026703	n/a	1.0	n/a	2	0	1	4	go_punish	1	0	-1	1	1	1	0	n/a	n/a	0	0.322704300051555	1.0	1266.915867800126	1266.9432701000478	1267.947717400035	1268.948448600015	1270.4840963000895	1271.512412500102	n/a	n/a	1272.5311885001138	1274.0251957001165	2019-11-22 19:15:21.661477	0.0307919189337686	0.0	0.0	0.0	0.0307919189337686	0.0	-0.0307919189337686	0.0	0.0	0.0307919189337686	0.0	0.0	-8.10325519606047	-4.572948544942278	-2.580202418281997	-7.5191403624299	-7.435589545650788	-2.580202418281997	-1.0137350751063054	-9.059523579996627	-0.9562683839361605	-7.636587507846531	0.48343654462224994	3	missed	0.0
7.205019599990919	5.742508700117469	nogo_punish	1.0	7.2324218999126515	8.516520400065701	11.030408599879365	1.2840985001530498	8.232512800022732	10.019914499949437	12.043639200040843	0.284007600042969	1.0104940999299288	0.9312913999892771	n/a	1.0	n/a	2	0	2	3	nogo_punish	1	-1	0	0	0	1	0	n/a	n/a	0	1.0	1.0	1266.915867800126	1274.1482897000387	1275.1483806001488	1275.4323882001918	1276.9357823000755	1277.9462764000054	n/a	n/a	1278.959507000167	1279.8907984001562	2019-11-22 19:15:21.661477	-0.0307919189337686	0.0	0.0	0.0	0.0307919189337686	0.0	0.0307919189337686	0.0	0.0	0.0	0.0307919189337686	0.0	-8.164839033928008	-4.572948544942278	-2.580202418281997	-7.5191403624299	-7.435589545650788	-2.580202418281997	-1.0137350751063054	-9.090315498930396	-0.9254764650023919	-7.636587507846531	0.48343654462224994	3	missed	0.0
12.989453700138256	6.234362699789926	nogo_punish	0.3825586999300867	13.016856000059988	14.794653099961351	17.35076260007895	1.7777970999013633	14.020050599938031	16.32667579990789	18.360465300036367	0.7746025000233203	1.0240868001710624	0.8907533998135477	n/a	1.0	n/a	2	0	3	3	nogo_punish	1	-1	0	0	1	0	0	n/a	n/a	-1	0.3825586999300867	1.0	1266.915867800126	1279.932723800186	1280.935918400064	1281.7105209000874	1283.242543600034	1284.266630400205	n/a	n/a	1285.2763331001624	1286.167086499976	2019-11-22 19:15:21.661477	0.0307919189337686	0.0	0.0	0.0	0.0307919189337686	0.0	-0.0307919189337686	0.0	0.0	0.0307919189337686	0.0	-11.0907992979631	-8.10325519606047	-4.572948544942278	-2.580202418281997	-7.5191403624299	-7.435589545650788	-2.580202418281997	-12.104534373069406	-9.059523579996627	-0.9562683839361605	-7.636587507846531	0.48343654462224994	3	missed	0.0
19.266436900012195	7.396968200104311	nogo_punish	1.0	19.293839199933927	21.777251899940666	24.29479509987823	2.4834127000067383	20.30198909994192	23.281132299918227	25.306305299978476	1.4752627999987453	1.0136627999600023	1.3845021000597626	n/a	1.0	n/a	2	0	4	3	nogo_punish	1	-1	0	0	0	1	1	n/a	n/a	0	1.0	1.0	1266.915867800126	1286.20970700006	1287.217856900068	1288.6931197000667	1290.1970001000443	1291.2106629000043	n/a	n/a	1292.2221731001046	1293.6066752001643	2019-11-22 19:15:21.661477	6.40308777035312	-4.43293204527514	0.0	-4.43293204527514	-6.40308777035312	0.0	-6.40308777035312	0.0	-4.43293204527514	0.0	-6.40308777035312	0.0	-1.7309593446411187	-9.00588059021742	-2.580202418281997	-11.952072407705039	-13.869469234937677	-2.580202418281997	-1.0137350751063054	-9.090315498930396	-7.359356154289281	-7.636587507846531	-3.9494955006528905	3	missed	0.0
26.705141900107265	6.102918199962005	nogo_punish	1.0	26.732544200028997	28.396678799995925	30.926076799863722	1.6641345999669284	27.741411200025823	29.90254989988148	31.935949600068625	0.6552675999701023	1.0235268999822438	0.8995127999223769	n/a	1.0	n/a	2	0	5	3	nogo_punish	0	0	-1	0	0	1	1	n/a	n/a	-1	1.0	1.0	1266.915867800126	1293.648412000155	1294.657279000152	1295.312546600122	1296.8184177000076	1297.8419445999898	n/a	n/a	1298.8518174001947	1299.751330200117	2019-11-22 19:15:21.661477	5.57465437276434	-4.43293204527514	0.0	-2.60746947310982	-5.57465437276434	0.0	-5.57465437276434	0.0	-4.43293204527514	0.0	-5.57465437276434	-11.0907992979631	-2.5593927422298988	-9.00588059021742	-2.580202418281997	-10.12660983553972	-13.041035837348897	-2.580202418281997	-12.104534373069406	-9.090315498930396	-6.530922756700501	-7.636587507846531	-3.9494955006528905	3	missed	0.0
32.84682610002346	6.866585900075734	nogo_punish	1.0	32.874228399945196	35.44368389993883	37.971751499920856	2.569455499993637	33.876967999851104	36.950032399967085	38.98055229987904	1.566715900087729	1.0217190999537706	0.7602620001418927	n/a	1.0	n/a	2	0	6	3	nogo_punish	1	-1	0	0	0	1	1	n/a	n/a	0	1.0	1.0	1266.915867800126	1299.7900962000713	1300.7928357999772	1302.359551700065	1303.8659002000932	1304.887619300047	n/a	n/a	1305.8964201000051	1306.656682100147	2019-11-22 19:15:21.661477	2.66654652567466	-4.43293204527514	-4.43293204527514	-5.98597830465062	-7.0994785709498	-4.43293204527514	-2.66654652567466	-4.43293204527514	-4.43293204527514	-4.43293204527514	-7.0994785709498	4.43293204527514	-5.467500589319579	-9.00588059021742	-7.013134463557137	-13.50511866708052	-14.565860035534357	-7.013134463557137	3.4191969701688345	-13.523247544205535	-8.05574695488596	-12.06951955312167	-3.9494955006528905	3	missed	0.0
39.73543170001358	6.288078800076619	go_punish	1.0	39.76283399993531	41.27488339995011	43.805678799981024	1.5120494000148028	40.77604619995668	42.79098499985389	44.82112129987195	0.49883719999343157	1.0146938001271337	1.2297915001399815	n/a	1.0	n/a	2	0	7	4	go_punish	1	0	-1	1	0	0	0	n/a	n/a	-1	1.0	1.0	1266.915867800126	1306.6787018000614	1307.6919140000828	1308.1907512000762	1309.70685279998	1310.721546600107	n/a	n/a	1311.736989099998	1312.966780600138	2019-11-22 19:15:21.661477	-0.0307919189337686	0.0	0.0	0.0	0.0307919189337686	0.0	0.0307919189337686	0.0	0.0	0.0	0.0307919189337686	-11.0907992979631	-8.164839033928008	-4.572948544942278	-2.580202418281997	-7.5191403624299	-7.435589545650788	-2.580202418281997	-12.104534373069406	-9.090315498930396	-0.9254764650023919	-7.636587507846531	0.48343654462224994	3	missed	0.0
46.0494659000542	6.526148299919669	go_punish	0.3138861998450011	46.076868199975934	48.134280900005024	50.67817640001863	2.05741270002909	47.08579190005503	49.65474279993191	51.688208699924644	1.0484889999499956	1.0234336000867188	0.9148077999709585	n/a	1.0	n/a	2	0	8	4	go_punish	0	-1	0	1	1	1	0	n/a	n/a	-1	0.3138861998450011	1.0	1266.915867800126	1312.992736000102	1314.001659700181	1315.050148700131	1316.570610600058	1317.5940442001447	n/a	n/a	1318.6040765000507	1319.5188843000217	2019-11-22 19:15:21.661477	2.46277632019717	0.0	-4.43293204527514	-4.43293204527514	-1.97015572507798	-4.43293204527514	-2.46277632019717	0.0	-4.43293204527514	-1.97015572507798	-4.43293204527514	-11.0907992979631	-5.671270794797069	-4.572948544942278	-7.013134463557137	-11.952072407705039	-9.436537189662538	-7.013134463557137	-12.104534373069406	-11.060471224008376	-5.389200429211301	-7.636587507846531	-3.9494955006528905	3	missed	0.0
52.60879989992827	6.300279100192711	nogo_reward	1.0	52.636202199850004	54.294653000077005	56.82369960006304	1.6584508002270013	53.63247650000221	55.80053499992914	57.833676100009825	0.6621765000747928	1.0231646001338959	1.1028052000328898	n/a	1.0	n/a	2	0	9	1	nogo_reward	1	0	1	0	0	1	0	n/a	n/a	1	1.0	1.0	1266.915867800126	1319.552069999976	1320.5483443001283	1321.210520800203	1322.7164028000552	1323.7395674001891	n/a	n/a	1324.749543900136	1325.8523491001688	2019-11-22 19:15:21.661477	-0.0307919189337686	0.0	0.0	0.0	0.0307919189337686	0.0	0.0307919189337686	0.0	0.0	0.0	0.0307919189337686	28.7590930809678	-8.164839033928008	-4.572948544942278	-2.580202418281997	-7.5191403624299	-7.435589545650788	-2.580202418281997	27.745358005861497	-9.090315498930396	-0.9254764650023919	-7.636587507846531	0.48343654462224994	3	missed	0.0
58.96692560007796	7.273245600052178	nogo_punish	1.0	58.99432789999969	61.77575249993242	64.29265769990161	2.781424599932734	60.008634899975505	63.289354600012075	65.3040626000145	1.7671175999569186	1.0033030998895356	0.9635109000373632	n/a	1.0	n/a	2	0	10	3	nogo_punish	1	-1	0	0	0	1	0	n/a	n/a	0	1.0	1.0	1266.915867800126	1325.9101957001258	1326.9245027001016	1328.6916203000585	1330.2052224001382	1331.2085255000277	n/a	n/a	1332.2199304001406	1333.183441300178	2019-11-22 19:15:21.661477	3.38641935222661	-4.43293204527514	-2.60746947310982	-3.5441428663248	-5.99388882533644	-2.60746947310982	-3.38641935222661	-2.60746947310982	-4.43293204527514	-2.60746947310982	-5.99388882533644	2.60746947310982	-4.747627762767628	-9.00588059021742	-5.187671891391817	-11.063283228754699	-13.460270289920997	-5.187671891391817	1.5937343980035144	-11.697784972040216	-6.950157209272601	-10.244056980956351	-3.9494955006528905	3	missed	0.0
66.30672929994762	7.1031759001782575	go_reward	1.0	66.33413159986935	68.51097860000982	71.02618819987401	2.1768470001404694	67.34038170007943	70.01686390000373	72.04062730004057	1.1705968999303877	1.0093242998702863	1.3966802000070402	n/a	1.0	n/a	2	0	11	2	go_reward	1	1	0	1	0	0	0	n/a	n/a	0	1.0	1.0	1266.915867800126	1333.2499993999954	1334.2562495002055	1335.426846400136	1336.9327317001298	1337.942056	n/a	n/a	1338.9564951001666	1340.3531753001737	2019-11-22 19:15:21.661477	-0.0307919189337686	0.0	0.0	0.0	0.0307919189337686	0.0	0.0307919189337686	0.0	0.0	0.0	0.0307919189337686	0.0	-8.164839033928008	-4.572948544942278	-2.580202418281997	-7.5191403624299	-7.435589545650788	-2.580202418281997	-1.0137350751063054	-9.090315498930396	-0.9254764650023919	-7.636587507846531	0.48343654462224994	3	missed	0.0
73.43584419996478	7.059097500052303	nogo_reward	1.0	73.46324649988651	76.01986630004808	78.55960140004731	2.5566198001615703	74.4734866998624	77.53639789996623	79.55988139985106	1.5463796001856736	1.023203500081081	0.962462600087747	n/a	1.0	n/a	2	0	12	1	nogo_reward	1	0	1	0	0	1	0	n/a	n/a	1	1.0	1.0	1266.915867800126	1340.3791143000126	1341.3893544999885	1342.9357341001742	1344.4522657000923	1345.4754692001734	n/a	n/a	1346.4757491999771	1347.438211800065	2019-11-22 19:15:21.661477	5.63171978934492	0.0	11.7202176538856	11.7202176538856	6.08849786454064	11.7202176538856	-5.63171978934492	11.7202176538856	0.0	11.7202176538856	6.08849786454064	17.038875427082203	-2.5023273256493193	-4.572948544942278	9.140015235603602	4.2010772914557	-1.3778836000439165	9.140015235603602	16.0251403519759	2.6299021549552037	5.1322294806044795	4.083630146039069	0.48343654462224994	3	missed	0.0
80.52063799998723	6.087110799970105	nogo_reward	1.0	80.54804029990896	82.10294039989799	84.62466929992638	1.5549000999890268	81.55726650008	83.61055619991362	85.63553530001082	0.5456738998179844	1.0141131000127643	0.999615799868252	n/a	1.0	n/a	2	0	13	1	nogo_reward	1	0	1	0	0	1	0	n/a	n/a	1	1.0	1.0	1266.915867800126	1347.463908100035	1348.473134300206	1349.018808200024	1350.5264240000397	1351.5405371000525	n/a	n/a	1352.551403100137	1353.5510189000051	2019-11-22 19:15:21.661477	8.92727814449477	0.0	18.5137978057778	18.5137978057778	9.58651966128301	18.5137978057778	-8.92727814449477	18.5137978057778	0.0	18.5137978057778	9.58651966128301	10.245295275190003	0.7932310295005305	-4.572948544942278	15.933595387495801	10.994657443347899	2.120138196698453	15.933595387495801	9.231560200083697	9.423482306847403	8.630251277346849	10.877210297931267	0.48343654462224994	3	missed	0.0
86.65174330002628	6.373729400103912	go_reward	0.3868297000881284	86.67914559994801	88.23805739986688	90.83080590004079	1.5589117999188602	87.67648019990861	89.80704009998544	91.84102649986721	0.5615771999582648	1.0237658000553438	1.2118485001847148	n/a	1.0	n/a	2	0	14	2	go_reward	1	1	0	1	1	1	0	n/a	n/a	1	0.3868297000881284	1.0	1266.915867800126	1353.595013400074	1354.5923480000347	1355.153925199993	1356.7229079001115	1357.7466737001669	n/a	n/a	1358.7568942999933	1359.968742800178	2019-11-22 19:15:21.661477	0.0307919189337686	0.0	0.0	0.0	0.0307919189337686	0.0	-0.0307919189337686	0.0	0.0	0.0307919189337686	0.0	28.7590930809678	-8.10325519606047	-4.572948544942278	-2.580202418281997	-7.5191403624299	-7.435589545650788	-2.580202418281997	27.745358005861497	-9.059523579996627	-0.9562683839361605	-7.636587507846531	0.48343654462224994	3	missed	0.0
93.04941330011934	6.540347900008783	go_punish	1.0	93.07681560004107	94.84949799999572	97.38786519993982	1.7726823999546468	94.07823799992889	96.3649232999885	98.39788619987621	0.7712600000668317	1.02294189995132	1.219277300173644	n/a	1.0	n/a	2	0	15	4	go_punish	1	0	-1	1	0	0	0	n/a	n/a	-1	1.0	1.0	1266.915867800126	1359.9926834001672	1360.994105800055	1361.7653658001218	1363.2807911001146	1364.303733000066	n/a	n/a	1365.3137540000023	1366.533031300176	2019-11-22 19:15:21.661477	3.14266997150094	-4.43293204527514	-4.43293204527514	-7.04040151838497	-7.57560201677608	-4.43293204527514	-3.14266997150094	-4.43293204527514	-4.43293204527514	-4.43293204527514	-7.57560201677608	-6.65786725268796	-4.991377143493299	-9.00588059021742	-7.013134463557137	-14.55954188081487	-15.041983481360637	-7.013134463557137	-7.6716023277942655	-13.523247544205535	-8.53187040071224	-12.06951955312167	-3.9494955006528905	3	missed	0.0
99.6301156999541	6.394912400050316	go_reward	0.3751204998698085	99.65751799987584	101.13600030005887	103.69635850004829	1.4784823001830318	100.66778569994472	102.6730088999027	104.69700799998782	0.46821460011415184	1.0233496001455933	1.355422399938334	n/a	1.0	n/a	2	0	16	2	go_reward	1	1	0	1	1	1	1	n/a	n/a	1	0.3751204998698085	1.0	1266.915867800126	1366.573385800002	1367.5836535000708	1368.051868100185	1369.5888767000288	1370.6122263001744	n/a	n/a	1371.612875800114	1372.9682982000522	2019-11-22 19:15:21.661477	17.8087155184262	11.7202176538856	0.0	11.7202176538856	17.8087155184262	0.0	-17.8087155184262	11.7202176538856	0.0	17.8087155184262	0.0	17.038875427082203	9.674668403431962	7.147269108943322	-2.580202418281997	4.2010772914557	10.342334053841643	-2.580202418281997	16.0251403519759	8.718400019495805	-0.9562683839361605	4.083630146039069	0.48343654462224994	3	missed	0.0
106.05180180002935	6.300564599921927	nogo_reward	1.0	106.07920409995108	108.07308369991347	110.60146229993529	1.9938795999623835	107.08841139986157	109.57836779998593	111.6038333000613	0.9846723000518978	1.0230944999493659	0.7759353998117149	n/a	1.0	n/a	2	0	17	1	nogo_reward	1	0	1	0	0	1	0	n/a	n/a	1	1.0	1.0	1266.915867800126	1372.9950719000772	1374.0042791999876	1374.9889515000395	1376.494235600112	1377.5173301000614	n/a	n/a	1378.5197011001874	1379.295636499999	2019-11-22 19:15:21.661477	10.8693384045042	0.0	22.5055211992656	22.5055211992656	11.6361827947614	22.5055211992656	-10.8693384045042	22.5055211992656	0.0	22.5055211992656	11.6361827947614	6.2535718817022	2.735291289509961	-4.572948544942278	19.925318780983606	14.986380836835702	4.169801330176843	19.925318780983606	5.2398368065958945	13.415205700335205	10.679914410825239	14.86893369141907	0.48343654462224994	3	missed	0.0
112.37742289993912	7.736620100215077	nogo_reward	1.0	112.40482519986085	115.19527400005586	117.73161239991873	2.7904488001950085	113.42304939986184	116.71132700005501	118.73422789992742	1.772224600194022	1.0202853998637238	1.407217400148511	n/a	1.0	n/a	2	0	18	1	nogo_reward	0	1	0	0	0	1	0	n/a	n/a	0	1.0	1.0	1266.915867800126	1379.320692999987	1380.338917199988	1382.111141800182	1383.627194800181	1384.6474802000448	n/a	n/a	1385.6500957000535	1387.057313100202	2019-11-22 19:15:21.661477	12.028316938748	0.0	24.8833979058017	24.8833979058017	12.8550809670537	24.8833979058017	-12.028316938748	24.8833979058017	0.0	24.8833979058017	12.8550809670537	-24.8833979058017	3.8942698237537616	-4.572948544942278	22.303195487519705	17.3642575433718	5.3886995024691435	22.303195487519705	-25.897132980908005	15.793082406871305	11.89881258311754	17.24681039795517	0.48343654462224994	3	missed	0.0
120.15615110006183	6.296694000018761	go_reward	0.3644183001015335	120.18355339998357	121.69164799991972	124.25872200005665	1.5080945999361575	121.19195679994277	123.25443929992593	125.26728329993762	0.4996911999769509	1.004282700130716	1.2129641000647098	n/a	1.0	n/a	2	0	19	2	go_reward	1	1	0	1	1	1	0	n/a	n/a	1	0.3644183001015335	1.0	1266.915867800126	1387.0994212001096	1388.1078246000689	1388.6075158000458	1390.170307100052	1391.1745898001827	n/a	n/a	1392.1831511000637	1393.3961152001284	2019-11-22 19:15:21.661477	28.1003174670608	18.5137978057778	0.0	18.5137978057778	28.1003174670608	0.0	-28.1003174670608	18.5137978057778	0.0	28.1003174670608	0.0	10.245295275190003	19.966270352066562	13.94084926083552	-2.580202418281997	10.994657443347899	20.633936002476243	-2.580202418281997	9.231560200083697	19.010001968130403	-0.9562683839361605	10.877210297931267	0.48343654462224994	3	missed	0.0
126.49616560013988	6.936247200006392	go_reward	0.2624338001478463	126.52356790006161	128.4515567999331	130.98626639996633	1.9279888998714796	127.53086300007976	129.9652153998611	131.9927622999528	0.9206937998533249	1.021051000105217	1.467052800115198	n/a	1.0	n/a	2	0	20	2	go_reward	1	1	0	1	1	1	0	n/a	n/a	1	0.2624338001478463	1.0	1266.915867800126	1393.4394357001877	1394.4467308002058	1395.3674246000592	1396.8810831999872	1397.9021342000924	n/a	n/a	1398.9086301000789	1400.375682900194	2019-11-22 19:15:21.661477	34.141703994027	22.5055211992656	0.0	22.5055211992656	34.141703994027	0.0	-34.141703994027	22.5055211992656	0.0	34.141703994027	0.0	6.2535718817022	26.00765687903276	17.932572654323323	-2.580202418281997	14.986380836835702	26.67532252944244	-2.580202418281997	5.2398368065958945	25.051388495096603	-0.9562683839361605	14.86893369141907	0.48343654462224994	3	missed	0.0
133.4715968000237	7.166725999908522	go_reward	0.2799704000353813	133.49899909994542	135.7270164999643	138.27960640005745	2.228017400018871	134.50273710000306	137.2588245999068	139.2801753999663	1.2242793999612331	1.020781800150644	1.3855496998876333	n/a	1.0	n/a	2	0	21	2	go_reward	0	0	1	1	1	1	1	n/a	n/a	0	0.2799704000353813	1.0	1266.915867800126	1400.4148669000715	1401.4186049001291	1402.6428843000904	1404.1746924000329	1405.1954742001835	n/a	n/a	1406.1960432000924	1407.58159289998	2019-11-22 19:15:21.661477	37.7384788728555	24.8833979058017	0.0	24.8833979058017	37.7384788728555	0.0	-37.7384788728555	24.8833979058017	0.0	37.7384788728555	0.0	-24.8833979058017	29.604431757861263	20.310449360859423	-2.580202418281997	17.3642575433718	30.272097408270945	-2.580202418281997	-25.897132980908005	28.648163373925108	-0.9562683839361605	17.24681039795517	0.48343654462224994	3	missed	0.0
140.71754650003277	5.985047900117934	nogo_punish	1.0	140.7449487999545	142.42883939994476	144.95843590004347	1.6838905999902636	141.74736150004878	143.94714919989906	145.9710416998712	0.681477899895981	1.0112867001444101	0.7589550002012402	n/a	1.0	n/a	2	0	22	3	nogo_punish	1	-1	0	0	0	1	0	n/a	n/a	0	1.0	1.0	1266.915867800126	1407.6608166000806	1408.6632293001749	1409.3447072000708	1410.8630170000251	1411.8743037001695	n/a	n/a	1412.8869094999973	1413.6458645001985	2019-11-22 19:15:21.661477	3.80131621183285	-4.43293204527514	-1.55304625937548	-2.12510340507518	-5.35436247120833	-1.55304625937548	-3.80131621183285	-1.55304625937548	-4.43293204527514	-1.55304625937548	-5.35436247120833	1.55304625937548	-4.332730903161389	-9.00588059021742	-4.133248677657477	-9.64424376750508	-12.820743935792887	-4.133248677657477	0.5393111842691745	-10.643361758305875	-6.310630855144491	-9.189633767222011	-3.9494955006528905	3	missed	0.0
146.74452010006667	6.922263900050666	go_reward	0.2320038999896496	146.7719223999884	149.2008976000359	151.7563688000664	2.428975200047489	147.7806053999809	150.73855690006144	152.75534639996454	1.4202922000549734	1.017811900004972	0.9388399000745267	n/a	1.0	n/a	2	0	23	2	go_reward	1	1	0	1	1	1	1	n/a	n/a	1	0.2320038999896496	1.0	1266.915867800126	1413.6877902001145	1414.696473200107	1416.116765400162	1417.6544247001875	1418.6722366001925	n/a	n/a	1419.6712142000906	1420.6100541001651	2019-11-22 19:15:21.661477	22.1326847246234	14.5995195868883	0.0	14.5995195868883	22.1326847246234	0.0	-22.1326847246234	14.5995195868883	0.0	22.1326847246234	0.0	14.1595734940795	13.99863760962916	10.026571041946022	-2.580202418281997	7.080379224458401	14.666303260038841	-2.580202418281997	13.145838418973195	13.042369225693003	-0.9562683839361605	6.96293207904177	0.48343654462224994	3	missed	0.0
153.6922075999903	6.986206199973594	nogo_reward	1.0	153.71960989991203	156.2034819999244	158.7397435000164	2.483872100012377	154.73639620002336	157.71970939985454	159.74387830006867	1.4670857999010423	1.0200341001618654	0.9619377998169512	n/a	1.0	n/a	2	0	24	1	nogo_reward	0	1	0	0	0	1	0	n/a	n/a	0	1.0	1.0	1266.915867800126	1420.635477700038	1421.6522640001494	1423.1193498000505	1424.6355771999806	1425.6556113001425	n/a	n/a	1426.6597461001948	1427.6216839000117	2019-11-22 19:15:21.661477	7.06635444915325	0.0	14.5995195868883	14.5995195868883	7.53316513773509	14.5995195868883	-7.06635444915325	14.5995195868883	0.0	14.5995195868883	7.53316513773509	-14.5995195868883	-1.0676926658409887	-4.572948544942278	12.019317168606303	7.080379224458401	0.06678367315053357	12.019317168606303	-15.613254661994606	5.5092040879579045	6.57689675379893	6.96293207904177	0.48343654462224994	3	missed	0.0
160.70029750000708	6.161021200008463	go_punish	0.4354972001165151	160.7276997999288	162.09945619991026	164.63164979987755	1.3717563999814502	161.74091599998042	163.62018329999387	165.6452568999955	0.3585401999298483	1.0114664998836815	1.2434640999417752	n/a	1.0	n/a	2	0	25	4	go_punish	1	0	-1	1	1	1	0	n/a	n/a	0	0.4354972001165151	1.0	1266.915867800126	1427.643567600055	1428.6567838001065	1429.0153240000363	1430.53605110012	1431.5475176000036	n/a	n/a	1432.5611247001216	1433.8045888000634	2019-11-22 19:15:21.661477	-1.2315912989878	-4.43293204527514	-7.04040151838497	-8.59344777776045	-8.27199281737276	-7.04040151838497	1.2315912989878	-4.43293204527514	-7.04040151838497	-8.27199281737276	-7.04040151838497	4.43293204527514	-9.365638413982039	-9.00588059021742	-9.620603936666967	-16.112588140190347	-15.738374281957316	-9.620603936666967	3.4191969701688345	-17.362308316303157	-7.9966699023211305	-12.06951955312167	-6.55696497376272	3	missed	0.0
166.88992220000387	6.5178656000641695	nogo_reward	1.0	166.9173244999256	168.5019731998907	171.03100889991015	1.5846486999651006	167.9324709998907	170.00737429992273	172.04026050004154	0.5695021999999881	1.0236345999874175	1.3949295999482274	n/a	1.0	n/a	2	0	26	1	nogo_reward	1	0	1	0	0	1	1	n/a	n/a	1	1.0	1.0	1266.915867800126	1433.8331923000517	1434.8483388000168	1435.4178410000168	1436.9232421000488	1437.9468767000362	n/a	n/a	1438.9561283001676	1440.3510579001158	2019-11-22 19:15:21.661477	4.19976307312822	0.0	8.68583458588296	8.68583458588296	4.48607151275473	8.68583458588296	-4.19976307312822	8.68583458588296	0.0	8.68583458588296	4.48607151275473	20.073258495084843	-3.934284041866019	-4.572948544942278	6.105632167600962	1.1666942234530602	-2.9803099518298266	6.105632167600962	19.05952341997854	-0.4044809130474363	3.5298031288185694	1.0492470780364291	0.48343654462224994	3	missed	0.0
173.44908980000787	6.094136500032391	nogo_punish	1.0	173.4764920999296	174.82634889986343	177.36649779998675	1.349856799933832	174.48208889993816	176.34251930005826	178.37578070000723	0.3442599999252707	1.0239784999284893	1.194847899954766	n/a	1.0	n/a	2	0	27	3	nogo_punish	0	0	-1	0	0	1	0	n/a	n/a	-1	1.0	1.0	1266.915867800126	1440.3923599000557	1441.3979567000642	1441.7422166999895	1443.2583871001843	1444.2823656001128	n/a	n/a	1445.2916485001333	1446.486496400088	2019-11-22 19:15:21.661477	4.04295999698025	-4.43293204527514	-0.936673393214977	-1.29046499958646	-4.97963339019523	-0.936673393214977	-4.04295999698025	-0.936673393214977	-4.43293204527514	-0.936673393214977	-4.97963339019523	-10.154125904748122	-4.091087118013989	-9.00588059021742	-3.516875811496974	-8.80960536201636	-12.446014854779786	-3.516875811496974	-11.167860979854428	-10.026988892145374	-5.93590177413139	-8.573260901061508	-3.9494955006528905	3	missed	0.0
179.58213949995115	5.888889000052586	nogo_punish	1.0	179.6095417998729	180.94037199998252	183.49297120002984	1.3308302001096308	180.62069529993437	182.45288340002276	184.50439559994243	0.31967670004814863	1.0400878000070861	0.9940351999830455	n/a	1.0	n/a	2	0	28	3	nogo_punish	1	-1	0	0	0	1	0	n/a	n/a	0	1.0	1.0	1266.915867800126	1446.525409599999	1447.5365631000604	1447.8562398001086	1449.3687512001488	1450.408839000156	n/a	n/a	1451.4202634000685	1452.4142986000516	2019-11-22 19:15:21.661477	1.75317700055596	-4.43293204527514	-5.00498919097484	-5.22656332388797	-6.7581661915308	-5.00498919097484	-1.75317700055596	-5.00498919097484	-4.43293204527514	-5.00498919097484	-6.7581661915308	5.00498919097484	-6.380870114438279	-9.00588059021742	-7.585191609256837	-12.74570368631787	-14.224547656115357	-7.585191609256837	3.991254115868534	-14.095304689905236	-7.714434575466961	-12.641576698821371	-3.9494955006528905	3	missed	0.0
185.5139564999845	6.916036600014195	nogo_punish	1.0	185.54135879990622	187.4540404998695	189.9817133999893	1.9126816999632865	186.5488793000111	188.97024880000367	190.99527899990744	0.9051611998584121	1.0114645999856293	1.4621164000129738	n/a	1.0	n/a	2	0	29	3	nogo_punish	1	-1	0	0	0	1	1	n/a	n/a	0	1.0	1.0	1266.915867800126	1452.4572266000323	1453.4647471001372	1454.3699082999956	1455.8861166001298	1456.8975812001154	n/a	n/a	1457.9111468000335	1459.3732632000465	2019-11-22 19:15:21.661477	2.83474959548955	-4.43293204527514	-2.9612610794813	-3.10178682163032	-5.79601067497085	-2.9612610794813	-2.83474959548955	-2.9612610794813	-4.43293204527514	-2.9612610794813	-5.79601067497085	2.9612610794813	-5.299297519504689	-9.00588059021742	-5.5414634977632975	-10.62092718406022	-13.262392139555406	-5.5414634977632975	1.9475260043749947	-12.051576578411696	-6.7522790589070105	-10.597848587327832	-3.9494955006528905	3	missed	0.0
192.4703091001138	7.266428799833875	nogo_punish	1.0	192.49771140003554	195.4604776999911	197.98541789990827	2.962766299955547	193.5076876999808	196.9656094999516	198.99883479997493	1.9527900000102818	1.0198083999566734	0.765305399894487	n/a	1.0	n/a	2	0	30	3	nogo_punish	1	-1	0	0	0	1	1	n/a	n/a	0	1.0	1.0	1266.915867800126	1459.4135792001616	1460.4235555001069	1462.3763455001172	1463.8814773000777	1464.9012857000344	n/a	n/a	1465.914702600101	1466.6800079999955	2019-11-22 19:15:21.661477	3.46382573837793	-4.43293204527514	-1.77462039228861	-1.86487191084527	-5.23844613066654	-1.77462039228861	-3.46382573837793	-1.77462039228861	-4.43293204527514	-1.77462039228861	-5.23844613066654	1.77462039228861	-4.670221376616309	-9.00588059021742	-4.354822810570607	-9.38401227327517	-12.704827595251096	-4.354822810570607	0.7608853171823045	-10.864935891219005	-6.194714514602701	-9.41120790013514	-3.9494955006528905	3	missed	0.0
199.76348170009442	6.496755999978632	nogo_reward	1.0	199.79088400001615	201.8283265000207	204.35667619993887	2.037442500004545	200.79005469987146	203.34219540003664	205.37270299997158	1.0382718001492321	1.0144807999022305	0.9149370000232011	n/a	1.0	n/a	2	0	31	1	nogo_reward	1	0	1	0	0	1	0	n/a	n/a	1	1.0	1.0	1266.915867800126	1466.7067518001422	1467.7059224999975	1468.7441943001468	1470.2580632001627	1471.272544000065	n/a	n/a	1472.2885708000977	1473.2035078001209	2019-11-22 19:15:21.661477	8.18634685640731	0.0	16.9610537630642	16.9610537630642	8.77470690665685	16.9610537630642	-8.18634685640731	16.9610537630642	0.0	16.9610537630642	8.77470690665685	11.798039317903601	0.05229974141307103	-4.572948544942278	14.380851344782203	9.4419134006343	1.3083254420722925	14.380851344782203	10.784304242797296	7.870738264133804	7.8184385227206885	9.324466255217668	0.48343654462224994	3	missed	0.0
206.28653230005875	6.674297699937597	nogo_reward	1.0	206.31393459998048	208.18256119987905	210.71107940003253	1.8686265998985618	207.31645949999802	209.68859919998772	211.7122462999539	0.8661016998810283	1.0224802000448108	1.2759859999641776	n/a	1.0	n/a	2	0	32	1	nogo_reward	1	0	1	0	0	1	0	n/a	n/a	1	1.0	1.0	1266.915867800126	1473.2298024001066	1474.232327300124	1475.0984290000051	1476.6044670001138	1477.6269472001586	n/a	n/a	1478.62811410008	1479.9041001000442	2019-11-22 19:15:21.661477	10.490235358524	0.0	21.7213576062274	21.7213576062274	11.2311222477034	21.7213576062274	-10.490235358524	21.7213576062274	0.0	21.7213576062274	11.2311222477034	7.037735474740401	2.356188243529761	-4.572948544942278	19.141155187945404	14.2022172437975	3.7647407831188433	19.141155187945404	6.024000399634096	12.631042107297004	10.27485386376724	14.084770098380869	0.48343654462224994	3	missed	0.0
213.04641770012677	7.0584970999043435	go_reward	0.3008379000239074	213.0738200000485	215.03806230006717	217.64546469994798	1.9642423000186682	214.07706269994355	216.61462130001723	218.65540329995542	0.9609996001236141	1.0308433999307454	1.4769137999974191	n/a	1.0	n/a	2	0	33	2	go_reward	0	0	1	1	1	1	0	n/a	n/a	0	0.3008379000239074	1.0	1266.915867800126	1479.9896878001746	1480.9929305000696	1481.9539301001932	1483.5304891001433	1484.561332500074	n/a	n/a	1485.5712711000815	1487.048184900079	2019-11-22 19:15:21.661477	30.9498296981301	20.4060522397685	0.0	20.4060522397685	30.9498296981301	0.0	-30.9498296981301	20.4060522397685	0.0	30.9498296981301	0.0	-20.4060522397685	22.81578258313586	15.833103694826221	-2.580202418281997	12.8869118773386	23.48344823354554	-2.580202418281997	-21.419787314874803	21.8595141991997	-0.9562683839361605	12.769464731921968	0.48343654462224994	3	missed	0.0
220.14902240014635	6.006859199842438	go_reward	0.4763461998663842	220.17642470006808	221.61319609987504	224.15965149993986	1.4367713998069576	221.17592279985502	223.14442480006232	225.1590279000809	0.4372733000200242	1.0152266998775303	1.0242559998296201	n/a	1.0	n/a	2	0	34	2	go_reward	1	1	0	1	1	1	0	n/a	n/a	1	0.4763461998663842	1.0	1266.915867800126	1487.0922925001942	1488.091790599981	1488.5290639000011	1490.0602926001884	1491.075519300066	n/a	n/a	1492.074895700207	1493.0991517000366	2019-11-22 19:15:21.661477	18.2494390188632	12.0344162610708	0.0	12.0344162610708	18.2494390188632	0.0	-18.2494390188632	12.0344162610708	0.0	18.2494390188632	0.0	16.724676819897	10.11539190386896	7.4614677161285226	-2.580202418281997	4.515275898640901	10.783057554278642	-2.580202418281997	15.710941744790693	9.159123519932804	-0.9562683839361605	4.39782875322427	0.48343654462224994	3	missed	0.0
226.1983330999501	6.790341800078977	go_reward	0.3353872001171112	226.22573539987184	228.04540929989867	230.55971529986687	1.819673900026828	227.2338874998968	229.55063949990995	231.56931960000634	0.8115218000018558	1.0090757999569178	1.4467575999444762	n/a	1.0	n/a	2	0	35	2	go_reward	1	1	0	1	1	1	1	n/a	n/a	1	0.3353872001171112	1.0	1266.915867800126	1493.141603199998	1494.149755300023	1494.9612771000247	1496.466507300036	1497.475583099993	n/a	n/a	1498.4851874001324	1499.931945000077	2019-11-22 19:15:21.661477	28.7022644322623	18.9195008478229	0.0	18.9195008478229	28.7022644322623	0.0	-28.7022644322623	18.9195008478229	0.0	28.7022644322623	0.0	9.839592233144902	20.56821731726806	14.346552302880621	-2.580202418281997	11.400360485393	21.235882967677743	-2.580202418281997	8.825857158038596	19.611948933331902	-0.9562683839361605	11.282913339976368	0.48343654462224994	3	missed	0.0
233.0279071000407	6.84477380011208	go_reward	0.4479583001229912	233.05530939996243	235.35069469991117	237.9053464999888	2.295385299948748	234.0636813000308	236.88199179992057	238.9149817000141	1.2870133998803794	1.0233547000682393	0.9851015000604093	n/a	1.0	n/a	2	0	36	2	go_reward	1	1	0	1	1	1	1	n/a	n/a	1	0.4479583001229912	1.0	1266.915867800126	1499.9711772000885	1500.9795491001569	1502.2665625000373	1503.7978596000466	1504.821214300115	n/a	n/a	1505.8308495001402	1506.8159510002006	2019-11-22 19:15:21.661477	34.7112184671992	22.8832387281852	0.0	22.8832387281852	34.7112184671992	0.0	-34.7112184671992	22.8832387281852	0.0	34.7112184671992	0.0	5.8758543527826	26.577171352204964	18.310290183242923	-2.580202418281997	15.364098365755302	27.244837002614645	-2.580202418281997	4.862119277676294	25.62090296826881	-0.9562683839361605	15.24665122033867	0.48343654462224994	3	missed	0.0
239.89529000013135	7.341134599875659	go_punish	0.4824163001030683	239.9226923000531	242.25539339985676	244.7762349999973	2.3327010998036712	240.92788530001394	243.7758683999998	245.78617540001824	1.3275080998428166	1.0003665999975055	1.4776514999105075	n/a	1.0	n/a	2	0	37	4	go_punish	0	-1	0	1	1	1	0	n/a	n/a	-1	0.4824163001030683	1.0	1266.915867800126	1506.8385601001792	1507.84375310014	1509.1712611999828	1510.691736200126	1511.6921028001234	n/a	n/a	1512.7020432001443	1514.1796947000548	2019-11-22 19:15:21.661477	2.17558446461717	-2.60746947310982	-7.04040151838497	-5.09718912570028	-4.8648170537678	-7.04040151838497	-2.17558446461717	-2.60746947310982	-7.04040151838497	-4.8648170537678	-7.04040151838497	-8.48332982485328	-5.958462650377069	-7.180418018052098	-9.620603936666967	-12.61632948813018	-12.331198518352357	-9.620603936666967	-9.497064899959586	-13.955132552698196	-7.9966699023211305	-10.244056980956351	-6.55696497376272	3	missed	0.0
247.31398300011642	5.8495355998165905	nogo_punish	1.0	247.34138530003816	248.75999259995274	251.28553709993116	1.4186072999145836	248.3369272998532	250.264993699966	252.29093199991598	0.4230653000995517	1.0205433999651632	0.8999888999387622	n/a	1.0	n/a	2	0	38	3	nogo_punish	1	-1	0	0	0	1	0	n/a	n/a	0	1.0	1.0	1266.915867800126	1514.2572531001642	1515.2527950999793	1515.6758604000788	1517.180861500092	1518.2014049000572	n/a	n/a	1519.206799800042	1520.1067886999808	2019-11-22 19:15:21.661477	3.83384609102771	-4.43293204527514	-1.077199135364	-1.13589480389154	-4.9110452263917	-1.077199135364	-3.83384609102771	-1.077199135364	-4.43293204527514	-1.077199135364	-4.9110452263917	1.077199135364	-4.300201023966529	-9.00588059021742	-3.6574015536459967	-8.65503516632144	-12.377426690976257	-3.6574015536459967	0.06346406025769458	-10.167514634294395	-5.8673136103278605	-8.71378664321053	-3.9494955006528905	3	missed	0.0
253.1876463999506	7.423110299976543	go_punish	1.0	253.21504869987234	255.97202400001675	258.50095629994735	2.756975300144404	254.21667059999868	257.48797519993946	259.5134173000695	1.7553534000180662	1.0129811000078917	1.1247416997794062	n/a	1.0	n/a	2	0	39	4	go_punish	0	-1	0	1	0	0	1	n/a	n/a	0	1.0	1.0	1266.915867800126	1520.1309164999984	1521.1325384001248	1522.8878918001428	1524.4038430000655	1525.4168241000734	n/a	n/a	1526.4292851001956	1527.554026799975	2019-11-22 19:15:21.661477	2.28718930878268	-5.98597830465062	-7.04040151838497	-7.4947088435653	-9.32759082716765	-7.04040151838497	-2.28718930878268	-7.04040151838497	-5.98597830465062	-7.04040151838497	-9.32759082716765	7.04040151838497	-5.846857806211559	-10.558926849592897	-9.620603936666967	-15.0138492059952	-16.79397229175221	-9.620603936666967	6.026666443278664	-16.130717017315366	-10.283859211103811	-14.6769890262315	-5.50254176002837	3	missed	0.0
260.6382500999605	6.1885075001048335	nogo_reward	1.0	260.6656523998822	262.0338206000158	264.55903279990866	1.3681682001335957	261.6731761000117	263.54878699989035	265.5731724000068	0.3606445000041276	1.0102458000183105	1.280987499980256	n/a	1.0	n/a	2	0	40	1	nogo_reward	0	1	0	0	0	1	0	n/a	n/a	0	1.0	1.0	1266.915867800126	1527.5815202000083	1528.5890439001378	1528.949688400142	1530.4646548000164	1531.4749006000347	n/a	n/a	1532.4890402001329	1533.7700277001131	2019-11-22 19:15:21.661477	11.8383407149367	0.0	24.4970854151368	24.4970854151368	12.6587447002001	24.4970854151368	-11.8383407149367	24.4970854151368	0.0	24.4970854151368	12.6587447002001	-24.4970854151368	3.7042935999424618	-4.572948544942278	21.916882996854806	16.9779450527069	5.1923632356155425	21.916882996854806	-25.510820490243105	15.406769916206406	11.702476316263938	16.86049790729027	0.48343654462224994	3	missed	0.0
266.85347150010057	6.788512199884508	nogo_reward	1.0	266.8808738000223	268.733289199881	271.262844200013	1.852415399858728	267.8907222000414	270.23912779986836	272.27269469993144	0.8425669998396188	1.0237164001446217	1.3966912999753731	n/a	1.0	n/a	2	0	41	1	nogo_reward	1	0	1	0	0	1	0	n/a	n/a	1	1.0	1.0	1266.915867800126	1533.7967416001484	1534.8065900001675	1535.649157000007	1537.1549955999944	1538.178712000139	n/a	n/a	1539.1885625000575	1540.585253800033	2019-11-22 19:15:21.661477	6.97467077885442	0.0	14.4177831006358	14.4177831006358	7.44311232178133	14.4177831006358	-6.97467077885442	14.4177831006358	0.0	14.4177831006358	7.44311232178133	14.341309980332001	-1.159376336139819	-4.572948544942278	11.837580682353803	6.898642738205901	-0.023269142803227005	11.837580682353803	13.327574905225696	5.327467601705404	6.486843937845169	6.7811955927892695	0.48343654462224994	3	missed	0.0
273.671246800106	6.352055700030178	nogo_reward	1.0	273.69864910002775	275.0257883998563	277.55473749991484	1.3271392998285592	274.7011981999965	276.54186869994714	278.5654253000391	0.32459019985981286	1.0128687999676913	1.4852795000188053	n/a	1.0	n/a	2	0	42	1	nogo_reward	1	0	1	0	0	1	1	n/a	n/a	1	1.0	1.0	1266.915867800126	1540.6145169001538	1541.6170660001226	1541.9416561999824	1543.4577365000732	1544.470605300041	n/a	n/a	1545.4812931001652	1546.966572600184	2019-11-22 19:15:21.661477	9.8210888583252	0.0	20.3280960601826	20.3280960601826	10.5070072018574	20.3280960601826	-9.8210888583252	20.3280960601826	0.0	20.3280960601826	10.5070072018574	8.430997020785203	1.687041743330962	-4.572948544942278	17.747893641900603	12.8089556977527	3.040625737272843	17.747893641900603	7.417261945678897	11.237780561252203	9.55073881792124	12.691508552336067	0.48343654462224994	3	missed	0.0
280.046651000157	6.552643699804321	go_punish	1.0	280.07405330007873	281.74300780007593	284.2618088000452	1.6689544999971986	281.0855890000237	283.2465160998979	285.2665887998878	0.6574188000522554	1.0152927001472563	1.3601081999952385	n/a	1.0	n/a	2	0	43	4	go_punish	1	0	-1	1	0	0	0	n/a	n/a	-1	1.0	1.0	1266.915867800126	1546.9899211002048	1548.0014568001498	1548.658875600202	1550.162383900024	1551.1776766001713	n/a	n/a	1552.182456600014	1553.5425648000091	2019-11-22 19:15:21.661477	3.80050970777864	-5.98597830465062	-4.1605157324853	-4.46999161839598	-7.96102544026394	-4.1605157324853	-3.80050970777864	-4.1605157324853	-5.98597830465062	-4.1605157324853	-7.96102544026394	-6.9302835654778	-4.333537407215599	-10.558926849592897	-6.740718150767297	-11.98913198082588	-15.427406904848496	-6.740718150767297	-7.944018640584106	-13.250831231415695	-8.917293824200101	-11.79710324033183	-5.50254176002837	3	missed	0.0
286.6245765001513	7.258814399829362	go_punish	0.3102480000816285	286.65197880007304	289.4011931000275	292.0185209999322	2.749214299954474	287.6666891998609	290.9868174998553	293.0364679000338	1.734503900166601	1.031703500076901	0.8743252998685875	n/a	1.0	n/a	2	0	44	4	go_punish	1	0	-1	1	1	1	0	n/a	n/a	0	0.3102480000816285	1.0	1266.915867800126	1553.5678466001991	1554.582556999987	1556.3170609001536	1557.9026852999814	1558.9343888000583	n/a	n/a	1559.95233570016	1560.8266610000285	2019-11-22 19:15:21.661477	-2.24321036491912	-5.98597830465062	-6.9226516978656	-7.13340118963493	-9.16586206278472	-6.9226516978656	2.24321036491912	-5.98597830465062	-6.9226516978656	-9.16586206278472	-6.9226516978656	5.98597830465062	-10.377257479913359	-10.558926849592897	-9.502854116147597	-14.652541552064829	-16.632243527369276	-9.502854116147597	4.972243229544314	-18.256177561715116	-7.878920081801761	-13.62256581249715	-6.43921515324335	3	missed	0.0
293.92993209999986	6.622932400088757	nogo_reward	1.0	293.9573343999216	295.7220351998692	298.2562619000671	1.7647007999476045	294.9544658998491	297.235095700016	299.2679987000299	0.7675693000201136	1.0211662000510842	1.3122680999804288	n/a	1.0	n/a	2	0	45	1	nogo_reward	0	1	0	0	0	1	0	n/a	n/a	0	1.0	1.0	1266.915867800126	1560.8732022000477	1561.8703336999752	1562.6379029999953	1564.150963500142	1565.1721297001932	n/a	n/a	1566.183866500156	1567.4961346001364	2019-11-22 19:15:21.661477	11.4661281699569	0.0	23.7280383941566	23.7280383941566	12.2619102241997	23.7280383941566	-11.4661281699569	23.7280383941566	0.0	23.7280383941566	12.2619102241997	-23.7280383941566	3.3320810549626607	-4.572948544942278	21.147835975874603	16.208898031726697	4.795528759615142	21.147835975874603	-24.741773469262903	14.637722895226203	11.305641840263538	16.091450886310067	0.48343654462224994	3	missed	0.0
300.6014783999417	7.961420500185341	go_reward	0.2846391999628395	300.62888069986343	303.46783329988807	306.091115500079	2.8389526000246406	301.6308899999128	305.0749961000399	307.0897290999999	1.8369432999752462	1.0161194000390879	1.5005721000488847	n/a	1.0	n/a	2	0	46	2	go_reward	1	1	0	1	1	1	0	n/a	n/a	1	0.2846391999628395	1.0	1266.915867800126	1567.5447484999895	1568.546757800039	1570.3837011000142	1571.990863900166	1573.006983300205	n/a	n/a	1574.005596900126	1575.5061690001749	2019-11-22 19:15:21.661477	38.2141735943414	25.1964633829573	0.0	25.1964633829573	38.2141735943414	0.0	-38.2141735943414	25.1964633829573	0.0	38.2141735943414	0.0	3.5626296980105003	30.080126479347165	20.623514838015023	-2.580202418281997	17.677323020527403	30.747792129756846	-2.580202418281997	2.5488946229041947	29.12385809541101	-0.9562683839361605	17.55987587511077	0.48343654462224994	3	missed	0.0
308.6045646001585	6.4940417998004705	go_reward	0.3177125998772681	308.6319669000802	310.3497416998723	312.88988230004884	1.717774799792096	309.6302441000005	311.86581089999504	313.8888824000021	0.7194975998718292	1.0240714000537992	1.2371262998785824	n/a	1.0	n/a	2	0	47	2	go_reward	1	1	0	1	1	1	0	n/a	n/a	1	0.3177125998772681	1.0	1266.915867800126	1575.5478347002063	1576.5461119001266	1577.2656094999984	1578.7816787001211	1579.805750100175	n/a	n/a	1580.8047502001282	1582.0418765000068	2019-11-22 19:15:21.661477	40.2853990820631	26.5652320279895	0.0	26.5652320279895	40.2853990820631	0.0	-40.2853990820631	26.5652320279895	0.0	40.2853990820631	0.0	2.1938610529783027	32.15135196706886	21.99228348304722	-2.580202418281997	19.0460916655596	32.81901761747854	-2.580202418281997	1.1801259778719972	31.195083583132707	-0.9562683839361605	18.928644520142967	0.48343654462224994	3	missed	0.0
315.12276259995997	6.747756100027118	go_punish	0.8257039999589324	315.1501648998817	317.0008431000167	319.5429732999762	1.8506782001350075	316.15762339998014	318.5324003000276	320.55102909984976	0.8432197000365704	1.0105729999486357	1.3468919000590631	n/a	1.0	n/a	2	0	48	4	go_punish	1	0	-1	1	1	1	0	n/a	n/a	0	0.8257039999589324	1.0	1266.915867800126	1582.0660327000078	1583.0734912001062	1583.9167109001428	1585.4482681001537	1586.4588411001023	n/a	n/a	1587.4668968999758	1588.813788800035	2019-11-22 19:15:21.661477	1.49694887236559	-3.5441428663248	-6.9226516978656	-4.26003434775843	-5.42570282550002	-6.9226516978656	-1.49694887236559	-3.5441428663248	-6.9226516978656	-5.42570282550002	-6.9226516978656	3.5441428663248	-6.637098242628649	-8.117091411267078	-9.502854116147597	-11.779174710188329	-12.892084290084576	-9.502854116147597	2.5304077912184946	-14.516018324430416	-7.878920081801761	-11.18073037417133	-6.43921515324335	3	missed	0.0
321.9762482000515	7.001152599928901	go_reward	0.5734963999129832	322.0036504999732	324.630031700013	327.1881929999215	2.6263812000397593	323.01101529994025	326.16366149997316	328.1979322000402	1.6190164000727236	1.0245314999483526	0.8068708998619059	n/a	1.0	n/a	2	0	49	2	go_reward	1	1	0	1	1	1	1	n/a	n/a	1	0.5734963999129832	1.0	1266.915867800126	1588.9195183000993	1589.9268831000663	1591.545899500139	1593.0795293000992	1594.1040608000476	n/a	n/a	1595.1138000001663	1595.9206709000282	2019-11-22 19:15:21.661477	41.5278293212306	27.3865915535409	0.0	27.3865915535409	41.5278293212306	0.0	-41.5278293212306	27.3865915535409	0.0	41.5278293212306	0.0	1.372501527426902	33.39378220623636	22.81364300859862	-2.580202418281997	19.867451191111	34.06144785664604	-2.580202418281997	0.35876645232059645	32.437513822300204	-0.9562683839361605	19.750004045694368	0.48343654462224994	3	missed	0.0
329.0475179001221	6.986373799853254	nogo_punish	1.0	329.07492020004383	331.51372489985056	334.0392616000024	2.438804699806724	330.07755269994936	333.0296865999694	335.04505899990886	1.4361721999011934	1.00957500003301	1.016234999988228	n/a	1.0	n/a	2	0	50	3	nogo_punish	1	-1	0	0	0	1	0	n/a	n/a	0	1.0	1.0	1266.915867800126	1595.99078800017	1596.9934205000754	1598.4295926999766	1599.9455544000955	1600.9551294001285	n/a	n/a	1601.960926800035	1602.9771618000232	2019-11-22 19:15:21.661477	4.05393312533724	-4.43293204527514	-0.662308664256355	-0.700962849927146	-4.7162417895936	-0.662308664256355	-4.05393312533724	-0.662308664256355	-4.43293204527514	-0.662308664256355	-4.7162417895936	0.662308664256355	-4.080113989656999	-9.00588059021742	-3.242511082538352	-8.220103212357046	-12.182623254178157	-3.242511082538352	-0.3514264108499504	-9.75262416318675	-5.672510173529761	-8.298896172102886	-3.9494955006528905	3	missed	0.0
336.07513469993137	7.2721025000792	nogo_punish	1.0	336.1025369998531	338.795112499967	341.322190099861	2.6925755001138896	337.1027808999638	340.30118519999064	342.3343972000291	1.6923316000031718	1.021004899870377	1.0402422999031842	n/a	1.0	n/a	2	0	51	3	nogo_punish	1	-1	0	0	0	1	0	n/a	n/a	0	1.0	1.0	1266.915867800126	1603.0184047999792	1604.01864870009	1605.710980300093	1607.2170530001167	1608.238057899987	n/a	n/a	1609.2502650001552	1610.2905073000584	2019-11-22 19:15:21.661477	4.18630358366941	-4.43293204527514	-0.412487274899026	-0.438262790641044	-4.59879085856844	-0.412487274899026	-4.18630358366941	-0.412487274899026	-4.43293204527514	-0.412487274899026	-4.59879085856844	0.412487274899026	-3.9477435313248286	-9.00588059021742	-2.9926896931810227	-7.957403153070944	-12.065172323152996	-2.9926896931810227	-0.6012478002072794	-9.502802773829423	-5.5550592425046	-8.049074782745556	-3.9494955006528905	3	missed	0.0
343.3724718999581	6.821773700183485	nogo_reward	1.0	343.39987419987983	345.82764589996054	348.3666842000091	2.4277717000807115	344.40071620000504	347.3437981000168	349.3771635999435	1.4269296999555081	1.02288609999232	0.8444843001198024	n/a	1.0	n/a	2	0	52	1	nogo_reward	1	0	1	0	0	1	0	n/a	n/a	1	1.0	1.0	1266.915867800126	1610.315742000006	1611.3165840001311	1612.7435137000866	1614.2596659001429	1615.2825520001352	n/a	n/a	1616.2930314000696	1617.1375157001894	2019-11-22 19:15:21.661477	6.76632777360674	0.0	13.99056371742	13.99056371742	7.22423594381327	13.99056371742	-6.76632777360674	13.99056371742	0.0	13.99056371742	7.22423594381327	14.7685293635478	-1.3677193413874988	-4.572948544942278	11.410361299138003	6.471423354990101	-0.24214552077128637	11.410361299138003	13.754794288441495	4.900248218489605	6.26796755987711	6.35397620957347	0.48343654462224994	3	missed	0.0
350.2407418000512	6.237279099877924	nogo_punish	1.0	350.2681440999729	351.7396110000552	354.25825110007986	1.471466900082305	351.27202649996593	353.24612329993374	355.26240190002113	0.46758450008928776	1.0121278001461178	1.2430212998297065	n/a	1.0	n/a	2	0	53	3	nogo_punish	1	-1	0	0	0	1	1	n/a	n/a	0	1.0	1.0	1266.915867800126	1617.184011900099	1618.187894300092	1618.6554788001813	1620.1619911000598	1621.174118900206	n/a	n/a	1622.1782697001472	1623.421290999977	2019-11-22 19:15:21.661477	4.26680412349271	-4.43293204527514	-0.260228318583919	-0.277630982566681	-4.52703244207663	-0.260228318583919	-4.26680412349271	-0.260228318583919	-4.43293204527514	-0.260228318583919	-4.52703244207663	0.260228318583919	-3.867242991501529	-9.00588059021742	-2.840430736865916	-7.79677134499658	-11.993413906661186	-2.840430736865916	-0.7535067565223865	-9.350543817514316	-5.4833008260127905	-7.8968158264304495	-3.9494955006528905	3	missed	0.0
356.51846470008627	6.183243999955948	nogo_punish	1.0	356.545867000008	357.9454461999701	360.4724600999616	1.3995791999620906	357.555863099871	359.4617232999294	361.4859259999355	0.38958310009911656	1.0107368000321912	1.2431850000284612	n/a	1.0	n/a	2	0	54	3	nogo_punish	1	-1	0	0	0	1	0	n/a	n/a	0	1.0	1.0	1266.915867800126	1623.461734800134	1624.471730899997	1624.8613140000962	1626.3775911000555	1627.3883279000877	n/a	n/a	1628.4017938000616	1629.64497880009	2019-11-22 19:15:21.661477	4.31630333314926	-4.43293204527514	-0.166301257891036	-0.178197085660017	-4.4826045910403	-0.166301257891036	-4.31630333314926	-0.166301257891036	-4.43293204527514	-0.166301257891036	-4.4826045910403	0.166301257891036	-3.817743781844979	-9.00588059021742	-2.746503676173033	-7.697337448089916	-11.948986055624857	-2.746503676173033	-0.8474338172152694	-9.256616756821431	-5.43887297497646	-7.802888765737567	-3.9494955006528905	3	missed	0.0
362.72813930013217	6.8397266999818385	nogo_reward	1.0	362.7555416000539	365.10140679986193	367.6263846000654	2.3458651998080313	363.764139899984	366.60331490007184	368.6281391000373	1.3372668998779318	1.0230696999935844	0.9671291999984533	n/a	1.0	n/a	2	0	55	1	nogo_reward	1	0	1	0	0	1	0	n/a	n/a	1	1.0	1.0	1266.915867800126	1629.67140940018	1630.68000770011	1632.017274599988	1633.519182700198	1634.5422524001915	n/a	n/a	1635.5440069001634	1636.5111361001618	2019-11-22 19:15:21.661477	9.70387931933544	0.0	20.0895982475365	20.0895982475365	10.3857189282011	20.0895982475365	-9.70387931933544	20.0895982475365	0.0	20.0895982475365	10.3857189282011	8.669494833431301	1.5698322043412016	-4.572948544942278	17.509395829254505	12.5704578851066	2.919337463616544	17.509395829254505	7.6557597583249954	10.999282748606104	9.42945054426494	12.453010739689969	0.48343654462224994	3	missed	0.0
369.5923379000742	7.221673500025645	go_punish	0.2697935001924634	369.61974019999593	372.1436264000365	374.6718633000271	2.523886200040579	370.62267429986946	373.6605201999189	375.6758288000708	1.520952100167051	1.0113431001082063	1.1655848999507725	n/a	1.0	n/a	2	0	56	4	go_punish	1	0	-1	1	1	1	0	n/a	n/a	0	0.2697935001924634	1.0	1266.915867800126	1636.535608000122	1637.5385420999955	1639.0594942001626	1640.576388000045	1641.5877311001532	n/a	n/a	1642.5916966001969	1643.7572815001477	2019-11-22 19:15:21.661477	3.673105172204	-2.12510340507518	-6.9226516978656	-2.57745479869398	-3.2495465256616	-6.9226516978656	-3.673105172204	-2.12510340507518	-6.9226516978656	-3.2495465256616	-6.9226516978656	2.12510340507518	-4.460941942790239	-6.698051950017458	-9.502854116147597	-10.09659516112388	-10.715927990246158	-9.502854116147597	1.1113683299688744	-12.339862024591996	-7.878920081801761	-9.761690912921711	-6.43921515324335	3	missed	0.0
376.88650110014714	6.513627499807626	go_reward	1.0	376.9139034000689	378.4746703000271	380.9990091999059	1.560766899958253	377.9206004999576	379.97811129991874	382.01225539995335	0.5540698000695556	1.020897899987176	1.4152754999231547	n/a	1.0	n/a	2	0	57	2	go_reward	1	1	0	1	0	0	0	n/a	n/a	0	1.0	1.0	1266.915867800126	1643.829771200195	1644.8364683000837	1645.3905381001532	1646.8939791000448	1647.914877000032	n/a	n/a	1648.9281232000794	1650.3433987000026	2019-11-22 19:15:21.661477	-42.2840727554008	27.8865335588655	0.0	27.8865335588655	42.2840727554008	0.0	42.2840727554008	0.0	27.8865335588655	0.0	42.2840727554008	0.0	-50.41811987039504	23.313585013923223	-2.580202418281997	20.3673931964356	34.81769129081624	-2.580202418281997	-1.0137350751063054	-9.090315498930396	41.32780437146464	-7.636587507846531	28.369970103487752	3	missed	0.0
383.42436720011756	6.0861911999527365	go_punish	0.5219860000070184	383.4517695000393	384.78742629988096	387.3282568000718	1.3356567998416722	384.4536808999253	386.3082085999192	388.34139099996514	0.3337453999556601	1.020048200152587	1.1965697000268847	n/a	1.0	n/a	2	0	58	4	go_punish	1	0	-1	1	1	1	1	n/a	n/a	0	0.5219860000070184	1.0	1266.915867800126	1650.3676373001654	1651.3695487000514	1651.703294100007	1653.2240764000453	1654.244124600198	n/a	n/a	1655.2572588000912	1656.453828500118	2019-11-22 19:15:21.661477	4.95514637905976	-1.29046499958646	-6.9226516978656	-1.57993792881968	-1.96750531880584	-6.9226516978656	-4.95514637905976	-1.29046499958646	-6.9226516978656	-1.96750531880584	-6.9226516978656	1.29046499958646	-3.178900735934479	-5.863413544528738	-9.502854116147597	-9.09907829124958	-9.433886783390397	-9.502854116147597	0.27672992448015465	-11.057820817736236	-7.878920081801761	-8.927052507432991	-6.43921515324335	3	missed	0.0
389.55585710005835	6.737994899973273	nogo_punish	1.0	389.5832593999801	391.42205769987754	393.9611138000614	1.8387982998974621	390.579338799929	392.938415299868	394.967526699882	0.8427188999485224	1.0226985001934281	1.3537276000713518	n/a	1.0	n/a	2	0	59	3	nogo_punish	0	0	-1	0	0	1	0	n/a	n/a	-1	1.0	1.0	1266.915867800126	1656.4991272001062	1657.495206600055	1658.3379255000036	1659.854283099994	1660.8769816001875	n/a	n/a	1661.883394500008	1663.2371221000794	2019-11-22 19:15:21.661477	4.34707596137339	-4.43293204527514	-0.107654182539422	-0.115886322236932	-4.45473014391281	-0.107654182539422	-4.34707596137339	-0.107654182539422	-4.43293204527514	-0.107654182539422	-4.45473014391281	-10.983145115423678	-3.786971153620849	-9.00588059021742	-2.687856600821419	-7.6350266846668315	-11.921111608497366	-2.687856600821419	-11.996880190529984	-9.197969681469818	-5.410998527848971	-7.744241690385953	-3.9494955006528905	3	missed	0.0
396.3162024000194	6.175626500044018	go_punish	0.5150323999114335	396.3436046999411	397.9193235998971	400.46641090000026	1.575718899955973	397.3562022000549	399.4557336999567	401.4720121999269	0.5631213998422027	1.010677200043574	1.0472190000582486	n/a	1.0	n/a	2	0	60	4	go_punish	1	0	-1	1	1	1	1	n/a	n/a	0	0.5150323999114335	1.0	1266.915867800126	1663.2594725000672	1664.272070000181	1664.8351914000232	1666.3716015000828	1667.3822787001263	n/a	n/a	1668.387880000053	1669.4350990001112	2019-11-22 19:15:21.661477	5.71989064147345	-0.793631278612822	-6.9226516978656	-0.981232651367818	-1.20276105639216	-6.9226516978656	-5.71989064147345	-0.793631278612822	-6.9226516978656	-1.20276105639216	-6.9226516978656	0.793631278612822	-2.414156473520789	-5.3665798235551	-9.502854116147597	-8.500373013797718	-8.669142520976717	-9.502854116147597	-0.22010379649348344	-10.293076555322557	-7.878920081801761	-8.430218786459353	-6.43921515324335	3	missed	0.0
