onset	duration	trial_type	response_time	cueOnset	targetOnset	fbOnset	cueRT	firstfixOnset	secondfixOnset	waitOnset	firstfixdur	secondfixdur	waitdur	nback_fbOnset	nback_response_time	nback_targetOnset	block	wm	trial	cue	cond	is_common	outcome_go	outcome_nogo	key_correct	key_pressed	is_correct	key_correct_nback	key_pressed_nback	is_correct_nback	outcome	rt	rt_nback	time_scan	time_onset	time_isi1	time_circle	time_isi2	time_feedback	time_same	time_correct	time_iti	time_done	timestamp_scan	DV	Qgo	Qnogo	SV	Wgo	Wnogo	mDV	Qchosen	Qunchosen	Wchosen	Wunchosen	PE	DVC	QgoC	QnogoC	SVC	WgoC	WnogoC	PEC	WchosenC	WunchosenC	QchosenC	QunchosenC	run	outcome_nback	nback_targetResp
0.0	6.136238599894568	go_reward	0.458119599847123	0.0461342001799494	1.7380767001304775	4.272788899950683	1.6919424999505281	1.049596100114286	3.2518378000240773	5.281439100159332	0.6884806000161916	1.0209510999266058	0.9009336999151856	n/a	1.0	n/a	1	0	1	4	go_reward	0	0	1	1	1	1	0	n/a	n/a	0	0.458119599847123	1.0	350.5367934999522	350.58292770013213	351.58638960006647	352.27487020008266	353.78863129997626	354.80958239990287	n/a	n/a	355.8182326001115	356.7191663000267	2020-01-03 17:36:21.958058	1.61913458506048	0.0	0.0	0.0	1.61913458506048	0.0	-1.61913458506048	0.0	0.0	1.61913458506048	0.0	0.0	-10.789006702905638	-4.868214768715089	1.7696272954136032	-5.93720011901949	-7.140061053444467	1.7696272954136032	-0.5511286078406578	-8.079720230468247	2.7092864724373884	-6.156605419918384	3.058017946616901	1	missed	0.0
6.1716255999635905	7.692295499844477	go_reward	0.451158800162375	6.21775980014354	9.061981700127944	11.610044399974925	2.8442218999844044	7.228829300031066	10.591261200141105	12.61877810000442	1.8331524000968784	1.0187831998338197	1.2912771999835968	n/a	1.0	n/a	1	0	2	4	go_reward	1	1	0	1	1	1	0	n/a	n/a	1	0.451158800162375	1.0	350.5367934999522	356.7545533000957	357.76562279998325	359.5987752000801	361.1280547000933	362.1468378999271	n/a	n/a	363.1555715999566	364.4468487999402	2020-01-03 17:36:21.958058	1.61913458506048	0.0	0.0	0.0	1.61913458506048	0.0	-1.61913458506048	0.0	0.0	1.61913458506048	0.0	32.8276033164253	-10.789006702905638	-4.868214768715089	1.7696272954136032	-5.93720011901949	-7.140061053444467	1.7696272954136032	32.27647470858464	-8.079720230468247	2.7092864724373884	-6.156605419918384	3.058017946616901	1	missed	0.0
13.900581599911675	7.383030799916014	nogo_punish	0.6462409999221563	13.946715800091624	16.494005900109187	19.035898700123653	2.5472901000175625	14.95109109999612	18.01542940014042	20.05064350017352	1.542914800113067	1.0204692999832332	1.279103099834117	n/a	1.0	n/a	1	0	3	1	nogo_punish	0	0	-1	0	1	0	0	n/a	n/a	0	0.6462409999221563	1.0	350.5367934999522	364.4835093000438	365.4878845999483	367.03079940006137	368.5522229000926	369.57269220007583	n/a	n/a	370.5874370001257	371.8665400999598	2020-01-03 17:36:21.958058	1.61913458506048	0.0	0.0	0.0	1.61913458506048	0.0	-1.61913458506048	0.0	0.0	1.61913458506048	0.0	0.0	-10.789006702905638	-4.868214768715089	1.7696272954136032	-5.93720011901949	-7.140061053444467	1.7696272954136032	-0.5511286078406578	-8.079720230468247	2.7092864724373884	-6.156605419918384	3.058017946616901	1	missed	0.0
21.32226159982389	6.418536399956793	go_punish	0.3158980999141931	21.36839580000384	23.23134359996766	25.74845660012221	1.8629477999638198	22.381073800148442	24.751362300012318	26.76150120003149	0.8502697998192161	0.9970943001098931	1.0254309999291422	n/a	1.0	n/a	1	0	4	2	go_punish	1	0	-1	1	1	1	0	n/a	n/a	0	0.3158980999141931	1.0	350.5367934999522	371.905189299956	372.9178673001006	373.76813709991984	375.2881557999645	376.2852501000744	n/a	n/a	377.29829469998367	378.3237256999128	2020-01-03 17:36:21.958058	1.61913458506048	0.0	0.0	0.0	1.61913458506048	0.0	-1.61913458506048	0.0	0.0	1.61913458506048	0.0	0.0	-10.789006702905638	-4.868214768715089	1.7696272954136032	-5.93720011901949	-7.140061053444467	1.7696272954136032	-0.5511286078406578	-8.079720230468247	2.7092864724373884	-6.156605419918384	3.058017946616901	1	missed	0.0
27.77332829986699	5.914570200024173	nogo_punish	0.7798386001959443	27.81946250004694	29.211367500014603	31.773390900110826	1.3919049999676645	28.821118700085208	30.74880630010739	32.78092910000123	0.3902487999293953	1.0245846000034362	0.9531036000698805	n/a	1.0	n/a	1	0	5	1	nogo_punish	1	-1	0	0	1	0	1	n/a	n/a	-1	0.7798386001959443	1.0	350.5367934999522	378.3562559999991	379.3579122000374	379.7481609999668	381.2855998000596	382.310184400063	n/a	n/a	383.3177225999534	384.2708262000233	2020-01-03 17:36:21.958058	1.61913458506048	0.0	0.0	0.0	1.61913458506048	0.0	-1.61913458506048	0.0	0.0	1.61913458506048	0.0	-8.68275997869791	-10.789006702905638	-4.868214768715089	1.7696272954136032	-5.93720011901949	-7.140061053444467	1.7696272954136032	-9.233888586538567	-8.079720230468247	2.7092864724373884	-6.156605419918384	3.058017946616901	1	missed	0.0
33.71980669978075	6.280617800075618	go_reward	0.5132565000094473	33.7659408999607	35.424048100132495	37.98012239998212	1.6581072001717985	34.7629966000095	36.956253699958324	38.9860172001645	0.6610515001229942	1.0238687000237974	1.0605414998718175	n/a	1.0	n/a	1	0	6	4	go_reward	1	1	0	1	1	1	0	n/a	n/a	1	0.5132565000094473	1.0	350.5367934999522	384.3027343999129	385.2997900999617	385.9608416000847	387.4930471999105	388.5169158999343	n/a	n/a	389.5228107001167	390.5833521999885	2020-01-03 17:36:21.958058	26.2252117546623	18.5719873340898	0.0	18.5719873340898	26.2252117546623	0.0	-26.2252117546623	18.5719873340898	0.0	26.2252117546623	0.0	14.255615982335495	13.817070466696183	13.703772565374713	1.7696272954136032	12.634787215070311	17.466016116157355	1.7696272954136032	13.704487374494837	16.52635693913357	2.7092864724373884	12.415381914171416	3.058017946616901	1	missed	0.0
40.030802099965456	6.035743199987394	nogo_punish	1.0	40.076936300145405	41.36278760014102	43.88918779999949	1.2858512999956133	41.08148779999459	42.86944150016643	44.893719900166616	0.28129980014642797	1.0197462998330593	1.2189595999661833	n/a	1.0	n/a	1	0	7	1	nogo_punish	1	-1	0	0	0	1	1	n/a	n/a	0	1.0	1.0	350.5367934999522	390.6137298000976	391.6182812999468	391.8995811000932	393.4062350001186	394.4259812999517	n/a	n/a	395.4305134001188	396.649473000085	2020-01-03 17:36:21.958058	4.75870258356246	-4.87531483244508	0.0	-4.87531483244508	-4.75870258356246	0.0	-4.75870258356246	0.0	-4.87531483244508	0.0	-4.75870258356246	0.0	-7.649438704403657	-9.74352960116017	1.7696272954136032	-10.812514951464571	-13.517898222067407	1.7696272954136032	-0.5511286078406578	-9.698854815528728	-2.0494161111250717	-6.156605419918384	-1.8172968858281795	1	missed	0.0
46.0987958998885	6.3234246000647545	go_punish	0.4298849001061171	46.14493010006845	47.49521169997752	50.04278220003471	1.3502815999090672	47.1468407001812	49.040587899973616	51.05090979998931	0.348370999796316	1.0021943000610918	1.4174449001438916	n/a	1.0	n/a	1	0	8	2	go_punish	1	0	-1	1	1	1	0	n/a	n/a	0	0.4298849001061171	1.0	350.5367934999522	396.68172360002063	397.6836342001334	398.0320051999297	399.5773813999258	400.5795756999869	n/a	n/a	401.5877032999415	403.0051482000854	2020-01-03 17:36:21.958058	1.61913458506048	0.0	0.0	0.0	1.61913458506048	0.0	-1.61913458506048	0.0	0.0	1.61913458506048	0.0	0.0	-10.789006702905638	-4.868214768715089	1.7696272954136032	-5.93720011901949	-7.140061053444467	1.7696272954136032	-0.5511286078406578	-8.079720230468247	2.7092864724373884	-6.156605419918384	3.058017946616901	1	missed	0.0
52.453857799991965	7.411831899778917	go_reward	0.3231741001363843	52.499992000171915	55.10797140002251	57.65243370016111	2.607979399850592	53.50276409997599	56.628323200158775	58.66134710004553	1.6052073000465157	1.0241105000023367	1.2504767999053001	n/a	1.0	n/a	1	0	9	4	go_reward	1	1	0	1	1	1	0	n/a	n/a	1	0.3231741001363843	1.0	350.5367934999522	403.0367855001241	404.0395575999282	405.6447648999747	407.16511670011096	408.1892272001133	n/a	n/a	409.1981405999977	410.448617399903	2020-01-03 17:36:21.958058	36.3573027338323	26.2223405826415	0.0	26.2223405826415	36.3573027338323	0.0	-36.3573027338323	26.2223405826415	0.0	36.3573027338323	0.0	6.605262733783796	23.94916144586618	21.354125813926412	1.7696272954136032	20.28514046362201	27.59810709532735	1.7696272954136032	6.054134125943138	26.658447918303573	2.7092864724373884	20.065735162723115	3.058017946616901	1	missed	0.0
59.9007967999205	6.705148000037298	nogo_punish	1.0	59.94693100010045	61.9525721999816	64.48484060005279	2.005641199881154	60.95289389998652	63.464704200159815	65.4942960001062	0.9996782999950824	1.0201363998929764	1.157783000031543	n/a	1.0	n/a	1	0	10	1	nogo_punish	1	-1	0	0	0	1	0	n/a	n/a	0	1.0	1.0	350.5367934999522	410.48372450005263	411.4896873999387	412.4893656999338	414.001497700112	415.021634100005	n/a	n/a	416.0310895000584	417.18887250008993	2020-01-03 17:36:21.958058	3.87740774004559	-4.87531483244508	0.0	-2.02369568577897	-3.87740774004559	0.0	-3.87740774004559	0.0	-4.87531483244508	0.0	-3.87740774004559	0.0	-8.530733547920526	-9.74352960116017	1.7696272954136032	-7.96089580479846	-12.636603378550536	1.7696272954136032	-0.5511286078406578	-9.698854815528728	-1.1681212676082016	-6.156605419918384	-1.8172968858281795	1	missed	0.0
66.64241539989598	6.936536299996078	go_reward	0.3254720000550151	66.68854960007593	68.55271960003302	71.12170610018075	1.8641699999570847	67.69380900007673	70.09457620000472	72.13095799996518	0.8589105999562889	1.0271299001760212	1.4941279001068324	n/a	1.0	n/a	1	0	11	4	go_reward	1	1	0	1	1	1	1	n/a	n/a	1	0.3254720000550151	1.0	350.5367934999522	417.2253431000281	418.2306025000289	419.0895130999852	420.6313696999569	421.6584996001329	n/a	n/a	422.66775149991736	424.1618794000242	2020-01-03 17:36:21.958058	40.8284830295143	29.6002138772903	0.0	29.6002138772903	40.8284830295143	0.0	-40.8284830295143	29.6002138772903	0.0	40.8284830295143	0.0	3.2273894391349955	28.420341741548185	24.731999108575213	1.7696272954136032	23.66301375827081	32.069287391009354	1.7696272954136032	2.676260831294338	31.129628213985576	2.7092864724373884	23.443608457371916	3.058017946616901	1	missed	0.0
73.62361449981108	6.653564700158313	nogo_reward	0.2874527999665588	73.66974869999103	76.01590880006552	78.55662359995767	2.346160100074485	74.67710720002651	77.53317290009	79.56364349997602	1.3388016000390053	1.0234506998676807	0.7596699001733214	n/a	1.0	n/a	1	0	12	3	nogo_reward	0	1	0	0	1	0	0	n/a	n/a	1	0.2874527999665588	1.0	350.5367934999522	424.2065421999432	425.2139006999787	426.5527023000177	428.0699664000422	429.09341709990986	n/a	n/a	430.1004369999282	430.8601069001015	2020-01-03 17:36:21.958058	1.61913458506048	0.0	0.0	0.0	1.61913458506048	0.0	-1.61913458506048	0.0	0.0	1.61913458506048	0.0	32.8276033164253	-10.789006702905638	-4.868214768715089	1.7696272954136032	-5.93720011901949	-7.140061053444467	1.7696272954136032	32.27647470858464	-8.079720230468247	2.7092864724373884	-6.156605419918384	3.058017946616901	1	missed	0.0
80.3143073997926	7.3551694001071155	go_punish	0.4879596999380737	80.36044159997255	82.79922639997676	85.34709209995344	2.438784800004214	81.35592340002773	84.32057500001974	86.36334410007112	1.4433029999490259	1.0265170999336988	1.3522669000085443	n/a	1.0	n/a	1	0	13	2	go_punish	0	-1	0	1	1	1	0	n/a	n/a	-1	0.4879596999380737	1.0	350.5367934999522	430.8972350999247	431.8927168999799	433.33601989992894	434.8573684999719	435.8838855999056	n/a	n/a	436.9001376000233	438.25240450003184	2020-01-03 17:36:21.958058	1.61913458506048	0.0	0.0	0.0	1.61913458506048	0.0	-1.61913458506048	0.0	0.0	1.61913458506048	0.0	-8.68275997869791	-10.789006702905638	-4.868214768715089	1.7696272954136032	-5.93720011901949	-7.140061053444467	1.7696272954136032	-9.233888586538567	-8.079720230468247	2.7092864724373884	-6.156605419918384	3.058017946616901	1	missed	0.0
87.70375929982401	7.0478390001226785	go_reward	0.3029857000801712	87.74989350000396	90.4733049999922	93.02392240008339	2.723411499988231	88.76557800010784	91.9998135000933	94.03271980001591	1.7077269998843576	1.0241088999900967	0.7650127001107307	n/a	1.0	n/a	1	0	14	4	go_reward	1	1	0	1	1	1	0	n/a	n/a	1	0.3029857000801712	1.0	350.5367934999522	438.28668699995615	439.30237150006	441.0100984999444	442.5366070000455	443.5607159000356	n/a	n/a	444.5695132999681	445.3345260000788	2020-01-03 17:36:21.958058	42.9169492959636	31.1789883028207	0.0	31.1789883028207	42.9169492959636	0.0	-42.9169492959636	31.1789883028207	0.0	42.9169492959636	0.0	1.6486150136045978	30.50880800799748	26.31077353410561	1.7696272954136032	25.24178818380121	34.15775365745865	1.7696272954136032	1.0974864057639402	33.21809448043487	2.7092864724373884	25.022382882902313	3.058017946616901	1	missed	0.0
94.78498519980349	6.88094549998641	go_punish	1.0	94.83111939998344	96.79275709996	99.31240630010143	1.9616376999765635	95.82437940011732	98.30378090008162	100.32166500017047	0.9683776998426765	1.0086254000198096	1.3903998997993767	n/a	1.0	n/a	1	0	15	2	go_punish	1	0	-1	1	0	0	1	n/a	n/a	-1	1.0	1.0	350.5367934999522	445.3679128999356	446.3611729000695	447.3295505999122	448.8405744000338	449.8491998000536	n/a	n/a	450.85845850012265	452.248858399922	2020-01-03 17:36:21.958058	4.75870258356246	-4.87531483244508	0.0	-4.87531483244508	-4.75870258356246	0.0	-4.75870258356246	0.0	-4.87531483244508	0.0	-4.75870258356246	-8.68275997869791	-7.649438704403657	-9.74352960116017	1.7696272954136032	-10.812514951464571	-13.517898222067407	1.7696272954136032	-9.233888586538567	-9.698854815528728	-2.0494161111250717	-6.156605419918384	-1.8172968858281795	1	missed	0.0
101.70229109982029	6.131602500099689	go_reward	0.4877901000436395	101.74842530000024	103.2304983001668	105.76715219998732	1.4820730001665652	102.76206690003164	104.7616223001387	106.77651949995197	0.4684314001351595	1.005529899848625	1.1035083001479506	n/a	1.0	n/a	1	0	16	4	go_reward	1	1	0	1	1	1	1	n/a	n/a	1	0.4877901000436395	1.0	350.5367934999522	452.2852187999524	453.2988603999838	453.767291800119	455.2984158000909	456.3039456999395	n/a	n/a	457.31331299990416	458.4168213000521	2020-01-03 17:36:21.958058	43.9401789426258	31.9530011822641	0.0	31.9530011822641	43.9401789426258	0.0	-43.9401789426258	31.9530011822641	0.0	43.9401789426258	0.0	0.8746021341611971	31.532037654659682	27.08478641354901	1.7696272954136032	26.01580106324461	35.18098330412085	1.7696272954136032	0.3234735263205394	34.24132412709707	2.7092864724373884	25.796395762345714	3.058017946616901	1	missed	0.0
107.87140429997817	6.697170699946582	nogo_reward	0.2931366001721471	107.91753850015812	110.12411930016242	112.66247480013413	2.2065808000043035	108.91336480015894	111.64968240004964	113.6754145000595	1.2107545000034747	1.0127924000844928	0.9392947000451954	n/a	1.0	n/a	1	0	17	3	nogo_reward	1	0	1	0	1	0	0	n/a	n/a	0	0.2931366001721471	1.0	350.5367934999522	458.4543320001103	459.4501583001111	460.6609128001146	462.1864759000018	463.1992683000863	n/a	n/a	464.2122080000117	465.1515027000569	2020-01-03 17:36:21.958058	26.2252117546623	18.5719873340898	0.0	18.5719873340898	26.2252117546623	0.0	-26.2252117546623	18.5719873340898	0.0	26.2252117546623	0.0	-18.5719873340898	13.817070466696183	13.703772565374713	1.7696272954136032	12.634787215070311	17.466016116157355	1.7696272954136032	-19.123115941930457	16.52635693913357	2.7092864724373884	12.415381914171416	3.058017946616901	1	missed	0.0
114.60203879978508	6.2484552001114935	nogo_punish	1.0	114.64817299996503	116.11481499997905	118.63990009995183	1.4666420000140192	115.64653090015054	117.62010850012302	119.65333850006573	0.4682840998285087	1.0197915998288067	1.2432897000107914	n/a	1.0	n/a	1	0	18	1	nogo_punish	1	-1	0	0	0	1	0	n/a	n/a	0	1.0	1.0	350.5367934999522	465.1849664999172	466.1833244001027	466.6516084999312	468.1569020000752	469.176693599904	n/a	n/a	470.1901320000179	471.4334217000287	2020-01-03 17:36:21.958058	3.53152707277784	-4.87531483244508	0.0	-0.901571078715572	-3.53152707277784	0.0	-3.53152707277784	0.0	-4.87531483244508	0.0	-3.53152707277784	0.0	-8.876614215188278	-9.74352960116017	1.7696272954136032	-6.838771197735062	-12.290722711282786	1.7696272954136032	-0.5511286078406578	-9.698854815528728	-0.8222406003404514	-6.156605419918384	-1.8172968858281795	1	missed	0.0
120.8838416999206	6.238890100037679	nogo_punish	1.0	120.92997590010054	122.49345920002088	125.01834790012799	1.5634832999203354	121.9310012999922	124.00862610014156	126.03278200002387	0.5624579000286758	1.009721799986437	1.1360840001143515	n/a	1.0	n/a	1	0	19	1	nogo_punish	1	-1	0	0	0	1	0	n/a	n/a	0	1.0	1.0	350.5367934999522	471.4667694000527	472.4677947999444	473.03025269997306	474.54541960009374	475.5551414000802	n/a	n/a	476.56957549997605	477.7056595000904	2020-01-03 17:36:21.958058	3.38541921045848	-4.87531483244508	0.0	-0.425664453087815	-3.38541921045848	0.0	-3.38541921045848	0.0	-4.87531483244508	0.0	-3.38541921045848	0.0	-9.022722077507638	-9.74352960116017	1.7696272954136032	-6.362864572107305	-12.144614848963426	1.7696272954136032	-0.5511286078406578	-9.698854815528728	-0.6761327380210918	-6.156605419918384	-1.8172968858281795	1	missed	0.0
127.16128859994939	6.7150424998253015	nogo_reward	0.3757621999830007	127.20742280012934	128.89039089996373	131.4207242000848	1.6829680998343974	128.2187439999543	130.42139320005663	132.42732280003838	0.6716469000094207	0.9993310000281781	1.4951424999162555	n/a	1.0	n/a	1	0	20	3	nogo_reward	1	0	1	0	1	0	0	n/a	n/a	0	0.3757621999830007	1.0	350.5367934999522	477.7442163000815	478.7555374999065	479.4271843999159	480.9581867000088	481.957517700037	n/a	n/a	482.96411629999056	484.4592587999068	2020-01-03 17:36:21.958058	11.7512255642305	7.65035324855175	0.0	7.65035324855175	11.7512255642305	0.0	-11.7512255642305	7.65035324855175	0.0	11.7512255642305	0.0	-7.65035324855175	-0.6569157237356169	2.782138479836661	1.7696272954136032	1.7131531295322597	2.9920299257255536	1.7696272954136032	-8.201481856392407	2.0523707487017724	2.7092864724373884	1.4937478286333654	3.058017946616901	1	missed	0.0
133.9114913998638	6.6903681999537525	go_reward	0.5092072999104857	133.95762560004374	135.7661091999616	138.30434290017	1.8084835999178495	134.96157569997013	137.28746629995294	139.30456289998256	0.8045334999914644	1.0168766002170742	1.343430900014937	n/a	1.0	n/a	1	0	21	4	go_reward	1	1	0	1	1	1	0	n/a	n/a	1	0.5092072999104857	1.0	350.5367934999522	484.4944190999959	485.4983691999223	486.3029026999138	487.8242597999051	488.8411364001222	n/a	n/a	489.84135639993474	491.1847872999497	2020-01-03 17:36:21.958058	44.462385508092	32.3482770774761	0.0	32.3482770774761	44.462385508092	0.0	-44.462385508092	32.3482770774761	0.0	44.462385508092	0.0	0.47932623894919857	32.05424422012588	27.48006230876101	1.7696272954136032	26.411076958456608	35.70318986958705	1.7696272954136032	-0.07180236889145919	34.76353069256327	2.7092864724373884	26.191671657557713	3.058017946616901	1	missed	0.0
140.63618139992468	6.018348000012395	nogo_punish	1.0	140.68231560010463	142.183543200139	144.7121063000523	1.5012276000343832	141.6837720000185	143.6988188000396	145.7223370999563	0.4997712001205059	1.0132875000127228	0.9783265001607333	n/a	1.0	n/a	1	0	22	1	nogo_punish	1	-1	0	0	0	1	0	n/a	n/a	0	1.0	1.0	350.5367934999522	491.2191091000568	492.2205654999707	492.7203367000912	494.2356122999918	495.2488998000045	n/a	n/a	496.2591305999085	497.2374571000692	2020-01-03 17:36:21.958058	3.31984663072092	-4.87531483244508	0.0	-0.211015701770689	-3.31984663072092	0.0	-3.31984663072092	0.0	-4.87531483244508	0.0	-3.31984663072092	0.0	-9.088294657245196	-9.74352960116017	1.7696272954136032	-6.148215820790179	-12.079042269225866	1.7696272954136032	-0.5511286078406578	-9.698854815528728	-0.6105601582835316	-6.156605419918384	-1.8172968858281795	1	missed	0.0
146.68869509990327	7.490270100068301	go_punish	1.0	146.73482930008322	149.45798239996662	151.9872328999918	2.7231530998834046	147.73986590001732	150.9636627000291	152.99657610012224	1.7181164999493035	1.0235701999627054	1.2285233000292806	n/a	1.0	n/a	1	0	23	2	go_punish	1	0	-1	1	0	0	0	n/a	n/a	-1	1.0	1.0	350.5367934999522	497.2716228000354	498.2766593999695	499.9947758999188	501.5004561999813	502.524026399944	n/a	n/a	503.5333696000744	504.7618929001037	2020-01-03 17:36:21.958058	0.50461524377837	-4.87531483244508	-4.87531483244508	-6.89901051822405	-5.37993007622345	-4.87531483244508	-0.50461524377837	-4.87531483244508	-4.87531483244508	-4.87531483244508	-5.37993007622345	-3.807445146252829	-11.903526044187748	-9.74352960116017	-3.105687537031477	-12.83621063724354	-14.139125714728397	-3.105687537031477	-4.358573754093487	-14.574169647973807	-2.6706436037860612	-11.031920252363465	-1.8172968858281795	1	missed	0.0
154.21273609995842	6.51430149981752	go_reward	0.4117435999214649	154.25887030013837	155.7564271001611	158.3000023001805	1.4975568000227213	155.25087129999883	157.28102939995006	159.30224600015208	0.5055558001622558	1.0189729002304375	1.4709257998038083	n/a	1.0	n/a	1	0	24	4	go_reward	1	1	0	1	1	1	0	n/a	n/a	1	0.4117435999214649	1.0	350.5367934999522	504.79566380009055	505.787664799951	506.2932206001133	507.81782289990224	508.8367958001327	n/a	n/a	509.83903950010426	511.3099652999081	2020-01-03 17:36:21.958058	44.738466320193	32.5573861488576	0.0	32.5573861488576	44.738466320193	0.0	-44.738466320193	32.5573861488576	0.0	44.738466320193	0.0	0.27021716756769365	32.33032503222688	27.689171380142515	1.7696272954136032	26.620186029838113	35.97927068168805	1.7696272954136032	-0.2809114402729641	35.03961150466427	2.7092864724373884	26.400780728939218	3.058017946616901	1	missed	0.0
160.76242259982973	5.986618800088763	nogo_punish	1.0	160.80855680000968	162.3805673001334	164.87890640017577	1.5720105001237243	161.81826229998842	163.8791213000659	165.88556149997748	0.5623050001449883	0.9997851001098752	0.9096141001209617	n/a	1.0	n/a	1	0	25	1	nogo_punish	0	0	-1	0	0	1	0	n/a	n/a	-1	1.0	1.0	350.5367934999522	511.34535029996186	512.3550557999406	512.9173608000856	514.4159148000181	515.415699900128	n/a	n/a	516.4223549999297	517.3319691000506	2020-01-03 17:36:21.958058	3.288872882219	-4.87531483244508	0.0	-0.10905585816853	-3.288872882219	0.0	-3.288872882219	0.0	-4.87531483244508	0.0	-3.288872882219	-8.68275997869791	-9.119268405747118	-9.74352960116017	1.7696272954136032	-6.04625597718802	-12.048068520723946	1.7696272954136032	-9.233888586538567	-9.698854815528728	-0.5795864097816117	-6.156605419918384	-1.8172968858281795	1	missed	0.0
166.78140139998868	7.933445499977097	go_reward	0.6209185000043362	166.82753560016863	169.7904594000429	172.34834120003507	2.962923799874261	167.8294766000472	171.32747650006786	173.36060230014846	1.9609827999956906	1.0208646999672055	1.40037879999727	n/a	1.0	n/a	1	0	26	4	go_reward	0	0	1	1	1	1	1	n/a	n/a	0	0.6209185000043362	1.0	350.5367934999522	517.3643291001208	518.3662700999994	520.3272528999951	521.86427000002	522.8851346999872	n/a	n/a	523.8973958001006	525.2977746000979	2020-01-03 17:36:21.958058	44.8889859871486	32.6714642217464	0.0	32.6714642217464	44.8889859871486	0.0	-44.8889859871486	32.6714642217464	0.0	44.8889859871486	0.0	-32.6714642217464	32.480844699182484	27.80324945303131	1.7696272954136032	26.734264102726907	36.12979034864365	1.7696272954136032	-33.22259282958706	35.190131171619875	2.7092864724373884	26.514858801828012	3.058017946616901	1	missed	0.0
174.74582649976946	6.2409839001484215	nogo_punish	1.0	174.7919606999494	176.5653675000649	179.09642920014448	1.773406800115481	175.79208409995772	178.07672450016253	180.10996889998205	0.7732834001071751	1.0197046999819577	0.922975700115785	n/a	1.0	n/a	1	0	27	1	nogo_punish	1	-1	0	0	0	1	1	n/a	n/a	0	1.0	1.0	350.5367934999522	525.3287541999016	526.3288775999099	527.1021610000171	528.6135180001147	529.6332227000967	n/a	n/a	530.6467623999342	531.56973810005	2020-01-03 17:36:21.958058	-0.0992093072804436	-4.87531483244508	-4.87531483244508	-4.93373983005859	-4.77610552516464	-4.87531483244508	0.0992093072804436	-4.87531483244508	-4.87531483244508	-4.87531483244508	-4.77610552516464	4.87531483244508	-12.50735059524656	-9.74352960116017	-3.105687537031477	-10.87093994907808	-13.535301163669587	-3.105687537031477	4.324186224604422	-14.574169647973807	-2.0668190527272516	-11.031920252363465	-1.8172968858281795	1	missed	0.0
181.02095979987644	7.538141899975017	nogo_punish	1.0	181.0670940000564	183.64164800010622	186.14638380007818	2.5745540000498295	182.07326630013995	185.14095939998515	187.16392530011944	1.5683816999662668	1.005424400093034	1.441310599911958	n/a	1.0	n/a	1	0	28	1	nogo_punish	0	0	-1	0	0	1	0	n/a	n/a	-1	1.0	1.0	350.5367934999522	531.6038875000086	532.6100598000921	534.1784415000584	535.6777528999373	536.6831773000304	n/a	n/a	537.7007188000716	539.1420293999836	2020-01-03 17:36:21.958058	1.86327185316525	-4.87531483244508	-2.02369568577897	-2.05599007095288	-3.88696753894422	-2.02369568577897	-1.86327185316525	-2.02369568577897	-4.87531483244508	-2.02369568577897	-3.88696753894422	-6.65906429291894	-10.544869434800868	-9.74352960116017	-0.2540683903653669	-7.9931901899723705	-12.646163177449168	-0.2540683903653669	-7.210192900759598	-11.722550501307698	-1.1776810665068318	-8.180301105697355	-1.8172968858281795	1	missed	0.0
188.59074939996935	6.7902497998438776	nogo_punish	1.0	188.6368836001493	190.97201200015843	193.50865239999257	2.3351284000091255	189.639848300023	192.48742799996398	194.5206526000984	1.3321637001354247	1.0212244000285864	0.9064807998947799	n/a	1.0	n/a	1	0	29	1	nogo_punish	1	-1	0	0	0	1	1	n/a	n/a	0	1.0	1.0	350.5367934999522	539.1736771001015	540.1766417999752	541.5088055001106	543.0242214999162	544.0454458999448	n/a	n/a	545.0574461000506	545.9639268999454	2020-01-03 17:36:21.958058	-0.737438255675307	-4.87531483244508	-5.77688591116065	-5.79523101886666	-5.03944765548535	-5.77688591116065	0.737438255675307	-5.77688591116065	-4.87531483244508	-5.77688591116065	-5.03944765548535	5.77688591116065	-13.145579543641425	-9.74352960116017	-4.0072586157470464	-11.732431137886149	-13.798643293990295	-4.0072586157470464	5.225757303319992	-15.475740726689377	-2.330161183047961	-11.933491331079034	-1.8172968858281795	1	missed	0.0
195.41523899999447	7.076962599996477	nogo_punish	1.0	195.46137320017442	198.2493233999703	200.76654440001585	2.787950199795887	196.4782318000216	199.7580874999985	201.78093959996477	1.7710915999487042	1.008456900017336	0.7573962002061307	n/a	1.0	n/a	1	0	30	1	nogo_punish	1	-1	0	0	0	1	1	n/a	n/a	0	1.0	1.0	350.5367934999522	545.9981667001266	547.0150252999738	548.7861168999225	550.2948809999507	551.303337899968	n/a	n/a	552.317733099917	553.0751293001231	2020-01-03 17:36:21.958058	1.56040975220667	-4.87531483244508	-2.44936013886679	-2.46003394310815	-4.00976989107346	-2.44936013886679	-1.56040975220667	-2.44936013886679	-4.87531483244508	-2.44936013886679	-4.00976989107346	2.44936013886679	-10.847731535759447	-9.74352960116017	-0.6797328434531869	-8.397234062127641	-12.768965529578406	-0.6797328434531869	1.8982315310261324	-12.148214954395518	-1.3004834186360714	-8.605965558785174	-1.8172968858281795	1	missed	0.0
202.524544299813	6.111589499982074	nogo_punish	1.0	202.57067849999294	203.9328582000453	206.44887039996684	1.3621797000523657	203.574222400086	205.43917440017685	207.46234460012056	0.35863579995930195	1.009695999789983	1.2199233998544514	n/a	1.0	n/a	1	0	31	1	nogo_punish	1	-1	0	0	0	1	1	n/a	n/a	0	1.0	1.0	350.5367934999522	553.1074719999451	554.1110159000382	554.4696516999975	555.975967900129	556.985663899919	n/a	n/a	557.9991381000727	559.2190614999272	2020-01-03 17:36:21.958058	2.48445273371433	-4.87531483244508	-1.11258678048626	-1.11892947642346	-3.59703951420059	-1.11258678048626	-2.48445273371433	-1.11258678048626	-4.87531483244508	-1.11258678048626	-3.59703951420059	1.11258678048626	-9.923688554251788	-9.74352960116017	0.6570405149273433	-7.05612959544295	-12.356235152705537	0.6570405149273433	0.5614581726456022	-10.811441596014987	-0.8877530417632018	-7.269192200404644	-1.8172968858281795	1	missed	0.0
208.67014849977568	7.5002187001518905	go_reward	0.3274443000555038	208.71628269995563	211.20663650007918	213.7522406000644	2.4903538001235574	209.73215529997833	212.7378541000653	214.76171770016663	1.474481200100854	1.014386499999091	1.45478369994089	n/a	1.0	n/a	1	0	32	4	go_reward	1	1	0	1	1	1	0	n/a	n/a	1	0.3274443000555038	1.0	350.5367934999522	559.2530761999078	560.2689487999305	561.7434300000314	563.2746476000175	564.2890341000166	n/a	n/a	565.2985112001188	566.7532949000597	2020-01-03 17:36:21.958058	20.3672190032411	14.1634141309276	0.0	14.1634141309276	20.3672190032411	0.0	-20.3672190032411	14.1634141309276	0.0	20.3672190032411	0.0	18.664189185497698	7.959077715274983	9.29519936221251	1.7696272954136032	8.22621401190811	11.608023364736153	1.7696272954136032	18.11306057765704	10.668364187712372	2.7092864724373884	8.006808711009217	3.058017946616901	1	missed	0.0
216.20867349999025	5.8995158998295665	nogo_reward	0.5154378998558968	216.2548077001702	217.829904000042	220.36531809996814	1.5750962998718023	217.26751670008525	219.35984420008026	221.377641600091	0.5623872999567538	1.0054738998878747	0.7766819999087602	n/a	1.0	n/a	1	0	33	3	nogo_reward	1	0	1	0	1	0	0	n/a	n/a	0	0.5154378998558968	1.0	350.5367934999522	566.7916012001224	567.8043102000374	568.3666974999942	569.8966377000324	570.9021115999203	n/a	n/a	571.9144351000432	572.691117099952	2020-01-03 17:36:21.958058	6.09031488074241	3.37787329464882	0.0	3.37787329464882	6.09031488074241	0.0	-6.09031488074241	3.37787329464882	0.0	6.09031488074241	0.0	-3.37787329464882	-6.317826407223707	-1.4903414740662688	1.7696272954136032	-2.55932682437067	-2.668880757762537	1.7696272954136032	-3.929001902489478	-3.608539934786318	2.7092864724373884	-2.7787321252695643	3.058017946616901	1	missed	0.0
222.1479737998452	6.33579650009051	nogo_reward	0.5897460000123829	222.19410800002515	223.52454390004277	226.04959130007774	1.3304359000176191	223.19692630018108	225.04531150008552	227.06293240003288	0.32761759986169636	1.0042797999922186	1.466972100082785	n/a	1.0	n/a	1	0	34	3	nogo_reward	1	0	1	0	1	0	0	n/a	n/a	0	0.5897460000123829	1.0	350.5367934999522	572.7309014999773	573.7337198001333	574.061337399995	575.5821050000377	576.5863848000299	n/a	n/a	577.5997258999851	579.0666980000678	2020-01-03 17:36:21.958058	3.70760085150986	1.57877442553033	0.0	1.57877442553033	3.70760085150986	0.0	-3.70760085150986	1.57877442553033	0.0	3.70760085150986	0.0	-1.57877442553033	-8.700540436456258	-3.2894403431847588	1.7696272954136032	-4.35842569348916	-5.051594786995087	1.7696272954136032	-2.129903033370988	-5.991253964018868	2.7092864724373884	-4.577830994388054	3.058017946616901	1	missed	0.0
228.52065959991887	6.484648699872196	nogo_reward	0.4332495999988168	228.56679380009882	230.1211618001107	232.66178900003433	1.5543680000118911	229.5729316000361	231.64202000014484	233.66846970003098	0.5482302000746131	1.019768999889493	1.3829727999400347	n/a	1.0	n/a	1	0	35	3	nogo_reward	1	0	1	0	1	0	1	n/a	n/a	0	0.4332495999988168	1.0	350.5367934999522	579.103587300051	580.1097250999883	580.6579553000629	582.178813500097	583.1985824999865	n/a	n/a	584.2052631999832	585.5882359999232	2020-01-03 17:36:21.958058	2.64236423172269	0.774012879443403	0.0	0.774012879443403	2.64236423172269	0.0	-2.64236423172269	0.774012879443403	0.0	2.64236423172269	0.0	-0.774012879443403	-9.765777056243428	-4.094201889271686	1.7696272954136032	-5.163187239576087	-6.116831406782257	1.7696272954136032	-1.3251414872840608	-7.056490583806038	2.7092864724373884	-5.382592540474981	3.058017946616901	1	missed	0.0
235.03985869977623	6.0650234001223	go_reward	0.344814500072971	235.08599289995618	236.62464500009082	239.1795036001131	1.538652100134641	236.07794320001267	238.15543860010803	240.1816171000246	0.5467018000781536	1.0240650000050664	0.9693992000538856	n/a	1.0	n/a	1	0	36	4	go_reward	1	1	0	1	1	1	0	n/a	n/a	1	0.344814500072971	1.0	350.5367934999522	585.6227863999084	586.6147366999649	587.161438500043	588.6922321000602	589.7162971000653	n/a	n/a	590.7184105999768	591.6878098000307	2020-01-03 17:36:21.958058	34.8895691201985	25.1217470646266	0.0	25.1217470646266	34.8895691201985	0.0	-34.8895691201985	25.1217470646266	0.0	34.8895691201985	0.0	7.705856251798696	22.481427832232384	20.253532295911512	1.7696272954136032	19.18454694560711	26.130373481693553	1.7696272954136032	7.154727643958038	25.190714304669775	2.7092864724373884	18.965141644708215	3.058017946616901	1	missed	0.0
241.14111039997078	6.82082589995116	go_punish	0.2781148999929428	241.18724460015073	243.04426380014047	245.58866390003823	1.857019199989736	242.20096760010347	244.5753969999496	246.6077627001796	0.8432962000370026	1.013266900088638	1.4003077999223024	n/a	1.0	n/a	1	0	37	2	go_punish	1	0	-1	1	1	1	0	n/a	n/a	0	0.2781148999929428	1.0	350.5367934999522	591.7240381001029	592.7377611000556	593.5810573000927	595.1121904999018	596.1254573999904	n/a	n/a	597.1445562001318	598.5448640000541	2020-01-03 17:36:21.958058	1.24373361660737	-4.87531483244508	-6.89901051822405	-7.80058159693963	-5.65527690161669	-6.89901051822405	-1.24373361660737	-4.87531483244508	-6.89901051822405	-5.65527690161669	-6.89901051822405	4.87531483244508	-11.164407671358747	-9.74352960116017	-5.129383222810446	-13.73778171595912	-14.414472540121636	-5.129383222810446	4.324186224604422	-15.354131717145417	-4.189724045786662	-11.031920252363465	-3.840992571607149	1	missed	0.0
247.99202139978297	7.295975100016221	nogo_punish	1.0	248.03815559996292	250.55726090003736	253.08531080000103	2.519105300074443	249.042354100151	252.07338110008277	254.09854340017773	1.5149067998863757	1.0119296999182552	1.2355872998014092	n/a	1.0	n/a	1	0	38	1	nogo_punish	1	-1	0	0	0	1	0	n/a	n/a	0	1.0	1.0	350.5367934999522	598.5749490999151	599.5791476001032	601.0940543999895	602.610174600035	603.6221042999532	n/a	n/a	604.6353369001299	605.8709241999313	2020-01-03 17:36:21.958058	2.88450357786539	-4.87531483244508	-0.534720311256344	-0.538560131092848	-3.41922388912174	-0.534720311256344	-2.88450357786539	-0.534720311256344	-4.87531483244508	-0.534720311256344	-3.41922388912174	0.534720311256344	-9.523637710100727	-9.74352960116017	1.2349069841572593	-6.475760250112338	-12.178419527626687	1.2349069841572593	-0.016408296584313753	-10.233575126785071	-0.7099374166843515	-6.691325731174729	-1.8172968858281795	1	missed	0.0
255.32132929982617	7.331529200077057	go_reward	0.4621931998990476	255.36746350000612	258.1021561999805	260.66372630000114	2.734692699974403	256.3589425000828	259.6438069001306	261.68292380007915	1.7432136998977512	1.0199193998705596	1.0160689000040293	n/a	1.0	n/a	1	0	39	4	go_reward	0	0	1	1	1	1	0	n/a	n/a	0	0.4621931998990476	1.0	350.5367934999522	605.9042569999583	606.895736000035	608.6389496999327	610.1806004000828	611.2005197999533	n/a	n/a	612.2197173000313	613.2357862000354	2020-01-03 17:36:21.958058	40.5788167208143	29.4157415629131	0.0	29.4157415629131	40.5788167208143	0.0	-40.5788167208143	29.4157415629131	0.0	40.5788167208143	0.0	-29.4157415629131	28.170675432848185	24.547526794198014	1.7696272954136032	23.47854144389361	31.819621082309354	1.7696272954136032	-29.966870170753758	30.879961905285576	2.7092864724373884	23.259136142994716	3.058017946616901	1	missed	0.0
262.6939807999879	6.740152799990028	nogo_reward	0.4897608999162912	262.74011500016786	264.70761950011365	267.2541916000191	1.9675044999457896	263.7376505001448	266.23431279999204	268.2676322001498	0.9699689999688417	1.0198788000270724	1.2126356000080705	n/a	1.0	n/a	1	0	40	3	nogo_reward	1	0	1	0	1	0	0	n/a	n/a	0	0.4897608999162912	1.0	350.5367934999522	613.27690850012	614.274444000097	615.2444130000658	616.7711062999442	617.7909850999713	n/a	n/a	618.804425700102	620.0170613001101	2020-01-03 17:36:21.958058	2.1413411505266	0.395275895212015	0.0	0.395275895212015	2.1413411505266	0.0	-2.1413411505266	0.395275895212015	0.0	2.1413411505266	0.0	-0.395275895212015	-10.266800137439517	-4.4729388735030735	1.7696272954136032	-5.5419242238074755	-6.617854487978347	1.7696272954136032	-0.9464045030526728	-7.557513665002128	2.7092864724373884	-5.761329524706369	3.058017946616901	1	missed	0.0
269.47337739984505	6.821356600150466	go_punish	0.3251175000332296	269.519511600025	271.31723639997654	273.8681834000163	1.7977247999515384	270.5303057001438	272.84849050012417	274.88122560014017	0.7869306998327374	1.0196928998921067	1.459642600035295	n/a	1.0	n/a	1	0	41	2	go_punish	1	0	-1	1	1	1	0	n/a	n/a	0	0.3251175000332296	1.0	350.5367934999522	620.0563050999772	621.067099200096	621.8540298999287	623.3852840000764	624.4049768999685	n/a	n/a	625.4180191000924	626.8776617001276	2020-01-03 17:36:21.958058	5.46863613637745	-2.02369568577897	-6.89901051822405	-3.35093121758236	-1.4303743818466	-6.89901051822405	-5.46863613637745	-2.02369568577897	-6.89901051822405	-1.4303743818466	-6.89901051822405	2.02369568577897	-6.939505151588667	-6.8919104544940595	-5.129383222810446	-9.28813133660185	-10.189570020351546	-5.129383222810446	1.4725670779383124	-11.129229197375327	-4.189724045786662	-8.180301105697355	-3.840992571607149	1	missed	0.0
276.32696799980476	6.734379700152203	go_reward	0.2629778999835253	276.3731021999847	278.6614178000018	281.2133784999605	2.2883156000170857	277.3791533000767	280.1985834001098	282.22243490000255	1.282264499925077	1.014795099850744	0.8850470001343638	n/a	1.0	n/a	1	0	42	4	go_reward	1	1	0	1	1	1	0	n/a	n/a	1	0.2629778999835253	1.0	350.5367934999522	626.9098956999369	627.9159468000289	629.198211299954	630.735376900062	631.7501719999127	n/a	n/a	632.7592283999547	633.6442754000891	2020-01-03 17:36:21.958058	18.3723728545902	12.6557060015749	0.0	12.6557060015749	18.3723728545902	0.0	-18.3723728545902	12.6557060015749	0.0	18.3723728545902	0.0	20.171897314850398	5.964231566624083	7.787491232859812	1.7696272954136032	6.7185058825554105	9.613177216085253	1.7696272954136032	19.62076870700974	8.673518039061472	2.7092864724373884	6.499100581656516	3.058017946616901	1	missed	0.0
283.0961827998981	6.428460699971765	go_reward	0.3584028999321162	283.14231700007804	285.06306080007926	287.59846700006165	1.920743800001219	284.15736940014176	286.5816877000034	288.6078111999668	0.9056913999374956	1.0167793000582606	0.9629665000829846	n/a	1.0	n/a	1	0	43	4	go_reward	1	1	0	1	1	1	0	n/a	n/a	1	0.3584028999321162	1.0	350.5367934999522	633.6791105000302	634.6941629000939	635.5998543000314	637.1184811999556	638.1352605000138	n/a	n/a	639.144604699919	640.107571200002	2020-01-03 17:36:21.958058	33.9218702078268	24.3899109502508	0.0	24.3899109502508	33.9218702078268	0.0	-33.9218702078268	24.3899109502508	0.0	33.9218702078268	0.0	8.437692366174495	21.513728919860682	19.521696181535713	1.7696272954136032	18.45271083123131	25.16267456932185	1.7696272954136032	7.886563758333837	24.223015392298073	2.7092864724373884	18.233305530332416	3.058017946616901	1	missed	0.0
289.5568275998812	6.220205599907786	go_punish	0.2582572000101208	289.60296180006117	291.4311804000754	293.9827003001701	1.8282186000142246	290.5960798000451	292.9619175000116	294.9838980999775	0.8351006000302732	1.0207828001584858	0.8392692999914289	n/a	1.0	n/a	1	0	44	2	go_punish	1	0	-1	1	1	1	0	n/a	n/a	0	0.2582572000101208	1.0	350.5367934999522	640.1397553000133	641.1328732999973	641.9679739000276	643.4987109999638	644.5194938001223	n/a	n/a	645.5206915999297	646.3599608999211	2020-01-03 17:36:21.958058	7.14832185276552	-0.901571078715572	-6.89901051822405	-1.53825123357408	0.249311334541465	-6.89901051822405	-7.14832185276552	-0.901571078715572	-6.89901051822405	0.249311334541465	-6.89901051822405	0.901571078715572	-5.259819435200598	-5.769785847430661	-5.129383222810446	-7.47545135259357	-8.509884303963481	-5.129383222810446	0.3504424708749142	-9.449543480987263	-4.189724045786662	-7.058176498633957	-3.840992571607149	1	missed	0.0
295.8090552999638	6.531279599992558	go_reward	0.3426278999540955	295.85518950014375	297.50984019995667	300.06059080013074	1.654650699812919	296.85363040002994	299.04076140001416	301.06284769997	0.656209799926728	1.0198294001165777	1.323621400166303	n/a	1.0	n/a	1	0	45	4	go_reward	0	0	1	1	1	1	1	n/a	n/a	0	0.3426278999540955	1.0	350.5367934999522	646.3919830000959	647.3904238999821	648.0466336999089	649.5775548999663	650.5973843000829	n/a	n/a	651.5996411999222	652.9232626000885	2020-01-03 17:36:21.958058	40.0901393146394	29.0459456197235	0.0	29.0459456197235	40.0901393146394	0.0	-40.0901393146394	29.0459456197235	0.0	40.0901393146394	0.0	-29.0459456197235	27.681998026673284	24.177730851008413	1.7696272954136032	23.10874550070401	31.330943676134453	1.7696272954136032	-29.597074227564157	30.391284499110675	2.7092864724373884	22.889340199805115	3.058017946616901	1	missed	0.0
302.3755400998052	6.83012290019542	go_punish	0.331767899915576	302.42167429998517	304.486603599973	307.00358640006743	2.0649292999878526	303.44016400002874	305.99774740007706	308.0160110001452	1.0464395999442786	1.0058389999903738	1.2357862000353634	n/a	1.0	n/a	1	0	46	2	go_punish	1	0	-1	1	1	1	1	n/a	n/a	0	0.331767899915576	1.0	350.5367934999522	652.9584677999374	653.9769574999809	655.0233970999252	656.5345409000292	657.5403799000196	n/a	n/a	658.5528045000974	659.7885907001328	2020-01-03 17:36:21.958058	7.86688266895211	-0.425664453087815	-6.89901051822405	-0.745736013027033	0.967872150728059	-6.89901051822405	-7.86688266895211	-0.425664453087815	-6.89901051822405	0.967872150728059	-6.89901051822405	0.425664453087815	-4.541258619014007	-5.293879221802904	-5.129383222810446	-6.682936132046523	-7.7913234877768875	-5.129383222810446	-0.12546415475284278	-8.730982664800669	-4.189724045786662	-6.582269873006199	-3.840992571607149	1	missed	0.0
309.2371616999153	7.166130699915811	go_reward	0.3990695001557469	309.28329590009525	311.7134692000691	314.25355250015855	2.4301732999738306	310.28722540009767	313.2298002000898	315.2521751001477	1.4262437999714166	1.023752300068736	1.1972514998633415	n/a	1.0	n/a	1	0	47	4	go_reward	1	1	0	1	1	1	1	n/a	n/a	1	0.3990695001557469	1.0	350.5367934999522	659.8200894000474	660.8240189000499	662.2502627000213	663.766593700042	664.7903460001107	n/a	n/a	665.7889686000999	666.9862200999632	2020-01-03 17:36:21.958058	18.1168627143959	12.462237449382	0.0	12.462237449382	18.1168627143959	0.0	-18.1168627143959	12.462237449382	0.0	18.1168627143959	0.0	20.365365867043295	5.708721426429783	7.594022680666911	1.7696272954136032	6.52503733036251	9.357667075890953	1.7696272954136032	19.81423725920264	8.418007898867172	2.7092864724373884	6.305632029463616	3.058017946616901	1	missed	0.0
316.43662839988247	6.268256800016388	go_punish	1.0	316.4827626000624	317.8431736000348	320.3580905001145	1.3604109999723732	317.4839685000479	319.3489566000644	321.3584459000267	0.3592050999868661	1.0091339000500739	1.3925735000520945	n/a	1.0	n/a	1	0	48	2	go_punish	1	0	-1	1	0	0	1	n/a	n/a	-1	1.0	1.0	350.5367934999522	667.0195561000146	668.0207620000001	668.379967099987	669.8857501000166	670.8948840000667	n/a	n/a	671.8952393999789	673.287812900031	2020-01-03 17:36:21.958058	-8.19336744174094	-0.211015701770689	-6.89901051822405	-0.378496557552723	1.29435692351689	-6.89901051822405	8.19336744174094	-6.89901051822405	-0.211015701770689	-6.89901051822405	1.29435692351689	-1.7837494604738593	-20.601508729707056	-5.079230470485778	-5.129383222810446	-6.315696676572213	-7.464838714988057	-5.129383222810446	-2.334878068314517	-16.59786533375278	4.0036433959542785	-13.055615938142434	2.847002244846212	1	missed	0.0
322.7472716998309	6.83576719998382	nogo_reward	0.3123568999581039	322.79340590001084	325.27387230005115	327.8099581000861	2.4804664000403136	323.80077620013617	326.7974329001736	328.8131745001301	1.473096099914983	1.0125251999124885	0.8159985998645425	n/a	1.0	n/a	1	0	49	3	nogo_reward	0	1	0	0	1	0	0	n/a	n/a	1	0.3123568999581039	1.0	350.5367934999522	673.330199399963	674.3375697000884	675.8106658000033	677.3342264001258	678.3467516000383	n/a	n/a	679.3499680000823	680.1659665999468	2020-01-03 17:36:21.958058	1.89521539716153	0.209109071381545	0.0	0.209109071381545	1.89521539716153	0.0	-1.89521539716153	0.209109071381545	0.0	1.89521539716153	0.0	32.61849424504375	-10.512925890804587	-4.659105697333544	1.7696272954136032	-5.728091047637945	-6.863980241343417	1.7696272954136032	32.06736563720309	-7.803639418367198	2.7092864724373884	-5.9474963485368395	3.058017946616901	1	missed	0.0
329.62013289984316	6.08215819997713	nogo_reward	0.5193560998886824	329.6662671000231	330.9952529000584	333.53244130010717	1.3289858000352979	330.6781391999684	332.5117055999581	334.5446671999525	0.3171137000899762	1.020735700149089	1.2037581000477076	n/a	1.0	n/a	1	0	50	3	nogo_reward	1	0	1	0	1	0	0	n/a	n/a	0	0.5193560998886824	1.0	350.5367934999522	680.2030605999753	681.2149326999206	681.5320464000106	683.0484990999103	684.0692348000593	n/a	n/a	685.0814606999047	686.2852187999524	2020-01-03 17:36:21.958058	26.375731421618	18.6860654069785	0.0	18.6860654069785	26.375731421618	0.0	-26.375731421618	18.6860654069785	0.0	26.375731421618	0.0	-18.6860654069785	13.967590133651882	13.817850638263412	1.7696272954136032	12.74886528795901	17.61653578311305	1.7696272954136032	-19.237194014819156	16.676876606089273	2.7092864724373884	12.529459987060115	3.058017946616901	1	missed	0.0
335.73784639989026	6.837042100029066	go_reward	0.2914891999680549	335.7839806000702	337.7100111001637	340.2593605001457	1.926030500093475	336.7887550999876	339.24372699996457	341.2591854999773	0.9212560001760721	1.0156335001811385	1.361837200121954	n/a	1.0	n/a	1	0	51	4	go_reward	1	1	0	1	1	1	0	n/a	n/a	1	0.2914891999680549	1.0	350.5367934999522	686.3207741000224	687.3255485999398	688.2468046001159	689.7805204999167	690.7961540000979	n/a	n/a	691.7959789999295	693.1578162000515	2020-01-03 17:36:21.958058	33.7841542758269	24.2855728304661	0.0	24.2855728304661	33.7841542758269	0.0	-33.7841542758269	24.2855728304661	0.0	33.7841542758269	0.0	8.542030485959195	21.376012987860783	19.417358061751013	1.7696272954136032	18.34837271144661	25.02495863732195	1.7696272954136032	7.990901878118537	24.085299460298174	2.7092864724373884	18.128967410547716	3.058017946616901	1	missed	0.0
342.6106077998411	6.38650509994477	nogo_punish	1.0	342.65674200002104	344.03019429999404	346.55200000014156	1.3734522999729961	343.67091760016046	345.54108800017275	347.56464400002733	0.3592766998335719	1.0109119999688119	1.478603099938482	n/a	1.0	n/a	1	0	52	1	nogo_punish	1	-1	0	0	0	1	0	n/a	n/a	0	1.0	1.0	350.5367934999522	693.1935354999732	694.2077111001126	694.5669877999462	696.0778815001249	697.0887935000937	n/a	n/a	698.1014374999795	699.580040599918	2020-01-03 17:36:21.958058	3.06849011201051	-4.87531483244508	-0.269440699384193	-0.271803940177981	-3.33793081139471	-0.269440699384193	-3.06849011201051	-0.269440699384193	-4.87531483244508	-0.269440699384193	-3.33793081139471	0.269440699384193	-9.339651175955607	-9.74352960116017	1.50018659602941	-6.209004059197471	-12.097126449899656	1.50018659602941	-0.28168790845646474	-9.96829551491292	-0.6286443389573217	-6.426046119302577	-1.8172968858281795	1	missed	0.0
349.03021439979784	6.714789899997413	nogo_punish	1.0	349.0763485999778	351.24698489997536	353.78223490016535	2.170636299997568	350.08468490000814	352.7624076001812	354.7906405001413	1.1622999999672174	1.019827299984172	1.0004979998338968	n/a	1.0	n/a	1	0	53	1	nogo_punish	1	-1	0	0	0	1	0	n/a	n/a	0	1.0	1.0	350.5367934999522	699.61314209993	700.6214783999603	701.7837783999275	703.2992011001334	704.3190284001175	n/a	n/a	705.3274340000935	706.3279319999274	2020-01-03 17:36:21.958058	3.15750605705393	-4.87531483244508	-0.141350243342436	-0.142826199256596	-3.29885630039637	-0.141350243342436	-3.15750605705393	-0.141350243342436	-4.87531483244508	-0.141350243342436	-3.29885630039637	0.141350243342436	-9.250635230912188	-9.74352960116017	1.6282770520711671	-6.0800263182760865	-12.058051938901317	1.6282770520711671	-0.40977836449822175	-9.840205058871163	-0.5895698279589814	-6.2979556632608205	-1.8172968858281795	1	missed	0.0
355.78059469978325	6.706124900141731	nogo_punish	1.0	355.8267288999632	357.5969961001538	360.1319642001763	1.770267200190574	356.8314879001118	359.11220040009357	361.14047590014525	0.7655082000419497	1.0197638000827283	1.3923778999596834	n/a	1.0	n/a	1	0	54	1	nogo_punish	1	-1	0	0	0	1	1	n/a	n/a	0	1.0	1.0	350.5367934999522	706.3635223999154	707.368281400064	708.133789600106	709.6489939000458	710.6687577001285	n/a	n/a	711.6772694000974	713.0696473000571	2020-01-03 17:36:21.958058	3.20247829702818	-4.87531483244508	-0.0767701053195155	-0.0777040633587223	-3.27924840234769	-0.0767701053195155	-3.20247829702818	-0.0767701053195155	-4.87531483244508	-0.0767701053195155	-3.27924840234769	0.0767701053195155	-9.205662990937938	-9.74352960116017	1.6928571900940876	-6.014904182378213	-12.038444040852637	1.6928571900940876	-0.47435850252114226	-9.775624920848243	-0.5699619299103018	-6.2333755252379	-1.8172968858281795	1	missed	0.0
362.52147359983064	6.4845271001104265	go_punish	0.3029398000799119	362.5676078000106	364.6094963999931	367.1229429000523	2.041888599982485	363.57366420002654	366.1218831001315	368.1362609001808	1.035832199966535	1.0010597999207675	0.9158739999402314	n/a	1.0	n/a	1	0	55	2	go_punish	1	0	-1	1	1	1	0	n/a	n/a	0	0.3029398000799119	1.0	350.5367934999522	713.1044012999628	714.1104576999787	715.1462898999453	716.6586766000837	717.6597364000045	n/a	n/a	718.673054400133	719.5889284000732	2020-01-03 17:36:21.958058	7.64652276871635	-0.211015701770689	-7.80058159693963	-5.07509007340102	-0.154058828223281	-7.80058159693963	-7.64652276871635	-0.211015701770689	-7.80058159693963	-0.154058828223281	-7.80058159693963	0.211015701770689	-4.761618519249767	-5.079230470485778	-6.030954301526027	-11.01229019242051	-8.913254466728228	-6.030954301526027	-0.34011290606996875	-9.852913643752009	-5.091295124502242	-6.367621121689074	-4.7425636503227295	1	missed	0.0
369.0453225998208	7.031746100168675	nogo_reward	0.2985634999349713	369.09145680000074	371.52289790008217	374.073764400091	2.431441100081429	370.0952713000588	373.0538951000199	375.0867794000078	1.427626600023359	1.01986930007115	1.036423500161618	n/a	1.0	n/a	1	0	56	3	nogo_reward	1	0	1	0	1	0	0	n/a	n/a	0	0.2985634999349713	1.0	350.5367934999522	719.6282502999529	720.632064800011	722.0596914000344	723.590688599972	724.6105579000432	n/a	n/a	725.62357289996	726.6599964001216	2020-01-03 17:36:21.958058	11.8355357499248	7.71429049182269	0.0	7.71429049182269	11.8355357499248	0.0	-11.8355357499248	7.71429049182269	0.0	11.8355357499248	0.0	-7.71429049182269	-0.5726055380413175	2.8460757231076013	1.7696272954136032	1.7770903728032001	3.076340111419853	1.7696272954136032	-8.265419099663347	2.1366809343960718	2.7092864724373884	1.5576850719043058	3.058017946616901	1	missed	0.0
376.11403139983304	6.133211300009862	nogo_reward	0.3999629002064466	376.160165600013	377.8903971000109	380.4187475000508	1.730231499997899	377.1649790999945	379.4132350999862	381.4309289001394	0.7254180000163615	1.0055124000646174	0.8624479998834431	n/a	1.0	n/a	1	0	57	3	nogo_reward	1	0	1	0	1	0	0	n/a	n/a	0	0.3999629002064466	1.0	350.5367934999522	726.6969590999652	727.7017725999467	728.4271905999631	729.9500285999384	730.955541000003	n/a	n/a	731.9677224000916	732.830170399975	2020-01-03 17:36:21.958058	6.13867880726785	3.41457214280983	0.0	3.41457214280983	6.13867880726785	0.0	-6.13867880726785	3.41457214280983	0.0	6.13867880726785	0.0	-3.41457214280983	-6.269462480698267	-1.453642625905259	1.7696272954136032	-2.52262797620966	-2.6205168312370963	1.7696272954136032	-3.9657007506504875	-3.5601760082608775	2.7092864724373884	-2.7420332771085545	3.058017946616901	1	missed	0.0
382.2848718999885	7.284924699924886	nogo_punish	1.0	382.33100610016845	385.1098144000862	387.64380570012145	2.7788082999177277	383.3440593001433	386.6198983001523	388.65307510015555	1.7657550999429077	1.0239073999691755	0.9628556999377906	n/a	1.0	n/a	1	0	58	1	nogo_punish	0	0	-1	0	0	1	0	n/a	n/a	-1	1.0	1.0	350.5367934999522	732.8677996001206	733.8808528000955	735.6466079000384	737.1566918001045	738.1805992000736	n/a	n/a	739.1898686001077	740.1527243000455	2020-01-03 17:36:21.958058	3.22606531806872	-4.87531483244508	-0.042968189415268	-0.0435661693386232	-3.26903350748399	-0.042968189415268	-3.22606531806872	-0.042968189415268	-4.87531483244508	-0.042968189415268	-3.26903350748399	-8.639791789282642	-9.182075969897397	-9.74352960116017	1.7266591059983352	-5.980766288358113	-12.028229145988936	1.7266591059983352	-9.1909203971233	-9.741823004943996	-0.5597470350466014	-6.199573609333652	-1.8172968858281795	1	missed	0.0
389.6034741997719	5.999152100179344	go_punish	0.8368185001891106	389.64960839995183	391.0874374001287	393.63488729996607	1.4378290001768619	390.65029170014895	392.6248391000554	394.6478236000985	0.4371456999797374	1.0100481999106705	1.0009369000326842	n/a	1.0	n/a	1	0	59	2	go_punish	1	0	-1	1	1	1	0	n/a	n/a	0	0.8368185001891106	1.0	350.5367934999522	740.186401899904	741.1870852001011	741.6242309000809	743.1616326000076	744.1716807999182	n/a	n/a	745.1846171000507	746.1855540000834	2020-01-03 17:36:21.958058	8.65707184414013	-0.10905585816853	-7.80058159693963	-2.1327601762724	0.856490247200507	-7.80058159693963	-8.65707184414013	-0.10905585816853	-7.80058159693963	0.856490247200507	-7.80058159693963	0.10905585816853	-3.751069443825987	-4.977270626883619	-6.030954301526027	-8.06996029529189	-7.90270539130444	-6.030954301526027	-0.44207274967212773	-8.842364568328222	-5.091295124502242	-6.265661278086914	-4.7425636503227295	1	missed	0.0
395.63691929983906	6.31975040002726	go_reward	0.7077216000761837	395.683053500019	397.1106749000028	399.64872850012034	1.4276213999837637	396.68948850012384	398.63371510012075	400.6587978999596	0.421186399878934	1.0150133999995887	1.3440060000866652	n/a	1.0	n/a	1	0	60	4	go_reward	1	1	0	1	1	1	0	n/a	n/a	1	0.7077216000761837	1.0	350.5367934999522	746.2198469999712	747.226282000076	747.647468399955	749.1705086000729	750.1855220000725	n/a	n/a	751.1955913999118	752.5395973999985	2020-01-03 17:36:21.958058	40.0139034944726	28.9881535929319	0.0	28.9881535929319	40.0139034944726	0.0	-40.0139034944726	28.9881535929319	0.0	40.0139034944726	0.0	3.839449723493395	27.605762206506483	24.119938824216813	1.7696272954136032	23.05095347391241	31.254707855967652	1.7696272954136032	3.2883211156527374	30.315048678943874	2.7092864724373884	22.831548173013516	3.058017946616901	1	missed	0.0
