onset	duration	trial_type	response_time	cueOnset	targetOnset	fbOnset	cueRT	firstfixOnset	secondfixOnset	waitOnset	firstfixdur	secondfixdur	waitdur	nback_fbOnset	nback_response_time	nback_targetOnset	block	wm	trial	cue	cond	is_common	outcome_go	outcome_nogo	key_correct	key_pressed	is_correct	key_correct_nback	key_pressed_nback	is_correct_nback	outcome	rt	rt_nback	time_scan	time_onset	time_isi1	time_circle	time_isi2	time_feedback	time_same	time_correct	time_iti	time_done	timestamp_scan	DV	Qgo	Qnogo	SV	Wgo	Wnogo	mDV	Qchosen	Qunchosen	Wchosen	Wunchosen	PE	DVC	QgoC	QnogoC	SVC	WgoC	WnogoC	PEC	WchosenC	WunchosenC	QchosenC	QunchosenC	run	outcome_nback	nback_targetResp
0.0	8.536960599943995	go_punish	1.0	0.03886400000192225	1.5475993000436574	4.081412900006399	1.5087353000417352	1.0465410999024698	3.061732299858704	7.113310500047874	0.5010582001411876	1.0196806001476943	1.4625140998980442	6.1144917998462915	1.0	5.106434100074694	2	1	1	2	go_punish	1	0	-1	1	0	0	0	n/a	0.0	-1	1.0	1.0	1293.5632720000576	1293.6021360000595	1294.60981309996	1295.1108713001013	1296.6250042999163	1297.644684900064	1298.6697061001323	1299.677763799904	1300.6765825001055	1302.1390966000035	2020-01-03 17:52:04.985127	-1.61913458506048	0.0	0.0	0.0	1.61913458506048	0.0	1.61913458506048	0.0	0.0	0.0	1.61913458506048	-8.68275997869791	-14.027275873026596	-4.868214768715089	1.7696272954136032	-5.93720011901949	-7.140061053444467	1.7696272954136032	-9.233888586538567	-9.698854815528728	4.328421057497868	-6.156605419918384	3.058017946616901	3	missed	0.0
8.582866499898955	8.834860000060871	nogo_reward	0.2978658999782055	8.621730499900877	11.059481699950993	13.599430700065568	2.4377512000501156	9.62840439984575	12.58926839986816	16.64983529993333	1.431077300105244	1.0101623001974076	0.8067552000284195	15.640543899964541	0.8419080001767725	14.60830600000918	2	1	2	3	nogo_reward	1	0	1	0	1	0	0	0.0	1.0	0	0.2978658999782055	0.8419080001767725	1293.5632720000576	1302.1850024999585	1303.1916763999034	1304.6227537000086	1306.1525403999258	1307.1627027001232	1308.1715780000668	1309.2038159000222	1310.213107299991	1311.0198625000194	2020-01-03 17:52:04.985127	1.61913458506048	0.0	0.0	0.0	1.61913458506048	0.0	-1.61913458506048	0.0	0.0	1.61913458506048	0.0	0.0	-10.789006702905638	-4.868214768715089	1.7696272954136032	-5.93720011901949	-7.140061053444467	1.7696272954136032	-0.5511286078406578	-8.079720230468247	2.7092864724373884	-6.156605419918384	3.058017946616901	3	correct	1.0
17.445072199916467	9.08966950001195	go_reward	0.0355644999071955	17.48393619991839	19.528824500041083	22.06967810005881	2.044888300122693	18.49368409998715	21.04597770003602	25.110758299939334	1.0351404000539333	1.0237004000227898	1.4628473999910057	24.09613099996932	0.5788908998947591	23.081537900026888	2	1	3	4	go_reward	1	1	0	1	1	1	0	0.0	1.0	1	0.0355644999071955	0.5788908998947591	1293.5632720000576	1311.047208199976	1312.0569561000448	1313.0920965000987	1314.6092497000936	1315.6329501001164	1316.6448099000845	1317.659403000027	1318.674030299997	1320.136877699988	2020-01-03 17:52:04.985127	1.61913458506048	0.0	0.0	0.0	1.61913458506048	0.0	-1.61913458506048	0.0	0.0	1.61913458506048	0.0	32.8276033164253	-10.789006702905638	-4.868214768715089	1.7696272954136032	-5.93720011901949	-7.140061053444467	1.7696272954136032	32.27647470858464	-8.079720230468247	2.7092864724373884	-6.156605419918384	3.058017946616901	3	correct	1.0
26.575605700025335	8.303066999884322	go_punish	0.5773966999258846	26.614469700027257	28.044847500044852	30.605440499959514	1.4303778000175953	27.622018499998376	29.581730299861874	33.63501690002158	0.4228290000464767	1.0237102000976392	1.2825197998899966	32.63280509994365	0.7077321000397205	31.620572000043467	2	1	4	2	go_punish	0	-1	0	1	1	1	0	0.0	1.0	-1	0.5773966999258846	0.7077321000397205	1293.5632720000576	1320.1777417000849	1321.185290500056	1321.6081195001025	1323.1450022999195	1324.1687125000171	1325.183844000101	1326.1960771000013	1327.1982889000792	1328.4808086999692	2020-01-03 17:52:04.985127	4.71238093195744	0.0	-5.30328067281486	-5.30328067281486	-0.590899740857417	-5.30328067281486	-4.71238093195744	0.0	-5.30328067281486	-0.590899740857417	-5.30328067281486	-8.68275997869791	-7.695760356008678	-4.868214768715089	-3.5336533774012566	-11.24048079183435	-9.350095379362363	-3.5336533774012566	-9.233888586538567	-10.289754556386145	-2.5939942003774714	-6.156605419918384	-2.245262726197959	3	correct	1.0
34.89878379995935	8.53489129990362	go_reward	0.3682351999450475	34.93764779996127	36.5141540998593	39.065131899900734	1.5765062998980284	35.952081999974325	38.04549499996938	42.12318630004302	0.562072099884972	1.0196368999313563	1.3493527998218724	41.11686660000123	0.7196320998482406	40.08861969993427	2	1	5	4	go_reward	0	0	1	1	1	1	1	1.0	1.0	0	0.3682351999450475	0.7196320998482406	1293.5632720000576	1328.500919800019	1329.515354000032	1330.077426099917	1331.608767000027	1332.6284038999584	1333.651891699992	1334.6801386000589	1335.6864583001006	1337.0358110999225	2020-01-03 17:52:04.985127	29.4033189997112	19.501200309928	0.0	19.501200309928	29.4033189997112	0.0	-29.4033189997112	19.501200309928	0.0	29.4033189997112	0.0	-19.501200309928	16.995177711745082	14.63298554121291	1.7696272954136032	13.564000190908509	20.644123361206255	1.7696272954136032	-20.052328917768655	19.70446418418247	2.7092864724373884	13.344594890009613	3.058017946616901	3	correct	1.0
43.47507350007095	9.009854599833261	nogo_reward	0.3998608000110835	43.51393750007287	45.73245169990696	48.28841249994002	2.2185141998340896	44.514421599917114	47.263624900020886	51.31751349987462	1.2180300999898463	1.0247875999191365	1.20627860003151	50.30481050000526	0.5054854000918567	49.289759000064805	2	1	6	3	nogo_reward	0	1	0	0	1	0	0	0.0	1.0	1	0.3998608000110835	0.5054854000918567	1293.5632720000576	1337.0772095001305	1338.0776935999747	1339.2957236999646	1340.8268969000785	1341.8516844999976	1342.8530310001224	1343.8680825000629	1344.8807854999322	1346.0870640999638	2020-01-03 17:52:04.985127	1.61913458506048	0.0	0.0	0.0	1.61913458506048	0.0	-1.61913458506048	0.0	0.0	1.61913458506048	0.0	32.8276033164253	-10.789006702905638	-4.868214768715089	1.7696272954136032	-5.93720011901949	-7.140061053444467	1.7696272954136032	32.27647470858464	-8.079720230468247	2.7092864724373884	-6.156605419918384	3.058017946616901	3	correct	1.0
52.50541079998948	8.775216599926353	go_reward	0.3072828999720514	52.5442747999914	54.49308429984376	57.05039200000488	1.9488094998523593	53.54840780002996	56.030259900027886	60.11601369990967	0.9446764998137951	1.0201320999769905	1.2034777000080794	59.096395100001246	0.4344309000298381	58.069141400046874	2	1	7	4	go_reward	0	0	1	1	1	1	1	1.0	1.0	0	0.3072828999720514	0.4344309000298381	1293.5632720000576	1346.107546800049	1347.1116798000876	1348.0563562999014	1349.5935319000855	1350.6136640000625	1351.6324134001045	1352.6596671000589	1353.6792856999673	1354.8827633999754	2020-01-03 17:52:04.985127	11.2602141398543	6.60612541009426	0.0	6.60612541009426	11.2602141398543	0.0	-11.2602141398543	6.60612541009426	0.0	11.2602141398543	0.0	-6.60612541009426	-1.1479271481118172	1.7379106413791714	1.7696272954136032	0.6689252910747703	2.5010185013493533	1.7696272954136032	-7.1572540179349184	1.5613593243255721	2.7092864724373884	0.44951999017587596	3.058017946616901	3	correct	1.0
61.301235399907455	8.91330479993485	go_reward	0.5452412001322955	61.34009939990938	63.87614029995166	66.42738979985006	2.5360409000422806	62.35505499993428	65.40510779991746	69.47766470001079	1.5210853000173756	1.022281999932602	0.7757394998334348	68.47396610002033	0.3384672000538558	67.44477679999545	2	1	8	4	go_reward	0	0	1	1	1	1	0	0.0	1.0	0	0.5452412001322955	0.3384672000538558	1293.5632720000576	1354.903371399967	1355.918326999992	1357.4394123000093	1358.968379799975	1359.9906617999077	1361.008048800053	1362.037238100078	1363.0409367000684	1363.8166761999018	2020-01-03 17:52:04.985127	5.78132501287004	2.81390027410119	0.0	2.81390027410119	5.78132501287004	0.0	-5.78132501287004	2.81390027410119	0.0	5.78132501287004	0.0	-2.81390027410119	-6.626816275096077	-2.054314494613899	1.7696272954136032	-3.1232998449183	-2.977870625634907	1.7696272954136032	-3.3650288819418477	-3.917529802658688	2.7092864724373884	-3.3427051458171944	3.058017946616901	3	correct	1.0
70.23599969991483	7.932710000080988	go_reward	0.4166544999461621	70.27486369991675	71.63551679998636	74.16338220005855	1.3606531000696123	71.28783289995044	73.15735409990884	77.20889139990322	0.34768390003591776	1.006028100149706	0.9986823000945151	76.20519390003756	0.9293016998562962	75.18406270002015	2	1	9	4	go_reward	1	1	0	1	1	1	1	1.0	1.0	1	0.4166544999461621	0.9293016998562962	1293.5632720000576	1363.8381356999744	1364.851104900008	1365.198788800044	1366.7206260999665	1367.7266542001162	1368.7473347000778	1369.7684659000952	1370.7721633999608	1371.7708457000554	2020-01-03 17:52:04.985127	3.71686547397031	1.4099532584071	0.0	1.4099532584071	3.71686547397031	0.0	-3.71686547397031	1.4099532584071	0.0	3.71686547397031	0.0	31.417650058018197	-8.691275813995807	-3.458261510307989	1.7696272954136032	-4.52724686061239	-5.042330164534636	1.7696272954136032	30.86652145017754	-5.9819893415584176	2.7092864724373884	-4.746652161511284	3.058017946616901	3	correct	1.0
78.20899709989317	7.984773600008339	go_punish	0.4330353999976069	78.24786109989509	79.71330659999512	82.26183239999227	1.4654455001000315	79.25884009990841	81.23472939990461	85.31691180006601	0.45446650008670986	1.0271030000876635	0.9157228998374194	84.30611989996396	0.8396240998990834	83.27963769994676	2	1	10	2	go_punish	1	0	-1	1	1	1	0	1.0	0.0	0	0.4330353999976069	0.8396240998990834	1293.5632720000576	1371.8111330999527	1372.822112099966	1373.2765786000527	1374.7980013999622	1375.82510440005	1376.8429097000044	1377.8693919000216	1378.8801838001236	1379.795906699961	2020-01-03 17:52:04.985127	-1.3840088942301	-5.30328067281486	-5.30328067281486	-7.06245870623182	-6.68728956704496	-5.30328067281486	1.3840088942301	-5.30328067281486	-5.30328067281486	-6.68728956704496	-5.30328067281486	5.30328067281486	-13.792150182196217	-10.171495441529949	-3.5336533774012566	-12.99965882525131	-15.446485205549907	-3.5336533774012566	4.752152064974202	-16.38614438257369	-2.5939942003774714	-11.459886092733244	-2.245262726197959	3	wrong	1.0
86.23373369988985	9.705605500145111	go_punish	0.4225768998730927	86.27259769989178	88.8927922998555	91.44983799988404	2.6201945999637246	87.28296980005689	90.428926799912	94.50024529988877	1.6098224997986108	1.0209111999720335	1.4779579001481125	93.4901298000475	0.5345083000138402	92.46635630005039	2	1	11	2	go_punish	1	0	-1	1	1	1	0	1.0	0.0	0	0.4225768998730927	0.5345083000138402	1293.5632720000576	1379.8358696999494	1380.8462418001145	1382.4560642999131	1383.9921987999696	1385.0131099999417	1386.029628300108	1387.0534018001051	1388.0635172999464	1389.5414752000945	2020-01-03 17:52:04.985127	4.03033899515974	-1.75917803341696	-5.30328067281486	-2.48147372674341	-1.27294167765512	-5.30328067281486	-4.03033899515974	-1.75917803341696	-5.30328067281486	-1.27294167765512	-5.30328067281486	1.75917803341696	-8.377802292806377	-6.627392802132049	-3.5336533774012566	-8.4186738457629	-10.032137316160068	-3.5336533774012566	1.2080494255763021	-10.971796493183849	-2.5939942003774714	-7.915783453335345	-2.245262726197959	3	wrong	1.0
95.96093089994974	9.563795800087973	go_reward	0.5473641999997199	95.99979489995167	98.58996140002273	101.15072140004486	2.5901665000710636	97.01276690000668	100.12708649993874	104.18204459990375	1.5771945000160486	1.0236349001061171	1.3815461001358926	103.18524640006945	0.9823598999064416	102.1650701998733	2	1	12	4	go_reward	1	1	0	1	1	1	0	0.0	1.0	1	0.5473641999997199	0.9823598999064416	1293.5632720000576	1389.5630669000093	1390.5760389000643	1392.1532334000804	1393.6903584999964	1394.7139934001025	1395.728342199931	1396.748518400127	1397.7453165999614	1399.1268627000973	2020-01-03 17:52:04.985127	30.5860544509112	20.2955078673721	0.0	20.2955078673721	30.5860544509112	0.0	-30.5860544509112	20.2955078673721	0.0	30.5860544509112	0.0	12.532095449053198	18.17791316294508	15.42729309865701	1.7696272954136032	14.358307748352608	21.82685881240625	1.7696272954136032	11.98096684121254	20.887199635382473	2.7092864724373884	14.138902447453713	3.058017946616901	3	correct	1.0
105.56539010000415	8.285725799854617	nogo_reward	0.6290136000607163	105.60425410000607	107.46325120003894	109.99700189987198	1.858997100032866	106.60385659988947	108.98219870007597	113.03113469993696	0.8593946001494714	1.014803199796006	0.858845199923735	112.0119411998894	1.0	111.00370529992529	2	1	13	3	nogo_reward	0	1	0	0	1	0	0	n/a	0.0	0	0.6290136000607163	1.0	1293.5632720000576	1399.1675261000637	1400.167128599947	1401.0265232000966	1402.5454707001336	1403.5602738999296	1404.566977299983	1405.575213199947	1406.5944066999946	1407.4532518999183	2020-01-03 17:52:04.985127	29.4033189997112	19.501200309928	0.0	19.501200309928	29.4033189997112	0.0	-29.4033189997112	19.501200309928	0.0	29.4033189997112	0.0	13.326403006497298	16.995177711745082	14.63298554121291	1.7696272954136032	13.564000190908509	20.644123361206255	1.7696272954136032	12.77527439865664	19.70446418418247	2.7092864724373884	13.344594890009613	3.058017946616901	3	missed	0.0
113.88900960003957	8.269793999846797	go_punish	0.5235150000080466	113.9278736000415	115.65890279994346	118.21384250000119	1.7310291999019682	114.93032839987427	117.19004959985614	121.25029939995147	0.728574400069192	1.0237929001450539	0.9473681999368182	120.24629739997908	0.7443214000668377	119.22703860001639	2	1	14	2	go_punish	0	-1	0	1	1	1	0	0.0	1.0	-1	0.5235150000080466	0.7443214000668377	1293.5632720000576	1407.4911456000991	1408.493600399932	1409.222174800001	1410.7533215999138	1411.7771145000588	1412.790310600074	1413.8095694000367	1414.813571400009	1415.760939599946	2020-01-03 17:52:04.985127	5.69459210793015	-0.722295693326449	-5.30328067281486	-1.06755049418687	0.391311435115288	-5.30328067281486	-5.69459210793015	-0.722295693326449	-5.30328067281486	0.391311435115288	-5.30328067281486	-7.96046428537146	-6.713549180035967	-5.590510462041538	-3.5336533774012566	-7.00475061320636	-8.367884203389659	-3.5336533774012566	-8.511592893212118	-9.30754338041344	-2.5939942003774714	-6.878901113244833	-2.245262726197959	3	correct	1.0
122.18844589986838	8.645549700129777	nogo_punish	0.5172864999622107	122.2273098998703	123.80204620002769	126.36124340002448	1.574736300157383	123.2352239000611	125.34033129992895	129.3932797999587	0.5668222999665886	1.0209121000955292	1.4795798000413924	128.3983146999965	0.8092952999286354	127.37913049990311	2	1	15	1	nogo_punish	0	0	-1	0	1	0	0	0.0	1.0	0	0.5172864999622107	0.8092952999286354	1293.5632720000576	1415.790581899928	1416.7984959001187	1417.3653182000853	1418.9036032999866	1419.924515400082	1420.9424024999607	1421.961586700054	1422.9565518000163	1424.4361316000577	2020-01-03 17:52:04.985127	1.61913458506048	0.0	0.0	0.0	1.61913458506048	0.0	-1.61913458506048	0.0	0.0	1.61913458506048	0.0	0.0	-10.789006702905638	-4.868214768715089	1.7696272954136032	-5.93720011901949	-7.140061053444467	1.7696272954136032	-0.5511286078406578	-8.079720230468247	2.7092864724373884	-6.156605419918384	3.058017946616901	3	correct	1.0
130.87684769998305	8.993878700071718	nogo_reward	0.2520874000620097	130.91571169998497	133.3601712000093	135.90738169988617	2.4444595000243226	131.922868499998	134.88645210000686	138.95591700007208	1.437302700011287	1.0209295998793095	0.9536733999846092	137.94302539993078	0.4924326001200825	136.92397519992687	2	1	16	3	nogo_reward	1	0	1	0	1	0	0	0.0	1.0	0	0.2520874000620097	0.4924326001200825	1293.5632720000576	1424.4789837000426	1425.4861405000556	1426.923443200067	1428.4497241000645	1429.4706536999438	1430.4872471999845	1431.5062973999884	1432.5191890001297	1433.4728624001143	2020-01-03 17:52:04.985127	11.2602141398543	6.60612541009426	0.0	6.60612541009426	11.2602141398543	0.0	-11.2602141398543	6.60612541009426	0.0	11.2602141398543	0.0	-6.60612541009426	-1.1479271481118172	1.7379106413791714	1.7696272954136032	0.6689252910747703	2.5010185013493533	1.7696272954136032	-7.1572540179349184	1.5613593243255721	2.7092864724373884	0.44951999017587596	3.058017946616901	3	correct	1.0
139.8930931999348	8.469013300025836	go_reward	0.3271724001970142	139.93195719993673	141.9363259000238	144.4747756998986	2.0043687000870705	140.93732160003856	143.47190900007286	147.51635019993387	0.9990042999852449	1.002866699825745	0.8846203000287005	146.50347979995422	0.5199559000320733	145.49048010003753	2	1	17	4	go_reward	1	1	0	1	1	1	0	0.0	1.0	1	0.3271724001970142	0.5199559000320733	1293.5632720000576	1433.4952291999944	1434.5005936000962	1435.4995979000814	1437.0351810001305	1438.0380476999562	1439.0537521000952	1440.0667518000118	1441.0796221999915	1441.9642425000202	2020-01-03 17:52:04.985127	39.7682768731637	26.5945541289605	0.0	26.5945541289605	39.7682768731637	0.0	-39.7682768731637	26.5945541289605	0.0	39.7682768731637	0.0	6.233049187464797	27.360135585197582	21.72633936024541	1.7696272954136032	20.65735400994101	31.00908123465875	1.7696272954136032	5.681920579624139	30.069422057634974	2.7092864724373884	20.437948709042114	3.058017946616901	3	correct	1.0
148.4049032998737	8.754486700054258	nogo_reward	0.3155081998556852	148.44376729987562	150.3629093999043	152.90939569985494	1.9191421000286937	149.43994189985096	151.8856866999995	155.9461522998754	0.9229675000533462	1.0237089998554438	1.2521017000544816	154.93243320006877	0.4912179000675678	153.9142525999339	2	1	18	3	nogo_reward	0	1	0	0	1	0	1	1.0	1.0	1	0.3155081998556852	0.4912179000675678	1293.5632720000576	1442.0070392999332	1443.0032138999086	1443.926181399962	1445.4489587000571	1446.4726676999126	1447.4775245999915	1448.4957052001264	1449.509424299933	1450.7615259999875	2020-01-03 17:52:04.985127	5.78132501287004	2.81390027410119	0.0	2.81390027410119	5.78132501287004	0.0	-5.78132501287004	2.81390027410119	0.0	5.78132501287004	0.0	30.013703042324106	-6.626816275096077	-2.054314494613899	1.7696272954136032	-3.1232998449183	-2.977870625634907	1.7696272954136032	29.46257443448345	-3.917529802658688	2.7092864724373884	-3.3427051458171944	3.058017946616901	3	correct	1.0
157.18372850003652	8.429231100017205	nogo_punish	0.2976528001017868	157.22259250003844	158.7936130000744	161.3514689998699	1.5710205000359565	158.23254929995164	160.33191800001077	164.40660239988938	0.5610637001227587	1.0195509998591206	1.2452212001662701	163.3930996998679	0.5531667000614107	162.37027939991094	2	1	19	1	nogo_punish	0	0	-1	0	1	0	0	0.0	1.0	0	0.2976528001017868	0.5531667000614107	1293.5632720000576	1450.785864500096	1451.7958213000093	1452.356885000132	1453.8951900000684	1454.9147409999275	1455.9335513999686	1456.9563716999255	1457.969874399947	1459.2150956001133	2020-01-03 17:52:04.985127	1.61913458506048	0.0	0.0	0.0	1.61913458506048	0.0	-1.61913458506048	0.0	0.0	1.61913458506048	0.0	0.0	-10.789006702905638	-4.868214768715089	1.7696272954136032	-5.93720011901949	-7.140061053444467	1.7696272954136032	-0.5511286078406578	-8.079720230468247	2.7092864724373884	-6.156605419918384	3.058017946616901	3	correct	1.0
165.6551719000563	8.355172999901697	nogo_reward	0.2595829998608678	165.69403590005822	167.53582890005782	170.0820541998835	1.8417929999995977	166.701654399978	169.06664819992147	173.14248199993744	0.8341745000798255	1.015405999962013	0.9067269000224769	172.12865550001152	0.6727150999940932	171.09977319999598	2	1	20	3	nogo_reward	1	0	1	0	1	0	1	1.0	1.0	0	0.2595829998608678	0.6727150999940932	1293.5632720000576	1459.2573079001158	1460.2649264000356	1461.0991009001154	1462.629920199979	1463.645326199941	1464.6630452000536	1465.6919275000691	1466.705753999995	1467.6124809000175	2020-01-03 17:52:04.985127	31.501049888621	20.9111535683351	0.0	20.9111535683351	31.501049888621	0.0	-31.501049888621	20.9111535683351	0.0	31.501049888621	0.0	-20.9111535683351	19.092908600654884	16.04293879962001	1.7696272954136032	14.973953449315609	22.741854250116056	1.7696272954136032	-21.462282176175755	21.80219507309227	2.7092864724373884	14.754548148416713	3.058017946616901	3	correct	1.0
174.0344374999404	9.264965099981055	go_reward	0.2759232998359948	174.07330149994232	176.76842159987427	179.32943539996631	2.6951200999319553	175.0736984000539	178.30747959995642	182.37520790006965	1.6947231998203733	1.0219558000098914	0.9630586998537183	181.36240269988775	0.4281287000048905	180.35034779994749	2	1	21	4	go_reward	0	0	1	1	1	1	0	0.0	1.0	0	0.2759232998359948	0.4281287000048905	1293.5632720000576	1467.6365735	1468.6369704001115	1470.331693599932	1471.870751600014	1472.892707400024	1473.913619800005	1474.9256746999454	1475.9384799001273	1476.901538599981	2020-01-03 17:52:04.985127	43.6773572164063	29.239330989156	0.0	29.239330989156	43.6773572164063	0.0	-43.6773572164063	29.239330989156	0.0	43.6773572164063	0.0	-29.239330989156	31.269215928440182	24.37111622044091	1.7696272954136032	23.30213087013651	34.91816157790135	1.7696272954136032	-29.790459596996655	33.978502400877574	2.7092864724373884	23.082725569237613	3.058017946616901	3	correct	1.0
183.32371410005726	9.436284299940098	nogo_punish	1.0	183.36257810005918	186.18153669987805	188.70986449997872	2.8189585998188704	184.3687223000452	187.68662749999203	191.75702659995295	1.8128143998328596	1.0232369999866933	1.0418358000463286	190.74379740003496	0.7005729998927563	189.71486840001307	2	1	22	1	nogo_punish	0	0	-1	0	0	1	0	0.0	1.0	-1	1.0	0.7005729998927563	1293.5632720000576	1476.9258501001168	1477.9319943001028	1479.7448086999357	1481.2498995000497	1482.2731365000363	1483.2781404000707	1484.3070694000926	1485.3202986000106	1486.362134400057	2020-01-03 17:52:04.985127	-1.61913458506048	0.0	0.0	0.0	1.61913458506048	0.0	1.61913458506048	0.0	0.0	0.0	1.61913458506048	-8.68275997869791	-14.027275873026596	-4.868214768715089	1.7696272954136032	-5.93720011901949	-7.140061053444467	1.7696272954136032	-9.233888586538567	-9.698854815528728	4.328421057497868	-6.156605419918384	3.058017946616901	3	correct	1.0
192.8004194998648	8.866283900104463	go_punish	1.0	192.83928349986672	195.15803000004962	197.69662750000134	2.318746500182897	193.8383368998766	196.67321190005168	200.7427035998553	1.3196931001730263	1.023415599949658	0.9628638001158834	199.72966089984402	0.4835756001994014	198.71194899990246	2	1	23	2	go_punish	1	0	-1	1	0	0	0	0.0	1.0	-1	1.0	0.4835756001994014	1293.5632720000576	1486.4025554999243	1487.4016088999342	1488.7213020001072	1490.2364839001093	1491.259899500059	1492.27522099996	1493.2929328999016	1494.305975599913	1495.2688394000288	2020-01-03 17:52:04.985127	1.19131923812812	-5.64853547367528	-5.30328067281486	-5.83377375939597	-6.49459991094298	-5.30328067281486	-1.19131923812812	-5.30328067281486	-5.64853547367528	-5.30328067281486	-6.49459991094298	-3.3794793058830495	-11.216822049837997	-10.51675024239037	-3.5336533774012566	-11.770973878415461	-15.253795549447926	-3.5336533774012566	-3.930607913723707	-15.002135488343587	-3.7853134385055913	-11.459886092733244	-2.5905175270583793	3	correct	1.0
201.7052380000241	9.021290299948305	go_punish	0.3630733999889344	201.74410200002603	204.2103329000529	206.74973129993327	2.466230900026858	202.7519077998586	205.72881700005382	209.786960599944	1.4584251001942903	1.0209142998794505	0.9784317000303417	208.78278600005433	0.5231164998840541	207.7663898000028	2	1	24	2	go_punish	1	0	-1	1	1	1	0	0.0	1.0	0	0.3630733999889344	0.5231164998840541	1293.5632720000576	1495.3073740000837	1496.3151797999162	1497.7736049001105	1499.2920890001114	1500.313003299991	1501.3296618000604	1502.346058000112	1503.3502326000016	1504.328664300032	2020-01-03 17:52:04.985127	-0.111816137426868	-5.64853547367528	-7.06245870623182	-7.35646504119371	-7.17427484365869	-7.06245870623182	0.111816137426868	-5.64853547367528	-7.06245870623182	-7.17427484365869	-7.06245870623182	5.64853547367528	-12.519957425392985	-10.51675024239037	-5.292831410818216	-13.2936651602132	-15.933470482163637	-5.292831410818216	5.097406865834622	-16.87312965918742	-4.353172233794432	-11.805140893593665	-4.004440759614919	3	correct	1.0
210.7673710999079	8.18828220013529	nogo_reward	0.7514071001205593	210.80623509990983	212.20606189989485	214.73746660002507	1.3998267999850214	211.81555529986508	213.7366511998698	217.78179599996656	0.39050660002976656	1.0008154001552612	1.212721300078556	216.77644159994088	0.8278413000516593	215.75667779985815	2	1	25	3	nogo_reward	1	0	1	0	1	0	0	0.0	1.0	0	0.7514071001205593	0.8278413000516593	1293.5632720000576	1504.3695070999674	1505.3788272999227	1505.7693338999525	1507.2999231999274	1508.3007386000827	1509.3199497999158	1510.3397135999985	1511.3450680000242	1512.5577893001027	2020-01-03 17:52:04.985127	12.4429495910542	7.40043296753839	0.0	7.40043296753839	12.4429495910542	0.0	-12.4429495910542	7.40043296753839	0.0	12.4429495910542	0.0	-7.40043296753839	0.03480830308808258	2.5322181988233012	1.7696272954136032	1.4632328485189001	3.683753952549253	1.7696272954136032	-7.951561575379048	2.744094775525472	2.7092864724373884	1.2438275476200058	3.058017946616901	3	correct	1.0
218.97719209990464	9.196010899962857	go_reward	0.2604549000971019	219.01605609990656	221.77178489998914	224.32284909998998	2.7557288000825793	220.00948120001726	223.30433339998126	227.37327470001765	1.7623036999718806	1.0185157000087202	0.8387922998517752	226.37034310004674	0.6517279001418501	225.34166199993342	2	1	26	4	go_reward	1	1	0	1	1	1	0	0.0	1.0	1	0.2604549000971019	0.6517279001418501	1293.5632720000576	1512.5793280999642	1513.5727532000749	1515.3350569000468	1516.8676054000389	1517.8861211000476	1518.904933999991	1519.9336151001044	1520.9365467000753	1521.775338999927	2020-01-03 17:52:04.985127	17.8406076274145	11.0475540152464	0.0	11.0475540152464	17.8406076274145	0.0	-17.8406076274145	11.0475540152464	0.0	17.8406076274145	0.0	21.7800493011789	5.432466339448382	6.179339246531311	1.7696272954136032	5.1103538962269095	9.081411988909553	1.7696272954136032	21.228920693338242	8.141752811885771	2.7092864724373884	4.890948595328015	3.058017946616901	3	correct	1.0
228.19928489997983	9.104555800091475	nogo_punish	0.3034446998499334	228.23814889998175	230.42408649995923	232.96304519986734	2.1859375999774784	229.24922270001844	231.93945299996994	236.00011210003868	1.1748637999407947	1.0235921998973936	1.3425926000345498	234.9879342999775	0.6779432001058012	233.96861919993535	2	1	27	1	nogo_punish	1	-1	0	0	1	0	0	0.0	1.0	-1	0.3034446998499334	0.6779432001058012	1293.5632720000576	1521.8014209000394	1522.812494700076	1523.9873585000169	1525.5027250000276	1526.526317199925	1527.531891199993	1528.5512063000351	1529.5633841000963	1530.9059767001309	2020-01-03 17:52:04.985127	4.71238093195744	0.0	-5.30328067281486	-5.30328067281486	-0.590899740857417	-5.30328067281486	-4.71238093195744	0.0	-5.30328067281486	-0.590899740857417	-5.30328067281486	-8.68275997869791	-7.695760356008678	-4.868214768715089	-3.5336533774012566	-11.24048079183435	-9.350095379362363	-3.5336533774012566	-9.233888586538567	-10.289754556386145	-2.5939942003774714	-6.156605419918384	-2.245262726197959	3	correct	1.0
237.32478079991415	8.168743600137532	go_reward	0.3421112999785691	237.36364479991607	238.91543060005642	241.45187680004165	1.551785800140351	238.3769862998745	240.44989340007328	244.50589679996483	0.5384443001819363	1.001983399968367	1.0264916000887752	243.49703800003044	0.3452571998350322	242.46821369999088	2	1	28	4	go_reward	0	0	1	1	1	1	1	1.0	1.0	0	0.3421112999785691	0.3452571998350322	1293.5632720000576	1530.9269167999737	1531.940258299932	1532.478702600114	1534.013165400131	1535.0151488000993	1536.0314857000485	1537.060310000088	1538.0691688000225	1539.0956604001112	2020-01-03 17:52:04.985127	37.0719474763426	24.6735555238292	0.0	24.6735555238292	37.0719474763426	0.0	-37.0719474763426	24.6735555238292	0.0	37.0719474763426	0.0	-24.6735555238292	24.663806188376483	19.805340755114113	1.7696272954136032	18.73635540480971	28.312751837837652	1.7696272954136032	-25.224684131669857	27.373092660813874	2.7092864724373884	18.516950103910816	3.058017946616901	3	correct	1.0
245.5159702000674	8.273291599936556	go_reward	0.3199016000144183	245.5548342000693	247.46451439987868	249.99714430002496	1.9096801998093724	246.5664047000464	248.98663539998233	253.06234409986087	0.8981096998322755	1.0105089000426233	0.7657817001449985	252.04801040003076	0.3564253998920321	251.01597649999894	2	1	29	4	go_reward	0	0	1	1	1	1	0	0.0	1.0	0	0.3199016000144183	0.3564253998920321	1293.5632720000576	1539.118106200127	1540.129676700104	1541.0277863999363	1542.54990740004	1543.5604163000826	1544.5792485000566	1545.6112824000884	1546.6256160999185	1547.3913978000635	2020-01-03 17:52:04.985127	15.4283892952098	9.40997628687345	0.0	9.40997628687345	15.4283892952098	0.0	-15.4283892952098	9.40997628687345	0.0	15.4283892952098	0.0	-9.40997628687345	3.0202480072436835	4.541761518158361	1.7696272954136032	3.4727761678539597	6.669193656704854	1.7696272954136032	-9.961104894714108	5.729534479681073	2.7092864724373884	3.2533708669550654	3.058017946616901	3	correct	1.0
253.81089129997395	8.242972200038139	go_reward	0.3902137000113725	253.84975529997587	255.1242732000535	257.6786058000289	1.274517900077626	254.84377779997885	256.65586309996434	260.7392170999665	0.280495400074642	1.0227427000645548	1.3535104000475258	259.7251287000254	0.6286436999216676	258.6918674998451	2	1	30	4	go_reward	1	1	0	1	1	1	1	1.0	1.0	1	0.3902137000113725	0.6286436999216676	1293.5632720000576	1547.4130273000335	1548.4070498000365	1548.6875452001111	1550.219135100022	1551.2418778000865	1552.2551394999027	1553.288400700083	1554.302489100024	1555.6559995000716	2020-01-03 17:52:04.985127	8.28019452538431	4.49727691367088	0.0	4.49727691367088	8.28019452538431	0.0	-8.28019452538431	4.49727691367088	0.0	8.28019452538431	0.0	28.330326402754416	-4.127946762581807	-0.3709378550442093	1.7696272954136032	-1.4399232053486104	-0.47900111312063665	1.7696272954136032	27.77919779491376	-1.4186602901444179	2.7092864724373884	-1.6593285062475047	3.058017946616901	3	correct	1.0
262.094985099975	7.958757299929857	nogo_reward	0.4336569001898169	262.13384909997694	263.6186752000358	266.16523779998533	1.4848261000588536	263.1500152000226	265.14381569996476	269.20147420000285	0.4686600000131875	1.0214221000205725	0.8911321999039501	268.18777700001374	0.3340896998997777	267.17436120007187	2	1	31	3	nogo_reward	1	0	1	0	1	0	0	0.0	1.0	0	0.4336569001898169	0.3340896998997777	1293.5632720000576	1555.6971211000346	1556.7132872000802	1557.1819472000934	1558.7070877000224	1559.728509800043	1560.7376332001295	1561.7510490000714	1562.7647462000605	1563.6558783999644	2020-01-03 17:52:04.985127	6.50520333152883	3.30112868303949	0.0	3.30112868303949	6.50520333152883	0.0	-6.50520333152883	3.30112868303949	0.0	6.50520333152883	0.0	-3.30112868303949	-5.902937956437287	-1.5670860856755988	1.7696272954136032	-2.63607143598	-2.2539923069761167	1.7696272954136032	-3.852257290880148	-3.193651483999898	2.7092864724373884	-2.8554767368788943	3.058017946616901	3	correct	1.0
270.07584779988974	8.754530900157988	go_reward	0.2477353999856859	270.11471179989167	271.7977721998468	274.34458489995427	1.6830603999551386	271.1268853000363	273.3298480999656	277.375661799917	0.6708868998105117	1.0147367999886683	1.493580900132656	276.36231009988114	0.4307289000134915	275.34984160005115	2	1	32	4	go_reward	1	1	0	1	1	1	1	1.0	1.0	1	0.2477353999856859	0.4307289000134915	1293.5632720000576	1563.6779837999493	1564.690157300094	1565.3610441999044	1566.8931201000232	1567.907856900012	1568.9131136001088	1569.9255820999388	1570.9389337999746	1572.4325147001073	2020-01-03 17:52:04.985127	33.1079613442409	21.9976320248431	0.0	21.9976320248431	33.1079613442409	0.0	-33.1079613442409	21.9976320248431	0.0	33.1079613442409	0.0	10.829971291582197	20.69982005627478	17.12941725612801	1.7696272954136032	16.06043190582361	24.34876570573595	1.7696272954136032	10.278842683741539	23.409106528712172	2.7092864724373884	15.841026604924714	3.058017946616901	3	correct	1.0
278.8544902000576	8.124191399896517	nogo_punish	0.3591865999624133	278.89335420005955	280.6752345999703	283.2305008000694	1.781880399910733	279.89467419986613	282.2068505999632	286.25753679987974	0.7805604001041502	1.0236502001062036	0.7600088000763208	285.25410020002164	0.6819558998104185	284.2355971999932	2	1	33	1	nogo_punish	1	-1	0	0	1	0	0	0.0	1.0	-1	0.3591865999624133	0.6819558998104185	1293.5632720000576	1572.4566262001172	1573.4579461999238	1574.238506600028	1575.7701226000208	1576.793772800127	1577.7988692000508	1578.8173722000793	1579.8208087999374	1580.5808176000137	2020-01-03 17:52:04.985127	-1.3840088942301	-5.30328067281486	-5.30328067281486	-7.06245870623182	-6.68728956704496	-5.30328067281486	1.3840088942301	-5.30328067281486	-5.30328067281486	-6.68728956704496	-5.30328067281486	-3.3794793058830495	-13.792150182196217	-10.171495441529949	-3.5336533774012566	-12.99965882525131	-15.446485205549907	-3.5336533774012566	-3.930607913723707	-16.38614438257369	-2.5939942003774714	-11.459886092733244	-2.245262726197959	3	correct	1.0
287.01940379990265	9.088662000140175	nogo_reward	0.2119531999342143	287.05826779990457	289.042505600024	291.600155999884	1.9842378001194447	288.0583281000145	290.57997059985087	294.6546759000048	0.9841775000095367	1.0201854000331423	1.492253900039941	293.646710800007	0.6671901999507099	292.618320700014	2	1	34	3	nogo_reward	1	0	1	0	1	0	0	1.0	0.0	0	0.2119531999342143	0.6671901999507099	1293.5632720000576	1580.6215397999622	1581.621600100072	1582.6057776000816	1584.1432425999085	1585.1634279999416	1586.1815927000716	1587.2099828000646	1588.2179479000624	1589.7102018001024	2020-01-03 17:52:04.985127	4.1876337080621	1.72805825343969	0.0	1.72805825343969	4.1876337080621	0.0	-4.1876337080621	1.72805825343969	0.0	4.1876337080621	0.0	-1.72805825343969	-8.220507579904018	-3.140156515275399	1.7696272954136032	-4.2091418655798005	-4.571561930442847	1.7696272954136032	-2.2791868612803476	-5.511221107466628	2.7092864724373884	-4.428547166478694	3.058017946616901	3	wrong	1.0
296.1480814998504	8.35430600005202	nogo_reward	0.3373251999728381	296.1869454998523	297.8531789998524	300.3965213999618	1.6662335000000894	297.1973238000646	299.3858151999302	303.431169499876	0.6558551997877657	1.0107062000315636	1.110082000028342	302.4180816998703	0.3060727000702172	301.4041311999315	2	1	35	3	nogo_reward	1	0	1	0	1	0	0	0.0	1.0	0	0.3373251999728381	0.3060727000702172	1293.5632720000576	1589.75021749991	1590.7605958001222	1591.41645099991	1592.9490871999878	1593.9597934000194	1594.9674031999891	1595.981353699928	1596.9944414999336	1598.104523499962	2020-01-03 17:52:04.985127	3.12234220710134	1.01188263008802	0.0	1.01188263008802	3.12234220710134	0.0	-3.12234220710134	1.01188263008802	0.0	3.12234220710134	0.0	-1.01188263008802	-9.285799080864777	-3.856332138627069	1.7696272954136032	-4.92531748893147	-5.6368534314036065	1.7696272954136032	-1.5630112379286776	-6.576512608427388	2.7092864724373884	-5.1447227898303645	3.058017946616901	3	correct	1.0
304.54403460002504	8.128341499949101	nogo_reward	0.2673390998970717	304.58289860002697	306.3622411999386	308.91275610006414	1.7793425999116153	305.59658610005886	307.892921899911	311.9472254998982	0.7656550998797229	1.0198342001531273	0.7640146000778714	310.93478529993445	0.4425659999251365	309.92201819992647	2	1	36	3	nogo_reward	1	0	1	0	1	0	1	1.0	1.0	0	0.2673390998970717	0.4425659999251365	1293.5632720000576	1598.1461706000846	1599.1598581001165	1599.9255131999962	1601.4561938999686	1602.4760281001218	1603.485290199984	1604.498057299992	1605.5104974999558	1606.2745121000337	2020-01-03 17:52:04.985127	2.56898461243132	0.641422532887141	0.0	0.641422532887141	2.56898461243132	0.0	-2.56898461243132	0.641422532887141	0.0	2.56898461243132	0.0	-0.641422532887141	-9.839156675534797	-4.226792235827948	1.7696272954136032	-5.295777586132349	-6.1902110260736265	1.7696272954136032	-1.1925511407277987	-7.129870203097408	2.7092864724373884	-5.515182887031243	3.058017946616901	3	correct	1.0
312.71193549991585	9.249861499992903	nogo_reward	0.2982932000886649	312.7507994999178	315.19718859996647	317.7393738999963	2.446389100048691	313.76244800002314	316.7279755999334	320.7877833000384	1.434740599943325	1.011398300062865	1.2128776998722515	319.777929399861	0.8100968999788165	318.75628999993205	2	1	37	3	nogo_reward	1	0	1	0	1	0	1	1.0	1.0	0	0.2982932000886649	0.8100968999788165	1293.5632720000576	1606.3140714999754	1607.3257200000808	1608.760460600024	1610.291247599991	1611.302645900054	1612.3195619999897	1613.3412013999186	1614.351055300096	1615.5639329999683	2020-01-03 17:52:04.985127	2.25373331573922	0.43046664702225	0.0	0.43046664702225	2.25373331573922	0.0	-2.25373331573922	0.43046664702225	0.0	2.25373331573922	0.0	-0.43046664702225	-10.154407972226897	-4.437748121692839	1.7696272954136032	-5.50673347199724	-6.505462322765727	1.7696272954136032	-0.9815952548629078	-7.445121499789508	2.7092864724373884	-5.726138772896134	3.058017946616901	3	correct	1.0
322.00201840000227	9.881617499981076	go_punish	1.0	322.0408824000042	325.0243985999839	327.56259529991075	2.9835161999797037	323.0587597999256	326.53957540006377	330.6034659999423	1.9656388000582865	1.023019899846986	1.3190339000429958	329.5842730998993	0.5993288999889046	328.57229699986055	2	1	38	2	go_punish	1	0	-1	1	0	0	0	0.0	1.0	-1	1.0	0.5993288999889046	1293.5632720000576	1615.6041544000618	1616.6220317999832	1618.5876706000415	1620.1028474001214	1621.1258672999684	1622.1355689999182	1623.147545099957	1624.166738	1625.485771900043	2020-01-03 17:52:04.985127	-5.51932394640176	-1.94441631913765	-7.06245870623182	-2.65881147302779	-1.54313475983006	-7.06245870623182	5.51932394640176	-7.06245870623182	-1.94441631913765	-7.06245870623182	-1.54313475983006	-1.6203012724660892	-17.927465234367876	-6.812631087852739	-5.292831410818216	-8.59601159204728	-10.302330398335007	-5.292831410818216	-2.171429880306747	-16.76131352176055	1.1661517126073284	-13.219064126150204	1.1136016274792508	3	correct	1.0
331.9071611999534	8.542842800030485	nogo_punish	1.0	331.94602519995533	333.5129366000183	336.03547620004974	1.5669114000629634	332.9512954999227	335.01488359994255	339.06655830005207	0.561641100095585	1.020592600107193	1.4223096999337486	338.0581693998538	0.6219275000039488	337.0435744000133	2	1	39	1	nogo_punish	1	-1	0	0	0	1	0	0.0	1.0	0	1.0	0.6219275000039488	1293.5632720000576	1625.509297200013	1626.5145674999803	1627.076208600076	1628.5781556000002	1629.5987482001074	1630.606846400071	1631.6214413999114	1632.6298303001097	1634.0521400000434	2020-01-03 17:52:04.985127	3.48297600357301	-7.06245870623182	-5.30328067281486	-7.78475439955827	-8.78625667638787	-5.30328067281486	-3.48297600357301	-5.30328067281486	-7.06245870623182	-5.30328067281486	-8.78625667638787	5.30328067281486	-8.925165284393106	-11.930673474946909	-3.5336533774012566	-13.72195451857776	-17.545452314892817	-3.5336533774012566	4.752152064974202	-15.002135488343587	-6.076970203950482	-11.459886092733244	-4.004440759614919	3	correct	1.0
340.49390090000816	9.283933300059289	nogo_reward	0.2428416998591274	340.5327649000101	342.8197709999513	345.36750050005526	2.287006099941209	341.53893169993535	344.3565666999202	348.4114774998743	1.2808393000159413	1.0109338001350352	1.4052207001950592	347.39872529986314	0.4102685998659581	346.3862989000045	2	1	40	3	nogo_reward	1	0	1	0	1	0	0	0.0	1.0	0	0.2428416998591274	0.4102685998659581	1293.5632720000576	1634.0960369000677	1635.102203699993	1636.383043000009	1637.9198386999778	1638.9307725001129	1639.949570900062	1640.9619972999208	1641.974749499932	1643.379970200127	2020-01-03 17:52:04.985127	2.06109426446506	0.301310750798581	0.0	0.301310750798581	2.06109426446506	0.0	-2.06109426446506	0.301310750798581	0.0	2.06109426446506	0.0	-0.301310750798581	-10.347047023501057	-4.566904017916508	1.7696272954136032	-5.6358893682209095	-6.6981013740398865	1.7696272954136032	-0.8524393586392387	-7.637760551063668	2.7092864724373884	-5.855294669119804	3.058017946616901	3	correct	1.0
349.8000963998493	9.566749200224876	go_reward	0.2446078001521527	349.8389603998512	352.5759407998994	355.0969726999756	2.7369804000481963	350.8430149999913	354.0973171000369	358.16156719997525	1.7329257999081165	0.9996555999387056	1.2441424001008272	357.14728649985045	0.7017146998550743	356.1188804998528	2	1	41	4	go_reward	1	1	0	1	1	1	0	0.0	1.0	1	0.2446078001521527	0.7017146998550743	1293.5632720000576	1643.4022323999088	1644.406287000049	1646.139212799957	1647.6605891000945	1648.6602447000332	1649.6821524999104	1650.710558499908	1651.7248392000329	1652.9689816001337	2020-01-03 17:52:04.985127	41.3148142938658	27.6405296444473	0.0	27.6405296444473	41.3148142938658	0.0	-41.3148142938658	27.6405296444473	0.0	41.3148142938658	0.0	5.187073671977995	28.906673005899684	22.772314875732214	1.7696272954136032	21.70332952542781	32.55561865536085	1.7696272954136032	4.635945064137337	31.615959478337075	2.7092864724373884	21.483924224528916	3.058017946616901	3	correct	1.0
359.39196889987215	8.40105830016546	nogo_punish	0.5653476000297815	359.4308328998741	360.8421781999059	363.3966870000586	1.411345300031826	360.4352625000756	362.3737089999486	366.4409165000543	0.40691569983027875	1.0229780001100153	1.390974699985236	365.42811429989524	0.7553385000210255	364.41029309993587	2	1	42	1	nogo_punish	1	-1	0	0	1	0	0	0.0	1.0	-1	0.5653476000297815	0.7553385000210255	1293.5632720000576	1652.9941048999317	1653.9985345001332	1654.4054501999635	1655.9369810000062	1656.9599590001162	1657.9735650999935	1658.9913862999529	1660.004188500112	1661.3951632000972	2020-01-03 17:52:04.985127	-4.9827826977458	-7.06245870623182	-1.75917803341696	-2.82672852760383	-6.74196073116276	-1.75917803341696	4.9827826977458	-7.06245870623182	-1.75917803341696	-6.74196073116276	-1.75917803341696	-1.6203012724660892	-17.390923985711918	-11.930673474946909	0.0104492619966432	-8.76392864662332	-15.501156369667708	0.0104492619966432	-2.171429880306747	-16.44081554669149	0.9501084390204284	-13.219064126150204	1.2988399131999409	3	correct	1.0
367.8142295998987	8.6979479000438	go_reward	0.2678628999274224	367.8530935999006	369.5525777998846	372.1131390000228	1.6994841999839991	368.8661297999788	371.089883599896	375.1504593999123	0.6864479999057949	1.0232554001268	1.4005821000321248	374.14586280006915	0.3895948000717908	373.12749679991975	2	1	43	4	go_reward	1	1	0	1	1	1	1	1.0	1.0	1	0.2678628999274224	0.3895948000717908	1293.5632720000576	1661.4163655999582	1662.4294018000364	1663.1158497999422	1664.6531555999536	1665.6764110000804	1666.6907687999774	1667.7091348001268	1668.71373139997	1670.114313500002	2020-01-03 17:52:04.985127	44.6955879115531	29.930901681609	0.0	29.930901681609	44.6955879115531	0.0	-44.6955879115531	29.930901681609	0.0	44.6955879115531	0.0	2.8967016348162957	32.28744662358698	25.062686912893913	1.7696272954136032	23.99370156258951	35.93639227304815	1.7696272954136032	2.345573026975638	34.99673309602437	2.7092864724373884	23.774296261690615	3.058017946616901	3	correct	1.0
376.554373400053	7.956973799970001	nogo_reward	0.3667787001468241	376.59323740005493	377.96077360003255	380.5025537000038	1.3675361999776214	377.6012242999859	379.49104200000875	383.54165280004963	0.35954930004663765	1.011511699995026	1.0085583999752998	382.5385226998478	0.3771882001310587	381.51245080004446	2	1	44	3	nogo_reward	1	0	1	0	1	0	0	0.0	1.0	0	0.3667787001468241	0.3771882001310587	1293.5632720000576	1670.1565094001126	1671.1644963000435	1671.5240456000902	1673.0543140000664	1674.0658257000614	1675.075722800102	1676.1017946999054	1677.1049248001073	1678.1134832000826	2020-01-03 17:52:04.985127	1.93689902580094	0.217764103842077	0.0	0.217764103842077	1.93689902580094	0.0	-1.93689902580094	0.217764103842077	0.0	1.93689902580094	0.0	-0.217764103842077	-10.471242262165177	-4.650450664873012	1.7696272954136032	-5.719436015177413	-6.822296612704006	1.7696272954136032	-0.7688927116827348	-7.7619557897277875	2.7092864724373884	-5.938841316076307	3.058017946616901	3	correct	1.0
384.5508614999708	9.587218699976802	nogo_reward	0.2491728998720646	384.5897254999727	387.35647380002774	389.88883890002035	2.766748300055042	385.5914189000614	388.8802185000386	392.9435489999596	1.7650548999663442	1.0086203999817371	1.2333951999899	391.9364618998952	0.43769589997828	390.90790240000933	2	1	45	3	nogo_reward	1	0	1	0	1	0	0	1.0	0.0	0	0.2491728998720646	0.43769589997828	1293.5632720000576	1678.1529975000303	1679.154690900119	1680.9197458000854	1682.4434905000962	1683.452110900078	1684.471174400067	1685.4997338999528	1686.5068210000172	1687.7402162000071	2020-01-03 17:52:04.985127	1.85343325616355	0.161383827345336	0.0	0.161383827345336	1.85343325616355	0.0	-1.85343325616355	0.161383827345336	0.0	1.85343325616355	0.0	-0.161383827345336	-10.554708031802567	-4.706830941369753	1.7696272954136032	-5.775816291674154	-6.905762382341397	1.7696272954136032	-0.7125124351859937	-7.845421559365178	2.7092864724373884	-5.995221592573048	3.058017946616901	3	wrong	1.0
394.18076959997416	7.994773099897429	nogo_reward	0.4483727000188082	394.2196335999761	395.7190628999381	398.24681419995613	1.499429299962003	395.2192839998752	397.24145539989695	401.28246139991097	0.4997789000628927	1.0053588000591844	0.9319452999625355	400.27011659997515	0.7255700000096112	399.25209269998595	2	1	46	3	nogo_reward	1	0	1	0	1	0	1	1.0	1.0	0	0.4483727000188082	0.7255700000096112	1293.5632720000576	1687.7829056000337	1688.7825559999328	1689.2823348999957	1690.8047273999546	1691.8100862000138	1692.8153647000436	1693.8333886000328	1694.8457333999686	1695.7776786999311	2020-01-03 17:52:04.985127	1.79546832806412	0.122052108119555	0.0	0.122052108119555	1.79546832806412	0.0	-1.79546832806412	0.122052108119555	0.0	1.79546832806412	0.0	-0.122052108119555	-10.612672959901998	-4.746162660595534	1.7696272954136032	-5.815148010899935	-6.963727310440827	1.7696272954136032	-0.6731807159602128	-7.9033864874646085	2.7092864724373884	-6.034553311798829	3.058017946616901	3	correct	1.0
402.1990530998444	8.039361700183008	nogo_punish	0.6546720999758691	402.2379170998463	403.5760232000612	406.09549249988027	1.3381061002148726	403.2486689998768	405.08640899998136	409.1363096998539	0.32735420018434525	1.0090834998989067	1.1409691001754254	408.1303942999805	0.8301213998347521	407.1105678000022	2	1	47	1	nogo_punish	1	-1	0	0	1	0	0	0.0	1.0	-1	0.6546720999758691	0.8301213998347521	1293.5632720000576	1695.801189099904	1696.8119409999344	1697.1392952001188	1698.649681000039	1699.658764499938	1700.6738398000598	1701.693666300038	1702.6995816999115	1703.840550800087	2020-01-03 17:52:04.985127	-7.21142987933497	-7.78475439955827	-1.75917803341696	-6.55606945272242	-8.97060791275192	-1.75917803341696	7.21142987933497	-7.78475439955827	-1.75917803341696	-8.97060791275192	-1.75917803341696	-0.8980055791396389	-19.61957116730109	-12.652969168273358	0.0104492619966432	-12.49326957174191	-17.729803551256865	0.0104492619966432	-1.4491341869802965	-18.66946272828065	0.9501084390204284	-13.941359819476656	1.2988399131999409	3	correct	1.0
410.27769079990685	7.915272400015965	go_punish	0.8463105000555515	410.3165547999088	411.65458650002256	414.2147301000077	1.3380317001137882	411.32709169993177	413.1862393999472	417.2627389999109	0.3274948000907898	1.0284907000605017	0.9690882000138572	416.25182949984446	0.7977136999834329	415.2208992000667	2	1	48	2	go_punish	0	-1	0	1	1	1	0	0.0	1.0	-1	0.8463105000555515	0.7977136999834329	1293.5632720000576	1703.8798267999664	1704.8903636999894	1705.2178585000802	1706.7495114000048	1707.7780021000654	1708.7841712001243	1709.815101499902	1710.8260109999685	1711.7950991999824	2020-01-03 17:52:04.985127	4.6897728077612	-1.94441631913765	-7.78475439955827	-6.48512405058986	-3.09498159179707	-7.78475439955827	-4.6897728077612	-1.94441631913765	-7.78475439955827	-3.09498159179707	-7.78475439955827	-6.738343659560259	-7.7183684802049175	-6.812631087852739	-6.015127104144668	-12.42232416960935	-11.854177230302017	-6.015127104144668	-7.289472267400917	-12.793836407325799	-5.075467927120882	-8.101021739056034	-4.72673645294137	3	correct	1.0
418.2337764999829	8.623778499895707	nogo_reward	0.2610814000945538	418.27264049998485	420.1314896000547	422.6841010998469	1.8588491000698468	419.2832138999363	421.6634354998823	425.7394552999176	0.8482757001183927	1.020665599964559	1.1569636999629438	424.7229619999416	0.3616361001040786	423.7020336999558	2	1	49	3	nogo_reward	1	0	1	0	1	0	0	0.0	1.0	0	0.2610814000945538	0.3616361001040786	1293.5632720000576	1711.8359125000425	1712.846485899994	1713.6947616001123	1715.22670749994	1716.2473730999045	1717.2653057000134	1718.2862339999992	1719.3027272999752	1720.4596909999382	2020-01-03 17:52:04.985127	1.75413254706805	0.0938735637936044	0.0	0.0938735637936044	1.75413254706805	0.0	-1.75413254706805	0.0938735637936044	0.0	1.75413254706805	0.0	-0.0938735637936044	-10.654008740898067	-4.774341204921485	1.7696272954136032	-5.843326555225886	-7.005063091436897	1.7696272954136032	-0.6450021716342622	-7.944722268460678	2.7092864724373884	-6.06273185612478	3.058017946616901	3	correct	1.0
426.89852149994135	8.696655600098666	nogo_reward	0.4885361001361161	426.9373854999433	428.6039468999952	431.1133580999449	1.6665614000519327	427.9478231999092	430.1080485999121	434.1588289998472	0.6561237000860274	1.0053095000328085	1.4752121001947671	433.14606130006723	0.3640072999987751	432.1216424999293	2	1	50	3	nogo_reward	1	0	1	0	1	0	0	0.0	1.0	0	0.4885361001361161	0.3640072999987751	1293.5632720000576	1720.500657500001	1721.5110951999668	1722.1672189000528	1723.6713205999697	1724.6766301000025	1725.684914499987	1726.7093333001249	1727.7221009999048	1729.1973131000996	2020-01-03 17:52:04.985127	1.72400413627954	0.0732399954503511	0.0	0.0732399954503511	1.72400413627954	0.0	-1.72400413627954	0.0732399954503511	0.0	1.72400413627954	0.0	-0.0732399954503511	-10.684137151686578	-4.794974773264737	1.7696272954136032	-5.8639601235691385	-7.035191502225407	1.7696272954136032	-0.6243686032910089	-7.9748506792491884	2.7092864724373884	-6.083365424468033	3.058017946616901	3	correct	1.0
435.6189174000174	7.7771073000039905	nogo_punish	1.0	435.6577814000193	437.00166120007634	439.4901282999199	1.3438798000570387	436.66828919993713	438.494754599873	442.51837769988924	0.33337200013920665	0.9953737000469118	0.9165110001340508	441.5117905999068	0.3991737000178545	440.4993825000711	2	1	51	1	nogo_punish	1	-1	0	0	0	1	0	0.0	1.0	0	1.0	0.3991737000178545	1293.5632720000576	1729.221053400077	1730.2315611999948	1730.564933200134	1732.0580265999306	1733.0534002999775	1734.0626545001287	1735.0750625999644	1736.0816496999469	1736.998160700081	2020-01-03 17:52:04.985127	8.06230891767792	-8.13000920041869	-1.75917803341696	-7.70171984205413	-9.82148695109488	-1.75917803341696	-8.06230891767792	-1.75917803341696	-8.13000920041869	-1.75917803341696	-9.82148695109488	1.75917803341696	-4.345832370288198	-12.998223969133779	0.0104492619966432	-13.63891996107362	-18.580682589599824	0.0104492619966432	1.2080494255763021	-11.458032848945688	-7.112200478657491	-7.915783453335345	-5.07199125380179	3	correct	1.0
443.42045450001024	9.357608499936532	nogo_punish	1.0	443.45931850001216	445.7934154998511	448.318168199854	2.3340969998389482	444.458796299994	447.30965279997326	451.36981890001334	1.3346191998571157	1.0085153998807073	1.447108099935349	450.35683010006323	0.3607938000932336	449.33684209990315	2	1	52	1	nogo_punish	1	-1	0	0	0	1	0	0.0	1.0	0	1.0	0.3607938000932336	1293.5632720000576	1737.0225905000698	1738.0220683000516	1739.3566874999087	1740.872924800031	1741.8814401999116	1742.9001140999608	1743.9201021001209	1744.933090900071	1746.3801990000063	2020-01-03 17:52:04.985127	7.09585826350215	-8.13000920041869	-0.722295693326449	-2.84404975874848	-7.8181539568286	-0.722295693326449	-7.09585826350215	-0.722295693326449	-8.13000920041869	-0.722295693326449	-7.8181539568286	0.722295693326449	-5.312283024463968	-12.998223969133779	1.0473316020871541	-8.78124987776797	-16.577349595333548	1.0473316020871541	0.1711670854857913	-10.421150508855177	-5.108867484391212	-6.878901113244833	-5.07199125380179	3	correct	1.0
452.8018928999081	8.661608499940485	nogo_punish	1.0	452.84075689991005	454.9047218000053	457.4293875999283	2.063964900095243	453.8512436999008	456.40961669990793	460.477138399845	1.0534781001044848	1.0197709000203758	1.0252270000055432	459.4724856999235	0.3836901001632213	458.4449263999704	2	1	53	1	nogo_punish	1	-1	0	0	0	1	1	1.0	1.0	0	1.0	0.3836901001632213	1293.5632720000576	1746.4040288999677	1747.4145156999584	1748.467993800063	1749.9728886999656	1750.992659599986	1752.008198400028	1753.035757699981	1754.0404103999026	1755.0656373999082	2020-01-03 17:52:04.985127	6.7775895063356	-8.13000920041869	-0.34525480086042	-1.29061142701621	-7.12284430719602	-0.34525480086042	-6.7775895063356	-0.34525480086042	-8.13000920041869	-0.34525480086042	-7.12284430719602	0.34525480086042	-5.630551781630517	-12.998223969133779	1.4243724945531833	-7.2278115460357	-15.882039945700967	1.4243724945531833	-0.20587380698023777	-10.044109616389148	-4.413557834758632	-6.501860220778805	-5.07199125380179	3	correct	1.0
461.50457690004237	9.71367919980571	go_punish	1.0	461.5434409000443	464.31828660005726	466.8574035000056	2.7748457000129747	462.55229080002755	465.83420539996587	469.9136789999902	1.7659958000297138	1.0231981000397354	1.3434410998597741	468.90042319986946	0.5136926001869142	467.8718407999261	2	1	54	2	go_punish	1	0	-1	1	0	0	0	0.0	1.0	-1	1.0	0.5136926001869142	1293.5632720000576	1755.106712900102	1756.1155628000852	1757.8815586001149	1759.3974774000235	1760.4206755000632	1761.4351127999837	1762.463695199927	1763.4769510000478	1764.8203920999076	2020-01-03 17:52:04.985127	0.0250132800754747	-6.13434441538251	-7.78475439955827	-7.67055053070408	-7.80976767963374	-7.78475439955827	-0.0250132800754747	-7.78475439955827	-6.13434441538251	-7.78475439955827	-7.80976767963374	-0.8980055791396389	-12.383128007890642	-11.0025591840976	-6.015127104144668	-13.60775064972357	-16.568963318138685	-6.015127104144668	-1.4491341869802965	-17.483609215087	-5.100481207196352	-13.941359819476656	-3.0763264687656093	3	correct	1.0
471.24004890001356	9.43032439984404	go_reward	0.2928103001322597	471.2789129000155	473.82664189999923	476.3786726000253	2.5477289999837467	472.285396900028	475.3713583999779	479.4271595000755	1.5412449999712408	1.0073142000474036	1.2820777997840196	478.41277879988775	0.4066115999594331	477.39393040002324	2	1	55	4	go_reward	1	1	0	1	1	1	0	0.0	1.0	1	0.2928103001322597	0.4066115999594331	1293.5632720000576	1764.842184900073	1765.8486689000856	1767.3899139000569	1768.9346304000355	1769.941944600083	1770.9572024000809	1771.9760507999454	1772.9904315001331	1774.2725092999171	2020-01-03 17:52:04.985127	46.329583049158	31.0298792855566	0.0	31.0298792855566	46.329583049158	0.0	-46.329583049158	31.0298792855566	0.0	46.329583049158	0.0	1.7977240308686966	33.921441761191886	26.161664516841512	1.7696272954136032	25.09267916653711	37.570387410653055	1.7696272954136032	1.246595423028039	36.63072823362928	2.7092864724373884	24.873273865638215	3.058017946616901	3	correct	1.0
480.69834670005366	9.11563209979795	nogo_punish	1.0	480.7372107000556	483.2201137000227	485.7367769998964	2.4829029999671093	481.7434447000269	484.7258069999516	488.79622499994	1.476668999995809	1.0109699999447912	1.0566177999135107	487.7831445999907	0.3114753998816013	486.7541638000405	2	1	56	1	nogo_punish	1	-1	0	0	0	1	0	0.0	1.0	0	1.0	0.3114753998816013	1293.5632720000576	1774.3004827001132	1775.3067167000845	1776.7833857000803	1778.2890790000092	1779.300048999954	1780.317435800098	1781.3464166000483	1782.3594969999976	1783.4161147999112	2020-01-03 17:52:04.985127	6.64970133607709	-8.13000920041869	-0.185238285720689	-0.676661521515435	-6.83493962179778	-0.185238285720689	-6.64970133607709	-0.185238285720689	-8.13000920041869	-0.185238285720689	-6.83493962179778	0.185238285720689	-5.758439951889027	-12.998223969133779	1.5843890096929143	-6.613861640534925	-15.594135260302727	1.5843890096929143	-0.36589032211996875	-9.884093101249418	-4.125653149360391	-6.341843705639073	-5.07199125380179	3	correct	1.0
489.8542824999895	8.574700400000665	go_punish	1.0	489.8931464999914	491.69048299989686	494.227845299989	1.797336499905441	490.9083121998699	493.20481069991365	497.2646778000053	0.7821708000269609	1.0230346000753343	1.2031690999867806	496.2519709998742	0.6526180000510067	495.23803819995373	2	1	57	2	go_punish	1	0	-1	1	0	0	0	0.0	1.0	-1	1.0	0.6526180000510067	1293.5632720000576	1783.456418500049	1784.4715841999275	1785.2537549999545	1786.7680826999713	1787.7911173000466	1788.8013102000114	1789.8152429999318	1790.827949800063	1792.0311189000497	2020-01-03 17:52:04.985127	-0.104868693812802	-6.13434441538251	-8.13000920041869	-8.13366080521602	-8.02514050660588	-8.13000920041869	0.104868693812802	-8.13000920041869	-6.13434441538251	-8.13000920041869	-8.02514050660588	-0.5527507782792185	-12.51300998177892	-11.0025591840976	-6.360381905005088	-14.070860924235511	-16.784336145110828	-6.360381905005088	-1.1038793861198761	-17.828864015947417	-5.315854034168491	-14.286614620337076	-3.0763264687656093	3	correct	1.0
498.4585641999729	8.826084699947387	nogo_punish	1.0	498.4974281999748	500.32541719987057	502.8563152998686	1.8279889998957515	499.5075145000592	501.8414234998636	505.93014579988085	0.8179026998113841	1.014891800004989	1.3933671000413597	504.9110888999419	0.3920919999945909	503.876467499882	2	1	58	1	nogo_punish	0	0	-1	0	0	1	1	1.0	1.0	-1	1.0	0.3920919999945909	1293.5632720000576	1792.0607002000324	1793.0707865001168	1793.8886891999282	1795.4046954999212	1796.4195872999262	1797.4397394999396	1798.4743608999995	1799.4934177999385	1800.8867848999798	2020-01-03 17:52:04.985127	6.59059212594914	-8.13000920041869	-0.108768049241205	-0.394629592202718	-6.69936017519035	-0.108768049241205	-6.59059212594914	-0.108768049241205	-8.13000920041869	-0.108768049241205	-6.69936017519035	-8.573991929456705	-5.817549162016977	-12.998223969133779	1.660859246172398	-6.331829711222208	-15.458555813695297	1.660859246172398	-9.125120537297363	-9.807622864769932	-3.9900737027529614	-6.26537346915959	-5.07199125380179	3	correct	1.0
507.3095281999558	8.790756799979135	nogo_punish	1.0	507.34839219995774	509.1822919000408	511.70795529987686	1.833899700083066	508.35768490005285	510.6873010999989	514.7481350998864	0.8246069999879637	1.0206541998779812	1.3910139000504387	513.743439099984	0.5992723999079317	512.7253151000475	2	1	59	1	nogo_punish	1	-1	0	0	0	1	0	0.0	1.0	0	1.0	0.5992723999079317	1293.5632720000576	1800.9116642000154	1801.9209569001105	1802.7455639000984	1804.2505731000565	1805.2712272999345	1806.2885871001051	1807.3067111000416	1808.311407099944	1809.7024209999945	2020-01-03 17:52:04.985127	3.46697770375395	-8.13000920041869	-5.37185036985803	-5.55263215966368	-8.83882807361198	-5.37185036985803	-3.46697770375395	-5.37185036985803	-8.13000920041869	-5.37185036985803	-8.83882807361198	5.37185036985803	-8.941163584212166	-12.998223969133779	-3.6022230744444266	-11.48983227868317	-17.598023712116927	-3.6022230744444266	4.820721762017372	-15.070705185386757	-6.129541601174592	-11.528455789776414	-5.07199125380179	3	correct	1.0
516.1232624999247	8.199771699961275	go_reward	0.4743377000559121	516.1621264999267	517.5322893999985	520.0727528000712	1.3701629000718185	517.1735777999274	519.0481360999399	523.1335115998515	0.35871160007104663	1.0246167001312187	1.2283866000364014	522.1202417998575	0.3702610000036657	521.0914320000447	2	1	60	4	go_reward	1	1	0	1	1	1	0	0.0	1.0	1	0.4743377000559121	0.3702610000036657	1293.5632720000576	1809.7253984999843	1810.736849799985	1811.095561400056	1812.6114080999976	1813.6360248001288	1814.6547040001024	1815.683513799915	1816.6967835999092	1817.9251701999456	2020-01-03 17:52:04.985127	47.2190396071472	31.6269470127508	0.0	31.6269470127508	47.2190396071472	0.0	-47.2190396071472	31.6269470127508	0.0	47.2190396071472	0.0	1.2006563036744957	34.810898319181085	26.758732244035713	1.7696272954136032	25.68974689373131	38.459843968642254	1.7696272954136032	0.649527695833838	37.520184791618476	2.7092864724373884	25.470341592832416	3.058017946616901	3	correct	1.0
