onset	duration	trial_type	response_time	cueOnset	targetOnset	fbOnset	cueRT	firstfixOnset	secondfixOnset	waitOnset	firstfixdur	secondfixdur	waitdur	nback_fbOnset	nback_response_time	nback_targetOnset	block	wm	trial	cue	cond	is_common	outcome_go	outcome_nogo	key_correct	key_pressed	is_correct	key_correct_nback	key_pressed_nback	is_correct_nback	outcome	rt	rt_nback	time_scan	time_onset	time_isi1	time_circle	time_isi2	time_feedback	time_same	time_correct	time_iti	time_done	timestamp_scan	DV	Qgo	Qnogo	SV	Wgo	Wnogo	mDV	Qchosen	Qunchosen	Wchosen	Wunchosen	PE	DVC	QgoC	QnogoC	SVC	WgoC	WnogoC	PEC	WchosenC	WunchosenC	QchosenC	QunchosenC	run	outcome_nback	nback_targetResp
0.0	8.608507900033146	go_reward	0.4815513000357896	0.008838600013859832	2.0577595001093414	4.599665200105392	2.0489209000954816	1.0106852999892908	3.5938593000178116	7.654562100070052	1.0470742001200506	1.00580590008758	0.9627843999769539	6.645447199931823	0.6861283001489937	5.620059899986472	2	1	61	4	go_reward	1	1	0	1	1	1	0	0.0	1.0	1	0.4815513000357896	0.6861283001489937	1885.029707100009	1885.038545700023	1886.0403923999984	1887.0874666001184	1888.623566400027	1889.6293723001145	1890.6497669999956	1891.675154299941	1892.6842692000791	1893.647053600056	2020-01-03 18:01:56.451300	47.7483096861273	31.9827731146449	0.0	31.9827731146449	47.7483096861273	0.0	-47.7483096861273	31.9827731146449	0.0	47.7483096861273	0.0	0.8448302017803968	35.34016839816118	27.11455834592981	1.7696272954136032	26.04557299562541	38.98911404762235	1.7696272954136032	0.29370159393973905	38.049454870598574	2.7092864724373884	25.826167694726514	3.058017946616901	4	correct	1.0
8.649477999889768	9.647358600050893	go_punish	1.0	8.658316599903628	11.437035100069352	13.952081100084115	2.7787185001657235	9.673157799989212	12.938514600042936	16.983381700003974	1.7638773000801393	1.013566500041179	1.322293499950547	15.970255200053316	0.5674545001238585	14.95684759994083	2	1	62	2	go_punish	1	0	-1	1	0	0	0	0.0	1.0	-1	1.0	0.5674545001238585	1885.029707100009	1893.6880236999127	1894.7028648999983	1896.4667422000784	1897.968221700052	1898.9817882000932	1899.98655469995	1900.9999623000624	1902.013088800013	1903.3353822999636	2020-01-03 18:01:56.451300	-0.188209822418176	-6.13434441538251	-8.31524748613938	-8.34748513592132	-8.1270376637212	-8.31524748613938	0.188209822418176	-8.31524748613938	-6.13434441538251	-8.31524748613938	-8.1270376637212	-0.3675124925585287	-12.596351110384294	-11.0025591840976	-6.545620190725778	-14.28468525494081	-16.886233302226145	-6.545620190725778	-0.9186411003991864	-18.01410230166811	-5.417751191283812	-14.471852906057766	-3.0763264687656093	4	correct	1.0
18.321547500090674	8.366725599858682	nogo_punish	1.0	18.330386100104533	19.880590500077687	22.40080490009882	1.550204399973154	19.33008589991414	21.387124999892194	25.453060100088123	0.5505046001635492	1.0136799002066255	1.2440515998750925	24.434162100078993	0.585134900175035	23.407057299977623	2	1	63	1	nogo_punish	0	0	-1	0	0	1	0	0.0	1.0	-1	1.0	0.585134900175035	1885.029707100009	1903.3600932001136	1904.3597929999232	1904.9102976000868	1906.4168320999013	1907.430512000108	1908.4367643999867	1909.463869200088	1910.4827672000972	1911.7268187999723	2020-01-03 18:01:56.451300	5.57720016513406	-8.13000920041869	-1.80490121996192	-1.92662971604694	-7.38210138509598	-1.80490121996192	-5.57720016513406	-1.80490121996192	-8.13000920041869	-1.80490121996192	-7.38210138509598	-6.877858758735989	-6.830941122832058	-12.998223969133779	-0.035273924548316904	-7.86382983506643	-16.141297023600927	-0.035273924548316904	-7.4289873665766475	-11.503756035490648	-4.672814912658591	-7.961506639880304	-5.07199125380179	4	correct	1.0
26.715350199956674	7.800556800095137	go_reward	0.5188303999602795	26.724188799970534	28.0192382000389	30.54907430009962	1.2950494000683648	27.739366899943207	29.539876200026583	33.572286499897245	0.2798713000956923	1.0091981000730357	0.9524591001684257	32.568088300060936	0.6196252999361604	31.554680499946926	2	1	64	4	go_reward	1	1	0	1	1	1	0	0.0	1.0	1	0.5188303999602795	0.6196252999361604	1885.029707100009	1911.7538958999796	1912.7690739999523	1913.048945300048	1914.5695833000357	1915.5787814001087	1916.584387599956	1917.59779540007	1918.6019935999063	1919.5544527000748	2020-01-03 18:01:56.451300	48.0850668494066	32.2099832535186	0.0	32.2099832535186	48.0850668494066	0.0	-48.0850668494066	32.2099832535186	0.0	48.0850668494066	0.0	0.6176200629066955	35.676925561440484	27.341768484803513	1.7696272954136032	26.27278313449911	39.32587121090165	1.7696272954136032	0.06649145506603771	38.386212033877875	2.7092864724373884	26.053377833600216	3.058017946616901	4	correct	1.0
34.54003189993068	8.816551600117464	nogo_punish	0.2352285999804735	34.54887049994454	36.531228299951636	39.09060949995205	1.9823578000070938	35.56007650005654	38.06763900001579	42.11594699998409	0.9711517998950967	1.0229704999362639	1.249475100077916	41.10492440010444	1.0	40.09732070006453	2	1	65	1	nogo_punish	1	-1	0	0	1	0	1	n/a	0.0	0	0.2352285999804735	1.0	1885.029707100009	1919.5785775999536	1920.5897836000656	1921.5609353999607	1923.0973461000249	1924.1203165999611	1925.1270278000736	1926.1346315001135	1927.1456540999932	1928.395129200071	2020-01-03 18:01:56.451300	-3.05739647928849	-8.13000920041869	-6.0574519174875	-6.14340909224733	-9.11484839677599	-6.0574519174875	3.05739647928849	-8.13000920041869	-6.0574519174875	-9.11484839677599	-6.0574519174875	-0.5527507782792185	-15.465537767254608	-12.998223969133779	-4.287824622073897	-12.08060921126682	-17.87404403528094	-4.287824622073897	-1.1038793861198761	-18.813703212304716	-3.3481654450501113	-14.286614620337076	-2.999433970870599	4	missed	0.0
43.381885000038665	8.158740599872772	nogo_punish	0.362292599864304	43.390723600052524	44.716751199914825	47.27289419993804	1.3260275998623001	44.40059050009609	46.249484899919935	50.304033200023696	0.31616069981873807	1.023409300018102	1.2454309999016004	49.300521499943216	0.6640669000335038	48.28825429990002	2	1	66	1	nogo_punish	1	-1	0	0	1	0	0	0.0	1.0	-1	0.362292599864304	0.6640669000335038	1885.029707100009	1928.4204307000616	1929.4302976001052	1929.746458299924	1931.279191999929	1932.3026012999471	1933.317961399909	1934.3302285999523	1935.3337403000328	1936.5791712999344	2020-01-03 18:01:56.451300	3.66684897669055	-3.01196681332452	-6.0574519174875	-2.19041542379082	-2.39060294079695	-6.0574519174875	-3.66684897669055	-3.01196681332452	-6.0574519174875	-2.39060294079695	-6.0574519174875	-5.670793165373389	-8.741292311275567	-7.880181582039609	-4.287824622073897	-8.127615542810311	-11.149798579301898	-4.287824622073897	-6.2219217732140475	-12.089457756325679	-3.3481654450501113	-9.168572233242905	-2.999433970870599	4	correct	1.0
51.56468280008994	8.601712999865413	nogo_punish	0.4185893998946994	51.5735214001038	53.368719599908445	55.93079539993846	1.795198199804645	52.58387609990382	54.907763499999874	58.98720440012448	0.7848435000046265	1.0230318999385872	1.18802999984473	57.9715938000013	0.833707100013271	56.945592799922906	2	1	67	1	nogo_punish	1	-1	0	0	1	0	1	1.0	1.0	-1	0.4185893998946994	0.833707100013271	1885.029707100009	1936.603228500113	1937.613583199913	1938.3984266999175	1939.937470600009	1940.9605024999476	1941.975299899932	1943.0013009000104	1944.0169115001336	1945.2049414999783	2020-01-03 18:01:56.451300	-1.65631327458545	-6.66483750196362	-6.0574519174875	-6.27537922957361	-7.71376519207295	-6.0574519174875	1.65631327458545	-6.66483750196362	-6.0574519174875	-7.71376519207295	-6.0574519174875	-2.017922476734289	-14.064454562551568	-11.53305227067871	-4.287824622073897	-12.2125793485931	-16.472960830577897	-4.287824622073897	-2.5690510845749466	-17.412620007601678	-3.3481654450501113	-12.821442921882005	-2.999433970870599	4	correct	1.0
60.20941410004184	8.673545500030741	nogo_reward	0.22521339985542	60.2182527000557	61.88010829989844	64.38882920006336	1.6618555998427382	61.225131100043654	63.385679800063826	67.43762500002094	0.654977199854784	1.0031493999995291	1.4541732000654974	66.42093220003926	1.0	65.41332129994453	2	1	68	3	nogo_reward	1	0	1	0	1	0	0	n/a	0.0	1	0.22521339985542	1.0	1885.029707100009	1945.2479598000648	1946.2548382000527	1946.9098153999075	1948.415386900073	1949.4185363000724	1950.4430283999536	1951.4506393000484	1952.46733210003	1953.9215053000955	2020-01-03 18:01:56.451300	1.70163674072433	0.0578523683444345	0.0	0.0578523683444345	1.70163674072433	0.0	-1.70163674072433	0.0578523683444345	0.0	1.70163674072433	0.0	-0.0578523683444345	-10.706504547241787	-4.810362400370654	1.7696272954136032	-5.8793477506750556	-7.057558897780616	1.7696272954136032	-0.6089809761850923	-7.9972180748043975	2.7092864724373884	-6.09875305157395	3.058017946616901	4	missed	0.0
68.92203400004632	9.162807599874668	nogo_reward	0.2882299998309463	68.93087260006018	71.41706210002371	73.9439685998957	2.4861894999635297	69.93359220004686	72.93311590002895	76.99010269995847	1.4834698999768534	1.0108526998667458	1.1035774999763817	75.97541949991182	0.7517538999672979	74.9535745000469	2	1	69	3	nogo_reward	1	0	1	0	1	0	0	0.0	1.0	0	0.2882299998309463	0.7517538999672979	1885.029707100009	1953.9605797000693	1954.963299300056	1956.4467692000328	1957.962823000038	1958.9736756999048	1959.983281600056	1961.005126599921	1962.0198097999676	1963.123387299944	2020-01-03 18:01:56.451300	29.4689515663506	19.547396696198	0.0	19.547396696198	29.4689515663506	0.0	-29.4689515663506	19.547396696198	0.0	29.4689515663506	0.0	-19.547396696198	17.060810278384483	14.679181927482912	1.7696272954136032	13.61019657717851	20.709755927845656	1.7696272954136032	-20.098525304038656	19.77009675082187	2.7092864724373884	13.390791276279614	3.058017946616901	4	correct	1.0
78.12546180002391	7.71994229988195	go_punish	1.0	78.13430040003777	79.47598670003981	82.00368460011737	1.3416863000020385	79.14370839996286	80.98279289994412	85.04271430010022	0.3322783000769505	1.0208917001732516	0.8115283998195082	84.03893849998781	0.7310558999888599	83.02026030002207	2	1	70	2	go_punish	0	-1	0	1	0	0	0	0.0	1.0	0	1.0	0.7310558999888599	1885.029707100009	1963.1640075000469	1964.173415499972	1964.505693800049	1966.0124999999532	1967.0333917001265	1968.0499674000312	1969.068645599997	1970.0724214001093	1970.8839497999288	2020-01-03 18:01:56.451300	-0.243096247534618	-6.13434441538251	-8.42401553538058	-8.45967464941968	-8.18091928784596	-8.42401553538058	0.243096247534618	-8.42401553538058	-6.13434441538251	-8.42401553538058	-8.18091928784596	8.42401553538058	-12.651237535500735	-11.0025591840976	-6.654388239966977	-14.39687476843917	-16.94011492635091	-6.654388239966977	7.872886927539922	-18.12287035090931	-5.471632815408571	-14.580620955298965	-3.0763264687656093	4	correct	1.0
85.86966200009897	9.563487699954067	nogo_punish	1.0	85.87850060011283	88.41018570005008	90.92830669996374	2.531685099937249	86.8895461000509	89.91624290007167	93.97118270001442	1.5206395999991855	1.0120637998920756	1.470805600052472	92.96060970006579	0.6761894000228494	91.94826620002323	2	1	71	1	nogo_punish	1	-1	0	0	0	1	0	0.0	1.0	0	1.0	0.6761894000228494	1885.029707100009	1970.908207700122	1971.91925320006	1973.4398928000592	1974.9459500000808	1975.9580137999728	1976.9779733000323	1977.9903168000749	1979.0008898000235	1980.471695400076	2020-01-03 18:01:56.451300	3.33673903462841	-7.77028953909731	-6.0574519174875	-7.56609103122419	-9.3941909521159	-6.0574519174875	-3.33673903462841	-6.0574519174875	-7.77028953909731	-6.0574519174875	-9.3941909521159	6.0574519174875	-9.071402253337707	-12.638504307812399	-4.287824622073897	-13.50329115024368	-18.153386590620848	-4.287824622073897	5.506323309646842	-15.756306733016228	-6.684904479678512	-12.214057337405883	-4.712271592480409	4	correct	1.0
95.4744748999367	7.971366800134774	go_punish	1.0	95.48331349995055	96.96121209999592	99.48964749998459	1.4778986000453642	96.49191719992132	98.46650240011581	102.53363199997739	0.4692949000746012	1.0231450998687706	0.921048300107941	101.53049789997795	0.3823430000338703	100.509940899909	2	1	72	2	go_punish	1	0	-1	1	0	0	1	1.0	1.0	-1	1.0	0.3823430000338703	1885.029707100009	1980.5130205999596	1981.5216242999304	1981.990919200005	1983.496209500125	1984.5193545999937	1985.539647999918	1986.560204999987	1987.5633390999865	1988.4843874000944	2020-01-03 18:01:56.451300	2.81272604546419	-6.13434441538251	-3.1893045596089	-3.22145391880317	-6.00203060507308	-3.1893045596089	-2.81272604546419	-3.1893045596089	-6.13434441538251	-3.1893045596089	-6.00203060507308	-5.49345541908901	-9.595415242501927	-11.0025591840976	-1.4196772641952968	-9.15865403782266	-14.761226243578026	-1.4196772641952968	-6.044584026929668	-12.888159375137628	-3.2927441326356917	-9.345909979527285	-3.0763264687656093	4	correct	1.0
103.46767989988462	9.151306700194027	go_reward	0.2384026998188346	103.47651849989848	105.90093640005261	108.44792750012175	2.4244179001541397	104.49014459992782	107.42396280006528	111.49312640004814	1.410791800124798	1.0239647000564673	1.1346988000443616	110.48079059994802	0.7075912000145763	109.4626400999266	2	1	73	4	go_reward	1	1	0	1	1	1	0	0.0	1.0	1	0.2384026998188346	0.7075912000145763	1885.029707100009	1988.5062255999076	1989.519851699937	1990.9306435000617	1992.4536699000744	1993.4776346001308	1994.4923471999357	1995.510497699957	1996.5228335000572	1997.6575323001016	2020-01-03 18:01:56.451300	48.3105132762272	32.3628019960658	0.0	32.3628019960658	48.3105132762272	0.0	-48.3105132762272	32.3628019960658	0.0	48.3105132762272	0.0	0.4648013203594985	35.90237198826108	27.49458722735071	1.7696272954136032	26.425601877046308	39.55131763772225	1.7696272954136032	-0.08632728748115925	38.61165846069847	2.7092864724373884	26.206196576147413	3.058017946616901	4	correct	1.0
112.65859239990823	9.546356500126421	go_punish	1.0	112.66743099992209	115.21435540006541	117.7532742999033	2.5469244001433253	113.6775271999652	116.73023029998922	120.79775139992171	1.5368282001002171	1.02304399991408	1.416036100126803	119.79220749996693	0.3883253000676632	118.75704919989244	2	1	74	2	go_punish	1	0	-1	1	0	0	1	1.0	1.0	-1	1.0	0.3883253000676632	1885.029707100009	1997.6971380999312	1998.7072342999743	2000.2440625000745	2001.7599373999983	2002.7829813999124	2003.7867562999015	2004.821914599976	2005.8274584999308	2007.2434946000576	2020-01-03 18:01:56.451300	0.659168077799877	-6.13434441538251	-6.77913038555176	-6.80636917869664	-7.43829846335163	-6.77913038555176	-0.659168077799877	-6.77913038555176	-6.13434441538251	-6.77913038555176	-7.43829846335163	-1.9036295931461495	-11.748973210166241	-11.0025591840976	-5.009503090138157	-12.74356929771613	-16.197494101856577	-5.009503090138157	-2.454758200986807	-16.477985201080486	-4.729011990914241	-12.935735805470145	-3.0763264687656093	4	correct	1.0
122.24904310004786	8.305380699923262	nogo_reward	0.2599087001290172	122.25788170006172	124.23442330001899	126.77708390005887	1.9765415999572724	123.26339250011415	125.75626299995974	129.8026878999085	0.9710307999048382	1.0208209000991246	0.7605745000764728	128.79995659994938	0.3677910999394953	127.78760179993742	2	1	75	3	nogo_reward	1	0	1	0	1	0	0	0.0	1.0	0	0.2599087001290172	0.3677910999394953	1885.029707100009	2007.2875888000708	2008.2930996001232	2009.264130400028	2010.7859700999688	2011.806791000068	2012.8173088999465	2013.8296636999585	2014.8323949999176	2015.592969499994	2020-01-03 18:01:56.451300	11.3129475992697	6.6433720722897	0.0	6.6433720722897	11.3129475992697	0.0	-11.3129475992697	6.6433720722897	0.0	11.3129475992697	0.0	-6.6433720722897	-1.0951936886964173	1.7751573035746109	1.7696272954136032	0.7061719532702098	2.553751960764753	1.7696272954136032	-7.194500680130358	1.614092783740972	2.7092864724373884	0.48676665237131544	3.058017946616901	4	correct	1.0
130.59562049992383	8.635596400126815	go_punish	1.0	130.60445909993769	132.88688879995652	135.40989049989776	2.282429700018838	131.6131585000553	134.39268229994968	138.4648444000636	1.2737302999012172	1.0172081999480724	0.7752111000008881	137.45477450010367	0.5487133997958153	136.42166800005407	2	1	76	2	go_punish	1	0	-1	1	0	0	1	0.0	0.0	-1	1.0	0.5487133997958153	1885.029707100009	2015.6341661999468	2016.6428656000644	2017.9165958999656	2019.4223893999588	2020.4395975999068	2021.4513751000632	2022.4844816001128	2023.4945515000727	2024.2697626000736	2020-01-03 18:01:56.451300	0.0564579466127392	-6.13434441538251	-7.84788827698846	-7.87047759483118	-7.9043462236012	-7.84788827698846	-0.0564579466127392	-7.84788827698846	-6.13434441538251	-7.84788827698846	-7.9043462236012	-0.8348717017094494	-12.351683341353379	-11.0025591840976	-6.078260981574857	-13.80767771385067	-16.663541862106147	-6.078260981574857	-1.386000309550107	-17.54674309251719	-5.195059751163812	-14.004493696906845	-3.0763264687656093	4	wrong	1.0
139.27155119995587	9.382793300086405	go_punish	1.0	139.28038979996973	141.60796590009727	144.1387940999125	2.327576100127544	140.28076929994882	143.123912899988	147.18499529990368	1.3271966001484543	1.0148811999245027	1.4781878001524547	146.17158990004123	0.5334028000943363	145.14387040003248	2	1	77	2	go_punish	1	0	-1	1	0	0	0	0.0	1.0	-1	1.0	0.5334028000943363	1885.029707100009	2024.3100968999788	2025.310476399958	2026.6376730001064	2028.153619999997	2029.1685011999216	2030.1735775000416	2031.2012970000503	2032.2147023999128	2033.6928902000652	2020-01-03 18:01:56.451300	-0.16078205718106	-6.13434441538251	-8.24795368880416	-8.26657644387395	-8.0871716316231	-8.24795368880416	0.16078205718106	-8.24795368880416	-6.13434441538251	-8.24795368880416	-8.0871716316231	-0.4348062898937499	-12.568923345147176	-11.0025591840976	-6.478326393390557	-14.20377656289344	-16.84636727012805	-6.478326393390557	-0.9859348977344077	-17.946808504332886	-5.377885159185712	-14.404559108722545	-3.0763264687656093	4	correct	1.0
148.6766421000939	8.369970999891166	go_reward	0.2591117001138627	148.68548070010775	150.547304600012	153.101480500075	1.861823899904266	149.69795119995297	152.07755269995005	156.1394015999981	0.8493534000590444	1.0239278001249659	0.9160501000008026	155.1300397000748	1.0	154.1210404001181	2	1	78	4	go_reward	1	1	0	1	1	1	0	n/a	0.0	0	0.2591117001138627	1.0	1885.029707100009	2033.7151878001168	2034.727658299962	2035.577011700021	2037.1072597999591	2038.131187600084	2039.1507475001272	2040.159746800084	2041.1691087000072	2042.085158800008	2020-01-03 18:01:56.451300	48.4674854199766	32.4697537481239	0.0	32.4697537481239	48.4674854199766	0.0	-48.4674854199766	32.4697537481239	0.0	48.4674854199766	0.0	0.3578495683013969	36.05934413201048	27.60153897940881	1.7696272954136032	26.53255362910441	39.70828978147165	1.7696272954136032	-0.19327903953926084	38.76863060444787	2.7092864724373884	26.313148328205514	3.058017946616901	4	missed	0.0
157.0715483999811	8.608147700084373	nogo_punish	1.0	157.08038699999497	158.74454699992293	161.2737819999461	1.6641599999279606	158.0897892999933	160.25064700003782	164.32851979997986	0.6547576999296325	1.0231349999082795	1.3600149000994861	163.31654769997158	0.7001228998415172	162.28827330004447	2	1	79	1	nogo_punish	0	0	-1	0	0	1	0	0.0	1.0	-1	1.0	0.7001228998415172	1885.029707100009	2042.110094100004	2043.1194964000024	2043.774254099932	2045.280354100047	2046.3034890999552	2047.3179804000536	2048.3462547999807	2049.358226899989	2050.7182418000884	2020-01-03 18:01:56.451300	5.29558036357297	-7.77028953909731	-2.12745735362705	-2.77412367508435	-7.42303771720003	-2.12745735362705	-5.29558036357297	-2.12745735362705	-7.77028953909731	-2.12745735362705	-7.42303771720003	-6.555302625070859	-7.112560924393147	-12.638504307812399	-0.3578300582134468	-8.71132379410384	-16.182233355704977	-0.3578300582134468	-7.106431232911517	-11.826312169155777	-4.7137512447626415	-8.284062773545434	-4.712271592480409	4	correct	1.0
165.7221387999598	8.607584899989888	nogo_reward	0.2730183000676334	165.73097739997365	167.73462320002773	170.26347910007507	2.0036458000540733	166.73100770008796	169.2520030001183	173.3213527000048	1.0036154999397695	1.0114760999567807	1.0172095999587327	172.309009399964	0.3600116998422891	171.2814364000228	2	1	80	3	nogo_reward	1	0	1	0	1	0	0	0.0	1.0	0	0.2730183000676334	0.3600116998422891	1885.029707100009	2050.7606844999827	2051.760714800097	2052.764330300037	2054.2817101001274	2055.293186200084	2056.311143500032	2057.338716499973	2058.351059800014	2059.3682693999726	2020-01-03 18:01:56.451300	5.82407502619226	2.84419273621325	0.0	2.84419273621325	5.82407502619226	0.0	-5.82407502619226	2.84419273621325	0.0	5.82407502619226	0.0	-2.84419273621325	-6.584066261773858	-2.024022032501839	1.7696272954136032	-3.09300738280624	-2.935120612312687	1.7696272954136032	-3.3953213440539076	-3.8747797893364684	2.7092864724373884	-3.3124126837051344	3.058017946616901	4	correct	1.0
174.35520619992167	8.672713000094518	nogo_punish	0.6317232998553663	174.36404479993553	176.2846605998934	178.8246985999872	1.9206157999578863	175.36384209990547	177.80083540012174	181.8709569000639	0.920818499987945	1.0238631998654455	1.1658008999661433	180.85762139991903	0.3554740999825299	179.82777029997715	2	1	81	1	nogo_punish	1	-1	0	0	1	0	1	1.0	1.0	-1	0.6317232998553663	0.3554740999825299	1885.029707100009	2059.3937518999446	2060.3935491999146	2061.3143676999025	2062.830542500131	2063.8544056999963	2064.8574773999862	2065.887328499928	2066.900664000073	2068.066464900039	2020-01-03 18:01:56.451300	-2.72588878405669	-7.77028953909731	-6.22792832173057	-6.55621385194684	-8.95381710578726	-6.22792832173057	2.72588878405669	-7.77028953909731	-6.22792832173057	-8.95381710578726	-6.22792832173057	-0.9124704396005994	-15.134030072022806	-12.638504307812399	-4.458301026316967	-12.49341397096633	-17.713012744292207	-4.458301026316967	-1.463599047441257	-18.65267192131599	-3.5186418492931812	-13.926894959015694	-3.169910375113669	4	correct	1.0
183.06902260007337	9.298794399946928	go_punish	0.2515308998990804	183.07786120008723	185.81782949995295	188.3612474999395	2.7399682998657227	184.07704379991674	187.3495740999938	191.41359209991106	1.7407857000362128	1.011673399945721	0.9630635001230985	190.40518260002182	0.5469676000066102	189.380381300115	2	1	82	2	go_punish	1	0	-1	1	1	1	0	0.0	1.0	0	0.2515308998990804	0.5469676000066102	1885.029707100009	2068.1075683000963	2069.106750899926	2070.847536599962	2072.379281200003	2073.3909545999486	2074.410088400124	2075.434889700031	2076.44329919992	2077.4063627000432	2020-01-03 18:01:56.451300	0.255318008885077	-6.13434441538251	-8.42508387381247	-8.44044769002159	-8.16976586492739	-8.42508387381247	-0.255318008885077	-6.13434441538251	-8.42508387381247	-8.16976586492739	-8.42508387381247	6.13434441538251	-12.15282327908104	-11.0025591840976	-6.6554565783988675	-14.37764780904108	-16.928961503432337	-6.6554565783988675	5.583215807541852	-17.868620680456118	-5.715797401375082	-12.290949835300895	-5.367065927195569	4	correct	1.0
192.4088624001015	7.736898700008169	go_punish	0.4010548999067396	192.41770100011536	193.77532680006743	196.32675840007187	1.3576257999520749	193.42649250011937	195.3131307000299	199.38871799991512	0.3488342999480665	1.0136277000419796	0.7658817002084106	198.37532170000532	0.6051360999699682	197.34332720004068	2	1	83	2	go_punish	1	0	-1	1	1	1	0	0.0	1.0	0	0.4010548999067396	0.6051360999699682	1885.029707100009	2077.4474081001244	2078.4561996001285	2078.8050339000765	2080.342837800039	2081.356465500081	2082.3730343000498	2083.4050288000144	2084.418425099924	2085.1843068001326	2020-01-03 18:01:56.451300	6.38493378638784	-2.17300253132055	-8.42508387381247	-3.22401637140813	-2.04015008742463	-8.42508387381247	-6.38493378638784	-2.17300253132055	-8.42508387381247	-2.04015008742463	-8.42508387381247	2.17300253132055	-6.023207501578277	-7.041217300035639	-6.6554565783988675	-9.16121649042762	-10.799345725929577	-6.6554565783988675	1.6218739234798925	-11.739004902953358	-5.715797401375082	-8.329607951238934	-5.367065927195569	4	correct	1.0
200.18597849993967	8.091526699950464	go_punish	0.3337889001704752	200.19481709995353	201.6785552001097	204.2105316999373	1.483738100156188	201.21035879990131	203.19966719998092	207.2610154999429	0.4681964002083987	1.0108644999563694	1.0253282999610747	206.2486266000201	0.3312885998748243	205.22100410005123	2	1	84	2	go_punish	1	0	-1	1	1	1	1	1.0	1.0	0	0.3337889001704752	0.3312885998748243	1885.029707100009	2085.2245241999626	2086.2400658999104	2086.708262300119	2088.22937429999	2089.2402387999464	2090.2507112000603	2091.278333700029	2092.290722599952	2093.316050899913	2020-01-03 18:01:56.451300	8.37462221396279	-0.953257165592098	-8.42508387381247	-1.51300216328779	-0.0504616598496777	-8.42508387381247	-8.37462221396279	-0.953257165592098	-8.42508387381247	-0.0504616598496777	-8.42508387381247	0.953257165592098	-4.033519074003328	-5.821471934307187	-6.6554565783988675	-7.45020228230728	-8.809657298354624	-6.6554565783988675	0.4021285577514403	-9.749316475378405	-5.715797401375082	-7.1098625855104824	-5.367065927195569	4	correct	1.0
208.3000682001002	8.584344499977306	go_reward	0.3911135999951511	208.30890680011407	209.82510720007167	212.37123779999138	1.5162003999575973	209.32614120002881	211.35765579994813	215.4181965000471	0.49896600004285574	1.0135820000432432	1.4750548000442905	214.41416439996146	0.3639867999590933	213.38544379989662	2	1	85	4	go_reward	1	1	0	1	1	1	0	0.0	1.0	1	0.3911135999951511	0.3639867999590933	1885.029707100009	2093.338613900123	2094.355848300038	2094.8548143000808	2096.387362899957	2097.4009449000005	2098.4151508999057	2099.4438714999706	2100.447903600056	2101.9229584001005	2020-01-03 18:01:56.451300	20.7960343210178	13.0457686716164	0.0	13.0457686716164	20.7960343210178	0.0	-20.7960343210178	13.0457686716164	0.0	20.7960343210178	0.0	19.781834644808896	8.387893033051682	8.177553902901312	1.7696272954136032	7.1085685525969105	12.036838682512853	1.7696272954136032	19.23070603696824	11.097179505489072	2.7092864724373884	6.889163251698016	3.058017946616901	4	correct	1.0
216.91009739995934	7.920406700111926	nogo_punish	1.0	216.9189359999732	218.268098100089	220.7811984000732	1.349162100115791	217.9211748000239	219.77025979990185	223.83706349995964	0.3469233000651002	1.0109386001713574	1.0022792001254857	222.83277920004957	0.2978393998928368	221.79734229994983	2	1	86	1	nogo_punish	0	0	-1	0	0	1	0	0.0	1.0	-1	1.0	0.2978393998928368	1885.029707100009	2101.9486430999823	2102.950881900033	2103.297805200098	2104.799966899911	2105.8109055000823	2106.827049399959	2107.8624863000587	2108.8667705999687	2109.869049800094	2020-01-03 18:01:56.451300	3.66234292718097	-8.19305361810829	-6.22792832173057	-7.71829349091182	-9.89027124891154	-6.22792832173057	-3.66234292718097	-6.22792832173057	-8.19305361810829	-6.22792832173057	-9.89027124891154	-2.4548316569673396	-8.745798360785148	-13.061268386823379	-4.458301026316967	-13.655493609931309	-18.649466887416487	-4.458301026316967	-3.0059602648079973	-15.926783137259298	-7.180984776474152	-12.384533741648955	-5.13503567149139	4	correct	1.0
224.8728046999313	8.147271800087765	nogo_reward	0.4272845999803394	224.88164329994515	226.2379616000694	228.7753010999877	1.3563183001242578	225.89553530002058	227.75468460004822	231.83159739989833	0.3424263000488281	1.0206164999394787	1.1973177001345903	230.81835140008525	0.3452561998274177	229.78411770006687	2	1	87	3	nogo_reward	1	0	1	0	1	0	0	0.0	1.0	0	0.4272845999803394	0.3452561998274177	1885.029707100009	2109.9113503999542	2110.9252424000297	2111.2676687000785	2112.7843917000573	2113.805008199997	2114.813824800076	2115.8480585000943	2116.8613044999074	2118.058622200042	2020-01-03 18:01:56.451300	3.7518045925621	1.43478446206292	0.0	1.43478446206292	3.7518045925621	0.0	-3.7518045925621	1.43478446206292	0.0	3.7518045925621	0.0	-1.43478446206292	-8.656336695404017	-3.433430306652169	1.7696272954136032	-4.50241565695657	-5.007391045942846	1.7696272954136032	-1.9859130699035776	-5.947050222966627	2.7092864724373884	-4.721820957855464	3.058017946616901	4	correct	1.0
233.0619306000881	8.476741999853402	nogo_reward	1.0	233.07076920010195	234.64201720012397	237.16737919999332	1.571248000022024	234.08166899997786	236.14764290000358	240.20210870006167	0.5603482001461089	1.019736299989745	1.3454024998936802	239.19824020005808	0.710898700170219	238.1864750999962	2	1	88	3	nogo_reward	0	1	0	0	0	1	0	0.0	1.0	0	1.0	0.710898700170219	1885.029707100009	2118.100476300111	2119.111376099987	2119.671724300133	2121.1773500000127	2122.1970863000024	2123.2161822000053	2124.227947300067	2125.2318158000708	2126.5772182999644	2020-01-03 18:01:56.451300	-2.83063816815754	0.814808837703126	0.0	0.814808837703126	2.83063816815754	0.0	2.83063816815754	0.0	0.814808837703126	0.0	2.83063816815754	0.0	-15.238779456123657	-4.053405931011963	1.7696272954136032	-5.122391281316364	-5.928557470347407	1.7696272954136032	-0.5511286078406578	-9.698854815528728	5.539924640594928	-6.156605419918384	3.8728267843200266	4	correct	1.0
241.57901420001872	8.818575500044517	go_punish	0.2237413998227566	241.58785280003258	243.77371350000703	246.32391040003904	2.185860699974455	242.59751520003192	245.30405290005774	249.367813300109	1.1761982999751126	1.019857499981299	1.0386149999681038	248.35482929996306	0.3007644000463187	247.34159220010088	2	1	89	2	go_punish	1	0	-1	1	1	1	0	0.0	1.0	0	0.2237413998227566	0.3007644000463187	1885.029707100009	2126.6175599000417	2127.627222300041	2128.803420600016	2130.333760000067	2131.353617500048	2132.37129930011	2133.384536399972	2134.397520400118	2135.436135400086	2020-01-03 18:01:56.451300	9.16788984333052	-0.485898401447816	-8.42508387381247	-0.819787906124298	0.742805969518049	-8.42508387381247	-9.16788984333052	-0.485898401447816	-8.42508387381247	0.742805969518049	-8.42508387381247	0.485898401447816	-3.2402514446355966	-5.354113170162905	-6.6554565783988675	-6.756988025143788	-8.016389668986898	-6.6554565783988675	-0.06523020639284177	-8.95604884601068	-5.715797401375082	-6.6425038213662	-5.367065927195569	4	correct	1.0
250.42295509995893	9.03784320014529	nogo_punish	1.0	250.4317936999728	253.0083920001057	255.52560069994115	2.5765983001329005	251.43143810005904	254.51411530002997	258.56938010011845	1.5769539000466466	1.0114853999111801	0.9002567999996245	257.5567826000047	0.4170973000582307	256.5433368000672	2	1	90	1	nogo_punish	1	-1	0	0	0	1	0	0.0	1.0	0	1.0	0.4170973000582307	1885.029707100009	2135.461500799982	2136.461145200068	2138.038099100115	2139.543822400039	2140.5553077999502	2141.5730439000763	2142.5864897000138	2143.5990872001275	2144.499344000127	2020-01-03 18:01:56.451300	2.56967459168489	-8.19305361810829	-7.52950216615703	-8.16780382719643	-10.0991767578419	-7.52950216615703	-2.56967459168489	-7.52950216615703	-8.19305361810829	-7.52950216615703	-10.0991767578419	7.52950216615703	-9.838466696281227	-13.061268386823379	-5.7598748707434275	-14.10500394621592	-18.858372396346844	-5.7598748707434275	6.978373558316372	-17.228356981685756	-7.389890285404511	-13.686107586075416	-5.13503567149139	4	correct	1.0
259.48723779991315	9.176558200036652	nogo_punish	1.0	259.496076399927	262.2211545000323	264.7315295999874	2.725078100105293	260.49719600006983	263.72649060003505	267.7879850000613	1.723958499962464	1.0050389999523759	0.8846495999023318	266.7753252999396	0.3143827000167221	265.740078600124	2	1	91	1	nogo_punish	1	-1	0	0	0	1	0	0.0	1.0	0	1.0	0.3143827000167221	1885.029707100009	2144.525783499936	2145.526903100079	2147.2508616000414	2148.756197700044	2149.7612366999965	2150.769785700133	2151.8050323999487	2152.8176921000704	2153.7023416999727	2020-01-03 18:01:56.451300	5.24162701460401	-8.19305361810829	-2.74538141802997	-3.06976602727614	-7.98700843263398	-2.74538141802997	-5.24162701460401	-2.74538141802997	-8.19305361810829	-2.74538141802997	-7.98700843263398	2.74538141802997	-7.1665142733621074	-13.061268386823379	-0.9757541226163666	-9.00696614629563	-16.746204071138926	-0.9757541226163666	2.194252810189312	-12.444236233558698	-5.277721960196591	-8.901986837948353	-5.13503567149139	4	correct	1.0
268.70646629994735	8.359035500092432	nogo_reward	1.0	268.7153048999612	270.4897155000367	273.011984399986	1.7744106000754982	269.71906149992765	271.99745730008	276.0645216000271	0.7706540001090616	1.0145270999059903	1.009818800026551	275.05085080000663	0.78343589999713	274.01792040001646	2	1	92	3	nogo_reward	1	0	1	0	0	1	0	0.0	1.0	1	1.0	0.78343589999713	1885.029707100009	2153.7450119999703	2154.7487685999367	2155.519422600046	2157.027164400089	2158.041691499995	2159.0476275000256	2160.0805579000157	2161.094228700036	2162.1040475000627	2020-01-03 18:01:56.451300	-2.67740421362506	0.814808837703126	0.0	0.504266935782449	2.67740421362506	0.0	2.67740421362506	0.0	0.814808837703126	0.0	2.67740421362506	32.8276033164253	-15.085545501591177	-4.053405931011963	1.7696272954136032	-5.432933183237041	-6.081791424879887	1.7696272954136032	32.27647470858464	-9.698854815528728	5.386690686062448	-6.156605419918384	3.8728267843200266	4	correct	1.0
277.1063151000999	8.396588400006294	nogo_reward	1.0	277.11515370011375	279.1626564001199	281.69134779996284	2.0475027000061345	278.1166554000233	280.6683809999381	284.74480139999696	1.0460010000965667	1.022966800024733	0.7669407001230866	283.7301684999843	0.3714850000105798	282.69597360002854	2	1	93	3	nogo_reward	1	0	1	0	0	1	0	0.0	1.0	1	1.0	0.3714850000105798	1885.029707100009	2162.144860800123	2163.1463625000324	2164.192363500129	2165.698088099947	2166.721054899972	2167.7256807000376	2168.7598755999934	2169.774508500006	2170.541449200129	2020-01-03 18:01:56.451300	8.62595990455516	0.814808837703126	19.501200309928	19.8335526428128	10.8752404053728	19.501200309928	-8.62595990455516	19.501200309928	0.814808837703126	19.501200309928	10.8752404053728	13.326403006497298	-3.7821813834109577	-4.053405931011963	21.2708276053416	13.896352523793311	2.1160447668678533	21.2708276053416	12.77527439865664	9.80234549439927	13.584526877810188	13.344594890009613	3.8728267843200266	4	correct	1.0
285.5282964000944	8.642224499955773	nogo_punish	1.0	285.53713500010826	287.1947872000751	289.73058079998054	1.657652199966833	286.53821779997133	288.710984300124	292.7873414999344	0.6565694001037627	1.0195964998565614	1.3920180001296103	291.774104699959	0.3248991998843848	290.74639190011703	2	1	94	1	nogo_punish	1	-1	0	0	0	1	0	0.0	1.0	0	1.0	0.3248991998843848	1885.029707100009	2170.5668421001174	2171.5679248999804	2172.224494300084	2173.740691400133	2174.7602878999896	2175.776099000126	2176.803811799968	2177.8170485999435	2179.209066600073	2020-01-03 18:01:56.451300	6.01510843833217	-8.19305361810829	-1.23000393044432	-1.41700767217571	-7.24511236877649	-1.23000393044432	-6.01510843833217	-1.23000393044432	-8.19305361810829	-1.23000393044432	-7.24511236877649	1.23000393044432	-6.393032849633947	-13.061268386823379	0.5396233649692832	-7.354207791195201	-16.004308007281438	0.5396233649692832	0.6788753226036622	-10.928858745973049	-4.535825896339102	-7.386609350362704	-5.13503567149139	4	correct	1.0
294.2142211999744	8.019653199939057	go_punish	0.3550625001080334	294.2230597999883	295.70342299994127	298.25604470004373	1.4803631999529898	295.21839529997715	297.2345759000168	301.3114060000521	0.485027699964121	1.0214688000269234	0.9313069998752326	300.29810200003067	0.311168200103566	299.27832229994283	2	1	95	2	go_punish	1	0	-1	1	1	1	0	0.0	1.0	0	0.3550625001080334	0.311168200103566	1885.029707100009	2179.2527668999974	2180.2481023999862	2180.7331300999504	2182.264283000026	2183.285751800053	2184.308029399952	2185.3278091000398	2186.341113100061	2187.2724200999364	2020-01-03 18:01:56.451300	9.53382928009817	-0.276832502113536	-8.42508387381247	-0.493341713957212	1.1087454062857	-8.42508387381247	-9.53382928009817	-0.276832502113536	-8.42508387381247	1.1087454062857	-8.42508387381247	0.276832502113536	-2.874312007867948	-5.145047270828625	-6.6554565783988675	-6.430541832976702	-7.650450232219247	-6.6554565783988675	-0.27429610572712176	-8.590109409243027	-5.715797401375082	-6.433437922031921	-5.367065927195569	4	correct	1.0
302.276580600068	9.223272799979895	nogo_reward	1.0	302.28541920008183	304.7201088999868	307.2492410000418	2.434689699904993	303.2926594000314	306.2259575000503	310.2962899000854	1.4274494999554008	1.0232834999915212	1.212402099976316	309.29211909999185	0.3269728000741452	308.2644497998999	2	1	96	3	nogo_reward	1	0	1	0	0	1	0	0.0	1.0	1	1.0	0.3269728000741452	1885.029707100009	2187.315126300091	2188.3223665000405	2189.749815999996	2191.2556646000594	2192.278948100051	2193.294156899909	2194.321826200001	2195.3259970000945	2196.538399100071	2020-01-03 18:01:56.451300	12.2478307705783	0.814808837703126	26.1073257200222	26.3368819027795	13.8594949494439	26.1073257200222	-12.2478307705783	26.1073257200222	0.814808837703126	26.1073257200222	13.8594949494439	6.720277596403097	-0.160310517387817	-4.053405931011963	27.876953015435802	20.39968178376001	5.1002993109389525	27.876953015435802	6.169148988562439	16.40847090449347	16.568781421881287	19.950720300103814	3.8728267843200266	4	correct	1.0
311.54042969993316	8.41219549998641	nogo_reward	1.0	311.549268299947	313.37017120001883	315.86440160009124	1.8209029000718147	312.55878979992167	314.86498320009605	318.92028230009646	0.8113814000971615	0.9994183999951929	1.0411814998369664	317.9079062000387	0.3399298000149429	316.87852569995493	2	1	97	3	nogo_reward	1	0	1	0	0	1	0	0.0	1.0	1	1.0	0.3399298000149429	1885.029707100009	2196.578975399956	2197.5884968999308	2198.399878300028	2199.894690300105	2200.8941087001003	2201.908232799964	2202.937613300048	2203.9499894001056	2204.9911708999425	2020-01-03 18:01:56.451300	13.7453162337606	0.814808837703126	28.9212259941234	29.0855488772146	15.1759097603628	28.9212259941234	-13.7453162337606	28.9212259941234	0.814808837703126	28.9212259941234	15.1759097603628	3.9063773223018963	1.337174945794482	-4.053405931011963	30.690853289537003	23.14834875819511	6.4167141218578525	30.690853289537003	3.3552487144612386	19.22237117859467	17.885196232800187	22.764620574205015	3.8728267843200266	4	correct	1.0
319.99157060007565	9.577009900007397	go_punish	0.5093983002007008	320.0004092000895	322.6250883999751	325.164795000107	2.624679199885577	321.0166136999619	324.15275199990765	328.2287548999311	1.6084747000131756	1.0120430001993554	1.3486642001657856	327.21565119992056	0.3582518000621348	326.1821459000935	2	1	98	2	go_punish	0	-1	0	1	1	1	0	0.0	1.0	-1	0.5093983002007008	0.3582518000621348	1885.029707100009	2205.0301163000986	2206.046320799971	2207.654795499984	2209.1824590999167	2210.194502100116	2211.2118530001026	2212.2453582999296	2213.25846199994	2214.607126200106	2020-01-03 18:01:56.451300	9.72251532244513	-0.171604905654742	-8.42508387381247	-0.320956757048843	1.29743144863266	-8.42508387381247	-9.72251532244513	-0.171604905654742	-8.42508387381247	1.29743144863266	-8.42508387381247	-8.511155073043167	-2.6856259655209875	-5.039819674369831	-6.6554565783988675	-6.258156876068333	-7.461764189872287	-6.6554565783988675	-9.062283680883825	-8.401423366896069	-5.715797401375082	-6.328210325573126	-5.367065927195569	4	correct	1.0
329.5907918999437	8.6589109001211	go_reward	0.250662799924612	329.5996304999576	331.44262979994573	333.99006360000976	1.8429992999881506	330.6025006999271	332.97459580004306	337.0457705999729	0.8401291000186575	1.0154677999667001	1.2127708001057727	336.03231779998214	0.4188791001215577	335.0136494999756	2	1	99	4	go_reward	1	1	0	1	1	1	0	0.0	1.0	1	0.250662799924612	0.4188791001215577	1885.029707100009	2214.6293375999667	2215.632207799936	2216.472336899955	2218.004302900052	2219.019770700019	2220.0433565999847	2221.0620248999912	2222.075477699982	2223.288248500088	2020-01-03 18:01:56.451300	39.0221511232963	25.9979967595554	0.0	25.9979967595554	39.0221511232963	0.0	-39.0221511232963	25.9979967595554	0.0	39.0221511232963	0.0	6.829606556869898	26.61400983533018	21.12978199084031	1.7696272954136032	20.06079664053591	30.26295548479135	1.7696272954136032	6.27847794902924	29.32329630776757	2.7092864724373884	19.841391339637013	3.058017946616901	4	correct	1.0
338.2765279999003	9.20512880012393	nogo_punish	1.0	338.28536659991414	340.6417658999567	343.16590699995913	2.35639930004254	339.2928549000071	342.1544741000989	346.19798539998055	1.3489109999495668	1.0114328998602105	1.2925100000575185	345.1934734000829	0.3436034000478685	344.17489250004337	2	1	100	1	nogo_punish	1	-1	0	0	0	1	0	0.0	1.0	0	1.0	0.3436034000478685	1885.029707100009	2223.3150736999232	2224.322562000016	2225.6714729999658	2227.184181200108	2228.195614099968	2229.2045996000525	2230.223180500092	2231.2276924999896	2232.520202500047	2020-01-03 18:01:56.451300	6.29731172900614	-8.19305361810829	-0.637302814469858	-0.755695080002055	-6.934614543476	-0.637302814469858	-6.29731172900614	-0.637302814469858	-8.19305361810829	-0.637302814469858	-6.934614543476	0.637302814469858	-6.110829558959978	-13.061268386823379	1.1323244809437452	-6.692895199021545	-15.693810181980947	1.1323244809437452	0.08617420662920028	-10.336157629998587	-4.225328071038612	-6.793908234388242	-5.13503567149139	4	correct	1.0
347.50534879998304	9.680257499916479	go_reward	0.2919095999095589	347.5141873999969	350.24356710002803	352.79991200007544	2.7293797000311315	348.5306351999757	351.77647070004696	355.8412586001218	1.7129319000523537	1.0234413000284803	1.3531862997915596	354.8374115999327	0.6119389000814408	353.81361529999504	2	1	101	4	go_reward	1	1	0	1	1	1	1	0.0	0.0	1	0.2919095999095589	0.6119389000814408	1885.029707100009	2232.543894500006	2233.5603422999848	2235.273274200037	2236.806177800056	2237.8296191000845	2238.843322400004	2239.867118699942	2240.870965700131	2242.2241519999225	2020-01-03 18:01:56.451300	44.56344195056	29.8333996163367	0.0	29.8333996163367	44.56344195056	0.0	-44.56344195056	29.8333996163367	0.0	44.56344195056	0.0	2.9942037000885975	32.15530066259388	24.96518484762161	1.7696272954136032	23.89619949731721	35.80424631205505	1.7696272954136032	2.44307509224794	34.86458713503127	2.7092864724373884	23.676794196418314	3.058017946616901	4	wrong	1.0
357.2266273999121	9.801614199997857	go_punish	0.2343553998507559	357.23546599992596	359.98798239999496	362.5482157000811	2.7525164000689983	358.2344325999734	361.5271419999194	365.589891700075	1.753549800021574	1.0210737001616508	1.447188499848835	364.58544080006004	0.6056502000428736	363.5678220998966	2	1	102	2	go_punish	1	0	-1	1	1	1	0	0.0	1.0	0	0.2343553998507559	0.6056502000428736	1885.029707100009	2242.265173099935	2243.2641396999825	2245.017689500004	2246.5568490999285	2247.57792280009	2248.5975291999057	2249.615147900069	2250.619598800084	2252.066787299933	2020-01-03 18:01:56.451300	2.31544812872851	-5.41674653102781	-8.42508387381247	-5.52464762372006	-6.10963574508395	-8.42508387381247	-2.31544812872851	-5.41674653102781	-8.42508387381247	-6.10963574508395	-8.42508387381247	5.41674653102781	-10.092693159237607	-10.2849612997429	-6.6554565783988675	-11.46184774273955	-14.868831383588898	-6.6554565783988675	4.865617923187152	-15.808490560612679	-5.715797401375082	-11.573351950946194	-5.367065927195569	4	correct	1.0
367.070751799969	9.317581099924155	go_punish	0.5286459000781178	367.07959039998286	369.55490180011884	372.11170200002425	2.475311400135979	368.08682810002983	371.09198680007876	375.16270729992584	1.4680737000890076	1.0197151999454945	1.2344641999811756	374.1494440999818	0.3058092000428587	373.12959469994576	2	1	103	2	go_punish	1	0	-1	1	1	1	0	0.0	1.0	0	0.5286459000781178	0.3058092000428587	1885.029707100009	2252.109297499992	2253.116535200039	2254.584608900128	2256.121693900088	2257.1414091000333	2258.159301799955	2259.179151199991	2260.192414399935	2261.426878599916	2020-01-03 18:01:56.451300	7.34068870628943	-1.8380254478343	-8.42508387381247	-1.91876343189809	-1.08439516752303	-8.42508387381247	-7.34068870628943	-1.8380254478343	-8.42508387381247	-1.08439516752303	-8.42508387381247	1.8380254478343	-5.0674525816766876	-6.706240216549389	-6.6554565783988675	-7.85596355091758	-9.843590806027976	-6.6554565783988675	1.2868968399936422	-10.783249983051757	-5.715797401375082	-7.994630867752685	-5.367065927195569	4	correct	1.0
376.42991270008497	9.429971999954432	nogo_reward	1.0	376.43875130009883	378.88516180007764	381.4111303999093	2.4464104999788105	377.4470726998993	380.3898905999963	384.44622089993254	1.4380891001783311	1.021239799913019	1.4225024001207203	383.44201399991334	0.3174807000905275	382.42997439997316	2	1	104	3	nogo_reward	0	1	0	0	0	1	0	0.0	1.0	0	1.0	0.3174807000905275	1885.029707100009	2261.468458400108	2262.4767797999084	2263.9148689000867	2265.4195977000054	2266.4408374999184	2267.4596814999823	2268.4717210999224	2269.4759279999416	2270.8984304000624	2020-01-03 18:01:56.451300	14.4884167577607	0.814808837703126	30.3311792525305	30.4521461771471	15.8427624947698	30.3311792525305	-14.4884167577607	30.3311792525305	0.814808837703126	30.3311792525305	15.8427624947698	-30.3311792525305	2.080275469794582	-4.053405931011963	32.1008065479441	24.51494605812761	7.083566856264854	32.1008065479441	-30.882307860371156	20.63232443700177	18.552048967207188	24.174573832612115	3.8728267843200266	4	correct	1.0
385.88653340004385	8.272516199853271	nogo_punish	1.0	385.8953720000577	387.62097920011774	390.15663089999043	1.7256072000600398	386.90276339999446	389.136790700024	393.198168399977	0.7182158001232892	1.0198401999664384	0.9697197999339551	392.1851719000847	0.5060846998821944	391.1722500000619	2	1	105	1	nogo_punish	1	-1	0	0	0	1	0	0.0	1.0	0	1.0	0.5060846998821944	1885.029707100009	2270.925079100067	2271.9324705000035	2272.650686300127	2274.166497800033	2275.1863379999995	2276.201957100071	2277.214879000094	2278.227875499986	2279.19759529992	2020-01-03 18:01:56.451300	6.41897654718633	-8.19305361810829	-0.367902556084439	-0.448259063072508	-6.78687910327077	-0.367902556084439	-6.41897654718633	-0.367902556084439	-8.19305361810829	-0.367902556084439	-6.78687910327077	0.367902556084439	-5.989164740779787	-13.061268386823379	1.4017247393291643	-6.385459182091998	-15.546074741775715	1.4017247393291643	-0.18322605175621876	-10.066757371613168	-4.077592630833381	-6.524507976002823	-5.13503567149139	4	correct	1.0
394.1817051998805	8.733801600057632	go_reward	0.5457309000194073	394.1905437998944	396.0977876000111	398.6505436999728	1.907243800116703	395.20221249992073	397.634552400094	401.69586770003707	0.8955751000903547	1.0159912998788059	1.2284776999149472	400.683016499971	0.6368350000120699	399.6657141000037	2	1	106	4	go_reward	1	1	0	1	1	1	0	0.0	1.0	1	0.5457309000194073	0.6368350000120699	1885.029707100009	2279.2202508999035	2280.23191959993	2281.12749470002	2282.664259500103	2283.680250799982	2284.695421200013	2285.71272359998	2286.725574800046	2287.954052499961	2020-01-03 18:01:56.451300	46.6756338604351	31.2705305623881	0.0	31.2705305623881	46.6756338604351	0.0	-46.6756338604351	31.2705305623881	0.0	46.6756338604351	0.0	1.557072754037197	34.26749257246898	26.40231579367301	1.7696272954136032	25.33333044336861	37.91643822193015	1.7696272954136032	1.0059441461965393	36.97677904490637	2.7092864724373884	25.113925142469714	3.058017946616901	4	correct	1.0
402.94128450006247	8.307868999894708	go_reward	0.5808043000288308	402.9501231000763	404.7196545999036	407.2803690999285	1.7695314998272806	403.95385830011264	406.2567863001027	410.30988360010133	0.7657962997909635	1.0235827998258173	0.9481084998697042	409.30751199997076	0.6132714999839664	408.29424729989887	2	1	107	4	go_reward	1	1	0	1	1	1	0	0.0	1.0	1	0.5808043000288308	0.6132714999839664	1885.029707100009	2287.9798302000854	2288.9835654001217	2289.7493616999127	2291.286493400112	2292.3100761999376	2293.323954399908	2294.33721909998	2295.3395907001104	2296.28769919998	2020-01-03 18:01:56.451300	47.627690567619	31.9120561459064	0.0	31.9120561459064	47.627690567619	0.0	-47.627690567619	31.9120561459064	0.0	47.627690567619	0.0	0.9155471705188951	35.21954927965288	27.043841377191313	1.7696272954136032	25.97485602688691	38.86849492911405	1.7696272954136032	0.36441856267823736	37.92883575209027	2.7092864724373884	25.755450725988016	3.058017946616901	4	correct	1.0
411.29052760009654	9.00138679984957	go_punish	0.2381190999876707	411.2993662001104	413.5053485000976	416.0448894000151	2.2059822999872267	412.29557409999006	415.0270911001139	419.0880050999117	1.2097744001075625	1.0177982999011874	1.2127479000482708	418.075850999915	0.4293468999676406	417.06304619996854	2	1	108	2	go_punish	1	0	-1	1	1	1	0	0.0	1.0	0	0.2381190999876707	0.4293468999676406	1885.029707100009	2296.3290733001195	2297.325281199999	2298.5350556001067	2300.056798200123	2301.074596500024	2302.0927532999776	2303.105558099924	2304.117712199921	2305.330460099969	2020-01-03 18:01:56.451300	8.87198154835887	-0.7792471150125	-8.42508387381247	-0.841322117002267	0.446897674546404	-8.42508387381247	-8.87198154835887	-0.7792471150125	-8.42508387381247	0.446897674546404	-8.42508387381247	0.7792471150125	-3.536159739607248	-5.647461883727589	-6.6554565783988675	-6.778522236021757	-8.312297963958542	-6.6554565783988675	0.22811850717184223	-9.251957140982324	-5.715797401375082	-6.935852534930884	-5.367065927195569	4	correct	1.0
420.3329229000956	7.879636199912056	go_punish	0.3822330001275986	420.34176150010944	421.74627669993833	424.2792114000772	1.404515199828893	421.3566121000331	423.2622553000697	427.32851779996463	0.38966459990524527	1.0169561000075191	0.8928799000568688	426.31539470003963	0.4138805998954922	425.2966442001057	2	1	109	2	go_punish	1	0	-1	1	1	1	0	0.0	1.0	0	0.3822330001275986	0.4138805998954922	1885.029707100009	2305.3714686001185	2306.386319200042	2306.7759837999474	2308.291962400079	2309.3089185000863	2310.3263513001148	2311.3451018000487	2312.3582248999737	2313.2511048000306	2020-01-03 18:01:56.451300	9.45061416635354	-0.387664409533069	-8.42508387381247	-0.436425631207848	1.02553029254107	-8.42508387381247	-9.45061416635354	-0.387664409533069	-8.42508387381247	1.02553029254107	-8.42508387381247	0.387664409533069	-2.9575271216125767	-5.255879178248158	-6.6554565783988675	-6.373625750227338	-7.7336653459638764	-6.6554565783988675	-0.16346419830758874	-8.673324522987658	-5.715797401375082	-6.544269829451453	-5.367065927195569	4	correct	1.0
428.23789529991336	8.644689300097525	nogo_punish	1.0	428.2467338999272	429.9318444000096	432.45754329999954	1.6851105000823736	429.2550123999831	431.4375831999355	435.48992520012007	0.6768320000264794	1.0199601000640541	1.4014979999046773	434.4878124999818	0.3568690998945385	433.4696347001013	2	1	110	1	nogo_punish	1	-1	0	0	0	1	0	0.0	1.0	0	1.0	0.3568690998945385	1885.029707100009	2313.2764409999363	2314.284719499992	2314.9615515000187	2316.4672902999446	2317.4872504000086	2318.4993418001104	2319.517519599991	2320.519632300129	2321.921130300034	2020-01-03 18:01:56.451300	6.4786462746199	-8.19305361810829	-0.230535620002638	-0.287981294133053	-6.70918189462254	-0.230535620002638	-6.4786462746199	-0.230535620002638	-8.19305361810829	-0.230535620002638	-6.70918189462254	0.230535620002638	-5.929495013346218	-13.061268386823379	1.5390916754109651	-6.225181413152543	-15.468377533127487	1.5390916754109651	-0.32059298783801976	-9.929390435531365	-3.9998954221851513	-6.387141039921023	-5.13503567149139	4	correct	1.0
436.92587139992975	8.294159200042486	go_punish	0.3085793000645935	436.9347099999436	438.78387530008376	441.3255024999389	1.8491653001401573	437.9413374001165	440.3157925999267	444.359923700104	0.842537899967283	1.0097099000122398	0.868945499882102	443.3556359999352	0.3963843998499214	442.342102499912	2	1	111	2	go_punish	1	0	-1	1	1	1	1	0.0	0.0	0	0.3085793000645935	0.3963843998499214	1885.029707100009	2321.9644170999527	2322.9710445001256	2323.813582400093	2325.3454996999358	2326.355209599948	2327.371809599921	2328.3853430999443	2329.389630800113	2330.258576299995	2020-01-03 18:01:56.451300	9.70611211860329	-0.217600179339878	-8.42508387381247	-0.256573516362023	1.28102824479082	-8.42508387381247	-9.70611211860329	-0.217600179339878	-8.42508387381247	1.28102824479082	-8.42508387381247	0.217600179339878	-2.7020291693628273	-5.085814948054967	-6.6554565783988675	-6.193773635381513	-7.478167393714127	-6.6554565783988675	-0.3335284285007798	-8.417826570737908	-5.715797401375082	-6.3742055992582625	-5.367065927195569	4	wrong	1.0
445.242068399908	8.407019400037825	go_reward	0.4480204000137746	445.2509069999219	446.66540129995064	449.22028140001976	1.414494300028764	446.244178700028	448.1969071999197	452.27326550008775	0.42122259992265754	1.0233742001000792	1.3846608998719603	451.2600237999586	0.4124640000518411	450.23513050004885	2	1	112	4	go_reward	1	1	0	1	1	1	0	0.0	1.0	1	0.4480204000137746	0.4124640000518411	1885.029707100009	2330.280614099931	2331.273885800037	2331.6951083999597	2333.2266142999288	2334.249988500029	2335.264837600058	2336.2897308999677	2337.302972600097	2338.687633499969	2020-01-03 18:01:56.451300	48.1157008650189	32.2395774224358	0.0	32.2395774224358	48.1157008650189	0.0	-48.1157008650189	32.2395774224358	0.0	48.1157008650189	0.0	0.5880258939894958	35.707559577052784	27.371362653720713	1.7696272954136032	26.30237730341631	39.35650522651395	1.7696272954136032	0.03689728614883803	38.416846049490175	2.7092864724373884	26.082972002517415	3.058017946616901	4	correct	1.0
453.69253859994933	9.891163000138476	nogo_reward	1.0	453.7013771999632	456.5243289999203	459.06096699996897	2.8229517999570817	454.69851729995617	458.0408358999998	462.09744590008677	1.825811699964106	1.0201310999691486	1.4950943000148982	461.0965980999176	0.3973336999770254	460.07635720004373	2	1	113	3	nogo_reward	1	0	1	0	0	1	0	0.0	1.0	1	1.0	0.3973336999770254	1885.029707100009	2338.7310842999723	2339.7282243999653	2341.5540360999294	2343.070543000009	2344.090674099978	2345.106064300053	2346.1263051999267	2347.127153000096	2348.6222473001108	2020-01-03 18:01:56.451300	3.69030271153882	0.814808837703126	11.6242865000467	11.7153671747419	7.93398378850785	11.6242865000467	-3.69030271153882	11.6242865000467	0.814808837703126	11.6242865000467	7.93398378850785	21.203316816378596	-8.717838576427297	-4.053405931011963	13.393913795460303	5.77816705572241	-0.8252118499970971	13.393913795460303	20.65218820853794	1.9254316845179726	10.643270260945238	5.467681080128316	3.8728267843200266	4	correct	1.0
463.6229699999094	8.477026700042188	go_punish	1.0	463.63180859992326	465.07083559990906	467.59916949993976	1.4390269999857992	464.63366840011486	466.57590149994985	470.6291147000161	0.43716719979420304	1.023267999989912	1.47972059994936	469.6275545000103	0.3068750998936593	468.6146623000973	2	1	114	2	go_punish	1	0	-1	1	0	0	0	0.0	1.0	-1	1.0	0.3068750998936593	1885.029707100009	2348.6615156999324	2349.663375500124	2350.100542699918	2351.605608599959	2352.628876599949	2353.6443694001064	2354.6572616000194	2355.658821800025	2357.1385423999745	2020-01-03 18:01:56.451300	-9.83346635534061	-0.133959512039571	-8.42508387381247	-0.165559523985766	1.40838248152814	-8.42508387381247	9.83346635534061	-8.42508387381247	-0.133959512039571	-8.42508387381247	1.40838248152814	-0.257676104885439	-22.24160764330673	-5.00217428075466	-6.6554565783988675	-6.102759643005256	-7.350813156976807	-6.6554565783988675	-0.8088047127260968	-18.1239386893412	4.117668953965529	-14.581689293730854	2.9240584345773297	4	correct	1.0
472.1230397000909	8.180780199822038	go_reward	0.2654027999378741	472.13187830010474	473.7042894000192	476.2661445999988	1.5724110999144614	473.143182399916	475.2457677000207	479.32763580000073	0.5611070001032203	1.020376899978146	0.9850226999260485	478.308616100112	0.5943493000231683	477.28020339994737	2	1	115	4	go_reward	1	1	0	1	1	1	0	0.0	1.0	1	0.2654027999378741	0.5943493000231683	1885.029707100009	2357.161585400114	2358.172889499925	2358.7339965000283	2360.2754748000298	2361.295851700008	2362.3099104999565	2363.338323200121	2364.35734290001	2365.342365599936	2020-01-03 18:01:56.451300	48.3920087748233	32.4250297555766	0.0	32.4250297555766	48.3920087748233	0.0	-48.3920087748233	32.4250297555766	0.0	48.3920087748233	0.0	0.402573560848694	35.983867486857186	27.556814986861514	1.7696272954136032	26.487829636557112	39.632813136318354	1.7696272954136032	-0.14855504699196376	38.69315395929458	2.7092864724373884	26.268424335658217	3.058017946616901	4	correct	1.0
480.32919270009734	7.98584259999916	nogo_punish	1.0	480.3380313001112	481.91425430006393	484.43252400006213	1.5762229999527335	481.3530395000712	483.42101110005797	487.477649299894	0.5612147999927402	1.0115129000041634	0.8462246002163738	486.47238150006206	0.5353556000627577	485.4532596999784	2	1	116	1	nogo_punish	0	0	-1	0	0	1	0	0.0	1.0	-1	1.0	0.5353556000627577	1885.029707100009	2365.3677384001203	2366.3827466000803	2366.943961400073	2368.450718200067	2369.462231100071	2370.4829667999875	2371.502088600071	2372.507356399903	2373.3535810001194	2020-01-03 18:01:56.451300	6.51107881641387	-8.19305361810829	-0.153810385194957	-0.196515753257375	-6.66488920160883	-0.153810385194957	-6.51107881641387	-0.153810385194957	-8.19305361810829	-0.153810385194957	-6.66488920160883	-8.528949593502952	-5.897062471552247	-13.061268386823379	1.6158169102186462	-6.133715872276865	-15.424084840113776	1.6158169102186462	-9.08007820134361	-9.852665200723685	-3.9556027291714413	-6.310415805113341	-5.13503567149139	4	correct	1.0
488.3583972998895	8.807206700090319	go_punish	0.2382975001819431	488.36723589990333	490.18729869998106	492.73642290011094	1.8200628000777215	489.36812409991444	491.715730200056	495.7839464999274	0.8191746000666171	1.0206927000549513	1.3904961000662297	494.7742963000205	0.5555186001583934	493.7530741000087	2	1	117	2	go_punish	1	0	-1	1	1	1	0	0.0	1.0	0	0.2382975001819431	0.5555186001583934	1885.029707100009	2373.3969429999124	2374.3978311999235	2375.21700579999	2376.745437300065	2377.76613000012	2378.782781200018	2379.8040034000296	2380.8136535999365	2382.2041497000027	2020-01-03 18:01:56.451300	7.73745759283007	-0.133959512039571	-8.51457472011554	-5.41772018161252	-0.777117127285472	-8.51457472011554	-7.73745759283007	-0.133959512039571	-8.51457472011554	-0.777117127285472	-8.51457472011554	0.133959512039571	-4.670683695136047	-5.00217428075466	-6.744947424701937	-11.35492030063201	-9.536312765790418	-6.744947424701937	-0.41716909580108674	-10.4759719428142	-5.805288247678152	-6.290564931957955	-5.456556773498639	4	correct	1.0
497.1894070999697	8.642149300081655	go_reward	0.3259731000289321	497.19824569998354	498.7585138001018	501.31653720000804	1.5602681001182646	498.2099123999951	500.28973839990795	504.35566859995106	0.5486014001066906	1.0267988001000958	1.4847264001141411	503.3517346999147	0.4757786998525262	502.3315838000276	2	1	118	4	go_reward	1	1	0	1	1	1	0	1.0	0.0	1	0.3259731000289321	0.4757786998525262	1885.029707100009	2382.2279527999926	2383.239619500004	2383.788220900111	2385.319445499917	2386.346244300017	2387.3612909000367	2388.381441799924	2389.38537569996	2390.8701021000743	2020-01-03 18:01:56.451300	48.5609543790651	32.5387338217809	0.0	32.5387338217809	48.5609543790651	0.0	-48.5609543790651	32.5387338217809	0.0	48.5609543790651	0.0	0.2888694946443948	36.152813091098984	27.670519053065814	1.7696272954136032	26.60153370276141	39.80175874056015	1.7696272954136032	-0.26225911319626294	38.862099563536376	2.7092864724373884	26.382128401862516	3.058017946616901	4	wrong	1.0
505.8553160999436	8.353026000084355	go_reward	0.535137000028044	505.86415469995745	507.23345530009874	509.7733976000459	1.3693006001412868	506.87467920011886	508.7491462999028	512.8114946000283	0.35877609997987747	1.024251300143078	1.405686100013554	511.79851020011165	0.3835728000849485	510.77703980007254	2	1	119	4	go_reward	1	1	0	1	1	1	0	0.0	1.0	1	0.535137000028044	0.3835728000849485	1885.029707100009	2390.8938617999665	2391.904386300128	2392.263162400108	2393.778853399912	2394.803104700055	2395.8067469000816	2396.8282173001207	2397.8412017000373	2399.246887800051	2020-01-03 18:01:56.451300	48.6705871557102	32.6128394046004	0.0	32.6128394046004	48.6705871557102	0.0	-48.6705871557102	32.6128394046004	0.0	48.6705871557102	0.0	0.21476391182489607	36.262445867744084	27.744624635885312	1.7696272954136032	26.67563928558091	39.91139151720525	1.7696272954136032	-0.3363646960157617	38.971732340181475	2.7092864724373884	26.456233984682015	3.058017946616901	4	correct	1.0
514.2364399998914	9.800360399997317	nogo_punish	1.0	514.2452785999053	517.2056009999951	519.7322164999791	2.960322400089808	515.2474134000954	518.7124983000108	522.7783246000768	1.958187599899702	1.019718199968338	1.2673143998258638	521.7643681000923	0.3652815001551062	520.739405300003	2	1	120	1	nogo_punish	1	-1	0	0	0	1	0	0.0	1.0	0	1.0	0.3652815001551062	1885.029707100009	2399.2749856999144	2400.2771205001045	2402.235308100004	2403.74220540002	2404.761923599988	2405.769112400012	2406.7940752001014	2407.808031700086	2409.0753460999117	2020-01-03 18:01:56.451300	3.43697804928417	-8.19305361810829	-5.4109815338991	-5.44369533147154	-8.84795958318327	-5.4109815338991	-3.43697804928417	-5.4109815338991	-8.19305361810829	-5.4109815338991	-8.84795958318327	5.4109815338991	-8.971163238681948	-13.061268386823379	-3.6413542384854964	-11.38089545049103	-17.607155221688217	-3.6413542384854964	4.8598529260584415	-15.109836349427827	-6.138673110745882	-11.567586953817484	-5.13503567149139	4	correct	1.0
