onset	duration	trial_type	response_time	cueOnset	targetOnset	fbOnset	cueRT	firstfixOnset	secondfixOnset	waitOnset	firstfixdur	secondfixdur	waitdur	nback_fbOnset	nback_response_time	nback_targetOnset	block	wm	trial	cue	cond	is_common	outcome_go	outcome_nogo	key_correct	key_pressed	is_correct	key_correct_nback	key_pressed_nback	is_correct_nback	outcome	rt	rt_nback	time_scan	time_onset	time_isi1	time_circle	time_isi2	time_feedback	time_same	time_correct	time_iti	time_done	timestamp_scan	DV	Qgo	Qnogo	SV	Wgo	Wnogo	mDV	Qchosen	Qunchosen	Wchosen	Wunchosen	PE	DVC	QgoC	QnogoC	SVC	WgoC	WnogoC	PEC	WchosenC	WunchosenC	QchosenC	QunchosenC	run	outcome_nback	nback_targetResp
0.0	7.658605599994189	nogo_punish	1.0	0.025809900005697273	2.876412800003891	5.400881599998684	2.8506028999981936	1.0405108999984805	4.37988839999889	6.404269999999087	1.8359019000054104	1.0209931999997934	1.280145500000799	n/a	1.0	n/a	1	0	61	2	nogo_punish	1	-1	0	0	0	1	0	n/a	n/a	0	1.0	1.0	605.9751741000073	606.000984000013	607.0156850000058	608.8515869000112	610.3550625000062	611.376055700006	n/a	n/a	612.3794441000064	613.6595896000072	2020-06-04 10:39:22.685643	1.5058701124266	-3.82674978425227	-2.03307568479497	-3.61308602640215	-3.53894579722157	-2.03307568479497	-1.5058701124266	-2.03307568479497	-3.82674978425227	-2.03307568479497	-3.53894579722157	2.03307568479497	-1.7125077017461183	-4.569735318689905	-2.38333039587811	-5.507535345485574	-5.345022040303837	-2.38333039587811	1.7091203840088525	-4.720430068964032	-3.0079223672179136	-4.090021281648818	-2.8630444329191964	2	missed	0.0
7.697509799996624	5.805724199992255	go_reward	0.5199187999969581	7.723319700002321	9.225133999992977	11.759199299995089	1.5018142999906559	8.73443729999417	10.746130999992602	12.769840900000418	0.49069669999880716	1.0130683000024874	0.7592029999941587	n/a	1.0	n/a	1	0	62	3	go_reward	1	1	0	1	1	1	0	n/a	n/a	1	0.5199187999969581	1.0	605.9751741000073	613.6984938000096	614.7096114000014	615.2003081000003	616.7213050999999	617.7343734000024	n/a	n/a	618.7450150000077	619.5042180000019	2020-06-04 10:39:22.685643	8.52455716932003	6.99314018270747	0.0	6.99314018270747	8.52455716932003	0.0	-8.52455716932003	6.99314018270747	0.0	8.52455716932003	0.0	2.68582923198652	5.306179355147311	6.250154648269835	-0.35025471108314005	5.0986908636240456	6.7184809262377625	-0.35025471108314005	2.3618739312004027	5.837202785150968	0.5310234300036563	4.936194585853622	0.9637053513330737	2	missed	0.0
13.541056599991862	7.201267399999779	go_reward	0.400221900010365	13.566866499997559	16.014102999994066	18.556046300000162	2.4472364999965066	14.576681299993652	17.53153100000054	19.55523880000692	1.4374217000004137	1.0245152999996208	1.2128950999904191	n/a	1.0	n/a	1	0	63	3	go_reward	1	1	0	1	1	1	0	n/a	n/a	1	0.400221900010365	1.0	605.9751741000073	619.5420406000048	620.5518554000009	621.9892771000013	623.5067051000078	624.5312204000074	n/a	n/a	625.5304129000142	626.7433080000046	2020-06-04 10:39:22.685643	8.99098900277611	7.40976450872745	0.0	7.40976450872745	8.99098900277611	0.0	-8.99098900277611	7.40976450872745	0.0	8.99098900277611	0.0	2.2692049059665393	5.772611188603392	6.666778974289816	-0.35025471108314005	5.515315189644026	7.184912759693844	-0.35025471108314005	1.945249605180422	6.303634618607049	0.5310234300036563	5.352818911873602	0.9637053513330737	2	missed	0.0
20.778097099988372	7.740681300012511	nogo_punish	1.0	20.80390699999407	23.5527507999941	26.069839400006458	2.7488438000000315	21.807231200000388	25.048131599993212	27.07338260000688	1.7455195999937132	1.021707800013246	1.4712056999997003	n/a	1.0	n/a	1	0	64	2	nogo_punish	1	-1	0	0	0	1	0	n/a	n/a	0	1.0	1.0	605.9751741000073	626.7790811000013	627.7824053000077	629.5279249000014	631.0233057000005	632.0450135000137	n/a	n/a	633.0485567000142	634.5197624000139	2020-06-04 10:39:22.685643	1.78872300261088	-3.82674978425227	-1.67264635012097	-2.99509520174845	-3.46136935273185	-1.67264635012097	-1.78872300261088	-1.67264635012097	-3.82674978425227	-1.67264635012097	-3.46136935273185	1.67264635012097	-1.4296548115618384	-4.569735318689905	-2.0229010612041103	-4.889544520831874	-5.267445595814117	-2.0229010612041103	1.3486910493348527	-4.360000734290033	-2.9303459227281934	-3.7295919469748187	-2.8630444329191964	2	missed	0.0
28.556576499991934	7.628746999995201	nogo_punish	1.0	28.58238639999763	31.288572399993427	33.813605500006815	2.706185999995796	29.5862652999931	32.79336759999569	34.82688069999858	1.7023071000003256	1.020237900011125	1.3842526999942493	n/a	1.0	n/a	1	0	65	2	nogo_punish	1	-1	0	0	0	1	0	n/a	n/a	0	1.0	1.0	605.9751741000073	634.5575605000049	635.5614394000004	637.2637465000007	638.768541700003	639.7887796000141	n/a	n/a	640.8020548000059	642.1863075000001	2020-06-04 10:39:22.685643	2.01733434973074	-3.82674978425227	-1.38152801478748	-2.4917830292908	-3.39886236451821	-1.38152801478748	-2.01733434973074	-1.38152801478748	-3.82674978425227	-1.38152801478748	-3.39886236451821	1.38152801478748	-1.2010434644419785	-4.569735318689905	-1.73178272587062	-4.386232348374224	-5.204938607600477	-1.73178272587062	1.0575727140013627	-4.068882398956543	-2.8678389345145536	-3.4384736116413284	-2.8630444329191964	2	missed	0.0
36.22527089998766	6.514339300003485	go_reward	0.4895530999929178	36.25108079999336	37.98591909999959	40.51810820000537	1.7348383000062313	37.252164699995774	39.51237749999564	41.531550500003505	0.7337544000038179	1.0057307000097353	1.2338695999933407	n/a	1.0	n/a	1	0	66	3	go_reward	0	0	1	1	1	1	0	n/a	n/a	0	0.4895530999929178	1.0	605.9751741000073	642.2262549000006	643.227338800003	643.9610932000069	645.4875516000029	646.4932823000127	n/a	n/a	647.5067246000108	648.7405942000041	2020-06-04 10:39:22.685643	9.3779472005135	7.75588734450576	0.0	7.75588734450576	9.3779472005135	0.0	-9.3779472005135	7.75588734450576	0.0	9.3779472005135	0.0	-7.75588734450576	6.159569386340781	7.012901810068126	-0.35025471108314005	5.861438025422336	7.571870957431233	-0.35025471108314005	-8.079842645291878	6.690592816344438	0.5310234300036563	5.6989417476519115	0.9637053513330737	2	missed	0.0
42.77522329999192	6.238072499996633	nogo_reward	0.5845311000011861	42.80103319999762	44.143869699997595	46.66673230000015	1.3428364999999758	43.8160280000011	45.647551300004125	47.685822300001746	0.3278416999964975	1.0191809999960242	1.353283399992506	n/a	1.0	n/a	1	0	67	4	nogo_reward	1	0	1	0	1	0	0	n/a	n/a	0	0.5845311000011861	1.0	605.9751741000073	648.7762073000049	649.7912021000084	650.1190438000049	651.6227254000114	652.6419064000074	n/a	n/a	653.660996400009	655.0142798000015	2020-06-04 10:39:22.685643	1.01109000125232	1.6200350295464	1.55706563803475	2.01664696625791	2.56815563928706	1.55706563803475	-1.01109000125232	1.6200350295464	1.55706563803475	2.56815563928706	1.55706563803475	-1.6200350295464	-2.2072878129203986	0.8770494951087654	1.20681092695161	0.12219764717448545	0.7620793962047931	1.20681092695161	-1.9439903303325174	-0.11919874488200222	2.088089068038406	-0.43691056730744826	2.520770989367824	2	missed	0.0
49.049987099991995	7.97422610000649	nogo_reward	0.4800084000016795	49.07579699999769	52.03983949999383	54.587187600001926	2.9640424999961397	50.080835999993724	53.56718399999954	55.59080960000574	1.959003500000108	1.0200036000023829	1.459213499998441	n/a	1.0	n/a	1	0	68	4	nogo_reward	1	0	1	0	1	0	0	n/a	n/a	0	0.4800084000016795	1.0	605.9751741000073	655.050971100005	656.056010100001	658.0150136000011	659.5423581000068	660.5623617000092	n/a	n/a	661.565983700013	663.0251972000115	2020-06-04 10:39:22.685643	0.712289929428655	1.36051560957296	1.55706563803475	1.69535435372656	2.2693555674634	1.55706563803475	-0.712289929428655	1.36051560957296	1.55706563803475	2.2693555674634	1.55706563803475	-1.36051560957296	-2.5060878847440633	0.6175300751353253	1.20681092695161	-0.19909496535686433	0.46327932438113284	1.20681092695161	-1.6844709103590774	-0.4179988167056625	2.088089068038406	-0.6964299872808883	2.520770989367824	2	missed	0.0
57.05859289999353	6.744393000000855	nogo_reward	0.4216337999969255	57.084402799999225	59.31662779999897	61.86829359999683	2.232224999999744	58.09670769999502	60.85904569999548	62.88232309999876	1.2199201000039466	1.0092479000013554	0.9464727000013227	n/a	1.0	n/a	1	0	69	4	nogo_reward	1	0	1	0	1	0	1	n/a	n/a	0	0.4216337999969255	1.0	605.9751741000073	663.0595769000065	664.0718818000023	665.2918019000062	666.8342198000028	667.8434677000041	n/a	n/a	668.857497200006	669.8039699000074	2020-06-04 10:39:22.685643	0.465382064825491	1.14578790687194	1.55706563803475	1.42919884829909	2.02244770286024	1.55706563803475	-0.465382064825491	1.14578790687194	1.55706563803475	2.02244770286024	1.55706563803475	-1.14578790687194	-2.7529957493472272	0.4028023724343054	1.20681092695161	-0.46525047078433435	0.2163714597779729	1.20681092695161	-1.4697432076580574	-0.6649066813088225	2.088089068038406	-0.9111576899819083	2.520770989367824	2	missed	0.0
63.83494259999134	6.3219100999995135	go_punish	1.0	63.860752499997034	65.69815969999763	68.22294209999382	1.837407200000598	64.85329280000587	67.20352830000047	69.23005280000507	0.8448668999917572	1.0194137999933446	0.9526097999914782	n/a	1.0	n/a	1	0	70	1	go_punish	0	-1	0	1	0	0	0	n/a	n/a	0	1.0	1.0	605.9751741000073	669.8359266000043	670.8284669000132	671.6733338000049	673.1787024000078	674.1981162000011	n/a	n/a	675.2052269000123	676.1578367000038	2020-06-04 10:39:22.685643	-1.2412947937489	-0.998521122867808	-1.81347955918513	-2.3634829161572	-0.57218476543623	-1.81347955918513	1.2412947937489	-1.81347955918513	-0.998521122867808	-1.81347955918513	-0.57218476543623	1.81347955918513	-4.459672607921618	-1.7415066573054427	-2.1637342702682703	-4.257932235240625	-2.378261008518497	-2.1637342702682703	1.4895242583990127	-4.500833943354192	-0.04116133543257372	-3.870425156038978	-0.03481577153473436	2	missed	0.0
70.1938048999873	5.9387285000120755	nogo_punish	1.0	70.219614799993	71.70696589999716	74.24564409999584	1.4873511000041617	71.23355649999576	73.2206170999998	75.25251000000571	0.4734094000014011	1.0250269999960437	0.9058332999993581	n/a	1.0	n/a	1	0	71	2	nogo_punish	1	-1	0	0	0	1	0	n/a	n/a	0	1.0	1.0	605.9751741000073	676.1947889000003	677.208730600003	677.6821400000044	679.1957912000071	680.2208182000031	n/a	n/a	681.227684100013	682.1335174000124	2020-06-04 10:39:22.685643	2.20299596071791	-3.82674978425227	-1.14528479006692	-2.08009777554041	-3.34828075078483	-1.14528479006692	-2.20299596071791	-1.14528479006692	-3.82674978425227	-1.14528479006692	-3.34828075078483	1.14528479006692	-1.0153818534548082	-4.569735318689905	-1.49553950115006	-3.9745470946238344	-5.154356993867097	-1.49553950115006	0.8213294892808027	-3.8326391742359824	-2.8172573207811737	-3.2022303869207684	-2.8630444329191964	2	missed	0.0
76.16943479998736	6.793120200003614	nogo_punish	1.0	76.19524469999305	78.25714329999755	80.78770179999992	2.061898600004497	77.2110529000056	79.76821660000132	81.80088080000132	1.0460903999919537	1.0194851999985985	1.1874840999953449	n/a	1.0	n/a	1	0	72	2	nogo_punish	1	-1	0	0	0	1	0	n/a	n/a	0	1.0	1.0	605.9751741000073	682.1704188000003	683.1862270000129	684.2323174000048	685.7433907000086	686.7628759000072	n/a	n/a	687.7760549000086	688.963539000004	2020-06-04 10:39:22.685643	2.35445090794653	-3.82674978425227	-0.95273387529748	-1.74200216843857	-3.30718478324401	-0.95273387529748	-2.35445090794653	-0.95273387529748	-3.82674978425227	-0.95273387529748	-3.30718478324401	0.95273387529748	-0.8639269062261885	-4.569735318689905	-1.30298858638062	-3.6364514875219944	-5.113261026326277	-1.30298858638062	0.6287785745113628	-3.6400882594665425	-2.7761613532403535	-3.0096794721513285	-2.8630444329191964	2	missed	0.0
82.9953225999925	5.827151200006483	nogo_reward	0.4796716999990167	83.0211324999982	84.43367020000005	86.97465999999258	1.4125377000018489	84.02324870000302	85.96578879999288	87.97775039999397	0.41042149999702815	1.008871199999703	0.8705333000107203	n/a	1.0	n/a	1	0	73	4	nogo_reward	1	0	1	0	1	0	0	n/a	n/a	0	0.4796716999990167	1.0	605.9751741000073	688.9963066000055	689.9984228000103	690.4088443000073	691.9409629000002	692.9498340999999	n/a	n/a	693.9529245000012	694.823457800012	2020-06-04 10:39:22.685643	0.260689410749107	0.967540932122908	1.55706563803475	1.20801139345198	1.81775504878385	1.55706563803475	-0.260689410749107	0.967540932122908	1.55706563803475	1.81775504878385	1.55706563803475	-0.967540932122908	-2.9576884034236115	0.22455539768527333	1.20681092695161	-0.6864379256314443	0.011678805701583084	1.20681092695161	-1.2914962329090254	-0.8695993353852123	2.088089068038406	-1.0894046647309403	2.520770989367824	2	missed	0.0
88.85789269999077	7.264212299996871	go_punish	1.0	88.88370259999647	91.22754429999623	93.75324550000369	2.343841699999757	89.88993930000288	92.738649299994	94.76366310000594	1.3376049999933457	1.0145962000096915	1.3842517999873962	n/a	1.0	n/a	1	0	74	1	go_punish	1	0	-1	1	0	0	0	n/a	n/a	-1	1.0	1.0	605.9751741000073	694.8588767000037	695.8651134000102	697.2027184000035	698.7138234000013	699.728419600011	n/a	n/a	700.7388372000132	702.1230890000006	2020-06-04 10:39:22.685643	-0.965957667050509	-0.998521122867808	-1.4830723278229	-1.93760142946623	-0.517114660772395	-1.4830723278229	0.965957667050509	-1.4830723278229	-0.998521122867808	-1.4830723278229	-0.517114660772395	-4.437682475807399	-4.184335481223227	-1.7415066573054427	-1.83332703890604	-3.8320507485496544	-2.323190903854662	-1.83332703890604	-4.761637776593517	-4.170426711991962	0.013908769231261275	-3.5400179246767483	-0.03481577153473436	2	missed	0.0
96.1549984000012	6.240246799992747	go_punish	1.0	96.1808083000069	97.72606659999292	100.25567220000084	1.545258299986017	97.17345010000281	99.24144840000372	101.26478129999305	0.5526164999901084	1.0142237999971258	1.156273800006602	n/a	1.0	n/a	1	0	75	1	go_punish	1	0	-1	1	0	0	0	n/a	n/a	-1	1.0	1.0	605.9751741000073	702.1559824000142	703.1486242000101	703.7012407000002	705.216622500011	706.2308463000081	n/a	n/a	707.2399554000003	708.3962292000069	2020-06-04 10:39:22.685643	-1.61916133213416	-0.998521122867808	-2.21663837134546	-2.59363392751754	-0.597477039211292	-2.21663837134546	1.61916133213416	-2.21663837134546	-0.998521122867808	-2.21663837134546	-0.597477039211292	-3.70411643228484	-4.837539146306878	-1.7415066573054427	-2.5668930824286	-4.488083246600965	-2.403553282293559	-2.5668930824286	-4.0280717330709574	-4.903992755514523	-0.06645360920763577	-4.273583968199308	-0.03481577153473436	2	missed	0.0
102.4285349999991	7.104510199991637	nogo_reward	0.2673979000101099	102.4543449000048	105.02496349999274	107.56346740000299	2.570618599987938	103.45607780000137	106.56576699999277	108.57557299999462	1.5688856999913696	0.997700400010217	0.9832821000018157	n/a	1.0	n/a	1	0	76	4	nogo_reward	1	0	1	0	1	0	0	n/a	n/a	0	0.2673979000101099	1.0	605.9751741000073	708.4295190000121	709.4312519000086	711.0001376	712.5409411	713.5386415000103	n/a	n/a	714.5507471000019	715.5340292000037	2020-06-04 10:39:22.685643	0.0904701051473385	0.81911911121477	1.55706563803475	1.02363556774833	1.64753574318208	1.55706563803475	-0.0904701051473385	0.81911911121477	1.55706563803475	1.64753574318208	1.55706563803475	-0.81911911121477	-3.1279077090253797	0.07613357677713528	1.20681092695161	-0.8708137513350944	-0.15854049990018693	1.20681092695161	-1.1430744120008873	-1.0398186409869823	2.088089068038406	-1.2378264856390784	2.520770989367824	2	missed	0.0
109.56816080000135	6.877616299985675	go_punish	1.0	109.59397070000705	111.97503380000126	114.50175710000622	2.3810630999942077	110.61096659999748	113.48216359999788	115.51520540000638	1.364067200003774	1.019593500008341	0.9563815999863436	n/a	1.0	n/a	1	0	77	1	go_punish	0	-1	0	1	0	0	1	n/a	n/a	0	1.0	1.0	605.9751741000073	715.5691448000143	716.5861407000048	717.9502079000085	719.4573377000052	720.4769312000135	n/a	n/a	721.4903795000137	722.4467611	2020-06-04 10:39:22.685643	-2.15538526030706	-0.998521122867808	-2.81801201780052	-3.13177215005204	-0.662626757493462	-2.81801201780052	2.15538526030706	-2.81801201780052	-0.998521122867808	-2.81801201780052	-0.662626757493462	2.81801201780052	-5.373763074479778	-1.7415066573054427	-3.16826672888366	-5.026221469135464	-2.468703000575729	-3.16826672888366	2.494056717014403	-5.5053664019695825	-0.13160332748980574	-4.8749576146543685	-0.03481577153473436	2	missed	0.0
116.48776709999947	6.321543300000485	go_reward	0.415485899997293	116.51357700000517	118.27193069999339	120.82326340000145	1.7583536999882199	117.51264820000506	119.81245880000643	121.83614939999825	0.7592824999883305	1.0108045999950264	0.9989709000074072	n/a	1.0	n/a	1	0	78	3	go_reward	0	0	1	1	1	1	0	n/a	n/a	0	0.415485899997293	1.0	605.9751741000073	722.4887511000125	723.4878223000123	724.2471048000007	725.7876329000137	726.7984375000087	n/a	n/a	727.8113235000055	728.8102944000129	2020-06-04 10:39:22.685643	7.95162529517001	6.48741446930426	0.0	6.48741446930426	7.95162529517001	0.0	-7.95162529517001	6.48741446930426	0.0	7.95162529517001	0.0	-6.48741446930426	4.733247480997292	5.744428934866625	-0.35025471108314005	4.592965150220835	6.145549052087743	-0.35025471108314005	-6.811369770090377	5.264270911000947	0.5310234300036563	4.430468872450412	0.9637053513330737	2	missed	0.0
122.84410879999632	7.525898599997163	go_punish	1.0	122.86991870000202	125.64195429999381	128.15539420000277	2.7720355999917956	123.87680199999886	127.14564230000542	129.15283049999562	1.765152299994952	1.0097518999973545	1.242986800003564	n/a	1.0	n/a	1	0	79	1	go_punish	1	0	-1	1	0	0	1	n/a	n/a	-1	1.0	1.0	605.9751741000073	728.8450928000093	729.8519761000061	731.6171284000011	733.1208164000127	734.13056830001	n/a	n/a	735.1280046000029	736.3709914000065	2020-06-04 10:39:22.685643	-1.72312322173526	-0.998521122867808	-2.31459698563831	-2.57657517251219	-0.591473763903055	-2.31459698563831	1.72312322173526	-2.31459698563831	-0.998521122867808	-2.31459698563831	-0.591473763903055	-3.6061578179919898	-4.9415010359079785	-1.7415066573054427	-2.66485169672145	-4.471024491595614	-2.397550006985322	-2.66485169672145	-3.930113118778107	-5.001951369807372	-0.06045033389939869	-4.371542582492158	-0.03481577153473436	2	missed	0.0
130.40666879998753	6.936231400002725	nogo_reward	0.3175903999945149	130.43247869999323	132.91482829999586	135.4662618000002	2.4823496000026353	131.44675339999958	134.445521799993	136.4777410999959	1.4680748999962816	1.0207400000072084	0.890969000000041	n/a	1.0	n/a	1	0	80	4	nogo_reward	1	0	1	0	1	0	0	n/a	n/a	0	0.3175903999945149	1.0	605.9751741000073	736.4076528000005	737.4219275000069	738.8900024000031	740.4206959000003	741.4414359000075	n/a	n/a	742.4529152000032	743.3438842000032	2020-06-04 10:39:22.685643	-0.0514971682686849	0.695168669807698	1.55706563803475	0.86950055999344	1.50556846976606	1.55706563803475	0.0514971682686849	0.695168669807698	1.55706563803475	1.50556846976606	1.55706563803475	-0.695168669807698	-3.2698749824414035	-0.04781686462993673	1.20681092695161	-1.0249487590899844	-0.3005077733162069	1.20681092695161	-1.0191239705938153	-1.1817859144030023	2.088089068038406	-1.3617769270461504	2.520770989367824	2	missed	0.0
137.37674449999759	6.3477865000022575	nogo_reward	0.5968101000034949	137.40255440000328	138.72277459999896	141.26872419999563	1.3202201999956742	138.4084417999984	140.2436394999968	142.27266970000346	0.31433280000055674	1.0250846999988426	1.477671200002078	n/a	1.0	n/a	1	0	81	4	nogo_reward	0	1	0	0	1	0	0	n/a	n/a	1	0.5968101000034949	1.0	605.9751741000073	743.3777285000106	744.3836159000057	744.6979487000062	746.2188136000041	747.2438983000029	n/a	n/a	748.2478438000107	749.7255150000128	2020-06-04 10:39:22.685643	-0.170232668653033	0.591364971191254	1.55706563803475	0.74029120357761	1.38683296938171	1.55706563803475	0.170232668653033	0.591364971191254	1.55706563803475	1.38683296938171	1.55706563803475	9.087604443502736	-3.3886104828257513	-0.15162056324638074	1.20681092695161	-1.1541581155058145	-0.4192432737005569	1.20681092695161	8.763649142716618	-1.3005214147873523	2.088089068038406	-1.4655806256625943	2.520770989367824	2	missed	0.0
143.75793529998919	7.333051699999487	go_punish	1.0	143.78374519999488	146.54850990000705	149.0682261000038	2.764764700012165	144.7780519999942	148.04480760000297	150.06869470000674	1.7704579000128433	1.0234185000008438	1.0481021999876248	n/a	1.0	n/a	1	0	82	1	go_punish	1	0	-1	1	0	0	0	n/a	n/a	-1	1.0	1.0	605.9751741000073	749.7589193000022	750.7532261000015	752.5236840000143	754.0199817000102	755.0434002000111	n/a	n/a	756.043868800014	757.0919710000016	2020-06-04 10:39:22.685643	-2.24857986642137	-0.998521122867808	-2.90739405976906	-3.12680871723315	-0.658814193347688	-2.90739405976906	2.24857986642137	-2.90739405976906	-0.998521122867808	-2.90739405976906	-0.658814193347688	-3.0133607438612398	-5.4669576805940885	-1.7415066573054427	-3.2576487708522	-5.021258036316574	-2.464890436429955	-3.2576487708522	-3.337316044647357	-5.594748443938123	-0.12779076334403172	-4.964339656622908	-0.03481577153473436	2	missed	0.0
151.13089309999486	6.346860399993602	nogo_punish	1.0	151.15670300000056	152.61133090000658	155.13044999999693	1.4546279000060167	152.156124000001	154.11610080000537	156.1424423999997	0.45520690000557806	1.0143491999915568	1.361120999994455	n/a	1.0	n/a	1	0	83	2	nogo_punish	1	-1	0	0	0	1	0	n/a	n/a	0	1.0	1.0	605.9751741000073	757.1318771000078	758.1312981000083	758.5865050000139	760.0912749000126	761.1056241000042	n/a	n/a	762.117616500007	763.4787375000014	2020-06-04 10:39:22.685643	2.47851680916417	-3.82674978425227	-0.795152976589485	-1.46329369012046	-3.27366978575365	-0.795152976589485	-2.47851680916417	-0.795152976589485	-3.82674978425227	-0.795152976589485	-3.27366978575365	0.795152976589485	-0.7398610050085486	-4.569735318689905	-1.1454076876726251	-3.3577430092038845	-5.079746028835917	-1.1454076876726251	0.47119767580336774	-3.4825073607585475	-2.7426463557499936	-2.8520985734433335	-2.8630444329191964	2	missed	0.0
157.51297499999055	6.40860180000891	go_punish	0.4435987000033492	157.53878489999624	158.9038736999937	161.44458609999856	1.3650887999974657	158.54456890000438	160.424838299994	162.45137840000098	0.3593047999893315	1.0197478000045521	1.4960083000041777	n/a	1.0	n/a	1	0	84	1	go_punish	1	0	-1	1	1	1	1	n/a	n/a	0	0.4435987000033492	1.0	605.9751741000073	763.5139590000035	764.5197430000117	764.879047800001	766.4000124000013	767.4197602000058	n/a	n/a	768.4265525000083	769.9225608000124	2020-06-04 10:39:22.685643	2.68037053153799	-0.998521122867808	-3.39375033692592	-3.57805390187585	-0.713379805387922	-3.39375033692592	-2.68037053153799	-0.998521122867808	-3.39375033692592	-0.713379805387922	-3.39375033692592	0.998521122867808	-0.5380072826347284	-1.7415066573054427	-3.74400504800906	-5.4725032209592746	-2.519456048470189	-3.74400504800906	0.6745658220816908	-3.4007341895569843	-2.862726906922264	-3.0554667197216565	-2.430044985592846	2	missed	0.0
163.96324269998877	6.757577399999718	go_reward	0.4163502000010339	163.98905259999447	166.42602949999855	168.97131120000267	2.4369769000040833	164.99847770000633	167.94754860000103	169.9715215000033	1.4275517999922158	1.0237626000016462	0.7751084999908926	n/a	1.0	n/a	1	0	85	3	go_reward	1	1	0	1	1	1	0	n/a	n/a	1	0.4163502000010339	1.0	605.9751741000073	769.9642267000017	770.9736518000136	772.4012036000058	773.9227227000083	774.94648530001	n/a	n/a	775.9466956000106	776.7218041000015	2020-06-04 10:39:22.685643	6.77951644817668	5.44370432496954	0.0	5.44370432496954	6.77951644817668	0.0	-6.77951644817668	5.44370432496954	0.0	6.77951644817668	0.0	4.23526508972445	3.5611386340039615	4.700718790531905	-0.35025471108314005	3.549255005886115	4.973440205094413	-0.35025471108314005	3.911309788938333	4.092162064007617	0.5310234300036563	3.3867587281156912	0.9637053513330737	2	missed	0.0
170.75856299999577	6.066191000005347	go_punish	0.3418336000031559	170.78437290000147	172.3505698999943	174.90658989999793	1.566196999992826	171.78822349999973	173.88669579999987	175.92017029999988	0.562346399994567	1.019894099998055	0.930393600006937	n/a	1.0	n/a	1	0	86	1	go_punish	1	0	-1	1	1	1	1	n/a	n/a	0	0.3418336000031559	1.0	605.9751741000073	776.7595470000088	777.763397600007	778.3257440000016	779.8618699000072	780.8817640000052	n/a	n/a	781.8953444000072	782.8257380000141	2020-06-04 10:39:22.685643	2.94371998357839	-0.814958436317325	-3.39375033692592	-2.9512321298275	-0.45003035334753	-3.39375033692592	-2.94371998357839	-0.814958436317325	-3.39375033692592	-0.45003035334753	-3.39375033692592	0.814958436317325	-0.27465783059432836	-1.5579439707549598	-3.74400504800906	-4.845681448910924	-2.256106596429797	-3.74400504800906	0.4910031355312077	-3.137384737516592	-2.862726906922264	-2.871904033171173	-2.430044985592846	2	missed	0.0
176.85991349999676	6.684644199995091	nogo_reward	1.0	176.88572340000246	178.89235819999885	181.41701190000458	2.006634799996391	177.8908522999991	180.39728220000688	182.42984979999892	1.0015058999997564	1.019729699997697	1.1405177999986336	n/a	1.0	n/a	1	0	87	4	nogo_reward	0	1	0	0	0	1	0	n/a	n/a	0	1.0	1.0	605.9751741000073	782.8608975000097	783.8660264000064	784.8675323000061	786.3724563000142	787.3921860000119	n/a	n/a	788.4050239000062	789.5455417000048	2020-06-04 10:39:22.685643	-1.47870872290311	2.06126659035457	1.55706563803475	2.18875708442216	3.03577436093786	1.55706563803475	1.47870872290311	1.55706563803475	2.06126659035457	1.55706563803475	3.03577436093786	-1.55706563803475	-4.697086537075828	1.3182810559169353	1.20681092695161	0.2943077653387358	1.229698117855593	1.20681092695161	-1.8810209388208674	-1.1302887461343123	3.566797790941516	-0.4998799588190983	3.0249719416876437	2	missed	0.0
183.58695189999708	6.3560868999920785	go_reward	0.4641930000070715	183.61276180000277	184.98030480000307	187.54185550000693	1.3675430000002962	184.62140329999966	186.5180601000029	188.55658079999557	0.35890150000341237	1.023795400004019	1.4122678999992786	n/a	1.0	n/a	1	0	88	3	go_reward	1	1	0	1	1	1	0	n/a	n/a	1	0.4641930000070715	1.0	605.9751741000073	789.58793590001	790.5965774000069	790.9554789000103	792.4932342000102	793.5170296000142	n/a	n/a	794.5317549000029	795.9440228000021	2020-06-04 10:39:22.685643	7.56115794453497	6.13873115361075	0.0	6.13873115361075	7.56115794453497	0.0	-7.56115794453497	6.13873115361075	0.0	7.56115794453497	0.0	3.54023826108324	4.342780130362252	5.395745619173115	-0.35025471108314005	4.244281834527325	5.755081701452703	-0.35025471108314005	3.216282960297123	4.873803560365907	0.5310234300036563	4.081785556756902	0.9637053513330737	2	missed	0.0
189.98334089999844	6.422922699988703	nogo_punish	1.0	190.00915080000414	191.92552930000238	194.45621299999766	1.9163784999982454	191.01994290000584	193.436618000007	195.46928239999397	0.9055863999965368	1.0195949999906588	0.9627910999988671	n/a	1.0	n/a	1	0	89	2	nogo_punish	1	-1	0	0	0	1	0	n/a	n/a	0	1.0	1.0	605.9751741000073	795.9843249000114	796.9951170000131	797.9007034000097	799.4117921000143	800.4313871000049	n/a	n/a	801.4444565000013	802.4072476000001	2020-06-04 10:39:22.685643	2.58054402173699	-3.82674978425227	-0.665696409287901	-1.23272492249581	-3.24624043102489	-0.665696409287901	-2.58054402173699	-0.665696409287901	-3.82674978425227	-0.665696409287901	-3.24624043102489	0.665696409287901	-0.6378337924357282	-4.569735318689905	-1.015951120371041	-3.127174241579234	-5.052316674107157	-1.015951120371041	0.3417411085017837	-3.3530507934569633	-2.7152170010212338	-2.7226420061417493	-2.8630444329191964	2	missed	0.0
196.43899260000035	6.292776499991305	go_punish	0.2724107999965781	196.46480250000604	198.12902989999566	200.64524369999708	1.6642273999896133	197.46728749999602	199.63984420000634	201.658196400007	0.661742399999639	1.0053994999907445	1.0993825999903493	n/a	1.0	n/a	1	0	90	1	go_punish	1	0	-1	1	1	1	0	n/a	n/a	0	0.2724107999965781	1.0	605.9751741000073	802.4399766000133	803.4424616000033	804.1042040000029	805.6150183000136	806.6204178000044	n/a	n/a	807.6333705000143	808.7327531000046	2020-06-04 10:39:22.685643	3.15448704941555	-0.66811389150558	-3.39375033692592	-2.44370261108595	-0.239263287510372	-3.39375033692592	-3.15448704941555	-0.66811389150558	-3.39375033692592	-0.239263287510372	-3.39375033692592	0.66811389150558	-0.06389076475716848	-1.4110994259432146	-3.74400504800906	-4.338151930169374	-2.045339530592639	-3.74400504800906	0.3441585907194627	-2.9266176716794345	-2.862726906922264	-2.7250594883594284	-2.430044985592846	2	missed	0.0
202.76736589999928	7.49726269999519	nogo_reward	1.0	202.79317580000497	205.4094400000031	207.93207460000122	2.6162641999981133	203.7984402000002	206.923088800002	208.94643379999616	1.6109998000029009	1.0089857999992091	1.3440047000040067	n/a	1.0	n/a	1	0	91	4	nogo_reward	0	1	0	0	0	1	0	n/a	n/a	0	1.0	1.0	605.9751741000073	808.7683499000123	809.7736143000075	811.3846141000104	812.8982629000093	813.9072487000085	n/a	n/a	814.9216079000034	816.2656126000074	2020-06-04 10:39:22.685643	-1.70497183553329	2.06126659035457	1.28515498425227	1.82533877432468	2.99012681978557	1.28515498425227	1.70497183553329	1.28515498425227	2.06126659035457	1.28515498425227	2.99012681978557	-1.28515498425227	-4.923349649706008	1.3182810559169353	0.93490027316913	-0.06911054475874434	1.1840505767033032	0.93490027316913	-1.6091102850383874	-1.4021993999167923	3.521150249789226	-0.7717906126015783	3.0249719416876437	2	missed	0.0
210.30328490000102	6.784228799995617	nogo_reward	1.0	210.32909480000671	212.25378860000637	214.7831351000059	1.924693799999659	211.33221809999668	213.75910229999863	215.79186699999264	0.9215705000096932	1.0240328000072623	1.3214566000096966	n/a	1.0	n/a	1	0	92	4	nogo_reward	1	0	1	0	0	1	0	n/a	n/a	1	1.0	1.0	605.9751741000073	816.304268900014	817.307392200004	818.2289627000137	819.7342764000059	820.7583092000132	n/a	n/a	821.7670410999999	823.0884977000096	2020-06-04 10:39:22.685643	-1.88847532590768	2.06126659035457	1.06468860098574	1.52758027131446	2.95316392689342	1.06468860098574	1.88847532590768	1.06468860098574	2.06126659035457	1.06468860098574	2.95316392689342	8.61428081370825	-5.106853140080398	1.3182810559169353	0.7144338899025999	-0.36686904776896445	1.1470876838111532	0.7144338899025999	8.290325512922132	-1.6226657831833224	3.4841873568970767	-0.9922569958681084	3.0249719416876437	2	missed	0.0
217.1292131999944	6.582575299995369	go_reward	0.418999099987559	217.1550231000001	218.70137789999717	221.2680904000008	1.5463547999970615	218.15306799999962	220.24443469999824	222.27711900000577	0.5483098999975482	1.0236557000025641	1.4604793999897083	n/a	1.0	n/a	1	0	93	3	go_reward	1	1	0	1	1	1	0	n/a	n/a	1	0.418999099987559	1.0	605.9751741000073	823.1301972000074	824.1282421000069	824.6765520000044	826.2196088000055	827.2432645000081	n/a	n/a	828.252293100013	829.7127725000028	2020-06-04 10:39:22.685643	8.2020339661826	6.7093632268862	0.0	6.7093632268862	8.2020339661826	0.0	-8.2020339661826	6.7093632268862	0.0	8.2020339661826	0.0	2.9696061878077895	4.983656152009882	5.966377692448566	-0.35025471108314005	4.814913907802776	6.3959577231003335	-0.35025471108314005	2.6456508870216724	5.514679582013539	0.5310234300036563	4.652417630032351	0.9637053513330737	2	missed	0.0
223.7475662999932	6.0827910999942105	nogo_punish	1.0	223.7733761999989	225.28855399999884	227.81215159999556	1.5151777999999467	224.7886079000018	226.8025784000056	228.82586090000405	0.49994609999703243	1.0095731999899726	1.0303063999890583	n/a	1.0	n/a	1	0	94	2	nogo_punish	1	-1	0	0	0	1	0	n/a	n/a	0	1.0	1.0	605.9751741000073	829.7485503000062	830.7637820000091	831.2637281000061	832.7777525000129	833.7873257000028	n/a	n/a	834.8010350000113	835.8313414000004	2020-06-04 10:39:22.685643	2.66475611120675	-3.82674978425227	-0.558960522265241	-1.0413414499873	-3.22371663347199	-0.558960522265241	-2.66475611120675	-0.558960522265241	-3.82674978425227	-0.558960522265241	-3.22371663347199	0.558960522265241	-0.5536217029659682	-4.569735318689905	-0.909215233348381	-2.9357907690707243	-5.029792876554257	-0.909215233348381	0.23500522147912367	-3.2463149064343035	-2.692693203468334	-2.6159061191190895	-2.8630444329191964	2	missed	0.0
229.8679107999924	6.4950721000059275	go_punish	0.6699227999924915	229.89372069999808	231.57958089999738	234.12637800000084	1.685860199999297	230.9081154000014	233.11600359999284	235.14346110000042	0.6714654999959748	1.0103744000080042	1.2453317000035895	n/a	1.0	n/a	1	0	95	1	go_punish	1	0	-1	1	1	1	0	n/a	n/a	0	0.6699227999924915	1.0	605.9751741000073	835.8688948000054	836.8832895000087	837.5547550000047	839.0911777000001	840.1015521000081	n/a	n/a	841.1186352000077	842.3639669000113	2020-06-04 10:39:22.685643	3.32404910122177	-0.550003356972068	-3.39375033692592	-2.03083021653571	-0.0697012357041504	-3.39375033692592	-3.32404910122177	-0.550003356972068	-3.39375033692592	-0.0697012357041504	-3.39375033692592	0.550003356972068	0.10567128704905171	-1.2929888914097027	-3.74400504800906	-3.9252795356191346	-1.8757774787864174	-3.74400504800906	0.22604805618595075	-2.7570556198732126	-2.862726906922264	-2.6069489538259165	-2.430044985592846	2	missed	0.0
236.399219599989	7.08013070000743	nogo_punish	1.0	236.4250294999947	238.96154400000523	241.4925035000051	2.536514500010526	237.4396551999962	240.47303989999637	242.50598329999775	1.5218888000090374	1.0194636000087485	0.999176900004386	n/a	1.0	n/a	1	0	96	2	nogo_punish	1	-1	0	0	0	1	1	n/a	n/a	0	1.0	1.0	605.9751741000073	842.400203600002	843.4148293000035	844.9367181000125	846.4482140000036	847.4676776000124	n/a	n/a	848.481157400005	849.4803343000094	2020-06-04 10:39:22.685643	2.73450524163915	-3.82674978425227	-0.470657316571825	-0.881979336583403	-3.20516255821097	-0.470657316571825	-2.73450524163915	-0.470657316571825	-3.82674978425227	-0.470657316571825	-3.20516255821097	0.470657316571825	-0.4838725725335684	-4.569735318689905	-0.8209120276549651	-2.7764286556668276	-5.011238801293237	-0.8209120276549651	0.14670201578570774	-3.158011700740887	-2.6741391282073135	-2.5276029134256732	-2.8630444329191964	2	missed	0.0
243.51677550000022	6.006825699994806	nogo_punish	1.0	243.54258540000592	245.10279109999829	247.6307630999945	1.5602056999923661	244.55585400000564	246.6105055999942	248.6344259000034	0.5469370999926468	1.020257500000298	0.914985199997318	n/a	1.0	n/a	1	0	97	2	nogo_punish	1	-1	0	0	0	1	0	n/a	n/a	0	1.0	1.0	605.9751741000073	849.5177595000132	850.5310281000129	851.0779652000056	852.5856797000015	853.6059372000018	n/a	n/a	854.6096000000107	855.524585200008	2020-06-04 10:39:22.685643	2.79246536444473	-3.82674978425227	-0.397367325615668	-0.748880841901041	-3.1898326900604	-0.397367325615668	-2.79246536444473	-0.397367325615668	-3.82674978425227	-0.397367325615668	-3.1898326900604	0.397367325615668	-0.4259124497279885	-4.569735318689905	-0.747622036698808	-2.6433301609844655	-4.995908933142667	-0.747622036698808	0.07341202482955073	-3.0847217097847306	-2.658809260056744	-2.4543129224695166	-2.8630444329191964	2	missed	0.0
249.56016799999634	6.116331199998967	go_punish	0.4494681999931345	249.58597790000204	251.2499250999972	253.79622360000212	1.6639471999951638	250.59388109999418	252.78571490000468	254.80931799999962	0.6560440000030212	1.0105086999974446	0.8929911000013817	n/a	1.0	n/a	1	0	98	1	go_punish	1	0	-1	1	1	1	0	n/a	n/a	0	0.4494681999931345	1.0	605.9751741000073	855.5611520000093	856.5690552000015	857.2250992000045	858.760889000012	859.7713977000094	n/a	n/a	860.7844921000069	861.6774832000083	2020-06-04 10:39:22.685643	3.46111656462735	-0.454529101643321	-3.39375033692592	-1.69349735711961	0.0673662277014357	-3.39375033692592	-3.46111656462735	-0.454529101643321	-3.39375033692592	0.0673662277014357	-3.39375033692592	0.454529101643321	0.24273875045463145	-1.1975146360809557	-3.74400504800906	-3.5879466762030345	-1.7387100153808313	-3.74400504800906	0.13057380085720371	-2.6199881564676266	-2.862726906922264	-2.511474698497169	-2.430044985592846	2	missed	0.0
255.71918729999743	7.496815799997421	go_reward	0.4186639000108698	255.74499720000313	258.29586860000563	260.8267610000039	2.5508714000025066	256.75552409999364	259.8168061000033	261.8353967000003	1.5403445000119973	1.0099549000005936	1.4064163000002736	n/a	1.0	n/a	1	0	99	3	go_reward	1	1	0	1	1	1	0	n/a	n/a	1	0.4186639000108698	1.0	605.9751741000073	861.7201713000104	862.7306982000009	864.2710427000129	865.7919802000106	866.8019351000112	n/a	n/a	867.8105708000076	869.2169871000078	2020-06-04 10:39:22.685643	8.72968873739799	7.17982002944413	0.0	7.17982002944413	8.72968873739799	0.0	-8.72968873739799	7.17982002944413	0.0	8.72968873739799	0.0	2.4991493852498596	5.51131092322527	6.4368344950064955	-0.35025471108314005	5.285370710360706	6.923612494315722	-0.35025471108314005	2.1751940844637425	6.042334353228927	0.5310234300036563	5.122874432590281	0.9637053513330737	2	missed	0.0
263.2627778999886	6.619249399998807	go_punish	0.3689299000106985	263.2885877999943	265.06458019999263	267.6277643000067	1.7759923999983585	264.2831614000024	266.60396449999826	268.62756880000234	0.781418799990206	1.023799800008419	1.2802683999907458	n/a	1.0	n/a	1	0	100	1	go_punish	0	-1	0	1	1	1	1	n/a	n/a	-1	0.3689299000106985	1.0	605.9751741000073	869.2637619000016	870.2583355000097	871.0397542999999	872.5791386000055	873.602938400014	n/a	n/a	874.6027429000096	875.8830113000004	2020-06-04 10:39:22.685643	3.57241008658585	-0.376995556172085	-3.39375033692592	-1.41676387984186	0.178659749659933	-3.39375033692592	-3.57241008658585	-0.376995556172085	-3.39375033692592	0.178659749659933	-3.39375033692592	-5.5437592474582145	0.35403227241313173	-1.1199810906097198	-3.74400504800906	-3.3112131989252847	-1.627416493422334	-3.74400504800906	-5.867714548244332	-2.5086946345091294	-2.862726906922264	-2.433941153025933	-2.430044985592846	2	missed	0.0
269.9208987999882	6.685186200003955	nogo_punish	1.0	269.9467086999939	271.6474539000046	274.17278379999334	1.700745200010715	270.95999129999836	273.1528249999974	275.1858033000026	0.6874626000062563	1.0199587999959476	1.4460915999952704	n/a	1.0	n/a	1	0	101	2	nogo_punish	1	-1	0	0	0	1	0	n/a	n/a	0	1.0	1.0	605.9751741000073	875.9218828000012	876.9351654000056	877.6226280000119	879.1279991000047	880.1479579000006	n/a	n/a	881.1609774000099	882.6070690000051	2020-06-04 10:39:22.685643	2.84077946551777	-3.82674978425227	-0.3363511291088	-0.637398541812143	-3.17713059462657	-0.3363511291088	-2.84077946551777	-0.3363511291088	-3.82674978425227	-0.3363511291088	-3.17713059462657	0.3363511291088	-0.37759834865494835	-4.569735318689905	-0.68660584019194	-2.5318478608955672	-4.983206837708837	-0.68660584019194	0.012395828322682712	-3.0237055132778625	-2.646107164622914	-2.3932967259626485	-2.8630444329191964	2	missed	0.0
276.64320909998787	6.4687100000010105	nogo_punish	1.0	276.66901899999357	278.1155704999983	280.6346582999977	1.4465515000047162	277.6732423000067	279.61298089999764	281.6472544999997	0.4423281999916071	1.0216774000000441	1.490474499994889	n/a	1.0	n/a	1	0	102	2	nogo_punish	1	-1	0	0	0	1	0	n/a	n/a	0	1.0	1.0	605.9751741000073	882.6441931000008	883.648416400014	884.0907446000056	885.5881550000049	886.609832400005	n/a	n/a	887.622428600007	889.1129031000019	2020-06-04 10:39:22.685643	2.88117257186258	-3.82674978425227	-0.28540462057791	-0.54376608448939	-3.16657719244049	-0.28540462057791	-2.88117257186258	-0.28540462057791	-3.82674978425227	-0.28540462057791	-3.16657719244049	0.28540462057791	-0.3372052423101386	-4.569735318689905	-0.63565933166105	-2.4382154035728143	-4.972653435522757	-0.63565933166105	-0.03855068020820729	-2.9727590047469725	-2.6355537624368335	-2.3423502174317585	-2.8630444329191964	2	missed	0.0
283.145672300001	6.6026624999940395	nogo_reward	1.0	283.1714822000067	285.0101469999936	287.5227322999999	1.8386647999868728	284.18850750000274	286.5147411000071	288.52544040000066	0.8216394999908516	1.00799119999283	1.2487043000000995	n/a	1.0	n/a	1	0	103	4	nogo_reward	0	1	0	0	0	1	0	n/a	n/a	0	1.0	1.0	605.9751741000073	889.146656300014	890.16368160001	890.9853211000009	892.4899152000144	893.4979064000072	n/a	n/a	894.5006145000079	895.749318800008	2020-06-04 10:39:22.685643	-0.672360151223213	2.06126659035457	2.44219575700031	2.83965074009133	3.11455590822352	2.44219575700031	0.672360151223213	2.44219575700031	2.06126659035457	2.44219575700031	3.11455590822352	-2.44219575700031	-3.8907379653959313	1.3182810559169353	2.09194104591717	0.9452014210079054	1.3084796651412531	2.09194104591717	-2.766151057786427	-0.24515862716875247	3.6455793382271766	0.3852501601464615	3.0249719416876437	2	missed	0.0
289.78547839999374	6.784134200002882	nogo_reward	1.0	289.81128829999943	291.6748965000006	294.1926603000029	1.863608200001181	290.82554989999335	293.17822659999365	295.19395780000195	0.8493466000072658	1.0144337000092492	1.4014647000003606	n/a	1.0	n/a	1	0	104	4	nogo_reward	1	0	1	0	0	1	0	n/a	n/a	1	1.0	1.0	605.9751741000073	895.7864624000067	896.8007240000006	897.6500706000079	899.1534007000009	900.1678344000102	n/a	n/a	901.1691319000092	902.5705966000096	2020-06-04 10:39:22.685643	-1.03127632873648	2.06126659035457	2.02343444005826	2.36536577967955	3.05471076879474	2.02343444005826	1.03127632873648	2.02343444005826	2.06126659035457	2.02343444005826	3.05471076879474	7.65553497463573	-4.249654142909199	1.3182810559169353	1.67317972897512	0.4709164605961256	1.248634525712473	1.67317972897512	7.331579673849612	-0.6639199441108024	3.585734198798396	-0.03351115679558836	3.0249719416876437	2	missed	0.0
296.6057717999938	6.7201877000044306	nogo_punish	1.0	296.6315816999995	298.6091543999937	301.1304435000055	1.977572699994198	297.63692730000196	300.1166586000036	302.13915760000236	0.9722270999917555	1.0137849000019514	1.2126118000015822	n/a	1.0	n/a	1	0	105	2	nogo_punish	0	0	-1	0	0	1	0	n/a	n/a	-1	1.0	1.0	605.9751741000073	902.6067558000068	903.6121014000092	904.584328500001	906.0918327000109	907.1056176000128	n/a	n/a	908.1143317000096	909.3269435000112	2020-06-04 10:39:22.685643	2.91503903053804	-3.82674978425227	-0.242747182349908	-0.4649195435675	-3.15778621288795	-0.242747182349908	-2.91503903053804	-0.242747182349908	-3.82674978425227	-0.242747182349908	-3.15778621288795	-5.678007621280392	-0.3033387836346786	-4.569735318689905	-0.5930018934330481	-2.3593688626509244	-4.963862455970217	-0.5930018934330481	-6.001962922066509	-2.9301015665189705	-2.6267627828842937	-2.2996927792037565	-2.8630444329191964	2	missed	0.0
303.3659384999918	6.751684400005615	go_reward	0.2988396000000648	303.3917483999975	305.57964120000554	308.1270566000021	2.1878928000080577	304.40810669999337	307.11037569999473	309.12741390000156	1.1715345000121715	1.0166809000073727	1.0160189000015407	n/a	1.0	n/a	1	0	106	3	go_reward	1	1	0	1	1	1	0	n/a	n/a	1	0.2988396000000648	1.0	605.9751741000073	909.3669225000048	910.3832808000006	911.5548153000128	913.085549800002	914.1022307000094	n/a	n/a	915.1025880000088	916.1186069000104	2020-06-04 10:39:22.685643	9.16581720729173	7.56919757591357	0.0	7.56919757591357	9.16581720729173	0.0	-9.16581720729173	7.56919757591357	0.0	9.16581720729173	0.0	2.1097718387804196	5.94743939311901	6.8262120414759355	-0.35025471108314005	5.674748256830146	7.359740964209462	-0.35025471108314005	1.7858165379943023	6.478462823122667	0.5310234300036563	5.512251979059721	0.9637053513330737	2	missed	0.0
310.15813009999704	6.564046200000803	nogo_reward	1.0	310.18394000000274	312.0074491999985	314.5354163000011	1.823509199995783	311.1943536000035	313.52188359999855	315.55108910000115	0.8130955999949947	1.0135327000025427	1.1968971000023885	n/a	1.0	n/a	1	0	107	4	nogo_reward	1	0	1	0	0	1	0	n/a	n/a	1	1.0	1.0	605.9751741000073	916.15911410001	917.1695277000108	917.9826233000058	919.4970577000058	920.5105904000084	n/a	n/a	921.5262632000084	922.7231603000108	2020-06-04 10:39:22.685643	0.0417394027260215	2.06126659035457	3.239465724646	3.53418312215234	3.19772632191998	3.239465724646	-0.0417394027260215	3.239465724646	2.06126659035457	3.239465724646	3.19772632191998	6.43950369004799	-3.176638411446697	1.3182810559169353	2.88921101356286	1.6397338030689155	1.3916500788377129	2.88921101356286	6.115548389261872	0.5521113404769378	3.728749751923636	1.1825201277921518	3.0249719416876437	2	missed	0.0
316.757052899993	6.799692400003551	nogo_reward	1.0	316.7828627999987	318.83186609999393	321.36097389999475	2.0490032999952064	317.78857580000476	320.3374991000019	322.3701996000019	1.0432902999891667	1.0234747999928686	1.2123556000003646	n/a	1.0	n/a	1	0	108	4	nogo_reward	1	0	1	0	0	1	0	n/a	n/a	1	1.0	1.0	605.9751741000073	922.758036900006	923.763749900012	924.8070402000012	926.3126732000092	927.336148000002	n/a	n/a	928.3453737000092	929.5577293000096	2020-06-04 10:39:22.685643	0.931205500481748	2.06126659035457	4.24571181278018	4.50019774590334	3.31450631229844	4.24571181278018	-0.931205500481748	4.24571181278018	2.06126659035457	4.24571181278018	3.31450631229844	5.43325760191381	-2.2871723136909705	1.3182810559169353	3.89545710169704	2.6057484268199156	1.5084300692161732	3.89545710169704	5.109302301127692	1.5583574286111177	3.845529742302096	2.1887662159263317	3.0249719416876437	2	missed	0.0
323.5911128000006	6.85823259998881	nogo_reward	1.0	323.6169227000063	325.46751570000197	328.00720100000035	1.8505929999956834	324.6240494999947	326.9826177000067	329.0063167000043	0.8434662000072422	1.024583299993651	1.4688385999908178	n/a	1.0	n/a	1	0	109	4	nogo_reward	1	0	1	0	0	1	1	n/a	n/a	1	1.0	1.0	605.9751741000073	929.5920968000136	930.599223600002	931.4426898000092	932.957791800014	933.9823751000076	n/a	n/a	934.9814908000116	936.4503294000024	2020-06-04 10:39:22.685643	1.67119539079779	2.06126659035457	5.08140165148531	5.30153696505948	3.41020626068752	5.08140165148531	-1.67119539079779	5.08140165148531	2.06126659035457	5.08140165148531	3.41020626068752	4.59756776320868	-1.5471824233749285	1.3182810559169353	4.731146940402169	3.4070876459760555	1.604130017605253	4.731146940402169	4.273612462422562	2.3940472673162474	3.941229690691176	3.0244560546314614	3.0249719416876437	2	missed	0.0
330.4910433999902	6.242076200011184	go_reward	0.592814300005557	330.5168532999959	331.8698391999933	334.4051965999971	1.3529858999974067	331.52582419999817	333.38924509999913	335.4054926999961	0.3440149999951245	1.015951499997982	1.353436800010968	n/a	1.0	n/a	1	0	110	3	go_reward	1	1	0	1	1	1	0	n/a	n/a	1	0.592814300005557	1.0	605.9751741000073	936.4920274000032	937.5009983000054	937.8450133000006	939.3644192000064	940.3803707000044	n/a	n/a	941.3806668000034	942.7341036000144	2020-06-04 10:39:22.685643	9.52761282133676	7.89264584438367	0.0	7.89264584438367	9.52761282133676	0.0	-9.52761282133676	7.89264584438367	0.0	9.52761282133676	0.0	1.7863235703103202	6.309235007164041	7.149660309946035	-0.35025471108314005	5.998196525300245	7.721536578254493	-0.35025471108314005	1.4623682695242028	6.840258437167698	0.5310234300036563	5.835700247529822	0.9637053513330737	2	missed	0.0
336.769660299993	7.021953899995651	nogo_reward	1.0	336.7954701999987	339.23651279999467	341.76262999999756	2.441042599995967	337.81003750000673	340.73913089999394	342.7718031999975	1.426475299987942	1.0234991000036189	1.045620899996834	n/a	1.0	n/a	1	0	111	4	nogo_reward	1	0	1	0	0	1	1	n/a	n/a	1	1.0	1.0	605.9751741000073	942.770644300006	943.785211600014	945.211686900002	946.7143050000012	947.7378041000048	n/a	n/a	948.7469773000048	949.7925982000016	2020-06-04 10:39:22.685643	2.28892314080997	2.06126659035457	5.77781876149952	5.96856753936831	3.48889562068955	5.77781876149952	-2.28892314080997	5.77781876149952	2.06126659035457	5.77781876149952	3.48889562068955	3.9011506531944695	-0.9294546733627485	1.3182810559169353	5.42756405041638	4.074118220284886	1.6828193776072828	5.42756405041638	3.5771953524083524	3.090464377330458	4.019919050693206	3.720873164645672	3.0249719416876437	2	missed	0.0
343.8242323000014	5.886519699997621	go_punish	0.4164075000007869	343.8500422000071	345.41716660000395	347.9616432000039	1.5671243999968283	344.8539252000047	346.94089290000557	348.9705008000019	0.5632413999992423	1.0207502999983262	0.7660611000028439	n/a	1.0	n/a	1	0	112	1	go_punish	1	0	-1	1	1	1	0	n/a	n/a	0	0.4164075000007869	1.0	605.9751741000073	949.8252163000144	950.829099300012	951.3923407000112	952.9160670000128	953.9368173000112	n/a	n/a	954.9456749000092	955.711736000012	2020-06-04 10:39:22.685643	2.5404342866009	-1.31228125511933	-3.39375033692592	-2.18740111989825	-0.853316050325018	-3.39375033692592	-2.5404342866009	-1.31228125511933	-3.39375033692592	-0.853316050325018	-3.39375033692592	1.31228125511933	-0.6779435275718182	-2.0552667895569647	-3.74400504800906	-4.081850438981674	-2.659392293407285	-3.74400504800906	0.9883259543332126	-3.5406704344940803	-2.862726906922264	-3.3692268519731785	-2.430044985592846	2	missed	0.0
349.74801159999345	5.736950599995794	nogo_reward	1.0	349.77382149999914	351.04886379999516	353.5802183000051	1.2750422999960165	350.7787857999939	352.5658737000049	354.5952682000061	0.2700780000012628	1.014344600000186	0.9155038999888347	n/a	1.0	n/a	1	0	113	4	nogo_reward	1	0	1	0	0	1	1	n/a	n/a	1	1.0	1.0	605.9751741000073	955.7489956000064	956.7539599000012	957.0240379000024	958.5410478000122	959.5553924000124	n/a	n/a	960.5704423000134	961.4859462000022	2020-06-04 10:39:22.685643	2.80624143144961	2.06126659035457	6.36004464785617	6.52560615782993	3.55380321640656	6.36004464785617	-2.80624143144961	6.36004464785617	2.06126659035457	6.36004464785617	3.55380321640656	3.31892476683782	-0.4121363827231086	1.3182810559169353	6.009789936773029	4.631156838746506	1.747726973324293	6.009789936773029	2.9949694660517028	3.6726902636871075	4.0848266464102165	4.303099051002322	3.0249719416876437	2	missed	0.0
355.52521899998817	6.1743745000133	go_reward	0.4670884999941336	355.55102889999387	356.9204574000031	359.4819569999963	1.369428500009235	356.5617682000011	358.45426939999754	360.4822658000047	0.3586892000020043	1.0276875999987851	1.2431376000024557	n/a	1.0	n/a	1	0	114	3	go_reward	1	1	0	1	1	1	0	n/a	n/a	1	0.4670884999941336	1.0	605.9751741000073	961.5262030000011	962.5369423000084	962.8956315000104	964.4294435000048	965.4571311000036	n/a	n/a	966.457439900012	967.7005775000144	2020-06-04 10:39:22.685643	9.828778155951	8.16225203558003	0.0	8.16225203558003	9.828778155951	0.0	-9.828778155951	8.16225203558003	0.0	9.828778155951	0.0	1.5167173791139597	6.610400341778281	7.4192665011423955	-0.35025471108314005	6.267802716496606	8.022701912868733	-0.35025471108314005	1.1927620783278423	7.1414237717819375	0.5310234300036563	6.105306438726181	0.9637053513330737	2	missed	0.0
361.7349689999975	7.083987999998385	go_punish	0.3041578999982448	361.7607789000032	364.5013201999973	367.0267666	2.7405412999941063	362.7767489999969	366.0205532999971	368.0394895000063	1.724571200000355	1.0062133000028552	0.8052773999952478	n/a	1.0	n/a	1	0	115	1	go_punish	1	0	-1	1	1	1	0	n/a	n/a	0	0.3041578999982448	1.0	605.9751741000073	967.7359530000105	968.7519231000042	970.4764943000046	971.9957274000044	973.0019407000073	n/a	n/a	974.0146636000136	974.8199410000088	2020-06-04 10:39:22.685643	2.82225140184572	-1.0769366231912	-3.39375033692592	-1.81550978861717	-0.571498935080194	-3.39375033692592	-2.82225140184572	-1.0769366231912	-3.39375033692592	-0.571498935080194	-3.39375033692592	1.0769366231912	-0.3961264123269985	-1.819922157628835	-3.74400504800906	-3.7099591077005947	-2.377575178162461	-3.74400504800906	0.7529813224050828	-3.2588533192492566	-2.862726906922264	-3.1338822200450487	-2.430044985592846	2	missed	0.0
368.8568368999986	6.185356000001661	nogo_reward	1.0	368.8826468000043	370.6907300000021	373.2313969999959	1.8080831999977818	369.9021356000011	372.20710889999475	374.23041950000334	0.7885944000009886	1.024288100001172	0.8375833000026205	n/a	1.0	n/a	1	0	116	4	nogo_reward	1	0	1	0	0	1	0	n/a	n/a	1	1.0	1.0	605.9751741000073	974.8578209000116	975.8773097000084	976.6659041000094	978.182283000002	979.2065711000032	n/a	n/a	980.2055936000106	981.0431769000132	2020-06-04 10:39:22.685643	3.24078418768744	2.06126659035457	6.84828734419129	6.99222126946078	3.60750315650385	6.84828734419129	-3.24078418768744	6.84828734419129	2.06126659035457	6.84828734419129	3.60750315650385	2.8306820705027	0.022406373514721523	1.3182810559169353	6.498032633108149	5.097771950377355	1.8014269134215828	6.498032633108149	2.506726769716583	4.160932960022228	4.138526586507506	4.791341747337441	3.0249719416876437	2	missed	0.0
375.076699199999	6.348206399998048	go_punish	0.467797099991003	375.1025091000047	376.5097234999995	379.0530596000027	1.407214399994814	376.1187699000003	378.0403331999987	380.05612870000186	0.3909535999991931	1.0127264000039986	1.3945868000008659	n/a	1.0	n/a	1	0	117	1	go_punish	1	0	-1	1	1	1	1	n/a	n/a	0	0.467797099991003	1.0	605.9751741000073	981.077683200012	982.0939440000076	982.4848976000068	984.015507300006	985.02823370001	n/a	n/a	986.0313028000091	987.42588960001	2020-06-04 10:39:22.685643	3.04910233290416	-0.88752854896967	-3.39375033692592	-1.51250049132789	-0.344648004021756	-3.39375033692592	-3.04910233290416	-0.88752854896967	-3.39375033692592	-0.344648004021756	-3.39375033692592	0.88752854896967	-0.16927548126855818	-1.6305140834073049	-3.74400504800906	-3.4069498104113145	-2.150724247104023	-3.74400504800906	0.5635732481835527	-3.0320023881908185	-2.862726906922264	-2.944474145823518	-2.430044985592846	2	missed	0.0
381.4656926999886	6.992510900003367	go_reward	0.3328641999978572	381.4915025999943	383.96657580000476	386.50673809999716	2.4750732000104563	382.4902047999931	385.4819190999988	387.5144388000043	1.4763710000116816	1.0248189999983879	0.969574699993359	n/a	1.0	n/a	1	0	118	3	go_reward	1	1	0	1	1	1	0	n/a	n/a	1	0.3328641999978572	1.0	605.9751741000073	987.4666767000016	988.4653789000004	989.941749900012	991.457093200006	992.4819122000044	n/a	n/a	993.4896129000116	994.459187600005	2020-06-04 10:39:22.685643	10.0802900605127	8.38770966780385	0.0	8.38770966780385	10.0802900605127	0.0	-10.0802900605127	8.38770966780385	0.0	10.0802900605127	0.0	1.2912597468901392	6.8619122463399815	7.644724133366216	-0.35025471108314005	6.493260348720426	8.274213817430434	-0.35025471108314005	0.9673044461040219	7.3929356763436385	0.5310234300036563	6.330764070950002	0.9637053513330737	2	missed	0.0
388.5092747999878	6.254400500009183	go_reward	0.4130697999935364	388.5350846999935	390.49257930000033	393.0289963999967	1.9574946000068394	389.5320187000035	392.01297239999997	394.0299190999939	0.9605605999968247	1.0160239999967189	0.759566100008783	n/a	1.0	n/a	1	0	119	3	go_reward	1	1	0	1	1	1	0	n/a	n/a	1	0.4130697999935364	1.0	605.9751741000073	994.5102588000008	995.5071928000108	996.4677534000076	997.9881465000072	999.004170500004	n/a	n/a	1000.0050932000012	1000.76465930001	2020-06-04 10:39:22.685643	10.2909838580337	8.57682980147049	0.0	8.57682980147049	10.2909838580337	0.0	-10.2909838580337	8.57682980147049	0.0	10.2909838580337	0.0	1.1021396132234997	7.072606043860981	7.833844267032855	-0.35025471108314005	6.682380482387066	8.484907614951434	-0.35025471108314005	0.7781843124373824	7.603629473864638	0.5310234300036563	6.519884204616641	0.9637053513330737	2	missed	0.0
394.799193999992	7.24021650000941	go_punish	0.5101127000089036	394.8250038999977	397.1223350999935	399.6615541999927	2.297331199995824	395.83993469999393	398.6513799999957	400.66569660000096	1.282400399999574	1.0101741999969818	1.3995238000061363	n/a	1.0	n/a	1	0	120	1	go_punish	1	0	-1	1	1	1	0	n/a	n/a	0	0.5101127000089036	1.0	605.9751741000073	1000.800178000005	1001.8151088000012	1003.0975092000008	1004.626554100003	1005.6367283	n/a	n/a	1006.6408707000082	1008.0403945000144	2020-06-04 10:39:22.685643	3.2326295905618	-0.734306921922002	-3.39375033692592	-1.26448201105089	-0.161120746364114	-3.39375033692592	-3.2326295905618	-0.734306921922002	-3.39375033692592	-0.161120746364114	-3.39375033692592	0.734306921922002	0.014251776389081705	-1.4772924563596366	-3.74400504800906	-3.1589313301343145	-1.967196989446381	-3.74400504800906	0.4103516211358847	-2.8484751305331764	-2.862726906922264	-2.7912525187758503	-2.430044985592846	2	missed	0.0
