onset	duration	trial_type	response_time	cueOnset	targetOnset	fbOnset	cueRT	firstfixOnset	secondfixOnset	waitOnset	firstfixdur	secondfixdur	waitdur	nback_fbOnset	nback_response_time	nback_targetOnset	block	wm	trial	cue	cond	is_common	outcome_go	outcome_nogo	key_correct	key_pressed	is_correct	key_correct_nback	key_pressed_nback	is_correct_nback	outcome	rt	rt_nback	time_scan	time_onset	time_isi1	time_circle	time_isi2	time_feedback	time_same	time_correct	time_iti	time_done	timestamp_scan	DV	Qgo	Qnogo	SV	Wgo	Wnogo	mDV	Qchosen	Qunchosen	Wchosen	Wunchosen	PE	DVC	QgoC	QnogoC	SVC	WgoC	WnogoC	PEC	WchosenC	WunchosenC	QchosenC	QunchosenC	run	outcome_nback	nback_targetResp
0.0	8.675523199999589	nogo_punish	0.6725845000037225	0.049694400004227646	2.100962299998855	4.635618800006341	2.0512678999946274	1.0519385000079637	3.6232559000054607	7.672531300006085	1.0490237999908913	1.0123629000008805	1.0526862999977311	6.664358699999866	1.0	5.656332500002463	2	1	1	2	nogo_punish	1	-1	0	0	1	0	0	n/a	0.0	0	0.6725845000037225	1.0	1198.3743527000042	1198.4240471000085	1199.4262912000122	1200.475315000003	1201.9976086000097	1203.0099715000106	1204.0306852000067	1205.038711400004	1206.0468840000103	1207.099570300008	2020-06-04 10:49:15.077796	0.716849591106591	0.0	0.0	0.0	0.716849591106591	0.0	-0.716849591106591	0.0	0.0	0.716849591106591	0.0	-5.9207548036303	-2.5015282230661273	-0.7429855344376347	-0.35025471108314005	-1.8944493190834244	-1.0892266519756761	-0.35025471108314005	-6.244710104416417	-1.9705047930624713	0.5310234300036563	-2.0569455968538484	0.9637053513330737	3	missed	0.0
8.729843599998276	7.953041700005997	go_reward	0.472971300012432	8.779538000002503	10.233436800001073	12.77148809999926	1.4538987999985693	9.795406799996272	11.747450499998877	15.786642599996412	0.43803000000480097	1.0240376000003835	0.9459371000120882	14.781728000001749	1.0	13.773886599999969	2	1	2	3	go_reward	1	1	0	1	1	1	0	n/a	0.0	0	0.472971300012432	1.0	1198.3743527000042	1207.1538907000067	1208.1697595000005	1208.6077895000053	1210.1218032000031	1211.1458408000035	1212.1482393000042	1213.156080700006	1214.1609953000006	1215.1069324000127	2020-06-04 10:49:15.077796	0.716849591106591	0.0	0.0	0.0	0.716849591106591	0.0	-0.716849591106591	0.0	0.0	0.716849591106591	0.0	9.67896941469399	-2.5015282230661273	-0.7429855344376347	-0.35025471108314005	-1.8944493190834244	-1.0892266519756761	-0.35025471108314005	9.355014113907872	-1.9705047930624713	0.5310234300036563	-2.0569455968538484	0.9637053513330737	3	missed	0.0
16.724133900002926	8.330283399991458	nogo_punish	1.0	16.773828300007153	18.61625439999625	21.15486090000195	1.8424260999890976	17.78250180000032	20.130420900008176	24.20422260000487	0.8337525999959325	1.024439999993774	0.899889099993743	23.20572070000344	0.5626619999966351	22.171595899999375	2	1	3	2	nogo_punish	1	-1	0	0	0	1	1	1.0	1.0	0	1.0	0.5626619999966351	1198.3743527000042	1215.1481810000114	1216.1568545000046	1216.9906071000005	1218.5047736000124	1219.5292136000062	1220.5459486000036	1221.5800734000077	1222.578575300009	1223.4784644000028	2020-06-04 10:49:15.077796	-0.716849591106591	0.0	0.0	0.0	0.716849591106591	0.0	0.716849591106591	0.0	0.0	0.0	0.716849591106591	0.0	-3.9352274052793095	-0.7429855344376347	-0.35025471108314005	-1.8944493190834244	-1.0892266519756761	-0.35025471108314005	-0.3239553007861173	-2.6873543841690624	1.2478730211102471	-2.0569455968538484	0.9637053513330737	3	correct	1.0
25.089062300001615	8.781833699991466	nogo_reward	0.3713980999891646	25.138756700005843	27.31216390000168	29.845392300005187	2.173407199995836	26.141084400005866	28.839503099996364	32.9050825000013	1.1710794999958125	1.0058892000088235	1.0155078999960097	31.892021799998474	0.6368343000067398	30.86354510000092	2	1	4	4	nogo_reward	1	0	1	0	1	0	0	0.0	1.0	0	0.3713980999891646	0.6368343000067398	1198.3743527000042	1223.51310940001	1224.51543710001	1225.686516600006	1227.2138558000006	1228.2197450000094	1229.2378978000052	1230.2663745000027	1231.2794352000055	1232.2949431000015	2020-06-04 10:49:15.077796	0.716849591106591	0.0	0.0	0.0	0.716849591106591	0.0	-0.716849591106591	0.0	0.0	0.716849591106591	0.0	0.0	-2.5015282230661273	-0.7429855344376347	-0.35025471108314005	-1.8944493190834244	-1.0892266519756761	-0.35025471108314005	-0.3239553007861173	-1.9705047930624713	0.5310234300036563	-2.0569455968538484	0.9637053513330737	3	correct	1.0
33.89437270000053	8.232430599993904	nogo_reward	0.7306148000061512	33.94406710000476	35.60175139999774	38.14823430000979	1.6576842999929795	34.955288199998904	37.13908590000938	41.198889999999665	0.6464631999988342	1.009148400000413	0.9776076999989982	40.186943799999426	0.4396544999908656	39.157757200009655	2	1	5	4	nogo_reward	1	0	1	0	1	0	0	0.0	1.0	0	0.7306148000061512	0.4396544999908656	1198.3743527000042	1232.318419800009	1233.3296409000031	1233.976104100002	1235.5134386000136	1236.522587000014	1237.532109900014	1238.5612965000037	1239.573242700004	1240.550850400003	2020-06-04 10:49:15.077796	0.716849591106591	0.0	0.0	0.0	0.716849591106591	0.0	-0.716849591106591	0.0	0.0	0.716849591106591	0.0	0.0	-2.5015282230661273	-0.7429855344376347	-0.35025471108314005	-1.8944493190834244	-1.0892266519756761	-0.35025471108314005	-0.3239553007861173	-1.9705047930624713	0.5310234300036563	-2.0569455968538484	0.9637053513330737	3	correct	1.0
42.16237479999836	8.203003500006162	go_punish	0.3739480999938678	42.21206920000259	43.876490199996624	46.432503100004396	1.6644209999940358	43.215260600001784	45.408448000001954	49.48350080000819	0.6612295999948401	1.0240551000024425	0.9315719000005629	48.469467800008715	0.8370065000053728	47.44544150000729	2	1	6	1	go_punish	0	-1	0	1	1	1	0	0.0	1.0	-1	0.3739480999938678	0.8370065000053728	1198.3743527000042	1240.5864219000068	1241.589613300006	1242.2508429000009	1243.7828007000062	1244.8068558000086	1245.8197942000115	1246.843820500013	1247.8578535000124	1248.789425400013	2020-06-04 10:49:15.077796	0.716849591106591	0.0	0.0	0.0	0.716849591106591	0.0	-0.716849591106591	0.0	0.0	0.716849591106591	0.0	-5.9207548036303	-2.5015282230661273	-0.7429855344376347	-0.35025471108314005	-1.8944493190834244	-1.0892266519756761	-0.35025471108314005	-6.244710104416417	-1.9705047930624713	0.5310234300036563	-2.0569455968538484	0.9637053513330737	3	correct	1.0
50.40753399999812	8.945235100007494	go_reward	0.4027037000050768	50.45722840000235	52.424786900010076	54.981649900000775	1.9675585000077263	51.46540460000688	53.95749919999798	58.020923100004666	0.9593823000031989	1.0241507000027923	1.3815404000051785	57.00867170000856	0.5690284000011161	55.996489199998905	2	1	7	3	go_reward	1	1	0	1	1	1	0	0.0	1.0	1	0.4027037000050768	0.5690284000011161	1198.3743527000042	1248.8315811000066	1249.8397573000111	1250.7991396000143	1252.3318519000022	1253.356002600005	1254.3708419000031	1255.3830244000128	1256.395275800009	1257.776816200014	2020-06-04 10:49:15.077796	0.716849591106591	0.0	0.0	0.0	0.716849591106591	0.0	-0.716849591106591	0.0	0.0	0.716849591106591	0.0	9.67896941469399	-2.5015282230661273	-0.7429855344376347	-0.35025471108314005	-1.8944493190834244	-1.0892266519756761	-0.35025471108314005	9.355014113907872	-1.9705047930624713	0.5310234300036563	-2.0569455968538484	0.9637053513330737	3	correct	1.0
59.37562629999593	9.531276499998057	nogo_reward	1.0	59.42532070000016	61.95293220000167	64.47234940000635	2.5276115000015125	60.4378357000096	63.458279800004675	67.51282679999713	1.5150964999920689	1.014069600001676	1.4437704000010854	66.49874110000383	0.7597180000011576	65.48662740000873	2	1	8	4	nogo_reward	1	0	1	0	0	1	0	0.0	1.0	1	1.0	0.7597180000011576	1198.3743527000042	1257.7996734000044	1258.8121884000138	1260.327284900006	1261.832632500009	1262.8467021000106	1263.860980100013	1264.873093800008	1265.8871795000014	1267.3309499000025	2020-06-04 10:49:15.077796	-0.716849591106591	0.0	0.0	0.0	0.716849591106591	0.0	0.716849591106591	0.0	0.0	0.0	0.716849591106591	9.67896941469399	-3.9352274052793095	-0.7429855344376347	-0.35025471108314005	-1.8944493190834244	-1.0892266519756761	-0.35025471108314005	9.355014113907872	-2.6873543841690624	1.2478730211102471	-2.0569455968538484	0.9637053513330737	3	correct	1.0
68.94766449999588	8.909016100005829	nogo_punish	0.2424677000090014	68.99735890000011	71.41999609999766	73.97396180000214	2.4226371999975527	69.99797100000433	72.95157910000125	77.02209759999823	1.4220250999933342	1.0223827000008896	0.8842774000077043	76.00937890000932	0.6205896999890683	74.9798723999993	2	1	9	2	nogo_punish	1	-1	0	0	1	0	0	0.0	1.0	-1	0.2424677000090014	0.6205896999890683	1198.3743527000042	1267.3717116000043	1268.3723237000086	1269.794348800002	1271.3259318000055	1272.3483145000064	1273.3542251000035	1274.3837316000136	1275.3964503000025	1276.2807277000102	2020-06-04 10:49:15.077796	0.716849591106591	0.0	0.0	0.0	0.716849591106591	0.0	-0.716849591106591	0.0	0.0	0.716849591106591	0.0	-5.9207548036303	-2.5015282230661273	-0.7429855344376347	-0.35025471108314005	-1.8944493190834244	-1.0892266519756761	-0.35025471108314005	-6.244710104416417	-1.9705047930624713	0.5310234300036563	-2.0569455968538484	0.9637053513330737	3	correct	1.0
77.88231269999233	7.884819000013522	go_punish	0.3638305000058608	77.93200709999655	79.39147550000052	81.9488158000022	1.4594684000039706	78.93647549999878	80.9291668000078	85.00566310000431	0.45500000000174623	1.0196489999943879	0.811163000005763	84.00232860000688	0.3858015000005252	82.96673650000594	2	1	10	1	go_punish	1	0	-1	1	1	1	0	0.0	1.0	0	0.3638305000058608	0.3858015000005252	1198.3743527000042	1276.3063598000008	1277.310828200003	1277.7658282000048	1279.303519500012	1280.3231685000064	1281.3410892000102	1282.3766813000111	1283.3800158000086	1284.1911788000143	2020-06-04 10:49:15.077796	-3.99626371918924	-3.89215814430662	0.0	-3.89215814430662	-3.99626371918924	0.0	3.99626371918924	-3.89215814430662	0.0	-3.99626371918924	0.0	3.89215814430662	-7.2146415333619585	-4.635143678744255	-0.35025471108314005	-5.786607463390045	-5.802339962271507	-0.35025471108314005	3.568202843520503	-6.683618103358302	0.5310234300036563	-5.949103741160469	0.9637053513330737	3	correct	1.0
85.80872190000082	9.856824300004519	go_reward	0.2618885999982012	85.85841630000505	88.70860710000852	91.2688860000053	2.8501908000034746	86.86856660000944	90.24536420000368	94.31496970000467	1.840040499999077	1.0235218000016175	1.400270900004898	93.31163399999787	0.3769836999999825	92.28436720000172	2	1	11	3	go_reward	1	1	0	1	1	1	0	0.0	1.0	1	0.2618885999982012	0.3769836999999825	1198.3743527000042	1284.2327690000093	1285.2429193000137	1287.0829598000128	1288.619716900008	1289.6432387000095	1290.658719900006	1291.685986700002	1292.689322400009	1294.0895933000138	2020-06-04 10:49:15.077796	8.57086763951067	6.45405667019626	0.0	6.45405667019626	8.57086763951067	0.0	-8.57086763951067	6.45405667019626	0.0	8.57086763951067	0.0	3.22491274449773	5.352489825337951	5.711071135758625	-0.35025471108314005	4.559607351112835	6.764791396428403	-0.35025471108314005	2.900957443711613	5.883513255341608	0.5310234300036563	4.397111073342412	0.9637053513330737	3	correct	1.0
95.70526590000372	8.152996899996651	nogo_punish	1.0	95.75496030000795	97.57884390000254	100.10928279999666	1.8238835999945877	96.76623090000066	99.08920319999743	103.14421640000387	0.8126130000018748	1.0200795999992351	0.7637408000007326	102.13058759999694	0.3667751000029966	101.11772219999693	2	1	12	2	nogo_punish	1	-1	0	0	0	1	0	0.0	1.0	0	1.0	0.3667751000029966	1198.3743527000042	1294.1293130000122	1295.140583600005	1295.9531966000068	1297.4635559000017	1298.483635500001	1299.4920749000012	1300.5049403000012	1301.518569100008	1302.2823099000088	2020-06-04 10:49:15.077796	3.99626371918924	-3.89215814430662	0.0	-3.89215814430662	-3.99626371918924	0.0	-3.99626371918924	0.0	-3.89215814430662	0.0	-3.99626371918924	0.0	0.7778859050165217	-4.635143678744255	-0.35025471108314005	-5.786607463390045	-5.802339962271507	-0.35025471108314005	-0.3239553007861173	-2.6873543841690624	-3.4652402891855836	-2.0569455968538484	-2.9284527929735464	3	correct	1.0
103.90009969999664	8.857539999997243	go_reward	0.2720929000061005	103.94979410000087	106.0073723999958	108.55367480000132	2.0575782999949297	104.96005290000176	107.53754580000532	111.59478970000055	1.047319499994046	1.016128999995999	1.2125443999975687	110.58505039999727	0.8089489999983925	109.56247450000956	2	1	13	3	go_reward	1	1	0	1	1	1	1	1.0	1.0	1	0.2720929000061005	0.8089489999983925	1198.3743527000042	1302.324146800005	1303.334405600006	1304.3817251	1305.9118985000096	1306.9280275000056	1307.9368272000138	1308.9594031000015	1309.9691424000048	1311.1816868000024	2020-06-04 10:49:15.077796	11.0611127921398	8.49344750314231	0.0	8.49344750314231	11.0611127921398	0.0	-11.0611127921398	8.49344750314231	0.0	11.0611127921398	0.0	1.18552191155168	7.842734977967082	7.750461968704675	-0.35025471108314005	6.598998184058885	9.255036549057534	-0.35025471108314005	0.8615666107655626	8.373758407970739	0.5310234300036563	6.436501906288461	0.9637053513330737	3	correct	1.0
112.78386759999557	7.912717300001532	go_punish	0.3587109000072814	112.8335619999998	114.21759700000985	116.76892709999811	1.3840350000100443	113.84168720000889	115.74916459999827	119.83081610000227	0.3759098000009544	1.0197624999998425	0.915463199999067	118.81152889999794	0.3289435999904526	117.77767890000541	2	1	14	1	go_punish	1	0	-1	1	1	1	0	0.0	1.0	0	0.3587109000072814	0.3289435999904526	1198.3743527000042	1311.207914700004	1312.2160399000131	1312.591949700014	1314.1235173000025	1315.1432798000023	1316.1520316000096	1317.1858816000022	1318.2051688000065	1319.1206320000056	2020-06-04 10:49:15.077796	-0.819890275383545	-1.26642625477164	0.0	-1.26642625477164	-0.819890275383545	0.0	0.819890275383545	-1.26642625477164	0.0	-0.819890275383545	0.0	1.26642625477164	-4.038268089556263	-2.009411789209275	-0.35025471108314005	-3.1608755738550647	-2.625966518465812	-0.35025471108314005	0.9424709539855227	-3.5072446595526072	0.5310234300036563	-3.323371851625488	0.9637053513330737	3	correct	1.0
120.73889670000062	8.449509400001261	nogo_punish	1.0	120.78859110000485	122.30325300000527	124.8286769999977	1.5146619000004193	121.80255130000296	123.81761630000256	127.887621700007	0.5007017000023097	1.0110606999951415	1.3504787999991095	126.87497509999957	0.408156899997266	125.84618510000291	2	1	15	2	nogo_punish	1	-1	0	0	0	1	0	0.0	1.0	0	1.0	0.408156899997266	1198.3743527000042	1319.162943800009	1320.1769040000072	1320.6776057000095	1322.1919690000068	1323.203029700002	1324.2205378000072	1325.2493278000038	1326.2619744000112	1327.6124532000103	2020-06-04 10:49:15.077796	3.44562216491853	-3.89215814430662	0.0	-1.26642625477164	-3.44562216491853	0.0	-3.44562216491853	0.0	-3.89215814430662	0.0	-3.44562216491853	0.0	0.22724435074581173	-4.635143678744255	-0.35025471108314005	-3.1608755738550647	-5.251698408000797	-0.35025471108314005	-0.3239553007861173	-2.6873543841690624	-2.9145987349148736	-2.0569455968538484	-2.9284527929735464	3	correct	1.0
129.22860000000242	8.565954199991893	go_reward	0.2776003000035416	129.27829440000664	130.83605610000086	133.38625779999688	1.5577616999942165	130.2888321000064	132.36650440000813	136.42872690000513	0.5472239999944577	1.0197533999887582	1.4155216999934055	135.42254670000693	0.9744089999876452	134.40103360000649	2	1	16	3	go_reward	0	0	1	1	1	1	0	0.0	1.0	0	0.2776003000035416	0.9744089999876452	1198.3743527000042	1327.6526471000109	1328.6631848000106	1329.210408800005	1330.7408571000124	1331.7606105000011	1332.7753863000107	1333.7968994000112	1334.8030796000094	1336.2186013000028	2020-06-04 10:49:15.077796	11.937886264447	9.2095766165905	0.0	9.2095766165905	11.937886264447	0.0	-11.937886264447	9.2095766165905	0.0	11.937886264447	0.0	-9.2095766165905	8.719508450274281	8.466591082152865	-0.35025471108314005	7.315127297507075	10.131810021364734	-0.35025471108314005	-9.533531917376617	9.250531880277938	0.5310234300036563	7.152631019736651	0.9637053513330737	3	correct	1.0
137.83819520000543	7.9420481999986805	go_reward	0.4866201999975601	137.88788960000966	139.36277190000692	141.91215679999732	1.4748822999972617	138.8912175000005	140.89171490000467	144.96135720000893	0.47155440000642557	1.0204418999926474	0.8685805999994045	143.94726440000545	0.4069104999944102	142.92962570000986	2	1	17	3	go_reward	0	0	1	1	1	1	0	0.0	1.0	0	0.4866201999975601	0.4069104999944102	1198.3743527000042	1336.262242300014	1337.2655702000047	1337.7371246000112	1339.266067600009	1340.2865095000016	1341.303978400014	1342.3216171000097	1343.3357099000132	1344.2042905000126	2020-06-04 10:49:15.077796	4.41801020186784	3.02785392907208	0.0	3.02785392907208	4.41801020186784	0.0	-4.41801020186784	3.02785392907208	0.0	4.41801020186784	0.0	-3.02785392907208	1.199632387695122	2.2848683946344455	-0.35025471108314005	1.1334046099886557	2.611933958785573	-0.35025471108314005	-3.351809229858197	1.730655817698778	0.5310234300036563	0.9709083322182317	0.9637053513330737	3	correct	1.0
145.80603029999475	8.491601300003822	nogo_reward	0.5504307000082918	145.85572469999897	147.3731453000073	149.89993010000035	1.517420600008336	146.87313770000787	148.8996965999977	152.93923380000342	0.5000075999994351	1.0002335000026505	1.4080921999993734	151.9377552000078	0.7303241999907186	150.920085500009	2	1	18	4	nogo_reward	1	0	1	0	1	0	0	0.0	1.0	0	0.5504307000082918	0.7303241999907186	1198.3743527000042	1344.2300774000032	1345.247490400012	1345.7474980000115	1347.274049300002	1348.2742828000046	1349.2944382000132	1350.312107900012	1351.3135865000077	1352.721678700007	2020-06-04 10:49:15.077796	-4.33724570088184	0.0	6.45405667019626	6.45405667019626	2.11681096931441	6.45405667019626	4.33724570088184	0.0	6.45405667019626	2.11681096931441	6.45405667019626	0.0	-7.555623515054558	-0.7429855344376347	6.103801959113119	4.559607351112835	0.31073472623214315	6.103801959113119	-0.3239553007861173	-0.5705434148546522	6.985080100199916	-2.0569455968538484	7.417762021529334	3	correct	1.0
154.32287980000547	8.329279300000053	go_punish	0.3411327999929199	154.3725742000097	155.72524510000926	158.26593310000317	1.3526708999995662	155.3819691999961	157.2566824999958	161.31785700000182	0.3432759000131682	1.0092506000073627	1.3839965000079246	160.30482360000315	0.2841898999904515	159.27536100000725	2	1	19	1	go_punish	1	0	-1	1	1	1	0	0.0	1.0	0	0.3411327999929199	0.2841898999904515	1198.3743527000042	1352.746926900014	1353.7563219000003	1354.0995978000135	1355.6310352	1356.6402858000074	1357.6497137000115	1358.6791763000074	1359.692209700006	1361.076206200014	2020-06-04 10:49:15.077796	0.163775594144933	-0.455078248626353	0.0	-0.455078248626353	0.163775594144933	0.0	-0.163775594144933	-0.455078248626353	0.0	0.163775594144933	0.0	0.455078248626353	-3.0546022200277854	-1.1980637830639878	-0.35025471108314005	-2.3495275677097776	-1.642300648937334	-0.35025471108314005	0.1311229478402357	-2.5235787900241293	0.5310234300036563	-2.5120238454802015	0.9637053513330737	3	correct	1.0
162.67504099999496	8.413566900009755	nogo_reward	1.0	162.7247353999992	164.28944340000453	166.81514790000824	1.5647080000053393	163.73635210000793	165.80503000000317	169.8632929000014	0.5530912999965949	1.0101179000050706	1.2750094000075478	168.85197859999607	0.2777881000074558	167.83356130000902	2	1	20	4	nogo_reward	0	1	0	0	0	1	1	1.0	1.0	0	1.0	0.2777881000074558	1198.3743527000042	1361.0990881000034	1362.1107048000122	1362.6637961000088	1364.1793827000074	1365.1895006000125	1366.2079140000133	1367.2263313000003	1368.2376456000056	1369.5126550000132	2020-06-04 10:49:15.077796	5.28635275940656	0.0	6.45405667019626	2.03939083294605	1.16770391078969	6.45405667019626	-5.28635275940656	6.45405667019626	0.0	6.45405667019626	1.16770391078969	-6.45405667019626	2.0679749452338414	-0.7429855344376347	6.103801959113119	0.14494151386262555	-0.638372332292577	6.103801959113119	-6.778011970982377	3.7667022860271975	1.6987273407933463	4.397111073342412	0.9637053513330737	3	correct	1.0
171.13628039999458	8.270298700008652	go_reward	0.2776488999952562	171.1859747999988	173.1019454000052	175.65558130000136	1.9159706000064034	172.18878710000718	174.63550440000836	178.6904596999957	0.913158299998031	1.0200768999930006	0.765813800011756	177.68591100000776	0.3826949000067543	176.67272250000678	2	1	21	3	go_reward	0	0	1	1	1	1	0	0.0	1.0	0	0.2776488999952562	0.3826949000067543	1198.3743527000042	1369.560327500003	1370.5631398000114	1371.4762981000094	1373.0098571000126	1374.0299340000056	1375.047075200011	1376.060263700012	1377.0648124	1377.8306262000117	2020-06-04 10:49:15.077796	2.06332043020201	1.09874222594152	0.0	1.09874222594152	2.06332043020201	0.0	-2.06332043020201	1.09874222594152	0.0	2.06332043020201	0.0	-1.09874222594152	-1.1550573839707083	0.35575669150388534	-0.35025471108314005	-0.7957070931419044	0.25724418711974306	-0.35025471108314005	-1.4226975267276374	-0.6240339539670523	0.5310234300036563	-0.9582033709123283	0.9637053513330737	3	correct	1.0
179.43081429999438	8.250687300009304	go_punish	0.3018198999925516	179.4805086999986	181.05379269999685	183.5940369000018	1.5732839999982389	180.49119610000344	182.57292299999972	186.6280517999985	0.5625965999934124	1.0211139000020921	1.1031442000094103	185.61525919999985	0.3962346000043908	184.60243860000605	2	1	22	1	go_punish	1	0	-1	1	1	1	0	0.0	1.0	0	0.3018198999925516	0.3962346000043908	1198.3743527000042	1377.8548614000028	1378.8655488000077	1379.428145400001	1380.947275700004	1381.968389600006	1382.9767913000103	1383.989611900004	1385.0024045000027	1386.1055487000122	2020-06-04 10:49:15.077796	0.502329641335789	-0.176281389211641	0.0	-0.176281389211641	0.502329641335789	0.0	-0.502329641335789	-0.176281389211641	0.0	0.502329641335789	0.0	0.176281389211641	-2.7160481728369295	-0.9192669236492756	-0.35025471108314005	-2.0707307082950654	-1.303746601746478	-0.35025471108314005	-0.1476739115744763	-2.1850247428332734	0.5310234300036563	-2.2332269860654894	0.9637053513330737	3	correct	1.0
187.72476569999708	9.096628900005953	go_reward	0.2603774000017438	187.7744601000013	189.99912619999668	192.55448649999744	2.2246660999953747	188.77434920000087	191.5295235000085	195.5899519000086	1.224776999995811	1.0249629999889294	1.2811370999986593	194.57752040000946	0.3949022000015247	193.5566334000032	2	1	23	3	go_reward	1	1	0	1	1	1	1	1.0	1.0	1	0.2603774000017438	0.3949022000015247	1198.3743527000042	1386.1488128000055	1387.148701900005	1388.373478900001	1389.9038762000127	1390.9288392000017	1391.9309861000074	1392.9518731000137	1393.9643046000128	1395.2454417000115	2020-06-04 10:49:15.077796	1.24441431336797	0.429614181320404	0.0	0.429614181320404	1.24441431336797	0.0	-1.24441431336797	0.429614181320404	0.0	1.24441431336797	0.0	9.249355233373585	-1.9739635008047485	-0.3133713531172307	-0.35025471108314005	-1.4648351377630204	-0.5616619297142971	-0.35025471108314005	8.925399932587467	-1.4429400708010924	0.5310234300036563	-1.6273314155334444	0.9637053513330737	3	correct	1.0
196.84683710000536	8.528867899993202	go_punish	0.2808209999930113	196.8965315000096	198.47370299999625	201.03222930000607	1.5771714999866617	197.90622030000668	200.012433099997	204.08059660000436	0.5674826999895686	1.0197962000090683	1.3448027999984333	203.0829425999982	0.261963700002525	202.05061780000688	2	1	24	1	go_punish	1	0	-1	1	1	1	1	0.0	0.0	0	0.2808209999930113	0.261963700002525	1198.3743527000042	1395.2708842000138	1396.280573000011	1396.8480557000005	1398.3867858000012	1399.4065820000103	1400.424970500011	1401.4572953000024	1402.4549493000086	1403.799752100007	2020-06-04 10:49:15.077796	0.628548012422534	-0.0724761300116393	0.0	-0.0724761300116393	0.628548012422534	0.0	-0.628548012422534	-0.0724761300116393	0.0	0.628548012422534	0.0	0.0724761300116393	-2.5898298017501844	-0.815461664449274	-0.35025471108314005	-1.9669254490950636	-1.177528230659733	-0.35025471108314005	-0.251479170774478	-2.0588063717465284	0.5310234300036563	-2.1294217268654876	0.9637053513330737	3	wrong	1.0
205.39866469999833	9.262155799995526	nogo_reward	0.4360173000022769	205.44835910000256	207.9447719000018	210.48575629999686	2.4964127999992343	206.460771500002	209.47724530000414	213.5226427000016	1.4840003999997862	1.0085109999927226	1.187872199996491	212.50968950000265	0.4454015999945113	211.4951516000001	2	1	25	4	nogo_reward	1	0	1	0	1	0	0	0.0	1.0	0	0.4360173000022769	0.4454015999945113	1198.3743527000042	1403.8227118000068	1404.8351242000062	1406.319124600006	1407.8515980000084	1408.860109000001	1409.8695043000043	1410.884042200007	1411.8969954000058	1413.0848676000023	2020-06-04 10:49:15.077796	-1.16189688298049	0.0	2.03939083294605	0.716129113448191	0.877493949965565	2.03939083294605	1.16189688298049	0.0	2.03939083294605	0.877493949965565	2.03939083294605	0.0	-4.380274697153208	-0.7429855344376347	1.68913612186291	-1.1783202056352335	-0.928582293116702	1.68913612186291	-0.3239553007861173	-1.8098604342034974	2.570414262949706	-2.0569455968538484	3.0030961842791237	3	correct	1.0
214.68644229999336	8.69024910000735	go_punish	0.2503921000025002	214.7361366999976	216.60818310000468	219.137367000003	1.8720464000070933	215.74170690000756	218.13771850000194	222.19862090000265	0.8664761999971233	0.999648500001058	1.2277649000022848	221.18484240000544	0.2343530000071041	220.15622060000896	2	1	26	1	go_punish	1	0	-1	1	1	1	1	1.0	1.0	0	0.2503921000025002	0.2343530000071041	1198.3743527000042	1413.1104894000018	1414.1160596000118	1414.982535800009	1416.5120712000062	1417.5117197000072	1418.5305733000132	1419.5591951000097	1420.572973600007	1421.8007385000092	2020-06-04 10:49:15.077796	0.678683245628439	-0.0312912202830978	0.0	-0.0312912202830978	0.678683245628439	0.0	-0.678683245628439	-0.0312912202830978	0.0	0.678683245628439	0.0	0.0312912202830978	-2.5396945685442796	-0.7742767547207325	-0.35025471108314005	-1.9257405393665221	-1.127392997453828	-0.35025471108314005	-0.2926640805030195	-2.0086711385406235	0.5310234300036563	-2.0882368171369463	0.9637053513330737	3	correct	1.0
223.42184799999814	9.55314050000743	nogo_punish	1.0	223.47154240000236	226.22449550000624	228.74948430000222	2.7529531000038787	224.467246900007	227.73846740000567	231.80619540000066	1.7572485999992296	1.011016899996548	1.2184875000091324	230.79302120000648	0.2921491000015521	229.7653086000064	2	1	27	2	nogo_punish	1	-1	0	0	0	1	0	0.0	1.0	0	1.0	0.2921491000015521	1198.3743527000042	1421.8458951000066	1422.8415996000113	1424.5988482000105	1426.11282010001	1427.1238370000065	1428.1396613000106	1429.1673739000107	1430.180548100005	1431.399035600014	2020-06-04 10:49:15.077796	3.27330430153534	-3.89215814430662	0.0	-0.455078248626353	-3.27330430153534	0.0	-3.27330430153534	0.0	-3.89215814430662	0.0	-3.27330430153534	0.0	0.0549264873626214	-4.635143678744255	-0.35025471108314005	-2.3495275677097776	-5.079380544617607	-0.35025471108314005	-0.3239553007861173	-2.6873543841690624	-2.7422808715316833	-2.0569455968538484	-2.9284527929735464	3	correct	1.0
232.99838979999186	8.320149400009768	nogo_reward	1.0	233.04808419999608	234.82386440000846	237.36242630000947	1.7757802000123775	234.0394391000009	236.3377981000085	240.41300929999852	0.7844253000075696	1.0246282000009614	0.9552243000073304	239.39955590000318	0.5174124000041047	238.37463370000478	2	1	28	4	nogo_reward	1	0	1	0	0	1	0	0.0	1.0	1	1.0	0.5174124000041047	1198.3743527000042	1431.4224369000003	1432.4137918000051	1433.1982171000127	1434.7121508000128	1435.7367790000137	1436.748986400009	1437.7739086000074	1438.7873620000028	1439.74258630001	2020-06-04 10:49:15.077796	1.26073323869237	0.0	2.03939083294605	0.272333982677833	0.778657594253686	2.03939083294605	-1.26073323869237	2.03939083294605	0.0	2.03939083294605	0.778657594253686	7.63957858174794	-1.9576445754803484	-0.7429855344376347	1.68913612186291	-1.6221153364055914	-1.027418648828581	1.68913612186291	7.315623280961822	-0.6479635512230124	1.3096810242573422	-0.01755476390779842	0.9637053513330737	3	correct	1.0
241.36435079999524	9.670646300000726	nogo_punish	1.0	241.41404519999946	244.1905609999958	246.72696359999827	2.776515799996332	242.41876120000984	245.70512280000526	249.77227110000968	1.7717997999859563	1.021840799993015	1.3124203999905149	248.76218800000765	0.3160925999982282	247.74439510000207	2	1	29	2	nogo_punish	1	-1	0	0	0	1	1	1.0	1.0	0	1.0	0.3160925999982282	1198.3743527000042	1439.7883979000037	1440.793113900014	1442.5649137	1444.0794755000095	1445.1013163000025	1446.1187478000063	1447.136540700012	1448.146623800014	1449.4590442000044	2020-06-04 10:49:15.077796	3.21354711375919	-3.89215814430662	0.0	-0.176281389211641	-3.21354711375919	0.0	-3.21354711375919	0.0	-3.89215814430662	0.0	-3.21354711375919	0.0	-0.004830700413528177	-4.635143678744255	-0.35025471108314005	-2.0707307082950654	-5.019623356841457	-0.35025471108314005	-0.3239553007861173	-2.6873543841690624	-2.6825236837555337	-2.0569455968538484	-2.9284527929735464	3	correct	1.0
251.07509559999744	8.359096700005466	nogo_punish	1.0	251.12479000000167	252.9774519000057	255.49125940000545	1.8526619000040228	252.1260173000046	254.4820777999994	258.52122840000084	0.8514346000010846	1.009181600006059	0.9626583000062965	257.52049950000946	0.4270617000001948	256.50638590000744	2	1	30	2	nogo_punish	0	0	-1	0	0	1	0	0.0	1.0	-1	1.0	0.4270617000001948	1198.3743527000042	1449.499142700006	1450.5003700000088	1451.35180460001	1452.8564305000036	1453.8656121000097	1454.8807386000117	1455.8948522000137	1456.895581100005	1457.8582394000114	2020-06-04 10:49:15.077796	3.19113400187245	-3.89215814430662	0.0	-0.0724761300116393	-3.19113400187245	0.0	-3.19113400187245	0.0	-3.89215814430662	0.0	-3.19113400187245	-5.9207548036303	-0.02724381230026829	-4.635143678744255	-0.35025471108314005	-1.9669254490950636	-4.997210244954717	-0.35025471108314005	-6.244710104416417	-2.6873543841690624	-2.6601105718687936	-2.0569455968538484	-2.9284527929735464	3	correct	1.0
259.45786639999983	8.42450649999978	nogo_reward	1.0	259.50756080000406	260.8695650000009	263.40416430000914	1.362004199996818	260.5095278000081	262.38404839999566	266.43893170000206	0.3600371999928029	1.0201159000134794	1.4931356000017786	265.42624310000974	0.3823764999979175	264.41331390000414	2	1	31	4	nogo_reward	0	1	0	0	0	1	0	0.0	1.0	0	1.0	0.3823764999979175	1198.3743527000042	1457.8819135000083	1458.8838805000123	1459.243917700005	1460.7584011	1461.7785170000134	1462.7876666000084	1463.800595800014	1464.8132844000063	1466.306420000008	2020-06-04 10:49:15.077796	5.0280985631822	0.0	7.17018578364445	6.56433580001175	2.14208722046224	7.17018578364445	-5.0280985631822	7.17018578364445	0.0	7.17018578364445	2.14208722046224	-7.17018578364445	1.809720749009482	-0.7429855344376347	6.819931072561309	4.669886480928326	0.3360109773799731	6.819931072561309	-7.494141084430567	4.482831399475387	2.6731106504658966	5.113240186790602	0.9637053513330737	3	correct	1.0
267.92785330000333	8.625955199997406	go_reward	0.2974313000013353	267.97754770000756	269.63817600000766	272.1882980000082	1.6606283000000985	268.97674169999664	271.16727590000664	275.244262799999	0.6614343000110239	1.0210221000015736	1.3592401000059908	274.2378330000065	0.3253136999992421	273.2043949000072	2	1	32	3	go_reward	0	0	1	1	1	1	0	0.0	1.0	0	0.2974313000013353	0.3253136999992421	1198.3743527000042	1466.3519004000118	1467.3510944000009	1468.012528700012	1469.5416286000109	1470.5626507000125	1471.5787476000114	1472.6121857000107	1473.6186155000032	1474.9778556000092	2020-06-04 10:49:15.077796	8.79006922078449	6.6322444271368	0.0	6.6322444271368	8.79006922078449	0.0	-8.79006922078449	6.6322444271368	0.0	8.79006922078449	0.0	-6.6322444271368	5.571691406611771	5.889258892699165	-0.35025471108314005	4.737795108053375	6.983992977702223	-0.35025471108314005	-6.956199727922917	6.102714836615428	0.5310234300036563	4.575298830282952	0.9637053513330737	3	correct	1.0
276.57906619999267	9.759463200010941	go_punish	0.3014136000128928	276.6287605999969	279.35894639999606	281.89205930000753	2.7301857999991626	277.62773639999796	280.8817149000097	284.93312680000986	1.7312099999981	1.010344399997848	1.455096999997977	283.9301581000036	0.4920332000037888	282.9106424000056	2	1	33	1	go_punish	1	0	-1	1	1	1	0	0.0	1.0	0	0.3014136000128928	0.4920332000037888	1198.3743527000042	1475.0031133000011	1476.0020891000022	1477.7332991000003	1479.256067600014	1480.2664120000118	1481.2849951000098	1482.3045108000078	1483.307479500014	1484.762576500012	2020-06-04 10:49:15.077796	0.699659904723973	-0.0140782344177706	0.0	-0.0140782344177706	0.699659904723973	0.0	-0.699659904723973	-0.0140782344177706	0.0	0.699659904723973	0.0	0.0140782344177706	-2.5187179094487453	-0.7570637688554053	-0.35025471108314005	-1.908527553501195	-1.1064163383582941	-0.35025471108314005	-0.30987706636834667	-1.9876944794450893	0.5310234300036563	-2.071023831271619	0.9637053513330737	3	correct	1.0
286.3816485999996	8.599992000003112	nogo_punish	1.0	286.43134300000384	288.22150719999627	290.7515701000084	1.7901641999924323	287.4397334000096	289.7313807000028	293.7992474000057	0.7817737999866949	1.02018940000562	1.2320876000012504	292.7883230000007	0.2657521000073757	291.7688870999991	2	1	34	2	nogo_punish	1	-1	0	0	0	1	0	0.0	1.0	0	1.0	0.2657521000073757	1198.3743527000042	1484.805695700008	1485.8140861000138	1486.5958599000005	1488.105733400007	1489.1259228000126	1490.1432398000034	1491.162675700005	1492.17360010001	1493.4056877000112	2020-06-04 10:49:15.077796	0.11098070007767	-3.89215814430662	-3.89215814430662	-3.92344936458972	-4.00313884438429	-3.89215814430662	-0.11098070007767	-3.89215814430662	-3.89215814430662	-3.89215814430662	-4.00313884438429	3.89215814430662	-3.1073971140950483	-4.635143678744255	-4.242412855389761	-5.817898683673144	-5.809215087466558	-4.242412855389761	3.568202843520503	-6.579512528475682	-3.4721154143806343	-5.949103741160469	-2.9284527929735464	3	correct	1.0
295.00621589999355	9.23248120000062	nogo_reward	1.0	295.0559102999978	297.5123090999987	300.03139109999756	2.4563988000008976	296.06691780000983	299.01698000000033	303.07152700000734	1.4453912999888416	1.0144110999972327	1.2168644999910612	302.0583983999968	0.4458070999971824	301.04581009999674	2	1	35	4	nogo_reward	1	0	1	0	0	1	0	0.0	1.0	1	1.0	0.4458070999971824	1198.3743527000042	1493.430263000002	1494.441270500014	1495.886661800003	1497.3913327000046	1498.4057438000018	1499.420162800001	1500.432751100001	1501.4458797000116	1502.6627442000026	2020-06-04 10:49:15.077796	1.13315461818815	0.0	2.31172481562389	2.08639190177313	1.17857019743574	2.31172481562389	-1.13315461818815	2.31172481562389	0.0	2.31172481562389	1.17857019743574	7.3672445990701	-2.085223195984568	-0.7429855344376347	1.96147010454075	0.19194258268970543	-0.6275060456465269	1.96147010454075	7.043289298283982	-0.37562956854517227	1.7095936274393964	0.2547792187700417	0.9637053513330737	3	correct	1.0
304.26305140000477	9.103368699987186	go_punish	0.2521338999940781	304.312745800009	306.74839020000945	309.29971210000826	2.435644400000456	305.3248234000057	308.2771158999967	312.360394000003	1.423566800003755	1.0225962000115487	1.0557204999931855	311.3474932000099	0.5270132000005106	310.31845900000167	2	1	36	1	go_punish	1	0	-1	1	1	1	0	0.0	1.0	0	0.2521338999940781	0.5270132000005106	1198.3743527000042	1502.6870985000132	1503.69917610001	1505.1227429000137	1506.651468600001	1507.6740648000125	1508.692811700006	1509.7218459000142	1510.7347467000072	1511.7904672000004	2020-06-04 10:49:15.077796	0.708828601451801	-0.0065625713112889	0.0	-0.0065625713112889	0.708828601451801	0.0	-0.708828601451801	-0.0065625713112889	0.0	0.708828601451801	0.0	0.0065625713112889	-2.509549212720917	-0.7495481057489236	-0.35025471108314005	-1.9010118903947133	-1.097247641630466	-0.35025471108314005	-0.3173927294748284	-1.9785257827172613	0.5310234300036563	-2.063508168165137	0.9637053513330737	3	correct	1.0
313.4097355999984	8.245713700001943	nogo_punish	1.0	313.4594300000026	314.88152409999725	317.40682489999745	1.4220940999946379	314.45802980000735	316.3944006000095	320.46176679999917	0.4234942999898976	1.0124242999879698	1.2433769000053871	319.44782980000286	0.2686676000012085	318.42502660000173	2	1	37	2	nogo_punish	1	-1	0	0	0	1	0	0.0	1.0	0	1.0	0.2686676000012085	1198.3743527000042	1511.8337827000069	1512.8323825000116	1513.2558768000015	1514.7687533000137	1515.7811776000017	1516.799379300006	1517.822182500007	1518.8361195000034	1520.0794964000088	2020-06-04 10:49:15.077796	2.18230736211173	-3.89215814430662	-1.26642625477164	-1.28050448918941	-3.44873361688337	-1.26642625477164	-2.18230736211173	-1.26642625477164	-3.89215814430662	-1.26642625477164	-3.44873361688337	1.26642625477164	-1.0360704520609882	-4.635143678744255	-1.61668096585478	-3.1749538082728344	-5.254809859965637	-1.61668096585478	0.9424709539855227	-3.953780638940702	-2.917710186879714	-3.323371851625488	-2.9284527929735464	3	correct	1.0
321.6967947999947	10.057991200010292	go_reward	0.3082303999981377	321.7464891999989	324.7154076000006	327.2747057000088	2.968918400001712	322.75623389999987	326.25150230000145	330.3426102000085	1.959173700000747	1.0232034000073327	1.4618702000007033	329.32323970001016	0.3628992999874754	328.2887594000058	2	1	38	3	go_reward	1	1	0	1	1	1	0	0.0	1.0	1	0.3082303999981377	0.3628992999874754	1198.3743527000042	1520.1208419000031	1521.130586600004	1523.0897603000049	1524.6258550000057	1525.649058400013	1526.66311210001	1527.6975924000144	1528.7169629000127	1530.1788331000134	2020-06-04 10:49:15.077796	3.30265060026436	2.11694582307072	0.0	2.11694582307072	3.30265060026436	0.0	-3.30265060026436	2.11694582307072	0.0	3.30265060026436	0.0	7.562023591623269	0.08427278609164146	1.3739602886330853	-0.35025471108314005	0.22249650398729548	1.4965743571820929	-0.35025471108314005	7.238068290837152	0.6152962160952975	0.5310234300036563	0.06000022621687151	0.9637053513330737	3	correct	1.0
331.78051080000296	9.349061899992876	go_punish	0.2558519000012893	331.8302052000072	334.45269689999986	336.9932151999965	2.622491699992679	332.8398521000054	335.9697307000024	340.0453504000034	1.612844799994491	1.0234844999940833	1.1339166999966892	339.04227980000746	0.3897293000045465	338.00796260000766	2	1	39	1	go_punish	0	-1	0	1	1	1	0	0.0	1.0	-1	0.2558519000012893	0.3897293000045465	1198.3743527000042	1530.2045579000114	1531.2142048000096	1532.827049600004	1534.3440834000066	1535.3675679000007	1536.382315300012	1537.4166325000117	1538.4197031000076	1539.5536198000043	2020-06-04 10:49:15.077796	0.712989130715863	-0.003155637571515	0.0	-0.003155637571515	0.712989130715863	0.0	-0.712989130715863	-0.003155637571515	0.0	0.712989130715863	0.0	-5.9175991660587846	-2.5053886834568555	-0.7461411720091498	-0.35025471108314005	-1.8976049566549393	-1.0930871123664039	-0.35025471108314005	-6.241554466844902	-1.9743652534531995	0.5310234300036563	-2.0601012344253635	0.9637053513330737	3	correct	1.0
341.1575506999943	7.907293399999617	go_punish	0.4867985000018962	341.20724509999854	342.57486160000553	345.13438790000487	1.3676165000069886	342.21628930000566	344.12246939999727	348.19213750000927	0.35857229999987794	1.0119185000075959	0.9224009999888949	347.17963340001006	0.2831487999937963	346.15056390000973	2	1	40	1	go_punish	1	0	-1	1	1	1	0	0.0	1.0	0	0.4867985000018962	0.2831487999937963	1198.3743527000042	1539.5815978000028	1540.59064200001	1540.9492143000098	1542.4968221000015	1543.508740600009	1544.524916600014	1545.5539861000143	1546.5664902000135	1547.4888912000024	2020-06-04 10:49:15.077796	-3.99817359596242	-3.89371806000253	0.0	-3.89371806000253	-3.99817359596242	0.0	3.99817359596242	-3.89371806000253	0.0	-3.99817359596242	0.0	3.89371806000253	-7.216551410135138	-4.6367035944401644	-0.35025471108314005	-5.788167379085954	-5.804249839044687	-0.35025471108314005	3.5697627592164127	-6.685527980131482	0.5310234300036563	-5.950663656856378	0.9637053513330737	3	correct	1.0
349.08964849999757	9.03714840000589	nogo_reward	1.0	349.1393429000018	351.14039670000784	353.67740090000734	2.001053800006048	350.14065370000026	352.6555030000018	356.707733999996	0.9997430000075838	1.0218979000055697	1.4687573000117027	355.69465430000855	0.2739466999919386	354.6825858000084	2	1	41	4	nogo_reward	1	0	1	0	0	1	0	0.0	1.0	1	1.0	0.2739466999919386	1198.3743527000042	1547.513695600006	1548.5150064000045	1549.514749400012	1551.029855700006	1552.0517536000116	1553.0569385000126	1554.0690070000128	1555.0820867000002	1556.550844000012	2020-06-04 10:49:15.077796	4.99813829874716	0.0	7.28046491345994	7.19109334194242	2.28232661471278	7.28046491345994	-4.99813829874716	7.28046491345994	0.0	7.28046491345994	2.28232661471278	2.39850450123405	1.779760484574442	-0.7429855344376347	6.9302102023767995	5.296644022858995	0.4762503716305131	6.9302102023767995	2.0745492004479327	4.593110529290877	2.8133500447164366	5.223519316606092	0.9637053513330737	3	correct	1.0
358.17045180000423	8.775037200000952	nogo_punish	1.0	358.22014620000846	359.9266871	362.45402620000823	1.7065408999915235	359.2179279999982	361.4324762000033	365.51740500000597	0.708759100001771	1.021550000004936	1.4777784000034444	364.50387890001025	0.3098036000010324	363.4698242000013	2	1	42	2	nogo_punish	1	-1	0	0	0	1	0	0.0	1.0	0	1.0	0.3098036000010324	1198.3743527000042	1556.5944989000127	1557.5922807000024	1558.3010398000042	1559.8068289000075	1560.8283789000125	1561.8441769000056	1562.8782316000145	1563.8917577000102	1565.3695361000136	2020-06-04 10:49:15.077796	2.81968447125249	-3.89215814430662	-0.455078248626353	-0.461640819937642	-3.27476271987884	-0.455078248626353	-2.81968447125249	-0.455078248626353	-3.89215814430662	-0.455078248626353	-3.27476271987884	0.455078248626353	-0.3986933429202284	-4.635143678744255	-0.805332959709493	-2.3560901390210662	-5.080838962961107	-0.805332959709493	0.1311229478402357	-3.1424326327954155	-2.743739289875184	-2.5120238454802015	-2.9284527929735464	3	correct	1.0
366.98826440000266	7.692126800000551	go_reward	0.3264305999909993	367.0379588000069	368.32828250000625	370.893270200002	1.2903236999993624	368.04654120000487	369.86997300000826	373.94915390000097	0.28174130000138575	1.023297199993749	0.7809317000064766	372.9364595000079	0.3269410000066273	371.90851960000873	2	1	43	3	go_reward	1	1	0	1	1	1	0	0.0	1.0	1	0.3264305999909993	0.3269410000066273	1198.3743527000042	1565.4123115000111	1566.420893900009	1566.7026352000105	1568.2443257000125	1569.2676229000062	1570.282872300013	1571.3108122000122	1572.3235066000052	1573.1044383000117	2020-06-04 10:49:15.077796	9.49100843426754	7.20533384843548	0.0	7.20533384843548	9.49100843426754	0.0	-9.49100843426754	7.20533384843548	0.0	9.49100843426754	0.0	2.47363556625851	6.272630620094821	6.462348313997845	-0.35025471108314005	5.310884529352055	7.684932191185273	-0.35025471108314005	2.149680265472393	6.803654050098478	0.5310234300036563	5.148388251581631	0.9637053513330737	3	correct	1.0
374.72147799999243	9.36597020000022	nogo_punish	1.0	374.77117239999666	377.2402402000007	379.74081590000424	2.4690678000040407	375.76963120000437	378.74389189999783	382.7844832999981	1.4706089999963297	0.9969240000064019	1.352659299998777	381.77154689999566	0.4457218000025023	380.75793049999606	2	1	44	2	nogo_punish	1	-1	0	0	0	1	1	0.0	0.0	0	1.0	0.4457218000025023	1198.3743527000042	1573.145525100001	1574.1439839000086	1575.614592900005	1577.118244600002	1578.1151686000085	1579.1322832000003	1580.1458996	1581.1588360000023	1582.5114953000011	2020-06-04 10:49:15.077796	3.03797054736677	-3.89215814430662	-0.176281389211641	-0.179437026783156	-3.21425193657841	-0.176281389211641	-3.03797054736677	-0.176281389211641	-3.89215814430662	-0.176281389211641	-3.21425193657841	0.176281389211641	-0.1804072668059482	-4.635143678744255	-0.526536100294781	-2.0738863458665806	-5.020328179660677	-0.526536100294781	-0.1476739115744763	-2.8636357733807034	-2.6832285065747534	-2.2332269860654894	-2.9284527929735464	3	wrong	1.0
384.13051200000336	8.417314799997257	nogo_punish	1.0	384.1802064000076	386.1627991999994	388.70137950000935	1.982592799991835	385.1788097999961	387.6781953000027	391.76022560001024	0.9839894000033382	1.0231842000066536	0.8372955999946043	390.74618960000225	0.5299322999926517	389.7147227999958	2	1	45	2	nogo_punish	0	0	-1	0	0	1	0	0.0	1.0	-1	1.0	0.5299322999926517	1198.3743527000042	1582.5545591000118	1583.5531625000003	1584.5371519000037	1586.052548000007	1587.0757322000136	1588.0890755	1589.1205423000065	1590.1345783000145	1590.971873900009	2020-06-04 10:49:15.077796	3.11900783293809	-3.89215814430662	-0.0724761300116393	-0.0740360457075451	-3.19148396294973	-0.0724761300116393	-3.11900783293809	-0.0724761300116393	-3.89215814430662	-0.0724761300116393	-3.19148396294973	-5.84827867361866	-0.09936998123462848	-4.635143678744255	-0.4227308410947793	-1.9684853647909695	-4.997560206031997	-0.4227308410947793	-6.172233974404778	-2.7598305141807016	-2.6604605329460735	-2.1294217268654876	-2.9284527929735464	3	correct	1.0
392.5723094999996	8.462868200003413	nogo_reward	1.0	392.62200390000385	394.47692060000554	397.01869660000375	1.854916700001695	393.6288010999997	395.993848099999	400.0594184000074	0.8481195000058506	1.0248485000047367	1.0254536999998436	399.0562168000033	0.3539409000077285	398.030740400005	2	1	46	4	nogo_reward	1	0	1	0	0	1	0	0.0	1.0	1	1.0	0.3539409000077285	1198.3743527000042	1590.996356600008	1592.003153800004	1592.8512733000098	1594.3682008000033	1595.393049300008	1596.4050931000093	1597.4305695000076	1598.4337711000117	1599.4592248000115	2020-06-04 10:49:15.077796	6.1810459692841	0.0	8.81278255464722	8.77542784881977	2.63173658536311	8.81278255464722	-6.1810459692841	8.81278255464722	0.0	8.81278255464722	2.63173658536311	0.8661868600467706	2.962668155111382	-0.7429855344376347	8.462527843564079	6.880978529736346	0.8256603422808431	8.462527843564079	0.5422315592606533	6.125428170478157	3.162760015366766	6.75583695779337	0.9637053513330737	3	correct	1.0
401.0609270999996	8.872349800003349	go_punish	0.7976246000034735	401.11062150000384	403.4811405000073	406.0361042000004	2.370519000003469	402.1198940000031	405.01509670000814	409.0767646000022	1.3612465000041993	1.0210074999922654	0.9062067000049865	408.0666770000098	0.4097157999931369	407.0419457000098	2	1	47	1	go_punish	1	0	-1	1	1	1	0	0.0	1.0	0	0.7976246000034735	0.4097157999931369	1198.3743527000042	1599.484974200008	1600.4942467000074	1601.8554932000116	1603.3894494000124	1604.4104569000046	1605.416298400014	1606.441029700014	1607.4511173000064	1608.3573240000114	2020-06-04 10:49:15.077796	-0.820858897839303	-1.26721684832162	0.0	-1.26721684832162	-0.820858897839303	0.0	0.820858897839303	-1.26721684832162	0.0	-0.820858897839303	0.0	1.26721684832162	-4.039236712012022	-2.0102023827592546	-0.35025471108314005	-3.1616661674050444	-2.62693514092157	-0.35025471108314005	0.9432615475355026	-3.5082132820083656	0.5310234300036563	-3.3241624451754683	0.9637053513330737	3	correct	1.0
409.95966720000433	8.080231499989168	go_punish	1.0	410.00936160000856	411.3363488000032	413.8630068000057	1.326987199994619	411.01788939999824	412.8420329000073	416.8927788000001	0.3184594000049401	1.0209738999983529	1.1968142999976408	415.8805741999968	0.6955574000021443	414.8669066000002	2	1	48	1	go_punish	1	0	-1	1	0	0	0	0.0	1.0	-1	1.0	0.6955574000021443	1198.3743527000042	1608.3837143000128	1609.3922421000025	1609.7107015000074	1611.2163856000116	1612.23735950001	1613.2412593000045	1614.254926900001	1615.2671315000043	1616.463945800002	2020-06-04 10:49:15.077796	-0.163273056610814	-0.45548820110724	0.0	-0.45548820110724	0.163273056610814	0.0	0.163273056610814	0.0	-0.45548820110724	0.0	0.163273056610814	-5.9207548036303	-3.3816508707835324	-1.1984737355448747	-0.35025471108314005	-2.3499375201906645	-1.642803186471453	-0.35025471108314005	-6.244710104416417	-2.6873543841690624	0.6942964866144703	-2.0569455968538484	0.5082171502258337	3	correct	1.0
418.082668400006	7.870608799988759	nogo_punish	1.0	418.13236280001024	419.49113160000707	422.0119408000028	1.3587687999968239	419.13140420000127	420.99591100000544	425.0479015000017	0.35972740000579506	1.0160297999973409	0.9550700999973287	424.0445854999998	0.4317767000029562	423.02689409999584	2	1	49	2	nogo_punish	0	0	-1	0	0	1	0	0.0	1.0	-1	1.0	0.4317767000029562	1198.3743527000042	1616.5067155000145	1617.5057569000055	1617.8654843000113	1619.3702637000097	1620.386293500007	1621.4012468	1622.418938200004	1623.422254200006	1624.3773243000032	2020-06-04 10:49:15.077796	0.0798675087003487	-3.89215814430662	-3.92344936458972	-3.9242399581397	-4.00331687329007	-3.92344936458972	-0.0798675087003487	-3.92344936458972	-3.89215814430662	-3.92344936458972	-4.00331687329007	-1.9973054390405798	-3.1385103054723698	-4.635143678744255	-4.27370407567286	-5.8186892772231245	-5.809393116372338	-4.27370407567286	-2.321260739826697	-6.610803748758782	-3.4722934432864143	-5.980394961443569	-2.9284527929735464	3	correct	1.0
425.99704909999855	9.55029800000193	go_reward	0.3094514999975217	426.0467435000028	428.59323349999613	431.1591628000024	2.546489999993355	427.0535960999987	430.13495859999966	434.20663450000575	1.5396373999974458	1.024204200002714	1.3904069999989588	433.1935425999982	0.3954539999976987	432.180271899997	2	1	50	3	go_reward	1	1	0	1	1	1	0	0.0	1.0	1	0.3094514999975217	0.3954539999976987	1198.3743527000042	1624.421096200007	1625.427948800003	1626.9675862000004	1628.509311300004	1629.5335155000066	1630.5546246000013	1631.5678953000024	1632.58098720001	1633.971394200009	2020-06-04 10:49:15.077796	11.4156274753068	8.78227204585272	0.0	8.78227204585272	11.4156274753068	0.0	-11.4156274753068	8.78227204585272	0.0	11.4156274753068	0.0	0.89669736884127	8.197249661134082	8.039286511415085	-0.35025471108314005	6.887822726769295	9.609551232224534	-0.35025471108314005	0.5727420680551527	8.728273091137739	0.5310234300036563	6.725326448998871	0.9637053513330737	3	correct	1.0
435.5718253999946	9.443851400006906	go_punish	0.3151649999927031	435.62151979999885	438.3436873000028	440.8593000999972	2.722167500003934	436.64054030000966	439.8533185999986	443.90716930000053	1.7031469999931232	1.0059814999985974	1.1582019000052242	442.90591480000876	0.4829409999947529	441.87864270000136	2	1	51	1	go_punish	1	0	-1	1	1	1	0	0.0	1.0	0	0.3151649999927031	0.4829409999947529	1198.3743527000042	1633.995872500003	1635.014893000014	1636.718040000007	1638.2276713000028	1639.2336528000014	1640.2529954000056	1641.280267500013	1642.2815220000048	1643.43972390001	2020-06-04 10:49:15.077796	3.29427666832848	-0.45548820110724	-3.89215814430662	-4.06865667023713	-0.597881475978149	-3.89215814430662	-3.29427666832848	-0.45548820110724	-3.89215814430662	-0.597881475978149	-3.89215814430662	0.45548820110724	0.0758988541557617	-1.1984737355448747	-4.242412855389761	-5.963105989320554	-2.4039577190604158	-4.242412855389761	0.1315329003211227	-3.2852358601472114	-3.361134714302964	-2.5124337979610885	-2.9284527929735464	3	correct	1.0
445.04316689999564	8.022862600002327	nogo_reward	1.0	445.09286129999987	446.79483090000576	449.32930060000217	1.7019696000058957	446.1001047000027	448.30879450000066	452.3658429000061	0.6947262000030605	1.020506100001512	0.749880999996094	451.35233760000847	0.3547580000013113	450.3337797999993	2	1	52	4	nogo_reward	1	0	1	0	0	1	0	0.0	1.0	1	1.0	0.3547580000013113	1198.3743527000042	1643.467214000004	1644.474457400007	1645.16918360001	1646.683147200005	1647.7036533000064	1648.7081325000036	1649.7266903000127	1650.7401956000103	1651.4900766000064	2020-06-04 10:49:15.077796	6.58609272779887	0.0	9.34076330470397	9.32444988989944	2.7546705769051	9.34076330470397	-6.58609272779887	9.34076330470397	0.0	9.34076330470397	2.7546705769051	0.3382061099900202	3.3677149136261515	-0.7429855344376347	8.990508593620829	7.430000570816016	0.9485943338228331	8.990508593620829	0.014250809203902925	6.653408920534908	3.2856940069087566	7.283817707850121	0.9637053513330737	3	correct	1.0
453.11419439999736	8.350690599996597	nogo_punish	1.0	453.1638888000016	454.94360589999997	457.47077210000134	1.7797170999983791	454.17186689999653	456.4493194999957	460.52373010000156	0.7717390000034356	1.0214526000056594	0.9908492999966256	459.5049297000078	0.3401570999994874	458.4884291000053	2	1	53	2	nogo_punish	1	-1	0	0	0	1	0	0.0	1.0	0	1.0	0.3401570999994874	1198.3743527000042	1651.5382415000058	1652.5462196000008	1653.3179586000042	1654.8236722	1655.8451248000056	1656.8627818000095	1657.879282400012	1658.8980828000058	1659.8889321000024	2020-06-04 10:49:15.077796	-0.902881265570227	-3.89215814430662	-5.17266263349604	-5.17307258597693	-4.26978136792581	-5.17266263349604	0.902881265570227	-5.17266263349604	-3.89215814430662	-5.17266263349604	-4.26978136792581	5.17266263349604	-4.121259079742945	-4.635143678744255	-5.522917344579181	-7.067521905060355	-6.075857611008077	-5.522917344579181	4.848707332709923	-7.860017017665102	-3.738757937922154	-7.229608230349889	-2.9284527929735464	3	correct	1.0
461.50679080000555	8.947430099986377	nogo_punish	1.0	461.5564852000098	463.47252399999707	465.99398260000453	1.916038799987291	462.5657915000047	464.9763693999994	469.0335933000024	0.9067324999923585	1.0176132000051439	1.4703219999937573	468.0311320000037	0.2997663999994984	467.0089488000085	2	1	54	2	nogo_punish	1	-1	0	0	0	1	0	0.0	1.0	0	1.0	0.2997663999994984	1198.3743527000042	1659.930837900014	1660.940144200009	1661.8468767000013	1663.3507221000036	1664.3683353000088	1665.3833015000127	1666.405484700008	1667.4079460000066	1668.8782680000004	2020-06-04 10:49:15.077796	1.81705839631718	-3.89215814430662	-1.72806707470929	-1.72828421142815	-3.54512547102646	-1.72806707470929	-1.81705839631718	-1.72806707470929	-3.89215814430662	-1.72806707470929	-3.54512547102646	1.72806707470929	-1.4013194178555384	-4.635143678744255	-2.07832178579243	-3.6227335305115744	-5.351201714108727	-2.07832178579243	1.4041117739231728	-4.4154214588783525	-3.014102041022804	-3.7850126715631385	-2.9284527929735464	3	correct	1.0
470.4959652999969	9.752913400006946	go_reward	0.3559957999968901	470.5456597000011	473.30570910000824	475.85872600000584	2.7600494000071194	471.5547433000029	474.83248480000475	478.9000439000083	1.7509658000053605	1.0262412000010954	1.3985291999997571	477.8980293000059	0.4562163999944459	476.8724061999965	2	1	55	3	go_reward	1	1	0	1	1	1	0	0.0	1.0	1	0.3559957999968901	0.4562163999944459	1198.3743527000042	1668.9200124000054	1669.9290960000071	1671.6800618000125	1673.206837500009	1674.23307870001	1675.2467589000007	1676.27238200001	1677.2743966000126	1678.6729258000123	2020-06-04 10:49:15.077796	12.083304045558	9.32782981460816	0.0	9.32782981460816	12.083304045558	0.0	-12.083304045558	9.32782981460816	0.0	12.083304045558	0.0	0.3511396000858298	8.864926231385281	8.584844280170525	-0.35025471108314005	7.433380495524736	10.277227802475734	-0.35025471108314005	0.0271842992997125	9.395949661388938	0.5310234300036563	7.270884217754311	0.9637053513330737	3	correct	1.0
480.2969257999939	9.15895050000131	go_reward	0.3729719999973895	480.34662019999814	482.6755659000046	485.2147987000062	2.328945700006443	481.3403010000038	484.2000163000048	488.26288200001	1.335264900000766	1.0147824000014225	1.2426886999894577	487.24306930000625	0.4111465999885695	486.22844580000674	2	1	56	3	go_reward	1	1	0	1	1	1	0	0.0	1.0	1	0.3729719999973895	0.4111465999885695	1198.3743527000042	1678.7209729000024	1679.714653700008	1681.0499186000088	1682.574369000009	1683.5891514000105	1684.602798500011	1685.6174220000105	1686.6372347000142	1687.8799234000037	2020-06-04 10:49:15.077796	12.3347984404555	9.53287191472266	0.0	9.53287191472266	12.3347984404555	0.0	-12.3347984404555	9.53287191472266	0.0	12.3347984404555	0.0	0.14609749997132937	9.116420626282782	8.789886380285026	-0.35025471108314005	7.638422595639236	10.528722197373234	-0.35025471108314005	-0.17785780081478791	9.647444056286439	0.5310234300036563	7.475926317868812	0.9637053513330737	3	correct	1.0
489.47910440000123	8.13598340000317	nogo_reward	1.0	489.52879880000546	491.1019460000098	493.63870090000273	1.573147200004314	490.53872930000944	492.618028900004	496.7023986999993	0.5632167000003392	1.02067199999874	0.9623835000093095	495.6898749999964	0.2993343999987701	494.65543389999925	2	1	57	4	nogo_reward	0	1	0	0	0	1	0	0.0	1.0	0	1.0	0.2993343999987701	1198.3743527000042	1687.9031515000097	1688.9130820000137	1689.476298700014	1690.9923816000082	1692.013053600007	1693.0297866000035	1694.0642277000006	1695.0767514000036	1696.0391349000129	2020-06-04 10:49:15.077796	6.73703992725521	0.0	9.53855803109503	9.53116172163492	2.80151810383982	9.53855803109503	-6.73703992725521	9.53855803109503	0.0	9.53855803109503	2.80151810383982	-9.53855803109503	3.5186621130824913	-0.7429855344376347	9.18830332001189	7.636712402551495	0.995441860757553	9.18830332001189	-9.862513331881148	6.851203646925969	3.332541533843476	7.481612434241182	0.9637053513330737	3	correct	1.0
497.6610171999928	8.148183500001323	go_reward	0.3164921999996295	497.710711599997	499.03109530000074	501.5801378000033	1.320383700003731	498.7151515000005	500.5555300999986	504.6345891000092	0.315943800000241	1.024607700004708	1.2243059999891557	503.6219598000025	0.3624451000068802	502.59230319999915	2	1	58	3	go_reward	1	1	0	1	1	1	1	1.0	1.0	1	0.3164921999996295	0.3624451000068802	1198.3743527000042	1696.0850643000012	1697.0895042000047	1697.405448000005	1698.9298828000028	1699.9544905000075	1700.9666559000034	1701.9963125000068	1703.0089418000134	1704.2332478000026	2020-06-04 10:49:15.077796	12.4358584163933	9.61511175867365	0.0	9.61511175867365	12.4358584163933	0.0	-12.4358584163933	9.61511175867365	0.0	12.4358584163933	0.0	0.063857656020339	9.217480602220581	8.872126224236016	-0.35025471108314005	7.720662439590226	10.629782173311034	-0.35025471108314005	-0.2600976447657783	9.748504032224238	0.5310234300036563	7.558166161819802	0.9637053513330737	3	correct	1.0
505.8354459999973	9.13529400000698	nogo_reward	1.0	505.88514040000155	508.4520682000002	510.97083649999695	2.566927799998666	506.88542510000116	509.9572530000005	514.0205359999964	1.5666430999990553	1.0135834999964572	0.9998984000121709	513.0163388000074	0.4664576999930432	511.98709029999736	2	1	59	4	nogo_reward	1	0	1	0	0	1	1	1.0	1.0	1	1.0	0.4664576999930432	1198.3743527000042	1704.2594931000058	1705.2597778000054	1706.8264209000045	1708.3316057000047	1709.3451892000012	1710.3614430000016	1711.3906915000116	1712.3948887000006	1713.3947871000128	2020-06-04 10:49:15.077796	1.74306146234149	0.0	3.16363476067898	3.16017048835476	1.4205732983375	3.16363476067898	-1.74306146234149	3.16363476067898	0.0	3.16363476067898	1.4205732983375	6.51533465401501	-1.4753163518312284	-0.7429855344376347	2.81338004959584	1.2657211692713357	-0.3855029447447671	2.81338004959584	6.191379353228893	0.4762803765099175	1.9515967283411562	1.1066891638251315	0.9637053513330737	3	correct	1.0
515.0137997999991	9.337753900006646	nogo_punish	1.0	515.0634942000033	517.3412381000089	519.8578930000076	2.2777439000055892	516.0753544000036	518.8572971999965	522.9075848000066	1.2658837000053609	1.0005958000110695	1.4936633000033908	521.8929512000032	0.4427458999998634	520.8759101000035	2	1	60	2	nogo_punish	1	-1	0	0	0	1	0	0.0	1.0	0	1.0	0.4427458999998634	1198.3743527000042	1713.4378469000076	1714.4497071000078	1715.7155908000132	1717.2316499000008	1718.2322457000118	1719.2502628000077	1720.2673039000074	1721.2819375000108	1722.7756008000142	2020-06-04 10:49:15.077796	2.67775899165469	-3.89215814430662	-0.634515275409509	-0.634632604455749	-3.3122742670642	-0.634515275409509	-2.67775899165469	-0.634515275409509	-3.89215814430662	-0.634515275409509	-3.3122742670642	0.634515275409509	-0.5406188225180286	-4.635143678744255	-0.9847699864926491	-2.5290819235391733	-5.118350510146467	-0.9847699864926491	0.31055997462339174	-3.3218696595785713	-2.7812508370605435	-2.6914608722633573	-2.9284527929735464	3	correct	1.0
