onset	duration	trial_type	response_time	cueOnset	targetOnset	fbOnset	cueRT	firstfixOnset	secondfixOnset	waitOnset	firstfixdur	secondfixdur	waitdur	nback_fbOnset	nback_response_time	nback_targetOnset	block	wm	trial	cue	cond	is_common	outcome_go	outcome_nogo	key_correct	key_pressed	is_correct	key_correct_nback	key_pressed_nback	is_correct_nback	outcome	rt	rt_nback	time_scan	time_onset	time_isi1	time_circle	time_isi2	time_feedback	time_same	time_correct	time_iti	time_done	timestamp_scan	DV	Qgo	Qnogo	SV	Wgo	Wnogo	mDV	Qchosen	Qunchosen	Wchosen	Wunchosen	PE	DVC	QgoC	QnogoC	SVC	WgoC	WnogoC	PEC	WchosenC	WunchosenC	QchosenC	QunchosenC	run	outcome_nback	nback_targetResp
0.0	6.302401099936219	nogo_reward	0.2849243000382557	0.022789500071667135	1.8624384000432883	4.393311600084417	1.8396488999716212	1.0384708000348155	3.3778724999866654	5.395344900083842	0.8239676000084728	1.0154391000977512	0.9298456999240443	n/a	1.0	n/a	1	0	61	4	nogo_reward	1	0	1	0	1	0	0	n/a	n/a	0	0.2849243000382557	1.0	946.710210799938	946.7330003000096	947.7486815999728	948.5726491999812	950.0880832999246	951.1035224000224	n/a	n/a	952.1055557000218	953.0354013999458	2020-05-14 09:20:57.258084	2.23906739679227	0.510215679825915	0.0	0.510215679825915	2.23906739679227	0.0	-2.23906739679227	0.510215679825915	0.0	2.23906739679227	0.0	-0.510215679825915	-0.014472037183259623	0.8748212558117491	0.9423459701832005	0.7709706595457131	1.1039321507565505	0.9423459701832005	-0.1549306757307879	1.0159030418782449	1.0303750790615054	0.4085313007050865	1.4086359252898621	2	missed	0.0
6.33736689994123	7.759507199982181	go_punish	0.331883699982427	6.360156400012897	9.330478899996024	11.88088200008508	2.9703224999831264	7.371776700020064	10.861372700077595	12.88170220004406	1.95870219997596	1.0195093000074849	1.2379613999510184	n/a	1.0	n/a	1	0	62	1	go_punish	1	0	-1	1	1	1	0	n/a	n/a	0	0.331883699982427	1.0	946.710210799938	953.0703671999509	954.081987499958	956.040689699934	957.5715835000155	958.591092800023	n/a	n/a	959.591912999982	960.829874399933	2020-05-14 09:20:57.258084	0.716836074356707	-4.21692695939459	-5.35428859900001	-5.13676085145676	-4.6374525246433	-5.35428859900001	-0.716836074356707	-4.21692695939459	-5.35428859900001	-4.6374525246433	-5.35428859900001	4.21692695939459	-1.5367033596188227	-3.852321383408756	-4.411942628816809	-4.876005871736962	-5.77258777067902	-4.411942628816809	4.572211963489718	-5.860616879557325	-4.323913519938505	-4.318611338515419	-3.945652673710148	2	missed	0.0
14.138363100006359	7.418788400013	go_reward	0.2747023000847548	14.161152600078026	16.523688600049468	19.085936699994022	2.362535999971442	15.163721100078078	18.065147100016475	20.08655230002489	1.3599674999713898	1.0207895999775474	1.4933887000661343	n/a	1.0	n/a	1	0	63	3	go_reward	1	1	0	1	1	1	0	n/a	n/a	1	0.2747023000847548	1.0	946.710210799938	960.871363400016	961.873931900016	963.2338993999874	964.7753578999544	965.796147499932	n/a	n/a	966.7967630999628	968.290151800029	2020-05-14 09:20:57.258084	6.86083757784453	4.06191731717746	0.0	3.10913922266541	6.86083757784453	0.0	-6.86083757784453	4.06191731717746	0.0	6.86083757784453	0.0	1.7088504236878208	4.607298143869	4.426522893163294	0.9423459701832005	3.369894202385208	5.72570233180881	0.9423459701832005	2.064135427782948	5.637673222930505	1.0303750790615054	3.960232938056631	1.4086359252898621	2	missed	0.0
21.596402699942814	6.768191699986346	go_reward	0.3676686999388039	21.61919220001448	23.671434400021212	26.20210960006807	2.052242200006731	22.625743700075077	25.178088600048795	27.203305500094075	1.0456906999461353	1.0240210000192747	1.1840783999067526	n/a	1.0	n/a	1	0	64	3	go_reward	1	1	0	1	1	1	0	n/a	n/a	1	0.3676686999388039	1.0	946.710210799938	968.3294029999524	969.335954500013	970.3816451999592	971.8882993999867	972.912320400006	n/a	n/a	973.913516300032	975.0975946999388	2020-05-14 09:20:57.258084	7.51610125199407	4.44809719243761	0.0	3.76845104036432	7.51610125199407	0.0	-7.51610125199407	4.44809719243761	0.0	7.51610125199407	0.0	1.3226705484276708	5.26256181801854	4.812702768423444	0.9423459701832005	4.029206020084119	6.38096600595835	0.9423459701832005	1.677955552522798	6.292936897080045	1.0303750790615054	4.346412813316781	1.4086359252898621	2	missed	0.0
28.40185999998357	6.146090499940442	go_punish	1.0	28.42464950005524	29.995082200039292	32.53620660002366	1.5704326999840532	29.435164700029645	31.511919600074293	33.54528469999809	0.5599175000096466	1.0242869999493678	1.0254552999975886	n/a	1.0	n/a	1	0	65	1	go_punish	1	0	-1	1	0	0	0	n/a	n/a	-1	1.0	1.0	946.710210799938	975.1348602999932	976.1453754999676	976.7052929999772	978.2221304000122	979.2464173999616	n/a	n/a	980.255495499936	981.2809507999336	2020-05-14 09:20:57.258084	-2.315484897601	-3.10289949795468	-5.35428859900001	-3.83686746261248	-3.038803701399	-5.35428859900001	2.315484897601	-5.35428859900001	-3.10289949795468	-5.35428859900001	-3.038803701399	-6.12188950383839	-4.5690243315765295	-2.738293921968846	-4.411942628816809	-3.576112482892682	-4.17393894743472	-4.411942628816809	-5.766604499743263	-6.577452953914035	-2.0084286223374948	-5.455972978120839	-1.6942635726648179	2	missed	0.0
34.588454999961186	6.152263400028346	nogo_reward	1.0	34.61124450003285	36.119989100028874	38.64813390001666	1.508744599996021	35.621513499994876	37.629595100064876	39.65741610003181	0.4984756000339985	1.0185387999517843	1.1060918000293896	n/a	1.0	n/a	1	0	66	4	nogo_reward	1	0	1	0	0	1	0	n/a	n/a	1	1.0	1.0	946.710210799938	981.3214552999708	982.3317242999328	982.8301998999668	984.3398059000028	985.3583446999546	n/a	n/a	986.3676268999698	987.4737186999992	2020-05-14 09:20:57.258084	-2.09970626600794	0.411891420751573	0.0	0.411891420751573	2.09970626600794	0.0	2.09970626600794	0.0	0.411891420751573	0.0	2.09970626600794	5.77076774086528	-4.35324569998347	0.7764969967374071	0.9423459701832005	0.6726464004713711	0.9645710199722204	0.9423459701832005	6.126052744960408	-1.2231643549140252	3.1300813450694456	-0.10168437912082852	1.820527346041435	2	missed	0.0
40.78271739999775	7.362223799922617	go_reward	0.3138639000244438	40.80550690006942	43.569409499992844	46.11108609999087	2.7639025999234264	41.80538040003762	45.1029681999936	47.113071100088064	1.7640290999552235	1.0081178999972735	1.054659599903971	n/a	1.0	n/a	1	0	67	3	go_reward	1	1	0	1	1	1	0	n/a	n/a	1	0.3138639000244438	1.0	946.710210799938	987.5157177000074	988.5155911999756	990.2796202999308	991.8131789999316	992.8212968999288	n/a	n/a	993.823281900026	994.87794149993	2020-05-14 09:20:57.258084	7.98272018093486	4.72610556331821	0.0	4.22572384820477	7.98272018093486	0.0	-7.98272018093486	4.72610556331821	0.0	7.98272018093486	0.0	1.0446621775470701	5.729180746959329	5.0907111393040445	0.9423459701832005	4.486478827924568	6.84758493489914	0.9423459701832005	1.3999471816421973	6.759555826020835	1.0303750790615054	4.624421184197382	1.4086359252898621	2	missed	0.0
48.182292399927974	6.029228900093585	nogo_reward	0.6539556999923661	48.20508189999964	49.774287800071875	52.33137670008	1.5692059000722338	49.21338299999479	51.30761020001967	53.34326420002628	0.5609048000770827	1.0237665000603329	0.891046600066943	n/a	1.0	n/a	1	0	68	4	nogo_reward	0	1	0	0	1	0	1	n/a	n/a	1	0.6539556999923661	1.0	946.710210799938	994.9152926999376	995.9235937999327	996.4844986000098	998.0178209999576	999.041587500018	n/a	n/a	1000.0534749999642	1000.9445216000312	2020-05-14 09:20:57.258084	1.28010200541079	0.411891420751573	1.33895796977219	1.67464172312475	2.61905997518298	1.33895796977219	-1.28010200541079	0.411891420751573	1.33895796977219	2.61905997518298	1.33895796977219	5.3588763201137075	-0.9734374285647398	0.7764969967374071	2.2813039399553907	1.935396702844548	1.4839247291472606	2.2813039399553907	5.714161324208835	1.395895620268955	2.3693330488336954	0.3102070416307445	2.747593895062052	2	missed	0.0
54.24861799995438	7.550797400064766	nogo_punish	0.3096337000606581	54.271407500026044	56.76759020006284	59.319660600042084	2.4961827000367975	55.28520959999889	58.29637600004207	60.329521600040835	1.482380600063948	1.0232846000000109	1.4926833000499755	n/a	1.0	n/a	1	0	69	2	nogo_punish	1	-1	0	0	1	0	0	n/a	n/a	-1	0.3096337000606581	1.0	946.710210799938	1000.981618299964	1001.9954203999368	1003.4778010000008	1005.00658679998	1006.02987139998	n/a	n/a	1007.0397323999788	1008.5324157000288	2020-05-14 09:20:57.258084	-2.71064171161371	-4.85551824860772	-1.98776343947087	-3.6191292782244	-4.69840515108458	-1.98776343947087	2.71064171161371	-4.85551824860772	-1.98776343947087	-4.69840515108458	-1.98776343947087	-6.62065985423068	-4.96418114558924	-4.490912672621886	-1.0454174692876697	-3.358374298504602	-5.8335403971202995	-1.0454174692876697	-6.265374850135553	-5.921569505998605	-0.9573883604093647	-4.957202627728549	-0.5791275141810079	2	missed	0.0
61.83901789994002	7.199888900038786	nogo_punish	1.0	61.861807400011685	64.30566499999281	66.8418448000449	2.443857599981129	62.8695681000828	65.82229500007827	67.8502844000468	1.4360968999100123	1.0195497999666259	1.211411900003668	n/a	1.0	n/a	1	0	70	2	nogo_punish	1	-1	0	0	0	1	0	n/a	n/a	0	1.0	1.0	946.710210799938	1008.5720181999496	1009.5797789000208	1011.0158757999308	1012.5325058000162	1013.5520555999829	n/a	n/a	1014.5604951999848	1015.7719070999884	2020-05-14 09:20:57.258084	4.84344517600073	-6.28479917707823	-1.98776343947087	-5.52036575003887	-6.8312086154716	-1.98776343947087	-4.84344517600073	-1.98776343947087	-6.28479917707823	-1.98776343947087	-6.8312086154716	1.98776343947087	2.5899057420252007	-5.920193601092396	-1.0454174692876697	-5.259610770319072	-7.96634386150732	-1.0454174692876697	2.3430484435659973	-3.2109277943848955	-5.800833536410095	-2.0894478185916987	-4.876163251788368	2	missed	0.0
69.07996989996195	6.8309794999657925	go_reward	0.3120924999238923	69.10275940003362	70.95720790000644	73.51479350007162	1.8544484999728184	70.11538960004702	72.49783380003646	74.5134071999928	0.8418182999594137	1.0169597000351587	1.4203317000066136	n/a	1.0	n/a	1	0	71	3	go_reward	1	1	0	1	1	1	0	n/a	n/a	1	0.3120924999238923	1.0	946.710210799938	1015.8129701999716	1016.825600399985	1017.6674186999444	1019.2080445999744	1020.2250043000096	n/a	n/a	1021.2236179999308	1022.6439496999374	2020-05-14 09:20:57.258084	8.32548087525684	4.93236426331446	0.0	4.55495196862799	8.32548087525684	0.0	-8.32548087525684	4.93236426331446	0.0	8.32548087525684	0.0	0.8384034775508207	6.071941441281311	5.296969839300294	0.9423459701832005	4.815706948347788	7.19034562922112	0.9423459701832005	1.1936884816459479	7.102316520342815	1.0303750790615054	4.830679884193631	1.4086359252898621	2	missed	0.0
75.9497149999952	6.790285800001698	go_punish	1.0	75.97250450006686	77.76405790005822	80.29406159999814	1.7915533999913578	76.98700199998007	79.28130969998904	81.30876370007184	0.7770559000781532	1.012751900009107	1.4540265999967232	n/a	1.0	n/a	1	0	72	1	go_punish	0	-1	0	1	0	0	0	n/a	n/a	0	1.0	1.0	946.710210799938	1022.6827153000048	1023.697212799918	1024.4742686999962	1025.991520499927	1027.004272399936	n/a	n/a	1028.0189745000098	1029.4730011000065	2020-05-14 09:20:57.258084	-2.95461348034285	-3.10289949795468	-6.71265370145357	-5.79931364727027	-3.75804022111072	-6.71265370145357	2.95461348034285	-6.71265370145357	-3.10289949795468	-6.71265370145357	-3.75804022111072	6.71265370145357	-5.208152914318379	-2.738293921968846	-5.7703077312703694	-5.538558667550472	-4.893175467146439	-5.7703077312703694	7.0679387055486975	-7.935818056367595	-2.727665142049214	-6.814338080574399	-1.6942635726648179	2	missed	0.0
82.78037789999519	6.715280000003986	nogo_reward	0.3299030000343919	82.80316740006685	84.57839769998111	87.12750509998307	1.7752302999142557	83.81462449999515	86.11072760005493	88.13176510005735	0.7637731999859625	1.0167774999281392	1.38668230001349	n/a	1.0	n/a	1	0	73	4	nogo_reward	0	1	0	0	1	0	0	n/a	n/a	1	0.3299030000343919	1.0	946.710210799938	1029.5133782000048	1030.524835299933	1031.288608499919	1032.8209383999929	1033.837715899921	n/a	n/a	1034.8419758999953	1036.2286582000088	2020-05-14 09:20:57.258084	2.91490508947313	1.67464172312475	1.33895796977219	2.57244081161321	4.25386305924532	1.33895796977219	-2.91490508947313	1.67464172312475	1.33895796977219	4.25386305924532	1.33895796977219	4.096126017740531	0.6613656554976002	2.039247299110584	2.2813039399553907	2.833195791333008	3.1187278132096	2.2813039399553907	4.451411021835658	3.0306987043312947	2.3693330488336954	1.5729573440039213	2.747593895062052	2	missed	0.0
89.53271139995206	6.419847800047137	nogo_reward	1.0	89.55550090002373	90.95859320007742	93.48614360007934	1.403092300053686	90.56975070002966	92.46860700007517	94.48928239999793	0.3888425000477582	1.0175366000041777	1.4860663000729346	n/a	1.0	n/a	1	0	74	4	nogo_reward	1	0	1	0	0	1	0	n/a	n/a	1	1.0	1.0	946.710210799938	1036.2657116999617	1037.2799614999676	1037.6688040000154	1039.1788178000131	1040.1963544000173	n/a	n/a	1041.199493199936	1042.6855595000088	2020-05-14 09:20:57.258084	-4.08669914763956	2.57244081161321	1.33895796977219	3.23153250752724	5.42565711741176	1.33895796977219	4.08669914763956	1.33895796977219	2.57244081161321	1.33895796977219	5.42565711741176	4.43180977109309	-6.34023858161509	2.937046387599044	2.2813039399553907	3.492287487247038	4.29052187137604	2.2813039399553907	4.787094775188217	0.11579361485816486	6.456032196473265	1.2372735906513614	3.9810767369030717	2	missed	0.0
95.99037399992847	6.767368700005818	go_punish	0.3267152999760583	96.01316350000013	97.7435270000716	100.30062720004946	1.7303635000714621	97.01845440000773	99.27721810003288	101.31010580004693	0.7250726000638679	1.023409100016579	1.470426399959024	n/a	1.0	n/a	1	0	75	1	go_punish	0	-1	0	1	1	1	0	n/a	n/a	-1	0.3267152999760583	1.0	946.710210799938	1042.723374299938	1043.7286651999457	1044.4537378000095	1045.9874288999708	1047.0108379999874	n/a	n/a	1048.0203165999849	1049.490742999944	2020-05-14 09:20:57.258084	1.63797448713608	-3.10289949795468	-4.83329266748611	-4.26853032424076	-3.19531818035003	-4.83329266748611	-1.63797448713608	-3.10289949795468	-4.83329266748611	-3.19531818035003	-4.83329266748611	-8.373278604883719	-0.6155649468394497	-2.738293921968846	-3.8909466973029097	-4.007775344520962	-4.330453426385749	-3.8909466973029097	-8.017993600788593	-4.418482535264055	-3.802917588424605	-3.2045838770755086	-3.424656742196248	2	missed	0.0
102.79959159996349	6.257115300046507	go_reward	0.351478400058113	102.82238110003516	104.50282130006246	107.05114780005545	1.6804402000273058	103.83278779999853	106.02737870009162	108.05483919999108	0.670033500063937	1.023769099963829	1.0246572000905871	n/a	1.0	n/a	1	0	76	3	go_reward	1	1	0	1	1	1	0	n/a	n/a	1	0.351478400058113	1.0	946.710210799938	1049.532591899973	1050.5429985999365	1051.2130321000004	1052.7375895000296	1053.7613585999934	n/a	n/a	1054.765049999929	1055.7897072000196	2020-05-14 09:20:57.258084	8.58349674696781	5.08907254803701	0.0	4.79890989388923	8.58349674696781	0.0	-8.58349674696781	5.08907254803701	0.0	8.58349674696781	0.0	0.6816951928282702	6.329957312992281	5.4536781240228445	0.9423459701832005	5.059664873609028	7.448361500932091	0.9423459701832005	1.0369801969233974	7.3603323920537855	1.0303750790615054	4.987388168916182	1.4086359252898621	2	missed	0.0
109.095114799915	7.09833220008295	nogo_punish	1.0	109.11790429998666	111.66358699998852	114.20146200002648	2.545682700001862	110.12341730005585	113.18058090005081	115.21498360007547	1.540169699932676	1.020881099975668	1.0012528999941424	n/a	1.0	n/a	1	0	77	2	nogo_punish	1	-1	0	0	0	1	0	n/a	n/a	0	1.0	1.0	946.710210799938	1055.8281150999246	1056.8336280999938	1058.3737977999265	1059.8907916999888	1060.9116727999644	n/a	n/a	1061.9251944000134	1062.9264473000076	2020-05-14 09:20:57.258084	4.83984690958376	-6.28479917707823	-1.42928092847052	-3.98228992524851	-6.26912783805428	-1.42928092847052	-4.83984690958376	-1.42928092847052	-6.28479917707823	-1.42928092847052	-6.26912783805428	1.42928092847052	2.5863074756082303	-5.920193601092396	-0.48693495828731936	-3.721534945528712	-7.40426308409	-0.48693495828731936	1.784565932565647	-2.6524452833845453	-5.238752758992775	-1.5309653075913485	-4.876163251788368	2	missed	0.0
116.23180660000082	7.300733899930492	nogo_punish	1.0	116.25459610007249	118.67351300001621	121.19614120002382	2.4189168999437243	117.26066969998635	120.17660070001159	122.20967780007061	1.4128433000298628	1.0195405000122264	1.345652199932374	n/a	1.0	n/a	1	0	78	2	nogo_punish	1	-1	0	0	0	1	0	n/a	n/a	0	1.0	1.0	946.710210799938	1062.9648069000104	1063.9708804999243	1065.3837237999542	1066.8868114999495	1067.9063519999618	n/a	n/a	1068.9198886000086	1070.265540799941	2020-05-14 09:20:57.258084	4.83118569238052	-6.28479917707823	-1.05725286139265	-2.9598676240443	-5.88843855377317	-1.05725286139265	-4.83118569238052	-1.05725286139265	-6.28479917707823	-1.05725286139265	-5.88843855377317	1.05725286139265	2.57764625840499	-5.920193601092396	-0.11490689120944941	-2.6991126443245017	-7.02357379980889	-0.11490689120944941	1.412537865487777	-2.280417216306675	-4.858063474711665	-1.1589372405134786	-4.876163251788368	2	missed	0.0
123.57419979991403	5.974186200066242	go_reward	0.4472613000543788	123.5969892999857	125.15295680006955	127.70379960001435	1.5559675000838524	124.60756280005455	126.67771359998744	128.70126620004896	0.5453940000149942	1.0260860000269076	0.8699093000029734	n/a	1.0	n/a	1	0	79	3	go_reward	1	1	0	1	1	1	0	n/a	n/a	1	0.4472613000543788	1.0	946.710210799938	1070.3072000999236	1071.3177735999925	1071.8631676000075	1073.3879243999254	1074.4140103999523	n/a	n/a	1075.411476999987	1076.28138629999	2020-05-14 09:20:57.258084	8.78160615977653	5.21044569630021	0.0	4.98385979634542	8.78160615977653	0.0	-8.78160615977653	5.21044569630021	0.0	8.78160615977653	0.0	0.5603220445650701	6.528066725801001	5.575051272286045	0.9423459701832005	5.244614776065218	7.64647091374081	0.9423459701832005	0.9156070486601972	7.558441804862505	1.0303750790615054	5.108761317179382	1.4086359252898621	2	missed	0.0
129.58651529997599	5.9756311000091955	nogo_punish	1.0	129.60930480004765	131.0604155000766	133.58988420001708	1.4511107000289485	130.62436350004293	132.57705950003594	134.60443529998895	0.4360520000336692	1.012824699981138	0.9805006000678986	n/a	1.0	n/a	1	0	80	2	nogo_punish	1	-1	0	0	0	1	1	n/a	n/a	0	1.0	1.0	946.710210799938	1076.3195155999856	1077.3345742999809	1077.7706263000146	1079.287270299974	1080.300094999955	n/a	n/a	1081.314646099927	1082.2951466999948	2020-05-14 09:20:57.258084	4.8214048218814	-6.28479917707823	-0.799882591453207	-2.25152554764697	-5.62128741333461	-0.799882591453207	-4.8214048218814	-0.799882591453207	-6.28479917707823	-0.799882591453207	-5.62128741333461	0.799882591453207	2.56786538790587	-5.920193601092396	0.1424633787299936	-1.9907705679271719	-6.75642265937033	0.1424633787299936	1.155167595548334	-2.023046946367232	-4.590912334273105	-0.9015669705740355	-4.876163251788368	2	missed	0.0
135.59818959992856	5.8070823000743985	go_punish	1.0	135.62097910000023	136.98505440005113	139.5188542000252	1.3640753000508994	136.62704880000103	138.50161799998034	140.51782770000875	0.35800560005009174	1.017236200044863	0.9102337000658736	n/a	1.0	n/a	1	0	81	1	go_punish	1	0	-1	1	0	0	0	n/a	n/a	-1	1.0	1.0	946.710210799938	1082.3311898999382	1083.337259599939	1083.695265199989	1085.2118287999183	1086.2290649999632	n/a	n/a	1087.2280384999467	1088.1382722000126	2020-05-14 09:20:57.258084	1.13892436391213	-5.20712879767965	-4.83329266748611	-6.0979843573709	-5.97221703139824	-4.83329266748611	-1.13892436391213	-4.83329266748611	-5.20712879767965	-4.83329266748611	-5.97221703139824	-6.64288543535229	-1.1146150700633997	-4.842523221693816	-3.8909466973029097	-5.837229377651102	-7.10735227743396	-3.8909466973029097	-6.287600431257163	-6.056457022400135	-4.941841952336735	-4.934977046606939	-3.7984928723897884	2	missed	0.0
141.4412769000047	6.665097099961713	go_punish	1.0	141.46406640007638	143.8079880999868	146.34234910004318	2.3439216999104246	142.47897709999245	145.31745790003345	147.35216710006364	1.3290109999943525	1.0248912000097334	0.7769963999744505	n/a	1.0	n/a	1	0	82	1	go_punish	1	0	-1	1	0	0	0	n/a	n/a	-1	1.0	1.0	946.710210799938	1088.1742772000143	1089.1891878999304	1090.5181988999248	1092.0276686999714	1093.0525598999811	n/a	n/a	1094.0623779000016	1094.839374299976	2020-05-14 09:20:57.258084	-0.0120877696128982	-5.20712879767965	-6.45289284278848	-7.35257299089568	-6.44080507317559	-6.45289284278848	0.0120877696128982	-6.45289284278848	-5.20712879767965	-6.45289284278848	-6.44080507317559	-5.02328526004992	-2.2656272035884277	-4.842523221693816	-5.510546872605279	-7.0918180111758815	-7.57594031921131	-5.510546872605279	-4.668000255954793	-7.676057197702505	-5.410429994114085	-6.554577221909309	-3.7984928723897884	2	missed	0.0
148.142042099964	6.14670439995848	go_punish	1.0	148.16483160003565	149.5011456999929	152.03929780004557	1.3363140999572352	149.17481840006087	151.01781760004826	153.05854910006758	0.3263272999320179	1.0214801999973133	1.2529868999265545	n/a	1.0	n/a	1	0	83	1	go_punish	1	0	-1	1	0	0	1	n/a	n/a	-1	1.0	1.0	946.710210799938	1094.8750423999736	1095.8850291999988	1096.2113564999308	1097.7280283999862	1098.7495085999835	n/a	n/a	1099.7687599000055	1101.021746799932	2020-05-14 09:20:57.258084	-0.798530267916649	-5.20712879767965	-7.57707024824622	-8.24794717768698	-6.77853998032957	-7.57707024824622	0.798530267916649	-7.57707024824622	-5.20712879767965	-7.57707024824622	-6.77853998032957	-3.89910785459218	-3.0520697018921785	-4.842523221693816	-6.634724278063019	-7.987192197967182	-7.91367522636529	-6.634724278063019	-3.543822850497053	-8.800234603160245	-5.748164901268065	-7.678754627367049	-3.7984928723897884	2	missed	0.0
154.3315691999161	6.39774030004628	go_reward	0.4111649999395013	154.35435869998776	155.92311530001496	158.46323130000394	1.5687566000272	155.36273809999705	157.44009370007564	159.46214489999704	0.5603772000179106	1.0231375999283046	1.2899541000369936	n/a	1.0	n/a	1	0	84	3	go_reward	1	1	0	1	1	1	0	n/a	n/a	1	0.4111649999395013	1.0	946.710210799938	1101.0645694999257	1102.072948899935	1102.633326099953	1104.1503045000136	1105.173442099942	n/a	n/a	1106.172355699935	1107.462309799972	2020-05-14 09:20:57.258084	8.9362324601818	5.30595560843572	0.0	5.12670589222251	8.9362324601818	0.0	-8.9362324601818	5.30595560843572	0.0	8.9362324601818	0.0	0.4648121324295609	6.682693026206271	5.670561184421554	0.9423459701832005	5.3874608719423085	7.801097214146081	0.9423459701832005	0.820097136524688	7.713068105267776	1.0303750790615054	5.204271229314891	1.4086359252898621	2	missed	0.0
160.76751179993164	7.172672600019723	nogo_punish	1.0	160.7903013000033	163.00636820006196	165.53752360004012	2.2160669000586495	161.79638260009244	164.52398170006916	166.55042650003463	1.2099855999695137	1.01354189997096	1.412547399988398	n/a	1.0	n/a	1	0	85	2	nogo_punish	1	-1	0	0	0	1	0	n/a	n/a	0	1.0	1.0	946.710210799938	1107.5005120999413	1108.5065934000304	1109.716579	1111.234192500007	1112.247734399978	n/a	n/a	1113.2606372999726	1114.673184699961	2020-05-14 09:20:57.258084	4.81215194884716	-6.28479917707823	-0.616365708091519	-1.74474098001966	-5.42851765693868	-0.616365708091519	-4.81215194884716	-0.616365708091519	-6.28479917707823	-0.616365708091519	-5.42851765693868	0.616365708091519	2.5586125148716303	-5.920193601092396	0.3259802620916815	-1.483986000299862	-6.5636529029743995	0.3259802620916815	0.9716507121866461	-1.8395300630055442	-4.3981425778771746	-0.7180500872123475	-4.876163251788368	2	missed	0.0
167.98320409993187	6.6459563000826165	go_reward	0.3985129999928176	168.00599360000353	169.69680949999054	172.23938799998734	1.690815899987001	169.00377290009067	171.21297059999813	173.25847850006573	0.6930365998998695	1.0264173999892137	1.3934714000204167	n/a	1.0	n/a	1	0	86	3	go_reward	1	1	0	1	1	1	1	n/a	n/a	1	0.3985129999928176	1.0	946.710210799938	1114.7162043999415	1115.7139837000286	1116.4070202999285	1117.923181399936	1118.9495987999253	n/a	n/a	1119.9686893000037	1121.362160700024	2020-05-14 09:20:57.258084	9.05859843785836	5.38212274641055	0.0	5.2387507333358	9.05859843785836	0.0	-9.05859843785836	5.38212274641055	0.0	9.05859843785836	0.0	0.38864499445473033	6.80505900388283	5.746728322396384	0.9423459701832005	5.499505713055598	7.9234631918226395	0.9423459701832005	0.7439299985498574	7.835434082944334	1.0303750790615054	5.2804383672897215	1.4086359252898621	2	missed	0.0
174.6688230999281	6.4814871000126	go_reward	0.8636028999462724	174.69161259999976	176.69663940009207	179.24817320005957	2.0050268000923097	175.69598499999836	178.22909270005755	180.25761960004468	1.0006544000937083	1.019080500002019	0.9154800999676809	n/a	1.0	n/a	1	0	87	3	go_reward	1	1	0	1	1	1	0	n/a	n/a	1	0.8636028999462724	1.0	946.710210799938	1121.4018233999377	1122.4061957999363	1123.40685020003	1124.9393034999955	1125.9583839999975	n/a	n/a	1126.9678303999826	1127.8833104999503	2020-05-14 09:20:57.258084	9.15658562606593	5.44355936708154	0.0	5.32779103692337	9.15658562606593	0.0	-9.15658562606593	5.44355936708154	0.0	9.15658562606593	0.0	0.32720837378374057	6.9030461920904	5.808164943067374	0.9423459701832005	5.588546016643168	8.02145038003021	0.9423459701832005	0.6824933778788677	7.9334212711519045	1.0303750790615054	5.341874987960711	1.4086359252898621	2	missed	0.0
181.19079109991446	6.605270200059749	nogo_punish	1.0	181.21358059998613	183.05567240004905	185.5891049000203	1.8420918000629172	182.22378190001484	184.56494250008848	186.59809089999214	0.8318905000342056	1.0241623999318108	1.2207599000537357	n/a	1.0	n/a	1	0	88	2	nogo_punish	0	0	-1	0	0	1	0	n/a	n/a	-1	1.0	1.0	946.710210799938	1127.923791399924	1128.9339926999528	1129.765883199987	1131.2751533000264	1132.2993156999582	n/a	n/a	1133.30830169993	1134.5290615999838	2020-05-14 09:20:57.258084	4.80401689964728	-6.28479917707823	-0.482238535696958	-1.3727186273745	-5.28625543534423	-0.482238535696958	-4.80401689964728	-0.482238535696958	-6.28479917707823	-0.482238535696958	-5.28625543534423	-10.993939567141442	2.5504774656717504	-5.920193601092396	0.46010743448624253	-1.111963647654702	-6.4213906813799495	0.46010743448624253	-10.638654563046316	-1.7054028906109833	-4.2558803562827245	-0.5839229148177866	-4.876163251788368	2	missed	0.0
187.83233509992726	6.890066900057718	nogo_reward	0.3611354000167921	187.85512459999893	190.14126449998014	192.67652039998222	2.286139899981208	188.86983280000288	191.6656258000295	193.69181400002014	1.2714316999772564	1.010894599952735	1.053377500036504	n/a	1.0	n/a	1	0	89	4	nogo_reward	1	0	1	0	1	0	0	n/a	n/a	0	0.3611354000167921	1.0	946.710210799938	1134.5653353999369	1135.5800435999408	1136.851475299918	1138.3758365999674	1139.3867311999202	n/a	n/a	1140.402024799958	1141.4554022999946	2020-05-14 09:20:57.258084	3.33528345415684	2.57244081161321	2.29661249272608	3.7275073103674	5.63189594688293	2.29661249272608	-3.33528345415684	2.57244081161321	2.29661249272608	5.63189594688293	2.29661249272608	-2.57244081161321	1.0817440201813104	2.937046387599044	3.2389584629092805	3.988262290087198	4.496760700847211	3.2389584629092805	-2.2171558075180826	4.408731591968905	3.326987571787585	2.470756432492381	3.705248418015942	2	missed	0.0
194.75983340002142	7.043860899982974	nogo_reward	0.3844886999577284	194.7826229000931	197.26362129999313	199.81051670003228	2.480998399900045	195.7962475999958	198.79602530004934	200.8238746999997	1.4673736999973244	1.0144913999829441	1.00260910007637	n/a	1.0	n/a	1	0	90	4	nogo_reward	1	0	1	0	1	0	0	n/a	n/a	0	0.3844886999577284	1.0	946.710210799938	1141.492833700031	1142.5064583999338	1143.973832099931	1145.5062360999873	1146.5207274999702	n/a	n/a	1147.5340854999376	1148.536694600014	2020-05-14 09:20:57.258084	2.26236019522837	1.89257453775505	2.29661249272608	2.76921777488812	4.55897268795445	2.29661249272608	-2.26236019522837	1.89257453775505	2.29661249272608	4.55897268795445	2.29661249272608	-1.89257453775505	0.00882076125284037	2.2571801137408842	3.2389584629092805	3.0299727546079183	3.42383744191873	3.2389584629092805	-1.5372895336599228	3.3358083330404247	3.326987571787585	1.7908901586342214	3.705248418015942	2	missed	0.0
201.84020799992152	6.081739000044763	go_punish	0.3994764999952167	201.86299749999318	203.23575880005967	205.79732850007724	1.372761300066486	202.8772599999794	204.77798810007528	206.8110380000436	0.3584988000802696	1.0193404000019655	1.1336984999943525	n/a	1.0	n/a	1	0	91	1	go_punish	1	0	-1	1	1	1	0	n/a	n/a	0	0.3994764999952167	1.0	946.710210799938	1148.5732082999311	1149.5874707999174	1149.9459695999976	1151.4881989000132	1152.5075393000152	n/a	n/a	1153.5212487999815	1154.654947299976	2020-05-14 09:20:57.258084	1.36095738002958	-5.20712879767965	-8.38945577760847	-8.90683818289125	-7.02849839757889	-8.38945577760847	-1.36095738002958	-5.20712879767965	-8.38945577760847	-7.02849839757889	-8.38945577760847	5.20712879767965	-0.8925820539459497	-4.842523221693816	-7.447109807425269	-8.64608320317145	-8.16363364361461	-7.447109807425269	5.5624138017747775	-8.251662752492916	-7.359080698546965	-5.308813176800479	-6.980819852318608	2	missed	0.0
207.9570467999439	6.235639100079425	go_punish	0.5733380999881774	207.97983630001556	209.26192840002489	211.81453239999234	1.2820921000093222	208.9904318000191	210.7953901999864	212.82343790004973	0.2714966000057757	1.0191422000059447	1.3920375000452623	n/a	1.0	n/a	1	0	92	1	go_punish	1	0	-1	1	1	1	0	n/a	n/a	0	0.5733380999881774	1.0	946.710210799938	1154.6900470999535	1155.700642599957	1155.9721391999628	1157.5056009999244	1158.5247431999303	n/a	n/a	1159.5336486999877	1160.925686200033	2020-05-14 09:20:57.258084	3.65386050633018	-3.78618975011129	-8.38945577760847	-6.53583481622679	-4.73559527127828	-8.38945577760847	-3.65386050633018	-3.78618975011129	-8.38945577760847	-4.73559527127828	-8.38945577760847	3.78618975011129	1.4003210723546502	-3.421584174125456	-7.447109807425269	-6.2750798365069915	-5.870730517314	-7.447109807425269	4.141474754206417	-5.958759626192305	-7.359080698546965	-3.887874129232119	-6.980819852318608	2	missed	0.0
214.2300754999743	7.696174400043674	nogo_reward	0.3264243000885471	214.25286500004597	217.03671520005435	219.57722249999654	2.7838502000083736	215.2694511000301	218.5632351000096	220.59082430007413	1.7672641000242493	1.013987399986945	1.3582151000155136	n/a	1.0	n/a	1	0	93	4	nogo_reward	1	0	1	0	1	0	0	n/a	n/a	0	0.3264243000885471	1.0	946.710210799938	1160.963075799984	1161.979661899968	1163.7469259999923	1165.2734458999475	1166.2874332999345	n/a	n/a	1167.301035100012	1168.6592502000276	2020-05-14 09:20:57.258084	1.52668440334631	1.43089481764132	2.29661249272608	2.1084898571226	3.82329689607239	2.29661249272608	-1.52668440334631	1.43089481764132	2.29661249272608	3.82329689607239	2.29661249272608	-1.43089481764132	-0.7268550306292196	1.795500393627154	3.2389584629092805	2.369244836842398	2.6881616500366707	3.2389584629092805	-1.0756098135461931	2.6001325411583647	3.326987571787585	1.3292104385204915	3.705248418015942	2	missed	0.0
221.96507889998622	6.145917300018482	nogo_punish	1.0	221.9878684000579	223.8576030000114	226.3794605000877	1.8697345999535173	222.9999087000034	225.36011600005452	227.38161769998294	0.8576943000080064	1.0193445000331849	0.7521680000934339	n/a	1.0	n/a	1	0	94	2	nogo_punish	0	0	-1	0	0	1	0	n/a	n/a	-1	1.0	1.0	946.710210799938	1168.6980791999958	1169.7101194999414	1170.5678137999494	1172.0703267999925	1173.0896713000257	n/a	n/a	1174.091828499921	1174.8439965000143	2020-05-14 09:20:57.258084	2.99029213112008	-6.28479917707823	-3.24993282023254	-3.96157944024579	-6.24022495135262	-3.24993282023254	-2.99029213112008	-3.24993282023254	-6.28479917707823	-3.24993282023254	-6.24022495135262	-8.22624528260586	0.7367526971445502	-5.920193601092396	-2.3075868500493395	-3.700824460525992	-7.37536019738834	-2.3075868500493395	-7.870960278510732	-4.473097175146565	-5.209849872291115	-3.3516171993533685	-4.876163251788368	2	missed	0.0
228.14660410000954	7.498592199990526	go_punish	0.301127600017935	228.1693936000812	230.86490530008462	233.39893110003334	2.695511700003408	229.17041680007253	232.37465200002782	234.4013384000865	1.6944885000120848	1.024279100005515	1.2666473999852315	n/a	1.0	n/a	1	0	95	1	go_punish	0	-1	0	1	1	1	0	n/a	n/a	-1	0.301127600017935	1.0	946.710210799938	1174.8796044000192	1175.8806276000105	1177.5751161000226	1179.0848627999658	1180.1091418999713	n/a	n/a	1181.1115492000245	1182.3781966000097	2020-05-14 09:20:57.258084	5.20639188797306	-2.83411546214881	-8.38945577760847	-4.92999250555714	-3.1830638896354	-8.38945577760847	-5.20639188797306	-2.83411546214881	-8.38945577760847	-3.1830638896354	-8.38945577760847	-8.64206264068959	2.9528524539975307	-2.469509886162976	-7.447109807425269	-4.6692375258373415	-4.31819913567112	-7.447109807425269	-8.286777636594463	-4.406228244549426	-7.359080698546965	-2.9357998412696387	-6.980819852318608	2	missed	0.0
235.68665809999231	6.655285699991509	go_reward	0.4044906999915838	235.70944760006398	237.63463119999517	240.18617140001163	1.925183599931188	236.72095149999961	239.1736551000505	241.19967810006358	0.913679699995555	1.0125162999611348	1.1650551999919116	n/a	1.0	n/a	1	0	96	3	go_reward	0	0	1	1	1	1	0	n/a	n/a	0	0.4044906999915838	1.0	946.710210799938	1182.419658400002	1183.4311622999376	1184.3448419999331	1185.8838658999885	1186.8963821999496	n/a	n/a	1187.9098889000015	1189.0749440999934	2020-05-14 09:20:57.258084	9.23585815529339	5.49360363307291	0.0	5.39934696293113	9.23585815529339	0.0	-9.23585815529339	5.49360363307291	0.0	9.23585815529339	0.0	-5.49360363307291	6.98231872131786	5.858209209058744	0.9423459701832005	5.660101942650928	8.10072290925767	0.9423459701832005	-5.138318628977783	8.012693800379363	1.0303750790615054	5.391919253952081	1.4086359252898621	2	missed	0.0
242.38355769997008	6.704959499999177	go_reward	0.3660621999297291	242.40634720004175	244.07017500000086	246.61580919998244	1.6638277999591082	243.41543749999266	245.60359180008516	247.63345309998851	0.6547375000081956	1.0122173998972812	1.4778536000524127	n/a	1.0	n/a	1	0	97	3	go_reward	1	1	0	1	1	1	0	n/a	n/a	1	0.3660621999297291	1.0	946.710210799938	1189.1165579999797	1190.1256482999306	1190.7803857999388	1192.313802600023	1193.3260199999204	n/a	n/a	1194.3436638999265	1195.8215174999789	2020-05-14 09:20:57.258084	7.41052613593925	4.19576142023008	0.0	4.1184559037564	7.41052613593925	0.0	-7.41052613593925	4.19576142023008	0.0	7.41052613593925	0.0	1.5750063206352003	5.156986701963721	4.560366996215914	0.9423459701832005	4.3792108834761985	6.27539088990353	0.9423459701832005	1.9302913247303275	6.187361781025225	1.0303750790615054	4.0940770411092515	1.4086359252898621	2	missed	0.0
249.12791359995038	6.173901200061664	nogo_punish	1.0	249.15070310002204	250.57664460002013	253.10346540005423	1.425941499998089	250.15576140000496	252.08492900000454	254.11741950002045	0.42088320001516877	1.0185364000496975	1.20718480006326	n/a	1.0	n/a	1	0	98	2	nogo_punish	1	-1	0	0	0	1	0	n/a	n/a	0	1.0	1.0	946.710210799938	1195.86091389996	1196.865972199943	1197.286855399958	1198.7951397999425	1199.8136761999922	n/a	n/a	1200.8276302999584	1202.0348151000217	2020-05-14 09:20:57.258084	1.74261288980908	-6.28479917707823	-5.16174853849753	-5.73657566334036	-6.90436142830661	-5.16174853849753	-1.74261288980908	-5.16174853849753	-6.28479917707823	-5.16174853849753	-6.90436142830661	5.16174853849753	-0.5109265441664497	-5.920193601092396	-4.2194025683143295	-5.475820683620562	-8.03949667434233	-4.2194025683143295	5.5170335425926575	-6.384912893411555	-5.873986349245105	-5.263432917618359	-4.876163251788368	2	missed	0.0
255.33877749997202	5.837280799984001	nogo_punish	1.0	255.3615670000437	256.7332248000895	259.25900660001196	1.3716578000457957	256.37523070001055	258.24985090002895	260.25224110006855	0.3579941000789404	1.0091556999830118	0.9466066999591476	n/a	1.0	n/a	1	0	99	2	nogo_punish	1	-1	0	0	0	1	0	n/a	n/a	0	1.0	1.0	946.710210799938	1202.0717777999816	1203.0854414999485	1203.4434356000274	1204.960061699967	1205.96921739995	n/a	n/a	1206.9624519000065	1207.9090585999656	2020-05-14 09:20:57.258084	2.65645745229499	-6.28479917707823	-3.66477199395536	-4.13336418826755	-6.32122944625035	-3.66477199395536	-2.65645745229499	-3.66477199395536	-6.28479917707823	-3.66477199395536	-6.32122944625035	3.66477199395536	0.4029180183194603	-5.920193601092396	-2.7224260237721594	-3.872609208547752	-7.45636469228607	-2.7224260237721594	4.020056998050487	-4.887936348869385	-5.290854367188845	-3.7664563730761884	-4.876163251788368	2	missed	0.0
261.21411039994575	6.339785999967717	nogo_punish	1.0	261.2368999000174	263.09480890003044	265.6006762000035	1.8579090000130236	262.24488600005895	264.59157480008446	266.61478440009535	0.8499228999714887	1.0091013999190181	0.961901499889791	n/a	1.0	n/a	1	0	100	2	nogo_punish	1	-1	0	0	0	1	1	n/a	n/a	0	1.0	1.0	946.710210799938	1207.9471106999554	1208.955096799997	1209.8050196999684	1211.3017856000224	1212.3108869999414	n/a	n/a	1213.3249952000333	1214.286896699923	2020-05-14 09:20:57.258084	3.23950117522399	-6.28479917707823	-2.68861870014618	-3.07367662521808	-5.92811987537017	-2.68861870014618	-3.23950117522399	-2.68861870014618	-6.28479917707823	-2.68861870014618	-5.92811987537017	2.68861870014618	0.9859617412484605	-5.920193601092396	-1.7462727299629797	-2.8129216454982817	-7.06325512140589	-1.7462727299629797	3.0439037042413073	-3.911783055060205	-4.897744796308665	-2.7903030792670087	-4.876163251788368	2	missed	0.0
267.5907443999314	6.001707400078885	go_punish	0.605611199978739	267.61353390000306	269.09454950003453	271.64336069999274	1.4810156000314691	268.62728190002974	270.6200428000885	272.6531442999841	0.4672676000047886	1.0233178999042138	0.9620970000978559	n/a	1.0	n/a	1	0	101	1	go_punish	0	-1	0	1	1	1	0	n/a	n/a	-1	0.605611199978739	1.0	946.710210799938	1214.323744699941	1215.3374926999677	1215.8047602999725	1217.3302536000265	1218.3535714999307	n/a	n/a	1219.363355099922	1220.32545210002	2020-05-14 09:20:57.258084	2.36998010469895	-5.03715184333612	-8.38945577760847	-6.66688824331928	-6.01947567290952	-8.38945577760847	-2.36998010469895	-5.03715184333612	-8.38945577760847	-6.01947567290952	-8.38945577760847	-6.43902625950228	0.11644067072342024	-4.6725462673502856	-7.447109807425269	-6.406133263599482	-7.15461091894524	-7.447109807425269	-6.083741255407153	-7.242640027823545	-7.359080698546965	-5.138836222456948	-6.980819852318608	2	missed	0.0
273.6287075999427	6.417645100038499	nogo_reward	1.0	273.65149710001435	275.56746799999394	278.093941200059	1.915970899979584	274.65996269998175	277.0777721999913	279.10814880009286	0.9075053000121898	1.0161690000677481	0.9609933999599889	n/a	1.0	n/a	1	0	102	4	nogo_reward	0	1	0	0	0	1	0	n/a	n/a	0	1.0	1.0	946.710210799938	1220.3617078999523	1221.3701734999197	1222.277678799932	1223.7879829999292	1224.804151999997	n/a	n/a	1225.8183596000308	1226.7793529999908	2020-05-14 09:20:57.258084	-1.00385147629959	1.10492283682455	2.29661249272608	1.63660285863984	3.30046396902567	2.29661249272608	1.00385147629959	2.29661249272608	1.10492283682455	2.29661249272608	3.30046396902567	-2.29661249272608	-3.2573909102751197	1.469528412810384	3.2389584629092805	1.8973578383596381	2.1653287229899503	3.2389584629092805	-1.9413274886309528	1.0734481378120548	4.330839048087175	2.1949281136052514	2.513558762114412	2	missed	0.0
280.08564399997715	5.9561164999611265	nogo_reward	1.0	280.1084335000488	281.61553720000677	284.13860479998414	1.507103699957952	281.11756980000075	283.12639490002755	285.1435852000724	0.4979674000060186	1.0122098999565878	0.9209647999375647	n/a	1.0	n/a	1	0	103	4	nogo_reward	1	0	1	0	0	1	0	n/a	n/a	1	1.0	1.0	946.710210799938	1226.8186442999868	1227.8277805999387	1228.3257479999447	1229.8366056999655	1230.848815599922	n/a	n/a	1231.8537960000103	1232.774760799948	2020-05-14 09:20:57.258084	-1.49129303743884	1.10492283682455	1.66429493806357	1.29022209688863	3.15558797550242	1.66429493806357	1.49129303743884	1.66429493806357	1.10492283682455	1.66429493806357	3.15558797550242	4.106472802801711	-3.7448324714143695	1.469528412810384	2.6066409082467707	1.550977076608428	2.0204527294667	2.6066409082467707	4.461757806896838	0.4411305831495449	4.185963054563925	1.5626105589427415	2.513558762114412	2	missed	0.0
286.0845032000217	7.638480999972671	go_reward	0.2934961999999359	286.10729270009335	288.8887105000905	291.42247570003394	2.7814177999971434	287.12352160003513	290.39692530001037	292.4234378000257	1.7651889000553638	1.025550400023576	1.3223359000403434	n/a	1.0	n/a	1	0	104	3	go_reward	1	1	0	1	1	1	0	n/a	n/a	1	0.2934961999999359	1.0	946.710210799938	1232.8175035000313	1233.833732399973	1235.5989213000285	1237.1071360999483	1238.132686499972	n/a	n/a	1239.1336485999636	1240.455984500004	2020-05-14 09:20:57.258084	7.99926243212018	4.61110169404615	0.0	4.54728407990719	7.99926243212018	0.0	-7.99926243212018	4.61110169404615	0.0	7.99926243212018	0.0	1.1596660468191304	5.74572299814465	4.975707270031984	0.9423459701832005	4.808039059626988	6.864127186084461	0.9423459701832005	1.5149510509142576	6.776098077206155	1.0303750790615054	4.509417314925321	1.4086359252898621	2	missed	0.0
293.76240010000777	7.432421199977398	nogo_punish	1.0	293.78518960007943	296.2141164999922	298.74835950008116	2.428926899912767	294.79252560006	297.72901400004037	299.75449010008026	1.4215908999321982	1.0193455000407994	1.463120699976571	n/a	1.0	n/a	1	0	105	2	nogo_punish	1	-1	0	0	0	1	0	n/a	n/a	0	1.0	1.0	946.710210799938	1240.4954004000174	1241.502736399998	1242.9243272999302	1244.4392247999783	1245.4585703000191	n/a	n/a	1246.4647009000182	1247.9278215999948	2020-05-14 09:20:57.258084	3.62973439412406	-6.28479917707823	-2.02321260388471	-2.34186627195618	-5.65294699800877	-2.02321260388471	-3.62973439412406	-2.02321260388471	-6.28479917707823	-2.02321260388471	-5.65294699800877	2.02321260388471	1.3761949601485304	-5.920193601092396	-1.0808666337015094	-2.0811112922363817	-6.78808224404449	-1.0808666337015094	2.378497607979837	-3.2463769587987352	-4.622571918947265	-2.1248969830055384	-4.876163251788368	2	missed	0.0
301.2325853999938	7.1524426999967545	go_punish	0.2963451999239623	301.2553749000655	304.0947503000499	306.64803670009144	2.8393753999844193	302.2687000000152	305.6274225000526	307.6552283000202	1.8260503000346944	1.0206142000388354	0.7525893000420183	n/a	1.0	n/a	1	0	106	1	go_punish	1	0	-1	1	1	1	0	n/a	n/a	0	0.2963451999239623	1.0	946.710210799938	1247.9655857000034	1248.9789107999532	1250.8049610999878	1252.3376332999906	1253.3582475000294	n/a	n/a	1254.3654390999582	1255.1180284000002	2020-05-14 09:20:57.258084	0.427958451922499	-6.54589405132945	-8.38945577760847	-7.83376341804699	-7.96149732568597	-8.38945577760847	-0.427958451922499	-6.54589405132945	-8.38945577760847	-7.96149732568597	-8.38945577760847	6.54589405132945	-1.8255809820530307	-6.1812884753436155	-7.447109807425269	-7.573008438327192	-9.09663257172169	-7.447109807425269	6.901179055424577	-9.184661680599996	-7.359080698546965	-6.647578430450278	-6.980819852318608	2	missed	0.0
308.4235295999098	6.921413800097071	nogo_reward	0.3070122000062838	308.44631909998145	310.43007500004035	312.9664561999963	1.9837559000588953	309.4518854999916	311.95444990007684	313.97429600008775	0.9781895000487566	1.0120062999194488	1.3934368999907747	n/a	1.0	n/a	1	0	107	4	nogo_reward	1	0	1	0	1	0	0	n/a	n/a	0	0.3070122000062838	1.0	946.710210799938	1255.1565298999194	1256.1620962999295	1257.1402857999783	1258.6646607000148	1259.6766669999342	n/a	n/a	1260.6845068000257	1262.0779437000165	2020-05-14 09:20:57.258084	1.01822382856527	1.10492283682455	2.5797189642909	2.36927860607014	3.59794279285616	2.5797189642909	-1.01822382856527	1.10492283682455	2.5797189642909	3.59794279285616	2.5797189642909	-1.10492283682455	-1.2353156054102596	1.469528412810384	3.5220649344741006	2.630033585789938	2.4628075468204402	3.5220649344741006	-0.749637832729423	2.374778437942135	3.6100940433524054	1.0032384577037214	3.988354889580762	2	missed	0.0
315.384480000008	7.122272599954158	nogo_punish	1.0	315.4072695000797	318.1460787000834	320.6744613000193	2.738809200003743	316.4114609999816	319.6621423000471	321.68853829999	1.7346177001018077	1.0123189999721944	0.8410038000438362	n/a	1.0	n/a	1	0	108	2	nogo_punish	1	-1	0	0	0	1	0	n/a	n/a	0	1.0	1.0	946.710210799938	1262.1174803000176	1263.1216717999196	1264.8562895000214	1266.372353099985	1267.3846720999572	n/a	n/a	1268.398749099928	1269.2397528999718	2020-05-14 09:20:57.258084	3.90093804315754	-6.28479917707823	-1.55363933247651	-1.81900078866003	-5.45457737563405	-1.55363933247651	-3.90093804315754	-1.55363933247651	-6.28479917707823	-1.55363933247651	-5.45457737563405	1.55363933247651	1.64739860918201	-5.920193601092396	-0.6112933622933096	-1.5582458089402318	-6.5897126216697695	-0.6112933622933096	1.908924336571637	-2.7768036873905353	-4.4242022965725445	-1.6553237115973387	-4.876163251788368	2	missed	0.0
322.5443918999521	7.102307599969208	nogo_reward	0.3940450999652967	322.56718140002374	325.1550027000486	327.69139860000007	2.5878213000248707	323.580467300024	326.67158130009204	328.7051372000716	1.5745354000246152	1.019817299908027	0.96435179992136	n/a	1.0	n/a	1	0	109	4	nogo_reward	1	0	1	0	1	0	1	n/a	n/a	0	0.3940450999652967	1.0	946.710210799938	1269.2773921999617	1270.290678099962	1271.8652134999866	1273.38179210003	1274.401609399938	n/a	n/a	1275.4153480000095	1276.379699799931	2020-05-14 09:20:57.258084	0.543891392945708	0.8677288626039	2.5797189642909	1.78941459298423	3.1236103572366	2.5797189642909	-0.543891392945708	0.8677288626039	2.5797189642909	3.1236103572366	2.5797189642909	-0.8677288626039	-1.7096480410298218	1.2323344385897341	3.5220649344741006	2.050169572704028	1.9884751112008805	3.5220649344741006	-0.5124438585087729	1.9004460023225749	3.6100940433524054	0.7660444834830715	3.988354889580762	2	missed	0.0
329.6859708999983	6.578363199951127	nogo_punish	1.0	329.70876040007	331.4930923000212	334.03164960001607	1.784331899951212	330.71329880005226	333.01229970005795	335.0426767000464	0.779793499968946	1.0193498999581152	1.2444468999747187	n/a	1.0	n/a	1	0	110	2	nogo_punish	1	-1	0	0	0	1	1	n/a	n/a	0	1.0	1.0	946.710210799938	1276.418971200008	1277.4235095999902	1278.2033030999592	1279.722510499996	1280.741860399954	n/a	n/a	1281.7528874999844	1282.997334399959	2020-05-14 09:20:57.258084	4.09521170184564	-6.28479917707823	-1.21294263981754	-1.43517386943418	-5.30815434166318	-1.21294263981754	-4.09521170184564	-1.21294263981754	-6.28479917707823	-1.21294263981754	-5.30815434166318	1.21294263981754	1.8416722678701105	-5.920193601092396	-0.2705966696343395	-1.174418889714382	-6.443289587698899	-0.2705966696343395	1.568227643912667	-2.4361069947315652	-4.277779262601674	-1.3146270189383686	-4.876163251788368	2	missed	0.0
336.3015406000196	7.2936195998918265	go_punish	0.3396433999296278	336.3243301000913	338.84641350002505	341.3957284000936	2.522083399933763	337.3328464999796	340.38745040004176	342.4032136000461	1.513567000045441	1.0082780000518596	1.2147360999369994	n/a	1.0	n/a	1	0	111	1	go_punish	1	0	-1	1	1	1	0	n/a	n/a	0	0.3396433999296278	1.0	946.710210799938	1283.0345409000292	1284.0430572999176	1285.556624299963	1287.0976611999797	1288.1059392000316	n/a	n/a	1289.113424399984	1290.328160499921	2020-05-14 09:20:57.258084	2.97368727951996	-4.75344514297556	-8.38945577760847	-5.78479649225139	-5.41576849808851	-8.38945577760847	-2.97368727951996	-4.75344514297556	-8.38945577760847	-5.41576849808851	-8.38945577760847	4.75344514297556	0.7201478455444303	-4.388839566989726	-7.447109807425269	-5.524041512531592	-6.55090374412423	-7.447109807425269	5.108730147070688	-6.638932853002535	-7.359080698546965	-4.855129522096389	-6.980819852318608	2	missed	0.0
343.63340129994333	6.127732799970545	go_punish	1.0	343.656190800015	344.9854488000275	347.51920700003404	1.3292580000124872	344.6586775000907	346.4947564000032	348.53417850006383	0.32677129993680865	1.024450600030832	1.2497450999217108	n/a	1.0	n/a	1	0	112	1	go_punish	1	0	-1	1	0	0	0	n/a	n/a	-1	1.0	1.0	946.710210799938	1290.366401599953	1291.3688883000286	1291.6956595999654	1293.2049671999412	1294.229417799972	n/a	n/a	1295.2443893000018	1296.4941343999235	2020-05-14 09:20:57.258084	-4.69210371116541	-3.55597589478889	-8.38945577760847	-4.39119228347224	-3.69735206644305	-8.38945577760847	4.69210371116541	-8.38945577760847	-3.55597589478889	-8.38945577760847	-3.69735206644305	-3.08672232522993	-6.94564314514094	-3.191370318803056	-7.447109807425269	-4.130437303752442	-4.8324873124787695	-7.447109807425269	-2.731437321134803	-9.612620132522496	-2.6669769873815445	-8.491140156729298	-2.1473399694990283	2	missed	0.0
349.7985685999739	5.979476899956353	go_punish	0.249024000018835	349.8213581000456	351.488133499981	354.02354530000605	1.6667753999354318	350.83276520005904	353.0098497000291	355.03622080001526	0.6553682999219745	1.013695599976927	0.7646141999866813	n/a	1.0	n/a	1	0	113	1	go_punish	1	0	-1	1	1	1	1	n/a	n/a	0	0.249024000018835	1.0	946.710210799938	1296.5315688999835	1297.542975999997	1298.198344299919	1299.720060499967	1300.733756099944	n/a	n/a	1301.7464315999532	1302.51104579994	2020-05-14 09:20:57.258084	4.60912210583306	-3.55597589478889	-8.99461419816314	-6.27243757579056	-4.38549209233008	-8.99461419816314	-4.60912210583306	-3.55597589478889	-8.99461419816314	-4.38549209233008	-8.99461419816314	3.55597589478889	2.35558267185753	-3.191370318803056	-8.052268227979939	-6.011682596070762	-5.5206273383657996	-8.052268227979939	3.9112608988840174	-5.608656447244105	-7.964239119101634	-3.657660273909719	-7.585978272873278	2	missed	0.0
355.82261379994486	6.476774699985754	nogo_reward	0.2881358999293297	355.8454033000165	357.8960112000351	360.43224290001683	2.0506079000185764	356.8577293000418	359.42356959998153	361.4383425000125	1.0382818999933079	1.0086733000352979	0.8838354999898002	n/a	1.0	n/a	1	0	114	4	nogo_reward	1	0	1	0	1	0	0	n/a	n/a	0	0.2881358999293297	1.0	946.710210799938	1302.5556140999545	1303.5679400999798	1304.606221999973	1306.1337803999195	1307.1424536999548	n/a	n/a	1308.1485532999504	1309.0323887999402	2020-05-14 09:20:57.258084	0.199700397722734	0.690946476819849	2.5797189642909	1.38439715711847	2.77941936201363	2.5797189642909	-0.199700397722734	0.690946476819849	2.5797189642909	2.77941936201363	2.5797189642909	-0.690946476819849	-2.053839036252796	1.055552052805683	3.5220649344741006	1.645152136838268	1.6442841159779105	3.5220649344741006	-0.3356614727247219	1.5562550070996048	3.6100940433524054	0.5892620976990205	3.988354889580762	2	missed	0.0
362.3581626999659	6.287634499953128	go_reward	1.0	362.38095220003754	363.73261649999756	366.25787040009175	1.3516642999600208	363.3977164999816	365.2334457000253	367.26906540000357	0.33490000001597764	1.0244247000664473	1.3995212999871	n/a	1.0	n/a	1	0	115	3	go_reward	0	0	1	1	0	0	0	n/a	n/a	1	1.0	1.0	946.710210799938	1309.0911629999755	1310.1079272999195	1310.4428272999355	1311.9436564999633	1312.9680812000297	n/a	n/a	1313.9792761999415	1315.3787974999286	2020-05-14 09:20:57.258084	-8.39763475516149	4.8904828086726	0.0	4.83749003575516	8.39763475516149	0.0	8.39763475516149	0.0	4.8904828086726	0.0	8.39763475516149	5.77076774086528	-10.65117418913702	5.255088384658435	0.9423459701832005	5.098245015474958	7.262499509125771	0.9423459701832005	6.126052744960408	-1.2231643549140252	9.428009834222996	-0.10168437912082852	6.299118733962462	2	missed	0.0
368.68350849999126	7.002523200004362	go_punish	0.2362994999857619	368.70629800006293	371.33780199999467	373.89328050008055	2.631503999931738	369.71956390002754	372.87241670000355	374.90699649998	1.6182380999671295	1.0208638000769952	0.8018247000873089	n/a	1.0	n/a	1	0	116	1	go_punish	1	0	-1	1	1	1	0	n/a	n/a	0	0.2362994999857619	1.0	946.710210799938	1315.4165088000009	1316.4297746999655	1318.0480127999326	1319.5826274999415	1320.6034913000185	n/a	n/a	1321.617207299918	1322.4190320000052	2020-05-14 09:20:57.258084	6.03233562720165	-2.72181392129249	-8.99461419816314	-4.67231909371057	-2.96227857096149	-8.99461419816314	-6.03233562720165	-2.72181392129249	-8.99461419816314	-2.96227857096149	-8.99461419816314	2.72181392129249	3.7787961932261207	-2.3572083453066557	-8.052268227979939	-4.411564113990772	-4.09741381699721	-8.052268227979939	3.077098925387617	-4.185442925875515	-7.964239119101634	-2.8234983004133185	-7.585978272873278	2	missed	0.0
375.7237729999471	6.440188999986276	nogo_punish	1.0	375.74656250001874	377.31430379999813	379.8310683000601	1.5677412999793887	376.7496044000146	378.8307785000653	380.8340873999988	0.5646993999835104	1.000289799994789	1.3526641000062227	n/a	1.0	n/a	1	0	117	2	nogo_punish	1	-1	0	0	0	1	0	n/a	n/a	0	1.0	1.0	946.710210799938	1322.4567732999567	1323.4598151999526	1324.024514599936	1325.5409893000033	1326.541279099998	n/a	n/a	1327.5442981999367	1328.896962299943	2020-05-14 09:20:57.258084	4.23786948803451	-6.28479917707823	-0.960084989258507	-1.14714812737113	-5.19795447729302	-0.960084989258507	-4.23786948803451	-0.960084989258507	-6.28479917707823	-0.960084989258507	-5.19795447729302	0.960084989258507	1.9843300540589799	-5.920193601092396	-0.017739019075306506	-0.8863931476513318	-6.33308972332874	-0.017739019075306506	1.315369993353634	-2.1832493441725322	-4.167579398231515	-1.0617693683793357	-4.876163251788368	2	missed	0.0
382.2023175000214	6.3954897999065	nogo_reward	0.382644800003618	382.2251070000931	383.70424290001404	386.25770299998123	1.4791358999209478	383.2363685000456	385.24021580000397	387.2671647000826	0.46787439996842295	1.0174871999772677	1.3534320999169722	n/a	1.0	n/a	1	0	118	4	nogo_reward	0	1	0	0	1	0	0	n/a	n/a	1	0.382644800003618	1.0	946.710210799938	1328.935317800031	1329.9465792999836	1330.414453699952	1331.950426599942	1332.9679137999192	n/a	n/a	1333.9773755000206	1335.3308075999375	2020-05-14 09:20:57.258084	-0.0566060174632289	0.55659048238736	2.5797189642909	1.0908893396912	2.52311294682767	2.5797189642909	0.0566060174632289	0.55659048238736	2.5797189642909	2.52311294682767	2.5797189642909	5.21417725847792	-2.3101454514387587	0.9211960583731941	3.5220649344741006	1.3516443194109982	1.3879777007919503	3.5220649344741006	5.569462262573047	1.2999485919136446	3.6100940433524054	0.45490610326653147	3.988354889580762	2	missed	0.0
388.6403516000138	7.167927799979225	go_reward	1.0	388.66314110008545	390.8483787000879	393.3716260000366	2.185237600002438	389.67187070008356	392.35061550000694	394.385150599992	1.1765080000043326	1.0210105000296608	1.4459183000726625	n/a	1.0	n/a	1	0	119	3	go_reward	1	1	0	1	0	0	0	n/a	n/a	0	1.0	1.0	946.710210799938	1335.3733519000234	1336.3820815000215	1337.5585895000258	1339.060826299945	1340.0818367999746	n/a	n/a	1341.09536139993	1342.5412797000026	2020-05-14 09:20:57.258084	-7.14339059238943	4.8904828086726	1.33895796977219	5.04254904803937	8.48234856216163	1.33895796977219	7.14339059238943	1.33895796977219	4.8904828086726	1.33895796977219	8.48234856216163	-1.33895796977219	-9.39693002636496	5.255088384658435	2.2813039399553907	5.303304027759168	7.347213316125909	2.2813039399553907	-0.983672965677063	0.11579361485816486	9.512723641223134	1.2372735906513614	6.299118733962462	2	missed	0.0
395.8475901000203	6.757242199964821	nogo_reward	0.371312899980694	395.87037960009195	397.84579520009004	400.3913958000486	1.9754155999980867	396.87590179999836	399.3789469000186	401.3938539000229	0.9698934000916779	1.0124489000299945	1.233767900033854	n/a	1.0	n/a	1	0	120	4	nogo_reward	1	0	1	0	1	0	1	n/a	n/a	0	0.371312899980694	1.0	946.710210799938	1342.58059040003	1343.5861125999363	1344.556006000028	1346.0891576999566	1347.1016065999866	n/a	n/a	1348.1040646999609	1349.3378325999947	2020-05-14 09:20:57.258084	1.63863578836463	1.79176593979181	2.5797189642909	2.21115362161596	4.21835475265553	2.5797189642909	-1.63863578836463	1.79176593979181	2.5797189642909	4.21835475265553	2.5797189642909	-1.79176593979181	-0.6149036456108996	2.156371515777644	3.5220649344741006	2.471908601335758	3.08321950661981	3.5220649344741006	-1.4364809356966828	2.9951903977415046	3.6100940433524054	1.6900815606709814	3.988354889580762	2	missed	0.0
