onset	duration	trial_type	response_time	cueOnset	targetOnset	fbOnset	cueRT	firstfixOnset	secondfixOnset	waitOnset	firstfixdur	secondfixdur	waitdur	nback_fbOnset	nback_response_time	nback_targetOnset	block	wm	trial	cue	cond	is_common	outcome_go	outcome_nogo	key_correct	key_pressed	is_correct	key_correct_nback	key_pressed_nback	is_correct_nback	outcome	rt	rt_nback	time_scan	time_onset	time_isi1	time_circle	time_isi2	time_feedback	time_same	time_correct	time_iti	time_done	timestamp_scan	DV	Qgo	Qnogo	SV	Wgo	Wnogo	mDV	Qchosen	Qunchosen	Wchosen	Wunchosen	PE	DVC	QgoC	QnogoC	SVC	WgoC	WnogoC	PEC	WchosenC	WunchosenC	QchosenC	QunchosenC	run	outcome_nback	nback_targetResp
0.0	9.276077900081873	nogo_punish	0.4782190998084843	0.10526119987479632	2.441113899927579	5.0765621999744255	2.335852700052783	1.097685100045048	4.037115299841382	8.13781009986996	1.3434287998825312	1.0394469001330435	1.2435290000867099	7.131532199913629	0.6714554999489337	6.08991699991747	1	1	1	3	nogo_punish	1	-1	0	0	1	0	0	0.0	1.0	-1	0.4782190998084843	0.6714554999489337	48.93630950013176	49.04157070000656	50.03399460017681	51.37742340005934	52.973424799973145	54.01287170010619	55.02622650004923	56.06784170004539	57.07411960000172	58.31764860008843	2020-02-08 09:54:31.543319	0.339478460071209	0.0	0.0	0.0	0.339478460071209	0.0	-0.339478460071209	0.0	0.0	0.339478460071209	0.0	-9.68731038046232	-11.195356173243727	-4.916045502402753	-2.908925221764603	-9.275955129100229	-8.436454517658522	-2.908925221764603	-11.037367591305241	-11.270367956333425	-0.07501178308969737	-9.542659958265999	1.7176892340986458	1	correct	1.0
9.339420800097287	8.23352720006369	go_punish	0.394990700064227	9.444681999972083	10.916325700003647	13.457825599936761	1.4716437000315636	10.453286399831988	12.43524069990962	16.481418299954377	0.4630393001716584	1.022584900027141	1.196790900081396	15.478086499962949	0.6153994000051171	14.464964200044044	1	1	2	4	go_punish	1	0	-1	1	1	1	0	0.0	1.0	0	0.394990700064227	0.6153994000051171	48.93630950013176	58.380991500103846	59.38959589996375	59.85263520013541	61.37155020004138	62.394135100068524	63.40127370017581	64.41439600009471	65.41772780008614	66.61451870016754	2020-02-08 09:54:31.543319	0.339478460071209	0.0	0.0	0.0	0.339478460071209	0.0	-0.339478460071209	0.0	0.0	0.339478460071209	0.0	0.0	-11.195356173243727	-4.916045502402753	-2.908925221764603	-9.275955129100229	-8.436454517658522	-2.908925221764603	-1.3500572108429219	-11.270367956333425	-0.07501178308969737	-9.542659958265999	1.7176892340986458	1	correct	1.0
17.605435100151226	8.310771899996325	go_reward	0.3037100001238286	17.710696300026022	19.500642200000577	22.047684399876736	1.7899458999745548	18.713470399845384	21.02108139987103	25.101087299874045	0.7871718001551926	1.0266030000057071	0.9203809001483023	24.088407099945464	0.5185473000165075	23.060720199951895	1	1	3	2	go_reward	1	1	0	1	1	1	0	0.0	1.0	1	0.3037100001238286	0.5185473000165075	48.93630950013176	66.64700580015779	67.64977989997715	68.43695170013234	69.95739090000279	70.9839939000085	71.99702970008366	73.02471660007723	74.03739680000581	74.95777770015411	2020-02-08 09:54:31.543319	0.339478460071209	0.0	0.0	0.0	0.339478460071209	0.0	-0.339478460071209	0.0	0.0	0.339478460071209	0.0	32.7732957697111	-11.195356173243727	-4.916045502402753	-2.908925221764603	-9.275955129100229	-8.436454517658522	-2.908925221764603	31.423238558868174	-11.270367956333425	-0.07501178308969737	-9.542659958265999	1.7176892340986458	1	correct	1.0
25.990474400110543	8.87676619994454	nogo_punish	1.0	26.09573559998534	27.947821700014167	30.46122749987989	1.8520861000288278	27.104808999923982	29.450672799954184	33.51670289994217	0.8430127000901848	1.0105546999257058	1.4557988999877125	32.50380559987388	0.4044327000156045	31.47485570004209	1	1	4	3	nogo_punish	1	-1	0	0	0	1	0	0.0	1.0	0	1.0	0.4044327000156045	48.93630950013176	75.0320451001171	76.04111850005575	76.88413120014593	78.38698230008595	79.39753700001165	80.41116520017385	81.44011510000564	82.45301240007393	83.90881130006164	2020-02-08 09:54:31.543319	2.53065486681009	-2.00316136532912	0.0	-2.00316136532912	-2.53065486681009	0.0	-2.53065486681009	0.0	-2.00316136532912	0.0	-2.53065486681009	0.0	-9.004179766504846	-6.919206867731873	-2.908925221764603	-11.27911649442935	-11.306587844539822	-2.908925221764603	-1.3500572108429219	-11.609846416404634	-2.6056666498997876	-9.542659958265999	-0.285472131230474	1	correct	1.0
34.90097940014675	8.230432699900135	go_reward	0.4060411998070776	35.00624060002155	36.34221689985133	38.89282599999569	1.335976299829781	36.01209930004551	37.872751299990334	41.946204100037	0.330117599805817	1.0200747000053525	1.290469199884683	40.92817179998382	0.5203391001559794	39.9011281998828	1	1	5	2	go_reward	0	0	1	1	1	1	1	1.0	1.0	0	0.4060411998070776	0.5203391001559794	48.93630950013176	83.94255010015331	84.94840880017728	85.2785263999831	86.8090608001221	87.82913550012745	88.83743770001456	89.86448130011559	90.88251360016876	92.17298280005345	2020-02-08 09:54:31.543319	10.9785989406073	7.30325524944125	0.0	7.30325524944125	10.9785989406073	0.0	-10.9785989406073	7.30325524944125	0.0	10.9785989406073	0.0	-7.30325524944125	-0.5562356927076362	2.387209747038497	-2.908925221764603	-1.972699879658979	2.2026659628775693	-2.908925221764603	-8.653312460284171	-0.6312474757973341	-0.07501178308969737	-2.2394047088247486	1.7176892340986458	1	correct	1.0
43.16383640002461	8.582930100150392	nogo_reward	0.2936146999709308	43.2690975998994	44.83457019994966	47.38500349991954	1.5654726000502563	44.271846699994036	46.371070799883434	50.445712700020515	0.5627234999556237	1.0139327000361078	1.4063150000292808	49.42704569990746	0.4541869999375194	48.400081699946874	1	1	6	1	nogo_reward	0	1	0	0	1	0	0	0.0	1.0	1	0.2936146999709308	0.4541869999375194	48.93630950013176	92.20540710003117	93.2081562001258	93.77087970008142	95.3073803000152	96.3213130000513	97.33639120007864	98.36335520003922	99.38202220015228	100.78833720018156	2020-02-08 09:54:31.543319	0.339478460071209	0.0	0.0	0.0	0.339478460071209	0.0	-0.339478460071209	0.0	0.0	0.339478460071209	0.0	32.7732957697111	-11.195356173243727	-4.916045502402753	-2.908925221764603	-9.275955129100229	-8.436454517658522	-2.908925221764603	31.423238558868174	-11.270367956333425	-0.07501178308969737	-9.542659958265999	1.7176892340986458	1	correct	1.0
51.779646500013754	9.52671590005049	go_punish	1.0	51.88490769988855	54.36759199993684	56.896048299968236	2.482684300048291	52.90470219985581	55.88209129986351	59.94322599982842	1.4628898000810295	1.0139570001047247	1.4683976001106203	58.93911150004714	0.5158798000775278	57.909421399934196	1	1	7	4	go_punish	1	0	-1	1	0	0	0	0.0	1.0	-1	1.0	0.5158798000775278	48.93630950013176	100.82121720002031	101.84101169998758	103.3039015000686	104.81840079999527	105.8323578001	106.84573090006596	107.8754210001789	108.87953549996018	110.3479331000708	2020-02-08 09:54:31.543319	-0.339478460071209	0.0	0.0	0.0	0.339478460071209	0.0	0.339478460071209	0.0	0.0	0.0	0.339478460071209	-9.68731038046232	-11.874313093386146	-4.916045502402753	-2.908925221764603	-9.275955129100229	-8.436454517658522	-2.908925221764603	-11.037367591305241	-11.609846416404634	0.26446667698151166	-9.542659958265999	1.7176892340986458	1	correct	1.0
61.34162850002758	8.18279480002822	go_reward	0.5538498999085277	61.44688969990238	62.82238869997672	65.36673330003396	1.375499000074342	62.46294640004634	64.34286720002999	68.41269310005006	0.3594422999303788	1.0238661000039713	1.216991399880527	67.39926859992556	0.4687554999254644	66.37057829997502	1	1	8	2	go_reward	1	1	0	1	1	1	0	0.0	1.0	1	0.5538498999085277	0.4687554999254644	48.93630950013176	110.38319920003414	111.3992559001781	111.75869820010848	113.27917670016176	114.30304280016573	115.30688780010678	116.33557810005732	117.34900260018183	118.56599400006236	2020-02-08 09:54:31.543319	8.24687833832842	5.44496814404429	0.0	5.44496814404429	8.24687833832842	0.0	-8.24687833832842	5.44496814404429	0.0	8.24687833832842	0.0	27.32832762566681	-3.2879562949865164	0.5289226416415369	-2.908925221764603	-3.8309869850559393	-0.5290546394013109	-2.908925221764603	25.978270414823886	-3.3629680780762143	-0.07501178308969737	-4.097691814221709	1.7176892340986458	1	correct	1.0
69.557110800175	9.650103599997237	go_reward	0.4717981000430882	69.6623720000498	72.51550620002672	75.07000249996779	2.853134199976921	70.68188910000026	74.04671459994279	78.09997199987993	1.8336171000264585	1.0232879000250108	1.2125036001671106	77.08735809987411	0.4625363000668585	76.07453679991886	1	1	9	2	go_reward	1	1	0	1	1	1	0	0.0	1.0	1	0.4717981000430882	0.4625363000668585	48.93630950013176	118.59868150018156	119.61819860013202	121.45181570015848	122.98302410007454	124.00631200009956	125.01084630005062	126.02366760000588	127.03628150001168	128.2487851001788	2020-02-08 09:54:31.543319	16.9293136912319	11.4130154521708	0.0	11.4130154521708	16.9293136912319	0.0	-16.9293136912319	11.4130154521708	0.0	16.9293136912319	0.0	21.360280317540298	5.394479057916964	6.496969949768047	-2.908925221764603	2.137060323070571	8.15338071350217	-2.908925221764603	20.010223106697374	5.319467274827266	-0.07501178308969737	1.8703554939048015	1.7176892340986458	1	correct	1.0
79.24455950013362	8.324759299866855	nogo_punish	1.0	79.34982070000842	80.75485019991174	83.27924689999782	1.4050294999033213	80.3638573999051	82.2593320000451	86.32192759984173	0.39099280000664294	1.0199148999527097	1.3526524000335485	85.31781139993109	0.402647600043565	84.29650769988075	1	1	10	3	nogo_punish	1	-1	0	0	0	1	0	0.0	1.0	0	1.0	0.402647600043565	48.93630950013176	128.28613020014018	129.30016690003686	129.6911597000435	131.19564150017686	132.21555640012957	133.2328172000125	134.25412090006284	135.25823709997348	136.61088950000703	2020-02-08 09:54:31.543319	2.31495643480927	-2.00316136532912	0.0	-1.51664293332962	-2.31495643480927	0.0	-2.31495643480927	0.0	-2.00316136532912	0.0	-2.31495643480927	0.0	-9.219878198505667	-6.919206867731873	-2.908925221764603	-10.79259806242985	-11.090889412539001	-2.908925221764603	-1.3500572108429219	-11.609846416404634	-2.3899682178989674	-9.542659958265999	-0.285472131230474	1	correct	1.0
87.60844840016216	8.73923259996809	nogo_punish	1.0	87.71370960003696	89.54153239983134	92.05675300001167	1.827822799794376	88.72755809989755	91.0459114999976	95.09341129986569	0.8139742999337898	1.0108415000140667	1.3595309001393616	94.08726159995422	0.4750671000219881	93.0751503999345	1	1	11	3	nogo_punish	1	-1	0	0	0	1	0	0.0	1.0	0	1.0	0.4750671000219881	48.93630950013176	136.65001910016872	137.6638676000293	138.4778418999631	139.98222100012936	140.99306250014342	142.01145990006626	143.02357110008597	144.02972079999745	145.3892517001368	2020-02-08 09:54:31.543319	2.15957897378599	-2.00316136532912	0.0	-1.16344256816415	-2.15957897378599	0.0	-2.15957897378599	0.0	-2.00316136532912	0.0	-2.15957897378599	0.0	-9.375255659528946	-6.919206867731873	-2.908925221764603	-10.43939769726438	-10.935511951515721	-2.908925221764603	-1.3500572108429219	-11.609846416404634	-2.2345907568756873	-9.542659958265999	-0.285472131230474	1	correct	1.0
96.38026510016061	8.477399199968204	nogo_reward	0.3622711000498384	96.48552630003542	98.04389149998315	100.59196339990012	1.5583651999477297	97.47971029998735	99.5808891998604	103.64140999992378	0.5641811999958009	1.0110742000397295	1.3215155000798404	102.62852709996514	0.402552800020203	101.59935739985667	1	1	12	1	nogo_reward	1	0	1	0	1	0	0	0.0	1.0	0	0.3622711000498384	0.402552800020203	48.93630950013176	145.42183580016717	146.4160198001191	146.9802010001149	148.51719869999215	149.52827290003188	150.53566689998843	151.5648366000969	152.57771950005554	153.89923500013538	2020-02-08 09:54:31.543319	10.9785989406073	7.30325524944125	0.0	7.30325524944125	10.9785989406073	0.0	-10.9785989406073	7.30325524944125	0.0	10.9785989406073	0.0	-7.30325524944125	-0.5562356927076362	2.387209747038497	-2.908925221764603	-1.972699879658979	2.2026659628775693	-2.908925221764603	-8.653312460284171	-0.6312474757973341	-0.07501178308969737	-2.2394047088247486	1.7176892340986458	1	correct	1.0
104.892750200117	8.743446900043637	go_reward	0.558742499910295	104.99801139999181	106.6724195999559	109.22789269988425	1.6744081999640912	106.00940919993445	108.2023223999422	112.28125009988435	0.6630104000214487	1.0255702999420464	1.4602082001511008	111.264347899938	0.4469366001430899	110.23132189991884	1	1	13	2	go_reward	1	1	0	1	1	1	0	0.0	1.0	1	0.558742499910295	0.4469366001430899	48.93630950013176	153.93432090012357	154.9457187000662	155.60872910008766	157.13863190007396	158.164202200016	159.1676314000506	160.20065740006976	161.2175596000161	162.6777678001672	2020-02-08 09:54:31.543319	23.4168823851611	15.8862144707404	0.0	15.8862144707404	23.4168823851611	0.0	-23.4168823851611	15.8862144707404	0.0	23.4168823851611	0.0	16.8870812989707	11.882047751846162	10.970168968337648	-2.908925221764603	6.610259341640171	14.640949407431368	-2.908925221764603	15.537024088127778	11.807035968756464	-0.07501178308969737	6.343554512474402	1.7176892340986458	1	correct	1.0
113.6705822001677	9.21721739997156	go_reward	0.2963807000778615	113.7758434000425	116.50199129991233	119.05623809993267	2.7261478998698294	114.79252489982173	118.03233979991637	122.09319889987822	1.709466400090605	1.023898300016299	0.8998619001358463	121.07451229984872	0.4576510998886078	120.0615291998256	1	1	14	2	go_reward	1	1	0	1	1	1	0	0.0	1.0	1	0.2963807000778615	0.4576510998886078	48.93630950013176	162.71215290017426	163.72883439995348	165.4383008000441	166.96864930004813	167.99254760006443	168.99783869995736	170.01082179998048	171.02950840000997	171.92937030014582	2020-02-08 09:54:31.543319	28.3247528779208	19.2801692398704	0.0	19.2801692398704	28.3247528779208	0.0	-28.3247528779208	19.2801692398704	0.0	28.3247528779208	0.0	13.493126529840698	16.789918244605865	14.364123737467647	-2.908925221764603	10.004214110770171	19.54881990019107	-2.908925221764603	12.143069318997776	16.714906461516165	-0.07501178308969737	9.737509281604401	1.7176892340986458	1	correct	1.0
122.92652970016934	8.723656299989699	nogo_punish	1.0	123.03179090004414	125.26252559991553	127.78747610002756	2.230734699871391	124.04398650000803	126.76743209990673	130.83236659993418	1.2185390999075025	1.0200440001208335	0.9230806000996665	129.8239370000083	0.5010190999601036	128.79517109994777	1	1	15	3	nogo_punish	1	-1	0	0	0	1	0	0.0	1.0	0	1.0	0.5010190999601036	48.93630950013176	171.9681004001759	172.9802960001398	174.1988351000473	175.70374160003848	176.72378560015932	177.73148060007952	178.76024650014006	179.76867610006593	180.6917567001656	2020-02-08 09:54:31.543319	2.04609365465911	-2.00316136532912	0.0	-0.903496664657622	-2.04609365465911	0.0	-2.04609365465911	0.0	-2.00316136532912	0.0	-2.04609365465911	0.0	-9.488740978655827	-6.919206867731873	-2.908925221764603	-10.17945179375785	-10.822026632388841	-2.908925221764603	-1.3500572108429219	-11.609846416404634	-2.1211054377488074	-9.542659958265999	-0.285472131230474	1	correct	1.0
131.68497260008007	8.148480599978967	go_reward	0.3617811000440269	131.79023379995488	133.3693645000458	135.92454869998622	1.5791307000909285	132.8064849998336	134.89977080002427	138.95416059996933	0.5628795002122047	1.024777899961947	0.984553799964516	137.94111209991388	0.5232083001174033	136.92788179987113	1	1	16	2	go_reward	1	1	0	1	1	1	1	1.0	1.0	1	0.3617811000440269	0.5232083001174033	48.93630950013176	180.72654330008663	181.74279449996536	182.30567400017756	183.83608030015603	184.86085820011797	185.8641913000029	186.87742160004564	187.89047010010108	188.8750239000656	2020-02-08 09:54:31.543319	32.08089237563	21.8849047552495	0.0	21.8849047552495	32.08089237563	0.0	-32.08089237563	21.8849047552495	0.0	32.08089237563	0.0	10.888391014461597	20.546057742315064	16.968859252846748	-2.908925221764603	12.608949626149272	23.30495939790027	-2.908925221764603	9.538333803618675	20.471045959225364	-0.07501178308969737	12.342244796983502	1.7176892340986458	1	correct	1.0
139.89211370004344	9.4174995999783	nogo_punish	1.0	139.99737489991824	142.76317389984615	145.28680630004965	2.7657989999279096	141.00537619995885	144.27743569994345	148.32451389986088	1.7577976998873055	1.0093706001061946	1.090360600035666	147.3189683998935	0.5918621001765132	146.2944157999009	1	1	17	3	nogo_punish	1	-1	0	0	0	1	1	0.0	0.0	0	1.0	0.5918621001765132	48.93630950013176	188.93368440005	189.9416857000906	191.6994833999779	193.2137452000752	194.2231158001814	195.23072530003265	196.25527790002525	197.26082339999263	198.3511840000283	2020-02-08 09:54:31.543319	1.96211130308697	-2.00316136532912	0.0	-0.709699879422203	-1.96211130308697	0.0	-1.96211130308697	0.0	-2.00316136532912	0.0	-1.96211130308697	0.0	-9.572723330227966	-6.919206867731873	-2.908925221764603	-9.985655008522432	-10.738044280816702	-2.908925221764603	-1.3500572108429219	-11.609846416404634	-2.0371230861766674	-9.542659958265999	-0.285472131230474	1	wrong	1.0
149.34970350004733	8.39138810010624	nogo_punish	1.0	149.45496469992213	151.3217178999912	153.86026059999128	1.8667532000690699	150.45672579994425	152.8371959999203	156.89166399999522	0.8649921000469476	1.023064600070967	0.9546888000331535	155.88876849994995	0.4524564000312239	154.86682550003752	1	1	18	3	nogo_punish	0	0	-1	0	0	1	0	0.0	1.0	-1	1.0	0.4524564000312239	48.93630950013176	198.39127420005389	199.393035300076	200.25802740012296	201.77350550005207	202.79657010012303	203.80313500016928	204.8250780000817	205.82797350012697	206.78266230016013	2020-02-08 09:54:31.543319	1.8991836975486	-2.00316136532912	0.0	-0.563449019593918	-1.8991836975486	0.0	-1.8991836975486	0.0	-2.00316136532912	0.0	-1.8991836975486	-9.68731038046232	-9.635650935766336	-6.919206867731873	-2.908925221764603	-9.839404148694147	-10.675116675278332	-2.908925221764603	-11.037367591305241	-11.609846416404634	-1.9741954806382975	-9.542659958265999	-0.285472131230474	1	correct	1.0
157.77731340005994	8.491673399927095	go_reward	0.7601550999097526	157.88257459993474	159.38898119982332	161.9461691998877	1.506406599888578	158.88873759983107	160.92553959996437	164.98520819982514	0.5002435999922454	1.0206295999233248	1.3890398000366986	163.97258089995012	0.4288554999511689	162.9593056999147	1	1	19	2	go_reward	1	1	0	1	1	1	0	0.0	1.0	1	0.7601550999097526	0.4288554999511689	48.93630950013176	206.8188841000665	207.82504709996283	208.32529069995508	209.86184910009612	210.88247870001945	211.89561520004645	212.90889040008187	213.9215176999569	215.3105574999936	2020-02-08 09:54:31.543319	34.987119478981	23.9055637911015	0.0	23.9055637911015	34.987119478981	0.0	-34.987119478981	23.9055637911015	0.0	34.987119478981	0.0	8.867731978609598	23.452284845666064	18.989518288698747	-2.908925221764603	14.62960866200127	26.21118650125127	-2.908925221764603	7.517674767766676	23.377273062576364	-0.07501178308969737	14.362903832835501	1.7176892340986458	1	correct	1.0
166.31296849995852	9.278991300147027	nogo_punish	0.3363965000025928	166.41822969983332	169.19146210001784	171.75351209985092	2.7732324001845257	167.4264396999497	170.74403409985825	174.81323600001633	1.7650224000681476	1.0094779999926686	0.8839849999640137	173.80049870000224	0.3443297001067549	172.77293349988756	1	1	20	3	nogo_punish	0	0	-1	0	1	0	1	1.0	1.0	0	0.3363965000025928	0.3443297001067549	48.93630950013176	215.35453919996507	216.36274920008145	218.1277716001496	219.68034359999	220.68982159998268	221.7092430000193	222.736808200134	223.7495455001481	224.6335305001121	2020-02-08 09:54:31.543319	-0.715282732485002	-2.00316136532912	-2.00316136532912	-2.45496404560145	-2.71844409781412	-2.00316136532912	0.715282732485002	-2.00316136532912	-2.00316136532912	-2.71844409781412	-2.00316136532912	2.00316136532912	-12.25011736579994	-6.919206867731873	-4.912086587093723	-11.730919174701679	-11.494377075543852	-4.912086587093723	0.653104154486198	-14.328290514218754	-2.0781731484188173	-11.545821323595119	-0.285472131230474	1	correct	1.0
175.62576650013216	8.47753409994769	go_punish	0.431072800187394	175.73102770000696	177.47907139989547	180.02716409997083	1.7480436998885125	176.7449804998469	179.01531339995563	183.07441630004905	0.7340909000485851	1.0118507000152022	1.1341454999055998	182.06268640002236	0.3500030001159757	181.0441745000426	1	1	21	4	go_punish	1	0	-1	1	1	1	0	0.0	1.0	0	0.431072800187394	0.3500030001159757	48.93630950013176	224.66733720013872	225.68128999997865	226.41538090002723	227.9516229000874	228.9634736001026	229.98048400017436	230.9989959001541	232.0107258001808	233.1448713000864	2020-02-08 09:54:31.543319	1.47566786384814	0.0	-2.00316136532912	-2.00316136532912	-0.527493501480977	-2.00316136532912	-1.47566786384814	0.0	-2.00316136532912	-0.527493501480977	-2.00316136532912	0.0	-10.059166769466797	-4.916045502402753	-4.912086587093723	-11.27911649442935	-9.303426479210708	-4.912086587093723	-1.3500572108429219	-12.137339917885612	-2.0781731484188173	-9.542659958265999	-0.285472131230474	1	correct	1.0
184.13782369997352	8.964535500155762	go_reward	0.4176676999777555	184.24308489984833	186.15537829999812	188.71578929992393	1.9122934001497924	185.24928150000048	187.69173870002848	191.74582089995965	0.9060967999976413	1.0240505998954461	1.4617995000444353	190.7416148998309	0.5291838999837637	189.7249779000413	1	1	22	2	go_reward	1	1	0	1	1	1	0	0.0	1.0	1	0.4176676999777555	0.5291838999837637	48.93630950013176	233.17939439998008	234.18559100013223	235.09168780012988	236.62804820016024	237.65209880005568	238.66128740017305	239.67792439996265	240.6821304000914	242.14392990013584	2020-02-08 09:54:31.543319	37.2589933838882	25.4890781341708	0.0	25.4890781341708	37.2589933838882	0.0	-37.2589933838882	25.4890781341708	0.0	37.2589933838882	0.0	7.284217635540298	25.724158750573267	20.573032631768047	-2.908925221764603	16.21312300507057	28.483060406158472	-2.908925221764603	5.934160424697376	25.649146967483567	-0.07501178308969737	15.946418175904801	1.7176892340986458	1	correct	1.0
193.14712310000323	8.999726100126281	nogo_punish	0.9166430998593568	193.25238429987803	195.72545769996944	198.28875449998304	2.4730734000914083	194.2479709000327	197.2605349000078	201.3303652999457	1.4774867999367416	1.0282195999752446	0.9217451000586152	200.31746579986066	0.4734364999458194	199.2976609999314	1	1	23	3	nogo_punish	0	0	-1	0	1	0	0	0.0	1.0	0	0.9166430998593568	0.4734364999458194	48.93630950013176	242.1886938000098	243.18428040016445	244.6617672001012	246.19684440013955	247.2250640001148	248.23397050006315	249.2537752999924	250.26667480007745	251.18841990013607	2020-02-08 09:54:31.543319	0.0235164834127089	-1.51664293332962	-2.00316136532912	-1.8822855311378	-1.97964488191641	-2.00316136532912	-0.0235164834127089	-1.51664293332962	-2.00316136532912	-1.97964488191641	-2.00316136532912	1.51664293332962	-11.511318149902227	-6.432688435732373	-4.912086587093723	-11.158240660238029	-10.755577859646142	-4.912086587093723	0.16658572248669823	-13.589491298321045	-2.0781731484188173	-11.05930289159562	-0.285472131230474	1	correct	1.0
202.18311760015783	8.853595399996294	nogo_reward	0.4162722998298704	202.28837880003263	204.15893639996648	206.69986089994197	1.8705575999338464	203.3057947000489	205.68871310004033	209.76131059997715	0.853141699917586	1.0111477999016358	1.3806636000517756	208.7478527999483	0.4250925998203456	207.71108269994147	1	1	24	1	nogo_reward	1	0	1	0	1	0	0	0.0	1.0	0	0.4162722998298704	0.4250925998203456	48.93630950013176	251.2246883001644	252.24210420018065	253.09524590009823	254.6250226001721	255.63617040007372	256.6473922000732	257.68416230008006	258.6976201001089	260.0782837001607	2020-02-08 09:54:31.543319	8.24687833832842	5.44496814404429	0.0	5.44496814404429	8.24687833832842	0.0	-8.24687833832842	5.44496814404429	0.0	8.24687833832842	0.0	-5.44496814404429	-3.2879562949865164	0.5289226416415369	-2.908925221764603	-3.8309869850559393	-0.5290546394013109	-2.908925221764603	-6.795025354887212	-3.3629680780762143	-0.07501178308969737	-4.097691814221709	1.7176892340986458	1	correct	1.0
211.07527080015274	8.81370289996272	go_reward	0.2922225999645889	211.18053200002754	213.61483069998212	216.17824679985642	2.4342986999545815	212.19312519999227	215.15170619986026	219.2296060998924	1.421705499989855	1.0265405999961672	0.764628800097853	218.2172252999153	0.5293827001005411	217.1877651999239	1	1	25	2	go_reward	1	1	0	1	1	1	0	0.0	1.0	1	0.2922225999645889	0.5293827001005411	48.93630950013176	260.1168415001593	261.129434700124	262.5511402001139	264.088015699992	265.1145562999882	266.12407470005564	267.15353480004705	268.16591560002416	268.930544400122	2020-02-08 09:54:31.543319	39.0522928610227	26.7419246079963	0.0	26.7419246079963	39.0522928610227	0.0	-39.0522928610227	26.7419246079963	0.0	39.0522928610227	0.0	6.031371161714798	27.517458227707763	21.825879105593547	-2.908925221764603	17.46596947889607	30.27635988329297	-2.908925221764603	4.681313950871877	27.442446444618064	-0.07501178308969737	17.199264649730303	1.7176892340986458	1	correct	1.0
219.93255400005728	9.169295399915427	nogo_punish	0.4686648000497371	220.03781519993208	222.10045339982025	224.67014790000394	2.0626381998881698	221.0466744999867	223.64609669987112	227.72267179982737	1.05377889983356	1.024051200132817	1.4844388000201434	226.70675999997184	0.7177348001860082	225.68522049998865	1	1	26	3	nogo_punish	1	-1	0	0	1	0	0	0.0	1.0	-1	0.4686648000497371	0.7177348001860082	48.93630950013176	268.97412470006384	269.98298400011845	271.036762899952	272.5824062000029	273.6064574001357	274.6215300001204	275.6430695001036	276.6589812999591	278.14342009997927	2020-02-08 09:54:31.543319	0.560442835845557	-1.16344256816415	-2.00316136532912	-1.46190867117239	-1.44271852948356	-2.00316136532912	-0.560442835845557	-1.16344256816415	-2.00316136532912	-1.44271852948356	-2.00316136532912	-8.52386781229817	-10.97439179746938	-6.079488070566903	-4.912086587093723	-10.737863800272619	-10.218651507213291	-4.912086587093723	-9.87392502314109	-13.052564945888195	-2.0781731484188173	-10.706102526430149	-0.285472131230474	1	correct	1.0
229.13964430009946	8.479196399915963	nogo_punish	1.0	229.24490549997427	230.75929149985313	233.28299860004336	1.5143859998788685	230.25851039984263	232.26343079982325	236.3336505999323	0.5007811000104994	1.019567800220102	1.390451299957931	235.32120179990306	0.4268475999124348	234.30029439995997	1	1	27	3	nogo_punish	1	-1	0	0	0	1	0	0.0	1.0	0	1.0	0.4268475999124348	48.93630950013176	278.181215000106	279.1948198999744	279.6956009999849	281.199740299955	282.2193081001751	283.2366039000917	284.2575113000348	285.26996010006405	286.660411400022	2020-02-08 09:54:31.543319	1.91406949879261	-2.90665802998674	-2.00316136532912	-3.15224025555455	-3.91723086412173	-2.00316136532912	-1.91406949879261	-2.00316136532912	-2.90665802998674	-2.00316136532912	-3.91723086412173	2.00316136532912	-9.620765134522326	-7.822703532389493	-4.912086587093723	-12.428195384654778	-12.693163841851462	-4.912086587093723	0.653104154486198	-13.613007781733755	-3.9922426472114276	-11.545821323595119	-1.1889687958880941	1	correct	1.0
237.65411920007318	8.688291399972513	go_punish	0.3406264998484403	237.759380399948	239.82236390002072	242.36927859997377	2.0629835000727326	238.77502699987963	241.35748799983412	245.4177997999359	1.0473369001410902	1.0117906001396477	1.029871999984607	244.40629149996676	0.4032654999755323	243.3768291999586	1	1	28	4	go_punish	1	0	-1	1	1	1	0	0.0	1.0	0	0.3406264998484403	0.4032654999755323	48.93630950013176	286.69568990007974	287.7113365000114	288.7586734001525	290.2937974999659	291.3055881001055	292.31313870009035	293.3426010000985	294.35410930006765	295.38398130005226	2020-02-08 09:54:31.543319	1.69136629584896	0.0	-2.00316136532912	-1.51664293332962	-0.311795069480157	-2.00316136532912	-1.69136629584896	0.0	-2.00316136532912	-0.311795069480157	-2.00316136532912	0.0	-9.843468337465977	-4.916045502402753	-4.912086587093723	-10.79259806242985	-9.087728047209888	-4.912086587093723	-1.3500572108429219	-11.921641485884791	-2.0781731484188173	-9.542659958265999	-0.285472131230474	1	correct	1.0
246.3774923000019	8.775770799955353	nogo_reward	1.0	246.4827534998767	248.2651259000413	250.79718449991196	1.7823724001646042	247.49986169999465	249.77141099981964	253.84317699982785	0.7652642000466585	1.0257735000923276	1.415347300004214	252.83025599992834	0.7656461999285966	251.80141189997084	1	1	29	1	nogo_reward	1	0	1	0	0	1	0	0.0	1.0	1	1.0	0.7656461999285966	48.93630950013176	295.41906300000846	296.4361712001264	297.20143540017307	298.7077204999514	299.7334940000437	300.7377214001026	301.7665655000601	302.7794864999596	304.1948337999638	2020-02-08 09:54:31.543319	-6.29019321069584	4.10976020272957	0.0	4.10976020272957	6.29019321069584	0.0	6.29019321069584	0.0	4.10976020272957	0.0	6.29019321069584	32.7732957697111	-17.825027844010776	-0.8062852996731831	-2.908925221764603	-5.166194926370659	-2.485739767033891	-2.908925221764603	31.423238558868174	-11.609846416404634	6.215181427606143	-9.542659958265999	5.827449436828216	1	correct	1.0
255.1879945001565	8.197565799811855	go_reward	0.6665460001677275	255.2932557000313	256.64147909986787	259.19726169994107	1.34822339983657	256.30890669999644	258.1736629998777	262.2251776000485	0.33257239987142384	1.02359870006336	1.265643899794668	261.22193709993735	0.5504262000322342	260.20964969997294	1	1	30	2	go_reward	1	1	0	1	1	1	0	0.0	1.0	1	0.6665460001677275	0.5504262000322342	48.93630950013176	304.22956520016305	305.2452162001282	305.5777885999996	307.10997250000946	308.1335712000728	309.1459592001047	310.1582466000691	311.16148710018024	312.4271309999749	2020-02-08 09:54:31.543319	40.4808497028806	27.7421166489902	0.0	27.7421166489902	40.4808497028806	0.0	-40.4808497028806	27.7421166489902	0.0	40.4808497028806	0.0	5.031179120720896	28.94601506956566	22.82607114658745	-2.908925221764603	18.466161519889972	31.704916725150866	-2.908925221764603	3.6811219098779744	28.87100328647596	-0.07501178308969737	18.199456690724205	1.7176892340986458	1	correct	1.0
263.4276483999565	9.575101000024006	nogo_punish	0.7838328999932855	263.5329095998313	266.12128759990446	268.70216190000065	2.588378000073135	264.54170569987036	267.6713086999953	271.75494259991683	1.5795819000340998	1.0308532000053674	1.353067999938503	270.75127789983526	0.5627928001340479	269.7172740998212	1	1	31	3	nogo_punish	1	-1	0	0	1	0	0	0.0	1.0	-1	0.7838328999932855	0.5627928001340479	48.93630950013176	312.4692190999631	313.4780152000021	315.0575971000362	316.60761820012704	317.6384714001324	318.653583599953	319.687587399967	320.6912521000486	322.0443200999871	2020-02-08 09:54:31.543319	-2.08337247270336	-2.90665802998674	-1.51664293332962	-2.42991246524309	-3.60001540603298	-1.51664293332962	2.08337247270336	-2.90665802998674	-1.51664293332962	-3.60001540603298	-1.51664293332962	-6.780652350475579	-13.618207106018296	-7.822703532389493	-4.425568155094223	-11.705867594343319	-12.375948383762712	-4.425568155094223	-8.1307095613185	-15.209861822437615	-1.5916547164193176	-12.449317988252739	0.20104630076902574	1	correct	1.0
273.0421240001451	9.631186499958858	nogo_punish	1.0	273.1473852000199	275.6937939999625	278.2125279000029	2.546408799942583	274.1531932998914	277.2024473999627	281.27913509984506	1.5406007000710815	1.0100805000402033	1.4994366001337198	280.2664196998812	0.4150964999571442	279.23097190004773	1	1	32	3	nogo_punish	1	-1	0	0	0	1	0	0.0	1.0	0	1.0	0.4150964999571442	48.93630950013176	322.0836947001517	323.0895028000232	324.63010350009426	326.13875690009445	327.14883740013465	328.1672814001795	329.202729200013	330.2154445999768	331.71488120011054	2020-02-08 09:54:31.543319	4.0409047480556	-4.22950417808094	-1.51664293332962	-3.89995977726542	-5.55754768138522	-1.51664293332962	-4.0409047480556	-1.51664293332962	-4.22950417808094	-1.51664293332962	-5.55754768138522	1.51664293332962	-7.493929885259337	-9.145549680483693	-4.425568155094223	-13.175914906365648	-14.33348065911495	-4.425568155094223	0.16658572248669823	-13.126489349734255	-5.632559464474917	-11.05930289159562	-2.511814943982294	1	correct	1.0
282.70972270006314	8.37845729989931	go_punish	0.4769846999552101	282.81498389993794	284.2519824998453	286.7935068998486	1.4369985999073833	283.8296127000358	285.78245459985914	289.8499733998906	0.4223697998095304	1.0110522999894442	1.3434677999466658	288.83717969991267	0.4679380001034587	287.81109239999205	1	1	33	4	go_punish	1	0	-1	1	1	1	0	0.0	1.0	0	0.4769846999552101	0.4679380001034587	48.93630950013176	331.7512934000697	332.76592220016755	333.1882919999771	334.7187640999909	335.72981639998034	336.7474019001238	337.7734892000444	338.78628290002234	340.129750699969	2020-02-08 09:54:31.543319	1.84674375687225	0.0	-2.00316136532912	-1.16344256816415	-0.156417608456871	-2.00316136532912	-1.84674375687225	0.0	-2.00316136532912	-0.156417608456871	-2.00316136532912	0.0	-9.688090876442686	-4.916045502402753	-4.912086587093723	-10.43939769726438	-8.932350586186603	-4.912086587093723	-1.3500572108429219	-11.766264024861506	-2.0781731484188173	-9.542659958265999	-0.285472131230474	1	correct	1.0
291.1287462001201	8.34264719998464	nogo_punish	1.0	291.2340073999949	292.7888509000186	295.32610940001905	1.5548435000237077	292.23470489983447	294.30291739990935	298.3644572000485	0.5541460001841187	1.0231920001097023	1.2121973999310285	297.3513727998361	0.5604294000659138	296.33260339987464	1	1	34	3	nogo_punish	0	0	-1	0	0	1	1	0.0	0.0	-1	1.0	0.5604294000659138	48.93630950013176	340.17031690012664	341.1710143999662	341.72516040015034	343.2392269000411	344.2624189001508	345.2689129000064	346.28768229996786	347.30076670018025	348.5129641001113	2020-02-08 09:54:31.543319	4.00596826528872	-4.22950417808094	-1.16344256816415	-3.01465888901614	-5.16941083345287	-1.16344256816415	-4.00596826528872	-1.16344256816415	-4.22950417808094	-1.16344256816415	-5.16941083345287	-8.52386781229817	-7.5288663680262164	-9.145549680483693	-4.072367789928753	-12.290614018116369	-13.945343811182601	-4.072367789928753	-9.87392502314109	-12.773288984568785	-5.244422616542567	-10.706102526430149	-2.511814943982294	1	wrong	1.0
299.50965530006215	9.154786299914122	nogo_punish	0.2861279000062495	299.61491649993695	302.14089150005026	304.6938216998242	2.5259750001133057	300.61824089987203	303.67052479996346	307.7243013998959	1.522650600178224	1.0232968998607248	1.0454013999551535	306.7188251998741	1.0	305.70835560001433	1	1	35	3	nogo_punish	1	-1	0	0	1	0	0	n/a	0.0	0	0.2861279000062495	1.0	48.93630950013176	348.5512260000687	349.5545504000038	351.077201000182	352.6068343000952	353.63013119995594	354.6446651001461	355.6551347000059	356.6606109000277	357.70601229998283	2020-02-08 09:54:31.543319	-2.84467167854349	-4.22950417808094	-2.90665802998674	-4.36253456940104	-5.75132970853023	-2.90665802998674	2.84467167854349	-4.22950417808094	-2.90665802998674	-5.75132970853023	-2.90665802998674	-5.45780620238138	-14.379506311858426	-9.145549680483693	-5.8155832517513435	-13.63848969850127	-14.527262686259961	-5.8155832517513435	-6.807863413224302	-17.361176124934865	-2.9816698130764374	-13.772164136346937	-1.1889687958880941	1	missed	0.0
308.69914899999276	8.04032610007556	nogo_reward	0.8448955998755991	308.80441019986756	310.07707550004125	312.63436369993724	1.272665300173685	309.8058110999409	311.60579099995084	315.67658249987295	0.2712644001003355	1.0285726999863982	1.168153800070172	314.6704398000147	0.4190879999659955	313.64191249990836	1	1	36	1	nogo_reward	1	0	1	0	1	0	0	0.0	1.0	0	0.8448955998755991	0.4190879999659955	48.93630950013176	357.7407196999993	358.74212060007267	359.013385000173	360.5421005000826	361.570673200069	362.5782220000401	363.6067493001465	364.6128920000047	365.7810458000749	2020-02-08 09:54:31.543319	1.87474113349616	4.10976020272957	7.30325524944125	10.4412463266961	9.1779963829374	7.30325524944125	-1.87474113349616	4.10976020272957	7.30325524944125	9.1779963829374	7.30325524944125	-4.10976020272957	-9.660093499818776	-0.8062852996731831	4.394330027676647	1.165291197595872	0.40206340520766837	4.394330027676647	-5.459817413572491	-2.431850033467235	7.228243466351553	-5.432899755536429	9.020944483539896	1	correct	1.0
316.77764520002535	7.767861800035405	go_reward	0.3984348000958562	316.88290639990015	318.2605381999164	320.805286699906	1.3776318000162746	317.90043399995193	319.79067000001675	323.84338219999336	0.3601041999644963	1.0146166998892454	0.8073859999421984	322.83853069995536	0.6234218999743462	321.80951469996944	1	1	37	2	go_reward	1	1	0	1	1	1	0	0.0	1.0	1	0.3984348000958562	0.6234218999743462	48.93630950013176	365.8192159000319	366.8367435000837	367.1968477000482	368.7269795001485	369.74159620003775	370.7458242001012	371.7748402000871	372.7796917001251	373.5870777000673	2020-02-08 09:54:31.543319	41.6287199651911	28.5474101693458	0.0	28.5474101693458	41.6287199651911	0.0	-41.6287199651911	28.5474101693458	0.0	41.6287199651911	0.0	4.225885600365299	30.093885331876166	23.631364666943046	-2.908925221764603	19.27145504024557	32.85278698746137	-2.908925221764603	2.875828389522377	30.018873548786466	-0.07501178308969737	19.004750211079802	1.7176892340986458	1	correct	1.0
324.57742430013604	9.437612999929115	nogo_reward	1.0	324.68268550001085	327.10358959995216	329.62539960001595	2.4209040999413105	325.67650289996527	328.60916640004143	332.67859659995884	1.4270866999868872	1.016233199974522	1.4417018999811262	331.6639199999626	0.6209809000138193	330.6310051998589	1	1	38	1	nogo_reward	1	0	1	0	0	1	1	0.0	0.0	1	1.0	0.6209809000138193	48.93630950013176	373.6189950001426	374.612812400097	376.0398991000839	377.5454759001732	378.5617091001477	379.5673146999907	380.6002295000944	381.6149061000906	383.0566080000717	2020-02-08 09:54:31.543319	0.297500313125838	3.13799107725486	7.30325524944125	7.86715378769956	7.00575493631541	7.30325524944125	-0.297500313125838	7.30325524944125	3.13799107725486	7.30325524944125	7.00575493631541	25.470040520269848	-11.237334320189099	-1.778054425147893	4.394330027676647	-1.408801341400669	-1.7701780414143213	4.394330027676647	24.119983309426924	-4.3065911669633845	6.930743153225713	-2.2394047088247486	4.855680311353506	1	wrong	1.0
334.057248200057	8.808264800114614	nogo_punish	1.0	334.1625093999318	336.14951699995436	338.6774675999768	1.9870076000225367	335.16502749989746	337.6541575000156	341.72593129985034	0.9844895000568954	1.0233100999612361	1.2448429001960903	340.71722700004466	0.7367330000270158	339.6822760000359	1	1	39	3	nogo_punish	0	0	-1	0	0	1	0	0.0	1.0	-1	1.0	0.7367330000270158	48.93630950013176	383.0988189000636	384.1013370000292	385.0858265000861	386.5904670001473	387.61377710010856	388.6185855001677	389.6535365001764	390.6622407999821	391.9070837001782	2020-02-08 09:54:31.543319	1.43080286498174	-3.24353452108768	-2.90665802998674	-3.38450601370248	-4.33746089496848	-2.90665802998674	-1.43080286498174	-2.90665802998674	-3.24353452108768	-2.90665802998674	-4.33746089496848	-6.780652350475579	-10.104031768333197	-8.159580023490433	-5.8155832517513435	-12.66046114280271	-13.11339387269821	-5.8155832517513435	-8.1307095613185	-14.516504446391375	-4.412472678058177	-12.449317988252739	-1.5258452869890342	1	correct	1.0
342.9015479001682	8.094426299910992	nogo_reward	1.0	343.00680910004303	344.58761239983147	347.11550459987484	1.5808032997884425	344.0250434000045	346.102132699918	350.16950199985877	0.562568999826965	1.0133718999568373	0.9317334000952542	349.16656579985283	0.5799658000469208	348.13787849992514	1	1	40	1	nogo_reward	1	0	1	0	0	1	1	1.0	1.0	1	1.0	0.5799658000469208	48.93630950013176	391.9431186001748	392.96135290013626	393.5239218999632	395.03844220004976	396.0518141000066	397.0741880000569	398.1028752999846	399.1058114999905	400.0375449000858	2020-02-08 09:54:31.543319	3.26956891910484	3.13799107725486	12.7482233934855	13.3019455339503	9.4786544743807	12.7482233934855	-3.26956891910484	12.7482233934855	3.13799107725486	12.7482233934855	9.4786544743807	20.025072376225598	-8.265265714210097	-1.778054425147893	9.839298171720896	4.025990404850072	0.7027214966509696	9.839298171720896	18.675015165382675	1.1383769770808652	9.403642691291003	3.205563435219501	4.855680311353506	1	correct	1.0
351.03194110002374	8.862119900062623	go_punish	1.0	351.13720229989855	353.4780255998484	356.00077189994045	2.340823299949875	352.149406200042	354.98011559993034	359.03655770001933	1.3286193998064277	1.0206563000101028	0.9627644999418408	358.02419929997995	0.7933444001246244	357.00751469982794	1	1	41	4	go_punish	1	0	-1	1	0	0	0	0.0	1.0	-1	1.0	0.7933444001246244	48.93630950013176	400.0735118000303	401.08571570017375	402.4143350999802	403.9164251000621	404.9370814000722	405.9438241999597	406.9605088001117	407.9728672001511	408.9356317000929	2020-02-08 09:54:31.543319	-1.96022907599912	0.0	-2.00316136532912	-0.903496664657622	-0.0429322893299947	-2.00316136532912	1.96022907599912	-2.00316136532912	0.0	-2.00316136532912	-0.0429322893299947	-7.684149015133199	-13.495063709314056	-4.916045502402753	-4.912086587093723	-10.17945179375785	-8.818865267059726	-4.912086587093723	-9.03420622597612	-13.613007781733755	-0.11794407241969207	-11.545821323595119	1.7176892340986458	1	correct	1.0
359.9292449001222	9.780434999847841	go_punish	0.3061401001177728	360.03450609999703	362.8128712999169	365.36382450000383	2.778365199919847	361.0402754000388	364.34300779993646	368.4223068000283	1.7725958998780698	1.0208167000673711	1.3926342998165637	367.4093346998561	0.5835471998434514	366.38046330004	1	1	42	4	go_punish	1	0	-1	1	1	1	0	0.0	1.0	0	0.3061401001177728	0.5835471998434514	48.93630950013176	408.9708156001288	409.97658490017056	411.74918080004863	413.2793173000682	414.3001340001356	415.31677280017175	416.3456441999879	417.35861630016007	418.75125059997663	2020-02-08 09:54:31.543319	2.6938823993487	0.0	-3.51980429865874	-2.71286124475132	-0.825921899310036	-3.51980429865874	-2.6938823993487	0.0	-3.51980429865874	-0.825921899310036	-3.51980429865874	0.0	-8.840952233966236	-4.916045502402753	-6.428729520423343	-11.988816373851549	-9.601854877039766	-6.428729520423343	-1.3500572108429219	-12.43576831571467	-3.5948160817484376	-9.542659958265999	-1.8021150645600943	1	correct	1.0
369.7457070001401	8.950750599848163	nogo_reward	1.0	369.8509682000149	372.20808069990017	374.7270384998992	2.357112499885261	370.8569403998554	373.71671670000075	377.777031000005	1.35114030004479	1.0103217998984633	1.024687799858043	376.76306779985316	0.4676501001231372	375.74532460002234	1	1	43	1	nogo_reward	0	1	0	0	0	1	0	0.0	1.0	0	1.0	0.4676501001231372	48.93630950013176	418.78727770014666	419.79324989998713	421.1443902000319	422.6530262001325	423.66334800003096	424.6816341001541	425.6993772999849	426.7133405001368	427.7380282999948	2020-02-08 09:54:31.543319	5.54524504375225	3.13799107725486	16.8579835962151	17.3736179447166	11.3127385524629	16.8579835962151	-5.54524504375225	16.8579835962151	3.13799107725486	16.8579835962151	11.3127385524629	-16.8579835962151	-5.989589589562686	-1.778054425147893	13.949058374450496	8.09766281561637	2.536805574733169	13.949058374450496	-18.208040807058023	5.248137179810465	11.237726769373202	7.315323637949101	4.855680311353506	1	correct	1.0
378.7377087001223	8.147628600010648	nogo_punish	1.0	378.8429698999971	380.5165079999715	383.040514799999	1.6735380999743938	379.85255429986864	382.0206762000452	386.09979110001586	0.6639537001028657	1.0198385999538004	0.8908073999918997	385.08692769985646	0.4627416001167148	384.05815719999373	1	1	44	3	nogo_punish	1	-1	0	0	0	1	0	0.0	1.0	0	1.0	0.4627416001167148	48.93630950013176	427.77927940012887	428.7888638000004	429.45281750010327	430.956985700177	431.9768243001308	432.9944667001255	434.0232371999882	435.0361006001476	435.9269080001395	2020-02-08 09:54:31.543319	0.659550666718213	-3.24353452108768	-4.22950417808094	-4.66117581157167	-4.88905484479915	-4.22950417808094	-0.659550666718213	-4.22950417808094	-3.24353452108768	-4.22950417808094	-4.88905484479915	4.22950417808094	-10.875283966596724	-8.159580023490433	-7.138429399845543	-13.9371309406719	-13.664987822528882	-7.138429399845543	2.879446967238018	-15.839350594485573	-4.9640666278888474	-13.772164136346937	-1.5258452869890342	1	correct	1.0
386.92062949994585	8.338623600080552	nogo_reward	1.0	387.02589069982065	389.03579059988266	391.55801609996706	2.0098999000620097	388.04103429988027	390.5300543999765	394.6054256998468	0.9947563000023933	1.0279616999905556	0.7590886000543833	393.60082919988787	0.4128165000583976	392.5750748999417	1	1	45	1	nogo_reward	1	0	1	0	0	1	1	1.0	1.0	1	1.0	0.4128165000583976	48.93630950013176	435.9622001999524	436.977343800012	437.9721001000144	439.46636390010826	440.4943256000988	441.51138440007344	442.5371387000196	443.5417351999786	444.30082380003296	2020-02-08 09:54:31.543319	3.33793597525783	3.13799107725486	12.6927194240287	13.1589017256952	9.35478344877089	12.6927194240287	-3.33793597525783	12.6927194240287	3.13799107725486	12.6927194240287	9.35478344877089	20.080576345682395	-8.196898658057107	-1.778054425147893	9.783794202264097	3.882946596594971	0.578850471041159	9.783794202264097	18.730519134839472	1.082873007624066	9.279771665681192	3.150059465762702	4.855680311353506	1	correct	1.0
395.2989549001213	8.91054149996495	nogo_punish	1.0	395.4042160999961	397.8561195000074	400.3802120999898	2.451903400011304	396.41202019993216	399.3706183999311	403.44635009998456	1.4440993000752655	1.0095937000587014	0.868407499976513	402.43367820000276	0.7654639000538737	401.39943760004826	1	1	46	3	nogo_punish	1	-1	0	0	0	1	1	0.0	0.0	0	1.0	0.7654639000538737	48.93630950013176	444.3405256001279	445.3483297000639	446.7924290001392	448.3069279000629	449.3165216001216	450.33574710018	451.3699877001345	452.3826596001163	453.2510671000928	2020-02-08 09:54:31.543319	1.19422941767817	-3.24353452108768	-3.24353452108768	-3.62786448105429	-4.43776393876586	-3.24353452108768	-1.19422941767817	-3.24353452108768	-3.24353452108768	-3.24353452108768	-4.43776393876586	3.24353452108768	-10.340605215636767	-8.159580023490433	-6.152459742852283	-12.90381961015452	-13.213696916495591	-6.152459742852283	1.8934773102447582	-14.853380937492314	-4.512775721855557	-12.786194479353679	-1.5258452869890342	1	wrong	1.0
404.24198659998365	7.996074400143698	nogo_reward	1.0	404.34724779985845	405.78217769996263	408.3069382000249	1.43492990010418	405.352329300018	407.28714110003784	411.37367929983884	0.42984839994460344	1.019797099987045	0.9696429001633078	410.35892309993505	0.4461956000886857	409.32567269983707	1	1	47	1	nogo_reward	0	1	0	0	0	1	1	1.0	1.0	0	1.0	0.4461956000886857	48.93630950013176	453.2835572999902	454.2886388001498	454.7184872000944	456.2234506001696	457.24324770015664	458.2619821999688	459.2952326000668	460.3099887999706	461.2796317001339	2020-02-08 09:54:31.543319	5.69719780257628	3.13799107725486	16.9731921730809	17.3873673463205	11.2759943705047	16.9731921730809	-5.69719780257628	16.9731921730809	3.13799107725486	16.9731921730809	11.2759943705047	-16.9731921730809	-5.837636830738656	-1.778054425147893	14.064266951316297	8.11141221722027	2.5000613927749686	14.064266951316297	-18.323249383923823	5.3633457566762655	11.200982587415002	7.430532214814901	4.855680311353506	1	correct	1.0
412.2715396999847	8.45200840011239	nogo_reward	1.0	412.3768008998595	414.0655974999535	416.5946471998468	1.6887966000940082	413.37899550003937	415.56987509992905	419.64103930001147	0.6866019999141599	1.0247720999177545	1.1877699999604374	418.62809879984707	0.4518130999058485	417.5990974998567	1	1	48	1	nogo_reward	1	0	1	0	0	1	0	0.0	1.0	1	1.0	0.4518130999058485	48.93630950013176	461.3131103999913	462.3153050001711	463.0019070000853	464.5061846000608	465.53095669997856	466.5354069999885	467.5644082999788	468.5773488001432	469.76511880010366	2020-02-08 09:54:31.543319	3.52660971720368	3.13799107725486	12.8940749467339	13.2581833797738	9.36746522953026	12.8940749467339	-3.52660971720368	12.8940749467339	3.13799107725486	12.8940749467339	9.36746522953026	19.879220822977196	-8.008224916111256	-1.778054425147893	9.985149724969297	3.982228250673572	0.5915322518005297	9.985149724969297	18.529163612134273	1.2842285303292655	9.292453446440563	3.3514149884679014	4.855680311353506	1	correct	1.0
420.75933549995534	8.69908170006238	go_reward	0.4220211999490857	420.86459669983014	422.71480039996095	425.27585639990866	1.8502037001308054	421.869069499895	424.2508539999835	428.3204717999324	0.8457309000659734	1.0250023999251425	1.2432065999601036	427.30723139992915	0.5172437999863178	426.2897071999032	1	1	49	2	go_reward	1	1	0	1	1	1	0	1.0	0.0	1	0.4220211999490857	0.5172437999863178	48.93630950013176	469.8009061999619	470.80537900002673	471.6511099000927	473.1871635001153	474.2121659000404	475.22601670003496	476.2435409000609	477.2567813000642	478.4999879000243	2020-02-08 09:54:31.543319	42.5585931886606	29.2009875682872	0.0	29.2009875682872	42.5585931886606	0.0	-42.5585931886606	29.2009875682872	0.0	42.5585931886606	0.0	3.5723082014238976	31.023758555345665	24.284942065884447	-2.908925221764603	19.92503243918697	33.78266021093087	-2.908925221764603	2.2222509905809757	30.948746772255966	-0.07501178308969737	19.658327610021203	1.7176892340986458	1	wrong	1.0
429.49411950004287	7.839795500040054	go_reward	1.0	429.5993806999177	431.0747976999264	433.59991530003026	1.475417000008747	430.60606829985045	432.5792117998935	436.66125490004197	0.4687294000759721	1.020703500136733	0.7779212999157608	435.64590290002525	0.4194420001003891	434.61629939987324	1	1	50	2	go_reward	1	1	0	1	0	0	0	0.0	1.0	0	1.0	0.4194420001003891	48.93630950013176	478.53569020004943	479.5423777999822	480.0111072000582	481.5155213000253	482.536224800162	483.552608900005	484.582212400157	485.5975644001737	486.3754857000895	2020-02-08 09:54:31.543319	-43.3176689549944	29.7354397204048	0.0	29.7354397204048	43.3176689549944	0.0	43.3176689549944	0.0	29.7354397204048	0.0	43.3176689549944	0.0	-54.85250358830934	24.819394218002046	-2.908925221764603	20.45948459130457	34.54173597726467	-2.908925221764603	-1.3500572108429219	-11.609846416404634	43.2426571719047	-9.542659958265999	31.453128954503445	1	correct	1.0
437.3704222999513	8.193625800078735	go_reward	0.4608593001030385	437.4756834998261	438.8490251998882	441.3927338998764	1.3733417000620989	438.4899438000284	440.37622940004803	444.42589159985073	0.3590813998598037	1.016504499828386	1.243417700054124	443.41381349996664	0.4268791999202221	442.40100579988206	1	1	51	2	go_reward	1	1	0	1	1	1	1	1.0	1.0	1	0.4608593001030385	0.4268791999202221	48.93630950013176	486.4119929999579	487.42625330016017	487.78533470002	489.3125389001798	490.3290434000082	491.3373153000138	492.3501230000984	493.3622010999825	494.6056188000366	2020-02-08 09:54:31.543319	40.1657967414066	29.7354397204048	0.0	22.8723300658752	40.1657967414066	0.0	-40.1657967414066	29.7354397204048	0.0	40.1657967414066	0.0	3.037856049306299	28.630962108091666	24.819394218002046	-2.908925221764603	13.596374936774971	31.38986376367687	-2.908925221764603	1.6877988384633773	28.555950325001966	-0.07501178308969737	20.192779762138798	1.7176892340986458	1	correct	1.0
445.60002709995024	9.940932500176075	nogo_reward	1.0	445.70528829982504	448.67740960000083	451.20287229982205	2.972121300175786	446.72263059997937	450.1887880000286	454.24540899996646	1.9547790000214604	1.014084299793467	1.4008118000346599	453.2371483000461	0.51018390012905	452.20769779989496	1	1	52	1	nogo_reward	1	0	1	0	0	1	0	0.0	1.0	1	1.0	0.51018390012905	48.93630950013176	494.6415977999568	495.6589401001111	497.6137191001326	499.12509750016034	500.1391817999538	501.1440073000267	502.17345780017786	503.1817185000982	504.5825303001329	2020-02-08 09:54:31.543319	5.89608496960575	3.13799107725486	17.2115346515818	17.5296167389551	11.3154496819761	17.2115346515818	-5.89608496960575	17.2115346515818	3.13799107725486	17.2115346515818	11.3154496819761	15.561761118129297	-5.638749663709187	-1.778054425147893	14.302609429817197	8.25366160985487	2.5395167042463687	14.302609429817197	14.211703907286376	5.601688235177166	11.240437898886402	7.668874693315802	4.855680311353506	1	correct	1.0
455.57363100000657	9.14717540005222	nogo_reward	1.0	455.6788921998814	458.39668969996274	460.9244412998668	2.7177975000813603	456.6723176999949	459.91316389990976	463.9890751999337	1.7243719999678433	1.0112773999570663	0.8369923999998719	462.97633589990437	0.4398600000422448	461.94694309984334	1	1	53	1	nogo_reward	0	1	0	0	0	1	0	0.0	1.0	0	1.0	0.4398600000422448	48.93630950013176	504.61520170001313	505.60862720012665	507.3329992000945	508.8494734000415	509.8607507999986	510.8832525999751	511.9126454000361	512.9253847000655	513.7623771000654	2020-02-08 09:54:31.543319	7.68855948475163	3.13799107725486	20.4445357617622	20.7214189457931	12.7559762770106	20.4445357617622	-7.68855948475163	20.4445357617622	3.13799107725486	20.4445357617622	12.7559762770106	-20.4445357617622	-3.846275148563307	-1.778054425147893	17.5356105399976	11.445463816692872	3.9800432992808688	17.5356105399976	-21.794592972605123	8.834689345357566	12.680964493920902	10.901875803496202	4.855680311353506	1	correct	1.0
464.7555951999966	8.339478600071743	go_punish	1.0	464.8608563998714	466.84555319999345	469.37383299996145	1.9846968001220375	465.87697909981944	468.3506296998821	472.41654609981924	0.9685741001740098	1.0232033000793308	0.7837889001239091	471.40845340001397	0.4772397000342607	470.39359859982505	1	1	54	4	go_punish	1	0	-1	1	0	0	0	0.0	1.0	-1	1.0	0.4772397000342607	48.93630950013176	513.7971659000032	514.8132885999512	515.7818627001252	517.2869392000139	518.3101425000932	519.3299080999568	520.3447629001457	521.352855599951	522.1366445000749	2020-02-08 09:54:31.543319	-2.97250843688789	0.0	-3.51980429865874	-2.08009195292354	-0.547295861770848	-3.51980429865874	2.97250843688789	-3.51980429865874	0.0	-3.51980429865874	-0.547295861770848	-6.167506081803579	-14.507343070202825	-4.916045502402753	-6.428729520423343	-11.35604708202377	-9.32322883950058	-6.428729520423343	-7.517563292646502	-15.129650715063374	-0.6223076448605454	-13.062464256924738	1.7176892340986458	1	correct	1.0
473.12870949995704	8.686045400099829	nogo_reward	1.0	473.23397069983184	475.39741869992577	477.92420989996754	2.163448000093922	474.22608389984816	476.91260729986243	480.95776039990596	1.1713348000776023	1.0116026001051068	0.9622557000257075	479.95420269994065	0.4425176000222564	478.94220109982416	1	1	55	1	nogo_reward	0	1	0	0	0	1	1	1.0	1.0	0	1.0	0.4425176000222564	48.93630950013176	522.1702801999636	523.1623933999799	524.3337282000575	525.8489167999942	526.8605194000993	527.8785105999559	528.8905122000724	529.8940699000377	530.8563256000634	2020-02-08 09:54:31.543319	5.09395348648426	3.13799107725486	15.5937359347867	15.8343347507304	10.4997824483024	15.5937359347867	-5.09395348648426	15.5937359347867	3.13799107725486	15.5937359347867	10.4997824483024	-15.5937359347867	-6.440881146830677	-1.778054425147893	12.684810713022097	6.558379621630172	1.7238494705726684	12.684810713022097	-16.943793145629623	3.9838895183820657	10.424770665212701	6.051075976520702	4.855680311353506	1	correct	1.0
481.85514210001566	8.367099200142547	nogo_punish	1.0	481.96040329989046	483.75802790001035	486.2967743000481	1.7976246001198888	482.9768264000304	485.2732035999652	489.334082899848	0.781201499979943	1.023570700082928	0.9934196001850069	488.33017159998417	0.5103841000236571	487.3013708998915	1	1	56	3	nogo_punish	0	0	-1	0	0	1	0	0.0	1.0	-1	1.0	0.5103841000236571	48.93630950013176	530.8967128000222	531.9131359001622	532.6943374001421	534.209513100097	535.2330838001799	536.2376804000232	537.2664811001159	538.2703923999798	539.2638120001648	2020-02-08 09:54:31.543319	1.58540571741649	-3.24353452108768	-2.5187419130941	-2.85800731721257	-4.1041476305106	-2.5187419130941	-1.58540571741649	-2.5187419130941	-3.24353452108768	-2.5187419130941	-4.1041476305106	-7.168568467368219	-9.949428915898446	-8.159580023490433	-5.427667134858703	-12.133962446312799	-12.88008060824033	-5.427667134858703	-8.51862567821114	-14.128588329498735	-4.179159413600297	-12.061401871360099	-1.5258452869890342	1	correct	1.0
490.256175900111	8.528865800006315	go_punish	0.4630155998747796	490.3614370999858	492.2968321000226	494.84136309986934	1.9353950000368059	491.36907989997417	493.8202634998597	497.8813221999444	0.9277522000484169	1.0210996000096202	1.0089807000476867	496.87314089993015	0.8627774000633508	495.85092639992945	1	1	57	4	go_punish	1	0	-1	1	1	1	0	0.0	1.0	0	0.4630155998747796	0.8627774000633508	48.93630950013176	539.2977466001175	540.3053894001059	541.2331416001543	542.7565729999915	543.7776726000011	544.7872359000612	545.8094504000619	546.8176317000762	547.8266124001238	2020-02-08 09:54:31.543319	3.4720680658098	0.0	-4.68324686682288	-3.6184066137656	-1.21117880101308	-4.68324686682288	-3.4720680658098	0.0	-4.68324686682288	-1.21117880101308	-4.68324686682288	0.0	-8.062766567505136	-4.916045502402753	-7.592172088587483	-12.89436174286583	-9.987111778742811	-7.592172088587483	-1.3500572108429219	-12.821025217417715	-4.758258649912577	-9.542659958265999	-2.965557632724234	1	correct	1.0
498.8202233000193	8.154677900020033	go_punish	0.6648942001629621	498.9254844998941	500.25989490002394	502.8015415999107	1.3344104001298547	499.93198739993386	501.7806559999008	505.8483154999558	0.3279075000900775	1.0208856000099331	1.2318468999583274	504.84437799989246	0.6993602998554707	503.8153740998823	1	1	58	4	go_punish	0	-1	0	1	1	1	0	0.0	1.0	-1	0.6648942001629621	0.6993602998554707	48.93630950013176	547.8617940000258	548.8682969000656	549.1962044001557	550.7169655000325	551.7378511000425	552.7516836000141	553.7806875000242	554.7846250000875	556.0164719000459	2020-02-08 09:54:31.543319	3.83783416883489	0.0	-4.68324686682288	-2.78578219579542	-0.845412697987992	-4.68324686682288	-3.83783416883489	0.0	-4.68324686682288	-0.845412697987992	-4.68324686682288	-9.68731038046232	-7.6970004644800465	-4.916045502402753	-7.592172088587483	-12.061737324895649	-9.621345675717723	-7.592172088587483	-11.037367591305241	-12.455259114392627	-4.758258649912577	-9.542659958265999	-2.965557632724234	1	correct	1.0
507.0509715999942	9.253257600124925	nogo_punish	1.0	507.15623279986903	509.77147639985196	512.2863518998493	2.615243599982932	508.1640549998265	511.275261499919	515.3533367998898	1.607421400025487	1.0110903999302536	1.0561536001041532	514.3405786999501	0.4631062000989914	513.3046514999587	1	1	59	3	nogo_punish	1	-1	0	0	0	1	0	0.0	1.0	0	1.0	0.4631062000989914	48.93630950013176	556.0925423000008	557.1003644999582	558.7077858999837	560.2115710000508	561.222661399981	562.2409610000905	563.2768882000819	564.2896463000216	565.3457999001257	2020-02-08 09:54:31.543319	0.739161900237979	-3.24353452108768	-3.98200050721712	-4.2800271665478	-4.7211624074551	-3.98200050721712	-0.739161900237979	-3.98200050721712	-3.24353452108768	-3.98200050721712	-4.7211624074551	3.98200050721712	-10.795672733076957	-8.159580023490433	-6.890925728981723	-13.555982295648029	-13.497095385184831	-6.890925728981723	2.631943296374198	-15.591846923621755	-4.796174190544797	-13.52466046548312	-1.5258452869890342	1	correct	1.0
516.336512299953	8.694492400158197	nogo_reward	1.0	516.4417734998278	518.0922784998547	520.6216784999706	1.6505050000268966	517.4358132998459	519.6071603000164	523.6585243998561	0.6564652000088245	1.014518199954182	1.4777415001299232	522.6451622999739	0.524406700162217	521.6253696000203	1	1	60	1	nogo_reward	1	0	1	0	0	1	0	0.0	1.0	1	1.0	0.524406700162217	48.93630950013176	565.3780829999596	566.3721227999777	567.0285879999865	568.5434698001482	569.5579880001023	570.5616791001521	571.5814718001056	572.5948338999879	574.0725754001178	2020-02-08 09:54:31.543319	3.174915137295	3.13799107725486	12.0317348729884	12.2406975791745	8.85681973569344	12.0317348729884	-3.174915137295	12.0317348729884	3.13799107725486	12.0317348729884	8.85681973569344	20.741560896722696	-8.359919496019936	-1.778054425147893	9.122809651223797	2.9647424500742705	0.08088675796370914	9.122809651223797	19.391503685879773	0.4218884565837655	8.781807952603742	2.4890749147224014	4.855680311353506	1	correct	1.0
