onset	duration	trial_type	response_time	cueOnset	targetOnset	fbOnset	cueRT	firstfixOnset	secondfixOnset	waitOnset	firstfixdur	secondfixdur	waitdur	nback_fbOnset	nback_response_time	nback_targetOnset	block	wm	trial	cue	cond	is_common	outcome_go	outcome_nogo	key_correct	key_pressed	is_correct	key_correct_nback	key_pressed_nback	is_correct_nback	outcome	rt	rt_nback	time_scan	time_onset	time_isi1	time_circle	time_isi2	time_feedback	time_same	time_correct	time_iti	time_done	timestamp_scan	DV	Qgo	Qnogo	SV	Wgo	Wnogo	mDV	Qchosen	Qunchosen	Wchosen	Wunchosen	PE	DVC	QgoC	QnogoC	SVC	WgoC	WnogoC	PEC	WchosenC	WunchosenC	QchosenC	QunchosenC	run	outcome_nback	nback_targetResp
0.0	5.835772499907762	go_reward	0.4780629999004304	0.02756380010396242	1.3482685999479145	3.9422901000359616	1.320704799843952	1.0280748999211937	2.9087426001203767	4.958910800050944	0.32019370002672076	1.033547499915585	0.9044254999607801	n/a	1.0	n/a	2	0	61	2	go_reward	1	1	0	1	1	1	0	n/a	n/a	1	0.4780629999004304	1.0	1701.9123551000375	1701.9399189001415	1702.9404299999587	1703.2606236999854	1704.821097700158	1705.8546452000735	n/a	n/a	1706.8712659000885	1707.7756914000493	2020-02-08 10:22:04.510429	31.7739577817887	24.7903341517293	0.0	20.7552423836419	31.7739577817887	0.0	-31.7739577817887	24.7903341517293	0.0	31.7739577817887	0.0	7.982961617981797	20.239123148473762	19.874288649326548	-2.908925221764603	11.47928725454167	22.998024804058968	-2.908925221764603	6.632904407138875	20.164111365384066	-0.07501178308969737	15.247674193463302	1.7176892340986458	4	missed	0.0
5.956100399838988	6.360428400104638	nogo_punish	1.0	5.98366419994295	7.493309699930251	10.019033000105992	1.5096454999873004	6.993491499917582	9.007780899991985	11.022917000111192	0.49981820001266897	1.0112521001140067	1.3211755999363959	n/a	1.0	n/a	2	0	62	3	nogo_punish	1	-1	0	0	0	1	0	n/a	n/a	0	1.0	1.0	1701.9123551000375	1707.8960192999805	1708.905846599955	1709.4056647999678	1710.9201360000295	1711.9313881001435	n/a	n/a	1712.9352721001487	1714.2564477000851	2020-02-08 10:22:04.510429	5.43583036495185	-6.56334985274731	-1.17461695791688	-1.18264569495366	-6.61044732286873	-1.17461695791688	-5.43583036495185	-1.17461695791688	-6.56334985274731	-1.17461695791688	-6.61044732286873	1.17461695791688	-6.099004268363086	-11.479395355150062	-4.0835421796814835	-10.458600824053889	-15.38638030059846	-4.0835421796814835	-0.17544025292604193	-12.784463374321515	-6.685459105958427	-10.717276916182879	-4.8456606186486635	4	missed	0.0
12.3417040000204	6.3985026997982	nogo_reward	1.0	12.369267800124362	14.02862840006128	16.545934200054035	1.6593605999369174	13.379634300014004	15.521150199929252	17.555710799992085	0.6489941000472754	1.0247840001247823	1.212059699930478	n/a	1.0	n/a	2	0	63	1	nogo_reward	1	0	1	0	0	1	0	n/a	n/a	1	1.0	1.0	1701.9123551000375	1714.281622900162	1715.2919894000515	1715.9409835000988	1717.4335052999668	1718.4582893000916	n/a	n/a	1719.4680659000296	1720.68012559996	2020-02-08 10:22:04.510429	20.0974231735103	0.0	30.0498390631234	30.0498390631234	9.95241588961304	30.0498390631234	-20.0974231735103	30.0498390631234	0.0	30.0498390631234	9.95241588961304	2.7234567065876973	8.562588540195364	-4.916045502402753	27.140913841358795	20.77388393402317	1.1764829118833084	27.140913841358795	1.3733994957447755	18.439992646718764	9.877404106523342	20.5071791048574	1.7176892340986458	4	missed	0.0
18.786172499880195	7.342585900099948	go_reward	0.2578936000354588	18.813736299984157	21.237404100131243	23.788377600023523	2.4236678001470864	19.807936999946833	22.774417200125754	24.79746969998814	1.4294671001844108	1.013960399897769	1.3588525000959635	n/a	1.0	n/a	2	0	64	2	go_reward	1	1	0	1	1	1	0	n/a	n/a	1	0.2578936000354588	1.0	1701.9123551000375	1720.7260914000217	1721.7202920999844	1723.1497592001688	1724.6867723001633	1725.700732700061	n/a	n/a	1726.7098248000257	1728.0686773001216	2020-02-08 10:22:04.510429	37.1487363076439	28.4501282541993	0.0	26.2022227733166	37.1487363076439	0.0	-37.1487363076439	28.4501282541993	0.0	37.1487363076439	0.0	4.323167515511798	25.613901674328964	23.534082751796547	-2.908925221764603	16.92626764421637	28.37280332991417	-2.908925221764603	2.9731103046688765	25.538889891239265	-0.07501178308969737	18.9074682959333	1.7176892340986458	4	missed	0.0
26.17077609989792	7.5446252000983804	nogo_reward	1.0	26.198339900001884	28.721278599929065	31.239304200047627	2.522938699927181	27.19171699997969	30.215102900052443	32.241697299992666	1.5295615999493748	1.024201299995184	1.5012678001075983	n/a	1.0	n/a	2	0	65	1	nogo_reward	1	0	1	0	0	1	1	n/a	n/a	1	1.0	1.0	1701.9123551000375	1728.1106950000394	1729.1040721000172	1730.6336336999666	1732.12745800009	1733.1516593000852	n/a	n/a	1734.1540524000302	1735.6553202001378	2020-02-08 10:22:04.510429	20.8329119959536	0.0	31.1499752849616	31.1499752849616	10.317063289008	31.1499752849616	-20.8329119959536	31.1499752849616	0.0	31.1499752849616	10.317063289008	1.6233204847494989	9.298077362638665	-4.916045502402753	28.241050063196994	21.87402015586137	1.5411303112782697	28.241050063196994	0.273263273906577	19.540128868556963	10.242051505918303	21.6073153266956	1.7176892340986458	4	missed	0.0
33.76343399984762	7.533370099961758	go_reward	0.2383756998460739	33.79099779995158	36.26690479996614	38.88579670013837	2.4759070000145584	34.7907321001403	37.8560874001123	39.88550979993306	1.4761726998258382	1.0297093000260702	1.4388580999802798	n/a	1.0	n/a	2	0	66	2	go_reward	1	1	0	1	1	1	1	n/a	n/a	1	0.2383756998460739	1.0	1701.9123551000375	1735.703352899989	1736.7030872001778	1738.1792599000037	1739.7684425001498	1740.798151800176	n/a	n/a	1741.7978648999706	1743.2367229999509	2020-02-08 10:22:04.510429	39.9410626493997	30.3287004903012	0.0	29.0305172997782	39.9410626493997	0.0	-39.9410626493997	30.3287004903012	0.0	39.9410626493997	0.0	2.4445952794098993	28.40622801608476	25.412654987898446	-2.908925221764603	19.75456217067797	31.165129671669966	-2.908925221764603	1.0945380685669774	28.33121623299506	-0.07501178308969737	20.7860405320352	1.7176892340986458	4	missed	0.0
41.3263059000019	6.2246776998510995	nogo_reward	1.0	41.35386970010586	43.13802379998356	45.6628980000969	1.7841540998776964	42.366723200073466	44.64912459999323	46.661970100132976	0.7713005999100915	1.0137734001036733	0.9165772998239845	n/a	1.0	n/a	2	0	67	1	nogo_reward	1	0	1	0	0	1	1	n/a	n/a	1	1.0	1.0	1701.9123551000375	1743.2662248001434	1744.279078300111	1745.050378900021	1746.5614797000308	1747.5752531001344	n/a	n/a	1748.5743252001705	1749.4909024999945	2020-02-08 10:22:04.510429	21.246341377617	0.0	31.7746812664585	31.7746812664585	10.5283398888414	31.7746812664585	-21.246341377617	31.7746812664585	0.0	31.7746812664585	10.5283398888414	0.9986145032525968	9.711506744302064	-4.916045502402753	28.865756044693896	22.498726137358272	1.7524069111116685	28.865756044693896	-0.35144270759032503	20.164834850053865	10.453328105751702	22.2320213081925	1.7176892340986458	4	missed	0.0
47.579000500030816	6.977421499788761	nogo_reward	1.0	47.60656430013478	50.20929219992831	52.733719400129985	2.6027278997935355	48.60455120005645	51.71411369997077	53.74683990003541	1.604740999871865	1.019605700159218	0.837145899888128	n/a	1.0	n/a	2	0	68	1	nogo_reward	0	1	0	0	0	1	0	n/a	n/a	0	1.0	1.0	1701.9123551000375	1749.5189194001723	1750.516906300094	1752.1216472999658	1753.6264688000083	1754.6460745001675	n/a	n/a	1755.659195000073	1756.496340899961	2020-02-08 10:22:04.510429	21.4872824899121	0.0	32.1420441188028	32.1420441188028	10.6547616288906	32.1420441188028	-21.4872824899121	32.1420441188028	0.0	32.1420441188028	10.6547616288906	-32.1420441188028	9.952447856597164	-4.916045502402753	29.233118897038196	22.866088989702572	1.8788286511608696	29.233118897038196	-33.49210132964572	20.532197702398165	10.579749845800903	22.5993841605368	1.7176892340986458	4	missed	0.0
54.601549699902534	7.407401999924332	nogo_punish	1.0	54.6291135000065	57.098974799970165	59.635140399914235	2.469861299963668	55.63127969997004	58.61520210001618	60.64227980002761	1.4676951000001281	1.0199382998980582	1.39423569990322	n/a	1.0	n/a	2	0	69	3	nogo_punish	1	-1	0	0	0	1	0	n/a	n/a	0	1.0	1.0	1701.9123551000375	1756.541468600044	1757.5436348000076	1759.0113299000077	1760.5275572000537	1761.5474954999518	n/a	n/a	1762.5546349000651	1763.9488705999684	2020-02-08 10:22:04.510429	5.75268070210064	-6.56334985274731	-0.708884352995288	-0.714719033555888	-6.46156505509593	-0.708884352995288	-5.75268070210064	-0.708884352995288	-6.56334985274731	-0.708884352995288	-6.46156505509593	0.708884352995288	-5.782153931214297	-11.479395355150062	-3.617809574759891	-9.990674162656116	-15.23749803282566	-3.617809574759891	-0.6411728578476339	-12.318730769399922	-6.536576838185627	-10.251544311261286	-4.8456606186486635	4	missed	0.0
62.0330946999602	7.397933800006285	go_punish	0.3091567000374198	62.060658500064164	64.47990219993517	67.06398839992471	2.4192436998710036	63.060658199945465	66.05170039995573	68.07500530010998	1.4192439999897033	1.0122879999689758	1.383586999960471	n/a	1.0	n/a	2	0	70	4	go_punish	0	-1	0	1	1	1	0	n/a	n/a	-1	0.3091567000374198	1.0	1701.9123551000375	1763.9730136001017	1764.973013299983	1766.3922572999727	1767.9640554999933	1768.9763434999622	n/a	n/a	1769.9873604001475	1771.370947400108	2020-02-08 10:22:04.510429	7.40544311990247	-0.423420409590579	-7.80646396961628	-0.949489523332593	-0.401020849713807	-7.80646396961628	-7.40544311990247	-0.423420409590579	-7.80646396961628	-0.401020849713807	-7.80646396961628	-9.263889970871741	-4.129391513412466	-5.339465911993332	-10.715389191380883	-10.225444652432822	-9.176953827443539	-10.715389191380883	-10.613947181714662	-12.010867266118442	-7.881475752705977	-9.966080367856577	-6.088774735517633	4	missed	0.0
69.46185779990628	6.800928800133988	nogo_reward	1.0	69.48942160001025	71.70208339998476	74.23376150010154	2.212661799974512	70.489084900124	73.21963439998217	75.24356300011277	1.2129984998607597	1.0141271001193672	1.0467874000314623	n/a	1.0	n/a	2	0	71	1	nogo_reward	1	0	1	0	0	1	0	n/a	n/a	1	1.0	1.0	1701.9123551000375	1771.4017767000478	1772.4014400001615	1773.6144385000223	1775.1319895000197	1776.146116600139	n/a	n/a	1777.1559181001503	1778.2027055001818	2020-02-08 10:22:04.510429	11.2450008101377	0.0	17.2786187062399	17.2786187062399	6.03361789610213	17.2786187062399	-11.2450008101377	17.2786187062399	0.0	17.2786187062399	6.03361789610213	15.494677063471197	-0.2898338231772364	-4.916045502402753	14.369693484475297	8.002663577139671	-2.742315081627601	14.369693484475297	14.144619852628276	5.668772289835266	5.958606113012433	7.735958747973902	1.7176892340986458	4	missed	0.0
76.2863193999508	7.043387399986614	go_punish	0.2644538998138159	76.31388320005476	78.60578510002256	81.14605670003198	2.2919018999677974	77.32595390011556	80.13448909996077	82.15797020006016	1.2798311999069938	1.0115676000712028	1.1993003999812117	n/a	1.0	n/a	2	0	72	4	go_punish	1	0	-1	1	1	1	1	n/a	n/a	0	0.2644538998138159	1.0	1701.9123551000375	1778.2262383000923	1779.238309000153	1780.51814020006	1782.0468441999983	1783.0584118000695	n/a	n/a	1784.0703253000977	1785.269625700079	2020-02-08 10:22:04.510429	2.09027156090654	-4.56463284149562	-7.80646396961628	-4.9000290140912	-5.71619240870974	-7.80646396961628	-2.09027156090654	-4.56463284149562	-7.80646396961628	-5.71619240870974	-7.80646396961628	4.56463284149562	-9.444563072408396	-9.480678343898372	-10.715389191380883	-14.175984143191428	-14.492125386439472	-10.715389191380883	3.2145756306526985	-17.326038825114374	-7.881475752705977	-14.10729279976162	-6.088774735517633	4	missed	0.0
83.43262259988114	6.5669658000115305	go_reward	0.3459012000821531	83.4601863999851	85.52639689994976	88.09696290013358	2.0662104999646544	84.47731749992818	87.07316850009374	89.10613420000277	1.0490794000215828	1.023794400039833	0.9210179999938646	n/a	1.0	n/a	2	0	73	2	go_reward	1	1	0	1	1	1	0	n/a	n/a	1	0.3459012000821531	1.0	1701.9123551000375	1785.3725415000226	1786.3896725999657	1787.4387519999873	1788.9855236001313	1790.009318000171	n/a	n/a	1791.0184893000403	1791.9395073000342	2020-02-08 10:22:04.510429	41.4583593549916	31.3389777481573	0.0	30.5655881764669	41.4583593549916	0.0	-41.4583593549916	31.3389777481573	0.0	41.4583593549916	0.0	1.4343180215537963	29.923524721676664	26.42293224575455	-2.908925221764603	21.28963304736667	32.68242637726187	-2.908925221764603	0.08426081071087443	29.848512938586964	-0.07501178308969737	21.796317789891305	1.7176892340986458	4	missed	0.0
90.02805530000501	6.287480399943661	nogo_reward	1.0	90.05561910010897	91.55307759996504	94.08306779991858	1.4974584998560658	91.05493619991466	93.060329800006	95.09322239994071	0.4981414000503719	1.0227379999125787	1.2498771001119167	n/a	1.0	n/a	2	0	74	1	nogo_reward	1	0	1	0	0	1	0	n/a	n/a	1	1.0	1.0	1701.9123551000375	1791.9679742001465	1792.9672912999522	1793.4654327000026	1794.9726849000435	1795.995422899956	n/a	n/a	1797.0055774999782	1798.2554546000902	2020-02-08 10:22:04.510429	16.4943147168954	0.0	24.8085023089	24.8085023089	8.3141875920046	24.8085023089	-16.4943147168954	24.8085023089	0.0	24.8085023089	8.3141875920046	7.964793460811098	4.959480083580463	-4.916045502402753	21.8995770871354	15.53254717979977	-0.4617453857251306	21.8995770871354	6.6147362499681766	13.198655892495365	8.239175808914903	15.265842350634001	1.7176892340986458	4	missed	0.0
96.3587036000099	6.980134199839085	go_reward	0.2660403999034315	96.38626740011387	98.81712509994418	101.37586500006728	2.4308576998303124	97.38426250009798	100.3620126999449	102.39083619997837	1.432862599846203	1.0138523001223803	0.9755653999745846	n/a	1.0	n/a	2	0	75	2	go_reward	1	1	0	1	1	1	1	n/a	n/a	1	0.2660403999034315	1.0	1701.9123551000375	1798.2986225001514	1799.2966176001355	1800.7294801999817	1802.2743677999824	1803.2882201001048	n/a	n/a	1804.303191300016	1805.2787566999905	2020-02-08 10:22:04.510429	42.3152768266901	31.904527184677	0.0	31.4311352105828	42.3152768266901	0.0	-42.3152768266901	31.904527184677	0.0	42.3152768266901	0.0	0.8687685850340969	30.780442193375166	26.988481682274248	-2.908925221764603	22.15518008148257	33.53934384896037	-2.908925221764603	-0.4812886258088249	30.705430410285466	-0.07501178308969737	22.361867226411	1.7176892340986458	4	missed	0.0
103.36304760002531	6.387653699843213	go_punish	0.3274793999735266	103.39061140012927	105.23762440006249	107.7938818000257	1.847012999933213	104.39306690008357	106.77409860002808	108.80701659992337	0.8445574999789187	1.0197831999976188	0.9712485000491142	n/a	1.0	n/a	2	0	76	4	go_punish	1	0	-1	1	1	1	0	n/a	n/a	0	0.3274793999735266	1.0	1701.9123551000375	1805.3029665001668	1806.305422000121	1807.1499795001	1808.6864537000656	1809.7062369000632	n/a	n/a	1810.719371699961	1811.69062020001	2020-02-08 10:22:04.510429	4.89784350273587	-2.42037883757952	-7.80646396961628	-2.63871761712795	-2.90862046688041	-7.80646396961628	-4.89784350273587	-2.42037883757952	-7.80646396961628	-2.90862046688041	-7.80646396961628	2.42037883757952	-6.636991130579067	-7.336424339982273	-10.715389191380883	-11.91467274622818	-11.684553444610142	-10.715389191380883	1.070321626736598	-14.518466883285043	-7.881475752705977	-11.963038795845518	-6.088774735517633	4	missed	0.0
109.778162899893	7.148114399984252	go_punish	0.4702644001226872	109.80572669999697	111.9818685001228	114.52622170001291	2.1761418001258335	110.81074069999136	113.51373480004236	115.53891779994615	1.171127800131444	1.012486899970554	1.4149233000350705	n/a	1.0	n/a	2	0	77	4	go_punish	1	0	-1	1	1	1	0	n/a	n/a	0	0.4702644001226872	1.0	1701.9123551000375	1811.7180818000345	1812.723095800029	1813.8942236001603	1815.42608990008	1816.4385768000504	n/a	n/a	1817.4512728999837	1818.8661962000187	2020-02-08 10:22:04.510429	6.31842027210411	-1.34752140428315	-7.80646396961628	-1.49228862527882	-1.48804369751217	-7.80646396961628	-6.31842027210411	-1.34752140428315	-7.80646396961628	-1.48804369751217	-7.80646396961628	1.34752140428315	-5.216414361210827	-6.263566906685902	-10.715389191380883	-10.768243754379048	-10.263976675241901	-10.715389191380883	-0.002535806559771814	-13.097890113916804	-7.881475752705977	-10.890181362549148	-6.088774735517633	4	missed	0.0
116.95231710001849	6.174732899992023	go_punish	0.3794484999962151	116.97988090012245	118.66783290007152	121.20028749993048	1.687951999949064	117.98099840013288	120.17793520004489	122.20806719991401	0.6868344999386409	1.022352299885597	0.9465466002004632	n/a	1.0	n/a	2	0	78	4	go_punish	1	0	-1	1	1	1	1	n/a	n/a	0	0.3794484999962151	1.0	1701.9123551000375	1818.89223600016	1819.8933535001704	1820.580188000109	1822.0902903000824	1823.112642599968	n/a	n/a	1824.1204222999515	1825.066968900152	2020-02-08 10:22:04.510429	7.07585894374648	-0.781394042080038	-7.80646396961628	-0.878952060530676	-0.730605025869794	-7.80646396961628	-7.07585894374648	-0.781394042080038	-7.80646396961628	-0.730605025869794	-7.80646396961628	0.781394042080038	-4.458975689568456	-5.6974395444827906	-10.715389191380883	-10.154907189630904	-9.506538003599525	-10.715389191380883	-0.5686631687628838	-12.340451442274428	-7.881475752705977	-10.324054000346036	-6.088774735517633	4	missed	0.0
123.17192539991856	7.182201199932024	go_reward	0.2891228999942541	123.19948920002253	125.97702659992478	128.52070190012455	2.7775373999022577	124.205216099974	127.5083544999361	129.52221269998677	1.7718104999507887	1.012347400188446	0.8594776999677833	n/a	1.0	n/a	2	0	79	2	go_reward	1	1	0	1	1	1	0	n/a	n/a	1	0.2891228999942541	1.0	1701.9123551000375	1825.11184430006	1826.1175712000115	1827.8893816999623	1829.4207095999736	1830.433057000162	n/a	n/a	1831.4345678000243	1832.294045499992	2020-02-08 10:22:04.510429	42.815733093802	32.232341245861	0.0	31.935615915011	42.815733093802	0.0	-42.815733093802	32.232341245861	0.0	42.815733093802	0.0	0.5409545238500968	31.280898460487066	27.316295743458248	-2.908925221764603	22.65966078591077	34.03980011607227	-2.908925221764603	-0.8091026869928251	31.205886677397366	-0.07501178308969737	22.689681287595	1.7176892340986458	4	missed	0.0
130.4033274999822	6.958451299928356	go_reward	0.2972921999171376	130.43089130008616	132.3477767999284	134.89576530014165	1.9168854998422376	131.42882820009254	133.87917180010118	135.9055711000692	0.9189485998358577	1.0165935000404716	1.4837714999453055	n/a	1.0	n/a	2	0	80	2	go_reward	1	1	0	1	1	1	0	n/a	n/a	1	0.2972921999171376	1.0	1701.9123551000375	1832.3432464001237	1833.34118330013	1834.260131899966	1835.7915269001387	1836.8081204001792	n/a	n/a	1837.8179262001067	1839.301697700052	2020-02-08 10:22:04.510429	43.1167122121691	32.4282337652803	0.0	32.238308425213	43.1167122121691	0.0	-43.1167122121691	32.4282337652803	0.0	43.1167122121691	0.0	0.34506200443080104	31.58187757885416	27.512188262877544	-2.908925221764603	22.96235329611277	34.34077923443937	-2.908925221764603	-1.0049952064121208	31.506865795764462	-0.07501178308969737	22.885573807014296	1.7176892340986458	4	missed	0.0
137.38759920001053	6.586057899985235	nogo_reward	1.0	137.4151630001145	138.98602599999845	141.50884680007562	1.570862999883957	138.42460889997892	140.49202180001885	142.52362410002365	0.5614171000195256	1.0168250000567696	1.4775968000760713	n/a	1.0	n/a	2	0	81	1	nogo_reward	1	0	1	0	0	1	0	n/a	n/a	1	1.0	1.0	1701.9123551000375	1839.327518100152	1840.3369640000165	1840.898381100036	1842.4043769000564	1843.4212019001131	n/a	n/a	1844.4359792000612	1845.9135760001373	2020-02-08 10:22:04.510429	19.0080480262548	0.0	28.4652611484305	28.4652611484305	9.45721312217571	28.4652611484305	-19.0080480262548	28.4652611484305	0.0	28.4652611484305	9.45721312217571	4.308034621280598	7.473213392939865	-4.916045502402753	25.556335926665895	19.18930601933027	0.6812801444459797	25.556335926665895	2.957977410437676	16.855414732025864	9.382201339086013	18.9226011901645	1.7176892340986458	4	missed	0.0
143.99886789987818	6.500152700114768	go_punish	0.2863276998978108	144.02643169998214	145.83886160003044	148.37612619996094	1.8124299000483006	145.02755270013563	147.35103429993615	149.38596370001324	0.8113088998948115	1.0250919000247904	1.140620700083673	n/a	1.0	n/a	2	0	82	4	go_punish	0	-1	0	1	1	1	0	n/a	n/a	-1	0.2863276998978108	1.0	1701.9123551000375	1845.9387868000197	1846.9399078001732	1847.751216700068	1849.2633893999737	1850.2884812999985	n/a	n/a	1851.2983188000508	1852.4389395001344	2020-02-08 10:22:04.510429	7.49789501699893	-0.468981194958139	-7.80646396961628	-0.535683282352422	-0.308568952617349	-7.80646396961628	-7.49789501699893	-0.468981194958139	-7.80646396961628	-0.308568952617349	-7.80646396961628	-9.21832918550418	-4.0369396163160065	-5.385026697360892	-10.715389191380883	-9.811638411452652	-9.08450193034708	-10.715389191380883	-10.568386396347101	-11.918415369021984	-7.881475752705977	-10.011641153224138	-6.088774735517633	4	missed	0.0
150.52992799994536	5.769812699873228	nogo_reward	1.0	150.55749180004932	152.02091359999054	154.55403280002088	1.4634217999412158	151.55243510007858	153.5307038000317	155.56368139991537	0.4684784999119529	1.0233289999891895	0.7636231000071803	n/a	1.0	n/a	2	0	83	1	nogo_reward	1	0	1	0	0	1	1	n/a	n/a	1	1.0	1.0	1701.9123551000375	1852.4698469000868	1853.464790200116	1853.933268700028	1855.4430589000692	1856.4663879000584	n/a	n/a	1857.476036499953	1858.23965959996	2020-02-08 10:22:04.510429	20.2812398308966	0.0	30.3407518349998	30.3407518349998	10.0595120041032	30.3407518349998	-20.2812398308966	30.3407518349998	0.0	30.3407518349998	10.0595120041032	2.4325439347112976	8.746405197581662	-4.916045502402753	27.431826613235195	21.06479670589957	1.2835790263734683	27.431826613235195	1.0824867238683757	18.730905418595164	9.984500221013501	20.7980918767338	1.7176892340986458	4	missed	0.0
156.3232308998704	7.871947100153193	go_punish	0.2588686000090092	156.35079469997436	159.19827449996956	161.74824650003575	2.847479799995199	157.36352799995848	160.73745290003717	162.7612022000833	1.8347465000110788	1.0107935999985784	1.4615396000442615	n/a	1.0	n/a	2	0	84	4	go_punish	1	0	-1	1	1	1	1	n/a	n/a	0	0.2588686000090092	1.0	1701.9123551000375	1858.263149800012	1859.275883099996	1861.110629600007	1862.6498080000747	1863.6606016000733	n/a	n/a	1864.6735573001208	1866.135096900165	2020-02-08 10:22:04.510429	2.14671374141055	-4.59546857035704	-7.80646396961628	-4.64166912477417	-5.65975022820572	-7.80646396961628	-2.14671374141055	-4.59546857035704	-7.80646396961628	-5.65975022820572	-7.80646396961628	4.59546857035704	-9.388120891904386	-9.511514072759793	-10.715389191380883	-13.917624253874399	-14.435683205935451	-10.715389191380883	3.2454113595141183	-17.269596644610353	-7.881475752705977	-14.138128528623039	-6.088774735517633	4	missed	0.0
164.22317429981172	6.872504800092429	nogo_reward	1.0	164.25073809991568	166.1163367999252	168.64264380000532	1.8655987000095138	165.25802140007727	167.6223464999348	169.65519049996487	0.8583153998479247	1.0202973000705242	1.4680524000432342	n/a	1.0	n/a	2	0	85	1	nogo_reward	0	1	0	0	0	1	1	n/a	n/a	0	1.0	1.0	1701.9123551000375	1866.1630931999532	1867.1703765001148	1868.0286918999627	1869.5347015999723	1870.5549989000428	n/a	n/a	1871.5675456000024	1873.0355980000456	2020-02-08 10:22:04.510429	20.9576683917292	0.0	31.3483489242707	31.3483489242707	10.3906805325415	31.3483489242707	-20.9576683917292	31.3483489242707	0.0	31.3483489242707	10.3906805325415	-31.3483489242707	9.422833758414264	-4.916045502402753	28.439423702506097	22.07239379517047	1.6147475548117693	28.439423702506097	-32.69840613511362	19.738502507866066	10.315668749451802	21.805688966004702	1.7176892340986458	4	missed	0.0
171.12365419999696	6.398072599898796	nogo_reward	1.0	171.15121800010093	173.13871600013204	175.66370739997365	1.9874980000311098	172.1558489999734	174.65290129999607	176.6607798000332	0.9828670001586488	1.0108060999775716	0.8885107999665252	n/a	1.0	n/a	2	0	86	1	nogo_reward	0	1	0	0	0	1	0	n/a	n/a	0	1.0	1.0	1701.9123551000375	1873.0635731001385	1874.068204100011	1875.0510711001696	1876.5652564000336	1877.5760625000112	n/a	n/a	1878.5731349000707	1879.4616457000373	2020-02-08 10:22:04.510429	10.9449664024057	0.0	16.8255926121902	16.8255926121902	5.88062620978446	16.8255926121902	-10.9449664024057	16.8255926121902	0.0	16.8255926121902	5.88062620978446	-16.8255926121902	-0.5898682309092358	-4.916045502402753	13.916667390425596	7.54963748308997	-2.8953067679452706	13.916667390425596	-18.175649823033122	5.215746195785565	5.805614426694763	7.282932653924201	1.7176892340986458	4	missed	0.0
177.5469040998721	7.795938899973635	go_punish	0.2700386999640614	177.57446789997607	180.3440416001249	182.89493710012198	2.7695737001488396	178.58242819993757	181.87547209998615	183.90847719996236	1.7616134001873434	1.019465000135824	1.461929599987343	n/a	1.0	n/a	2	0	87	4	go_punish	1	0	-1	1	1	1	0	n/a	n/a	0	0.2700386999640614	1.0	1701.9123551000375	1879.4868230000136	1880.494783299975	1882.2563967001624	1883.7878272000237	1884.8072922001595	n/a	n/a	1885.8208323	1887.2827618999872	2020-02-08 10:22:04.510429	4.93298590855467	-2.44154034180118	-7.80646396961628	-2.47391687614819	-2.87347806106161	-7.80646396961628	-4.93298590855467	-2.44154034180118	-7.80646396961628	-2.87347806106161	-7.80646396961628	2.44154034180118	-6.601848724760266	-7.357585844203933	-10.715389191380883	-11.749872005248418	-11.64941103879134	-10.715389191380883	1.0914831309582582	-14.483324477466244	-7.881475752705977	-11.98420030006718	-6.088774735517633	4	missed	0.0
185.39905410003848	7.523254100000486	nogo_punish	1.0	185.42661790014245	188.18353900010698	190.70184629992605	2.7569210999645293	186.42585340002552	189.69137790007517	191.714509499958	1.7576856000814587	1.010468399850879	1.2353625001849196	n/a	1.0	n/a	2	0	88	3	nogo_punish	1	-1	0	0	0	1	0	n/a	n/a	0	1.0	1.0	1701.9123551000375	1887.33897300018	1888.338208500063	1890.0958941001445	1891.6037330001127	1892.6142013999636	n/a	n/a	1893.6268645999955	1894.8622271001805	2020-02-08 10:22:04.510429	5.93371948378504	-6.56334985274731	-0.440168206326303	-0.444440708778701	-6.37388769011134	-0.440168206326303	-5.93371948378504	-0.440168206326303	-6.56334985274731	-0.440168206326303	-6.37388769011134	0.440168206326303	-5.601115149529896	-11.479395355150062	-3.349093428090906	-9.72039583787893	-15.149820667841071	-3.349093428090906	-0.9098890045166188	-12.050014622730938	-6.448899473201037	-9.982828164592302	-4.8456606186486635	4	missed	0.0
192.96757919993252	6.10428630001843	nogo_punish	1.0	192.99514300003648	194.31863350002095	196.8603106001392	1.323490499984473	193.98988649994135	195.8347464001272	197.8713499000296	0.328747000079602	1.0255642000120133	1.2280794000253081	n/a	1.0	n/a	2	0	89	3	nogo_punish	0	0	-1	0	0	1	0	n/a	n/a	-1	1.0	1.0	1701.9123551000375	1894.907498100074	1895.9022415999789	1896.2309886000585	1897.7471015001647	1898.7726657001767	n/a	n/a	1899.7837050000671	1901.0117844000924	2020-02-08 10:22:04.510429	6.04059798258848	-6.56334985274731	-0.280129607480019	-0.28328027899056	-6.3207275900685	-0.280129607480019	-6.04059798258848	-0.280129607480019	-6.56334985274731	-0.280129607480019	-6.3207275900685	-9.4071807729823	-5.494236650726457	-11.479395355150062	-3.189054829244622	-9.559235408090789	-15.096660567798232	-3.189054829244622	-10.757237983825222	-11.889976023884653	-6.395739373158197	-9.822789565746017	-4.8456606186486635	4	missed	0.0
199.1158684999682	6.170763599919155	go_reward	0.3385753000620752	199.14343230007216	200.70233849994838	203.2562796000857	1.558906199876219	200.13968380005076	202.23315940005682	204.26593250012957	0.562654699897621	1.0231202000288704	1.048263399861753	n/a	1.0	n/a	2	0	90	2	go_reward	1	1	0	1	1	1	0	n/a	n/a	1	0.3385753000620752	1.0	1701.9123551000375	1901.0557874001097	1902.0520389000883	1902.614693599986	1904.1455145000944	1905.1686347001232	n/a	n/a	1906.178287600167	1907.2265510000288	2020-02-08 10:22:04.510429	43.3024630704154	32.5484744953304	0.0	32.4246300840098	43.3024630704154	0.0	-43.3024630704154	32.5484744953304	0.0	43.3024630704154	0.0	0.22482127438069455	31.767628437100463	27.63242899292765	-2.908925221764603	23.14867495490957	34.52653009268567	-2.908925221764603	-1.1252359364622273	31.692616654010763	-0.07501178308969737	23.005814537064403	1.7176892340986458	4	missed	0.0
205.35618059989042	6.0093052999584415	nogo_punish	1.0	205.38374439999438	206.96439859992802	209.49006250011735	1.5806541999336332	206.40084880008317	208.48023699992336	210.49374260008335	0.56354979984485	1.0098255001939833	0.8993070998694748	n/a	1.0	n/a	2	0	91	3	nogo_punish	1	-1	0	0	0	1	1	n/a	n/a	0	1.0	1.0	1701.9123551000375	1907.296099500032	1908.3132039001207	1908.8767536999655	1910.392592099961	1911.4024176001549	n/a	n/a	1912.4060977001209	1913.3054047999904	2020-02-08 10:22:04.510429	3.08964759812487	-6.56334985274731	-4.48773782678823	-4.49007649394702	-7.5773854249131	-4.48773782678823	-3.08964759812487	-4.48773782678823	-6.56334985274731	-4.48773782678823	-7.5773854249131	4.48773782678823	-8.445187035190067	-11.479395355150062	-7.396663048552833	-13.76603162304725	-16.35331840264283	-7.396663048552833	3.137680615945308	-16.097584243192863	-7.652397208002797	-14.030397785054229	-4.8456606186486635	4	missed	0.0
211.41058339993447	6.543626900064055	go_reward	0.3444402001332491	211.43814720003843	213.01159409992374	215.56652029999532	1.5734468998853117	212.4500573000405	214.54325590003282	216.56487899995454	0.5615367998832426	1.0232643999624997	1.41689510014794	n/a	1.0	n/a	2	0	92	2	go_reward	1	1	0	1	1	1	1	n/a	n/a	1	0.3444402001332491	1.0	1701.9123551000375	1913.350502300076	1914.362412400078	1914.9239491999613	1916.4556110000703	1917.4788754000328	n/a	n/a	1918.477234099992	1919.89412920014	2020-02-08 10:22:04.510429	43.4197537611921	32.6240497170732	0.0	32.541946716832	43.4197537611921	0.0	-43.4197537611921	32.6240497170732	0.0	43.4197537611921	0.0	0.14924605263789914	31.88491912787716	27.708004214670446	-2.908925221764603	23.265991587731772	34.64382078346237	-2.908925221764603	-1.2008111582050227	31.80990734478746	-0.07501178308969737	23.081389758807198	1.7176892340986458	4	missed	0.0
217.99501099996246	6.703820500057191	go_reward	0.3250818999949842	218.02257480006642	220.35697009996488	222.91511030006245	2.3343952998984605	219.02657600003295	221.89397830003895	223.91915450012334	1.3303940999319366	1.0211320000234991	0.8072408000002724	n/a	1.0	n/a	2	0	93	2	go_reward	0	0	1	1	1	1	0	n/a	n/a	0	0.3250818999949842	1.0	1701.9123551000375	1919.934929900104	1920.9389311000705	1922.2693252000024	1923.8063334000765	1924.8274654001	n/a	n/a	1925.8315096001609	1926.6387504001611	2020-02-08 10:22:04.510429	43.4953388874607	32.6725614985012	0.0	32.6173179591184	43.4953388874607	0.0	-43.4953388874607	32.6725614985012	0.0	43.4953388874607	0.0	-32.6725614985012	31.96050425414576	27.75651599609845	-2.908925221764603	23.341362830018173	34.719405909730966	-2.908925221764603	-34.02261870934412	31.88549247105606	-0.07501178308969737	23.129901540235203	1.7176892340986458	4	missed	0.0
224.74178499984555	6.249203700106591	go_reward	0.3817303997930139	224.7693487999495	226.1200045000296	228.66624639998213	1.3506557000800967	225.77675630012527	227.64187179994724	229.67500180006004	0.3432481999043375	1.0243746000348892	1.343550699996058	n/a	1.0	n/a	2	0	94	2	go_reward	1	1	0	1	1	1	1	n/a	n/a	1	0.3817303997930139	1.0	1701.9123551000375	1926.681703899987	1927.6891114001628	1928.0323596000671	1929.5542268999848	1930.5786015000197	n/a	n/a	1931.5873569000976	1932.9309076000936	2020-02-08 10:22:04.510429	23.7598643734457	17.6181640890405	0.0	17.580493681717	23.7598643734457	0.0	-23.7598643734457	17.6181640890405	0.0	23.7598643734457	0.0	15.155131680670596	12.225029740130765	12.702118586637749	-2.908925221764603	8.304538552616773	14.98393139571597	-2.908925221764603	13.805074469827675	12.150017957041067	-0.07501178308969737	8.075504130774503	1.7176892340986458	4	missed	0.0
231.02115409984253	5.92487260000803	nogo_reward	1.0	231.0487178999465	232.47398020001128	235.00626750010997	1.4252623000647873	232.05318620009348	233.98195990012005	236.0188345001077	0.4207939999178052	1.0243075999899247	0.9547559998468387	n/a	1.0	n/a	2	0	95	1	nogo_reward	1	0	1	0	0	1	0	n/a	n/a	1	1.0	1.0	1701.9123551000375	1932.961072999984	1933.965541300131	1934.3863353000488	1935.8943150001576	1936.9186226001475	n/a	n/a	1937.9311896001452	1938.885945599992	2020-02-08 10:22:04.510429	5.93240254681696	0.0	9.45680981856284	9.45680981856284	3.52440727174588	9.45680981856284	-5.93240254681696	9.45680981856284	0.0	9.45680981856284	3.52440727174588	23.31648595114826	-5.602432086497976	-4.916045502402753	6.547884596798237	0.18085468946261152	-5.251525705983851	6.547884596798237	21.966428740305336	-2.153036597841794	3.4493954886561826	-0.08585013970315813	1.7176892340986458	4	missed	0.0
236.97224759985693	6.7073278001043946	nogo_reward	1.0	236.9998113999609	238.91398910013936	241.44123949995287	1.9141777001784703	238.00877570011653	240.420974200126	242.45731680002086	0.9052134000228307	1.0202652998268604	1.2498224000444225	n/a	1.0	n/a	2	0	96	1	nogo_reward	1	0	1	0	0	1	0	n/a	n/a	1	1.0	1.0	1701.9123551000375	1938.9121664999984	1939.921130800154	1940.826344200177	1942.3333293001635	1943.3535945999904	n/a	n/a	1944.3696719000584	1945.6194943001028	2020-02-08 10:22:04.510429	13.6763809916688	0.0	20.6110332959065	20.6110332959065	6.93465230423767	20.6110332959065	-13.6763809916688	20.6110332959065	0.0	20.6110332959065	6.93465230423767	12.1622624738046	2.141546358353864	-4.916045502402753	17.702108074141897	11.33507816680627	-1.8412806734920606	17.702108074141897	10.812205262961678	9.001186879501864	6.859640521147973	11.0683733376405	1.7176892340986458	4	missed	0.0
243.7051913000182	6.714677699841104	go_punish	0.2792211000341922	243.73275510012218	245.7423833999785	248.28560760011896	2.009628299856331	244.74354190006852	247.26483170012943	249.2911439000161	0.9988414999099859	1.0207758999895304	1.1562888999471852	n/a	1.0	n/a	2	0	97	4	go_punish	1	0	-1	1	1	1	0	n/a	n/a	0	0.2792211000341922	1.0	1701.9123551000375	1945.6451102001597	1946.655897000106	1947.654738500016	1949.177186800167	1950.1979627001565	n/a	n/a	1951.2034990000536	1952.3597879000008	2020-02-08 10:22:04.510429	6.34068589415405	-1.36222625859436	-7.80646396961628	-1.38515672990008	-1.46577807546223	-7.80646396961628	-6.34068589415405	-1.36222625859436	-7.80646396961628	-1.46577807546223	-7.80646396961628	1.36222625859436	-5.1941487391608865	-6.278271760997113	-10.715389191380883	-10.661111859000309	-10.241711053191962	-10.715389191380883	0.012169047751438233	-13.075624491866865	-7.881475752705977	-10.904886216860358	-6.088774735517633	4	missed	0.0
250.47413380001694	6.488889999920275	nogo_punish	1.0	250.5016976001209	252.22237229999155	254.7543957000596	1.7206746998706421	251.50291369995125	253.7302381999325	255.75552430003881	0.7194586000402978	1.024157500127103	1.2350633000023663	n/a	1.0	n/a	2	0	98	3	nogo_punish	0	0	-1	0	0	1	0	n/a	n/a	-1	1.0	1.0	1701.9123551000375	1952.4140527001584	1953.4152687999888	1954.134727400029	1955.64259329997	1956.6667508000971	n/a	n/a	1957.6678794000763	1958.9029427000787	2020-02-08 10:22:04.510429	4.58529743007234	-6.56334985274731	-2.37845349925452	-2.38020009128493	-6.96375092932687	-2.37845349925452	-4.58529743007234	-2.37845349925452	-6.56334985274731	-2.37845349925452	-6.96375092932687	-7.3088568812078	-6.949537203242596	-11.479395355150062	-5.287378721019123	-11.656155220385159	-15.739683907056602	-5.287378721019123	-8.658914092050722	-13.988299915659155	-7.038762712416567	-11.92111345752052	-4.8456606186486635	4	missed	0.0
256.9880068998318	7.848896700190608	go_punish	0.2288794000633061	257.0155706999358	259.9871487999335	262.50663279998116	2.971578099997714	258.0262041999956	261.5055788999889	263.51099630002886	1.960944599937875	1.0010538999922574	1.3534711000975221	n/a	1.0	n/a	2	0	99	4	go_punish	1	0	-1	1	1	1	1	n/a	n/a	0	0.2288794000633061	1.0	1701.9123551000375	1958.9279257999733	1959.9385593000331	1961.899503899971	1963.4179340000264	1964.4189879000187	n/a	n/a	1965.4233514000664	1966.776822500164	2020-02-08 10:22:04.510429	7.09018693140677	-0.791728237964307	-7.80646396961628	-0.80812603907303	-0.716277038209503	-7.80646396961628	-7.09018693140677	-0.791728237964307	-7.80646396961628	-0.716277038209503	-7.80646396961628	0.791728237964307	-4.444647701908167	-5.70777374036706	-10.715389191380883	-10.08408116817326	-9.492210015939234	-10.715389191380883	-0.5583289728786148	-12.326123454614137	-7.881475752705977	-10.334388196230305	-6.088774735517633	4	missed	0.0
264.8685283998493	5.8636239999902955	nogo_reward	1.0	264.8960921999533	266.4494570000097	268.9786720001141	1.5533648000564426	265.9035837000704	267.955269899918	269.98072859994136	0.5458732999393305	1.0234021001961082	0.7789876000022105	n/a	1.0	n/a	2	0	100	1	nogo_reward	1	0	1	0	0	1	0	n/a	n/a	1	1.0	1.0	1701.9123551000375	1966.8084472999908	1967.815938800108	1968.3618121000472	1969.8676249999555	1970.8910271001516	n/a	n/a	1971.893083699979	1972.672071299981	2020-02-08 10:22:04.510429	17.44732999583	0.0	26.1166946052027	26.1166946052027	8.66936460937274	26.1166946052027	-17.44732999583	26.1166946052027	0.0	26.1166946052027	8.66936460937274	6.656601164508398	5.912495362515063	-4.916045502402753	23.207769383438098	16.84073947610247	-0.10656836835699046	23.207769383438098	5.306543953665477	14.506848188798065	8.594352826283043	16.574034646936703	1.7176892340986458	4	missed	0.0
270.7584289999213	7.296784899896011	go_punish	0.3762018999550491	270.78599280002527	273.51178729999856	276.0545546999201	2.72579449997329	271.78560269996524	275.04391769995004	277.0582725000568	1.7261846000333207	1.0106369999700746	1.0245051998645067	n/a	1.0	n/a	2	0	101	4	go_punish	1	0	-1	1	1	1	1	n/a	n/a	0	0.3762018999550491	1.0	1701.9123551000375	1972.6983479000628	1973.6979578000028	1975.424142400036	1976.9562727999876	1977.9669097999576	n/a	n/a	1978.9706276000943	1979.9951327999588	2020-02-08 10:22:04.510429	7.50724399132238	-0.476318679109672	-7.80646396961628	-0.488148941833725	-0.299219978293893	-7.80646396961628	-7.50724399132238	-0.476318679109672	-7.80646396961628	-0.299219978293893	-7.80646396961628	0.476318679109672	-4.027590641992557	-5.392364181512424	-10.715389191380883	-9.764104070933953	-9.075152956023624	-10.715389191380883	-0.8737385317332498	-11.909066394698527	-7.881475752705977	-10.018978637375671	-6.088774735517633	4	missed	0.0
278.0983104999177	6.406776600051671	go_reward	0.3768175998702645	278.1258743000217	279.97119800001406	282.526178400032	1.8453236999923774	279.12862329999916	281.51562920003175	283.53912839991926	0.8425747000148931	1.0105492000002414	0.9935225001540857	n/a	1.0	n/a	2	0	102	2	go_reward	0	0	1	1	1	1	0	n/a	n/a	0	0.3768175998702645	1.0	1701.9123551000375	1980.0382294000592	1981.0409784000367	1981.8835531000516	1983.4279843000693	1984.4385335000695	n/a	n/a	1985.4514834999568	1986.4450060001109	2020-02-08 10:22:04.510429	33.4156764328426	25.0305093571379	0.0	25.0045101197338	33.4156764328426	0.0	-33.4156764328426	25.0305093571379	0.0	33.4156764328426	0.0	-25.0305093571379	21.880841799527666	20.114463854735146	-2.908925221764603	15.728554990633572	24.63974345511287	-2.908925221764603	-26.38056656798082	21.805830016437966	-0.07501178308969737	15.4878493988719	1.7176892340986458	4	missed	0.0
284.56696309987456	5.96875310014002	nogo_punish	1.0	284.5945268999785	286.0674288999289	288.5920206999872	1.472901999950409	285.5993278999813	287.5724710000213	289.59323969995603	0.4681009999476373	1.0195496999658644	0.9700403001625091	n/a	1.0	n/a	2	0	103	3	nogo_punish	1	-1	0	0	0	1	0	n/a	n/a	0	1.0	1.0	1701.9123551000375	1986.506882000016	1987.5116830000188	1987.9797839999665	1989.4848261000589	1990.5043758000247	n/a	n/a	1991.5055947999936	1992.475635100156	2020-02-08 10:22:04.510429	2.30634567274564	-6.56334985274731	-5.63001886700491	-5.63133078383036	-7.93636453975056	-5.63001886700491	-2.30634567274564	-5.63001886700491	-6.56334985274731	-5.63001886700491	-7.93636453975056	5.63001886700491	-9.228488960569297	-11.479395355150062	-8.538944088769513	-14.90728591293059	-16.71229751748029	-8.538944088769513	4.279961656161989	-17.239865283409543	-8.011376322840258	-15.172678825270909	-4.8456606186486635	4	missed	0.0
290.58056619996205	6.78616610006452	nogo_punish	1.0	290.608130000066	292.45475100004137	294.98267640010454	1.8466209999753573	291.603323300136	293.9611935999708	295.9881695001384	0.8514276999053436	1.0214828001337537	1.4061265999921488	n/a	1.0	n/a	2	0	104	3	nogo_punish	1	-1	0	0	0	1	0	n/a	n/a	0	1.0	1.0	1701.9123551000375	1992.5204851001035	1993.5156784001736	1994.367106100079	1995.8735487000083	1996.895031500142	n/a	n/a	1997.900524600176	1999.306651200168	2020-02-08 10:22:04.510429	4.14534826203874	-6.56334985274731	-3.02638728380136	-3.02737803496999	-7.17173554584009	-3.02638728380136	-4.14534826203874	-3.02638728380136	-6.56334985274731	-3.02638728380136	-7.17173554584009	3.02638728380136	-7.389486371276196	-11.479395355150062	-5.935312505565963	-12.303333164070219	-15.94766852356982	-5.935312505565963	1.676330072958438	-14.636233700205995	-7.2467473289297875	-12.56904724206736	-4.8456606186486635	4	missed	0.0
297.3909517999273	6.295185300056119	go_punish	0.320587599882856	297.41851560003124	299.21042839996517	301.7685885000974	1.7919127999339253	298.42976920004	300.74805400008336	302.7830112001393	0.7806591999251395	1.020534500014037	0.9306896999480614	n/a	1.0	n/a	2	0	105	4	go_punish	1	0	-1	1	1	1	0	n/a	n/a	0	0.320587599882856	1.0	1701.9123551000375	1999.3308707000688	2000.3421243000776	2001.1227835000027	2002.660409100121	2003.680943600135	n/a	n/a	2004.6953663001768	2005.626056000125	2020-02-08 10:22:04.510429	7.74820178089262	-0.295138168044466	-7.80646396961628	-0.303742794371929	-0.0582621887236534	-7.80646396961628	-7.74820178089262	-0.295138168044466	-7.80646396961628	-0.0582621887236534	-7.80646396961628	0.295138168044466	-3.7866328524223167	-5.211183670447219	-10.715389191380883	-9.579697923472159	-8.834195166453384	-10.715389191380883	-1.0549190427984558	-11.668108605128287	-7.881475752705977	-9.837798126310464	-6.088774735517633	4	missed	0.0
303.7308960999362	6.17756099998951	nogo_punish	1.0	303.7584599000402	305.1229795999825	307.6490424999504	1.3645196999423206	304.76471189991526	306.6284036000725	308.6530305999329	0.35826770006724473	1.0206388998778948	1.2829903000967988	n/a	1.0	n/a	2	0	106	3	nogo_punish	1	-1	0	0	0	1	1	n/a	n/a	0	1.0	1.0	1701.9123551000375	2005.6708150000777	2006.6770669999528	2007.03533470002	2008.54075870011	2009.561397599988	n/a	n/a	2010.5653856999704	2011.8483760000672	2020-02-08 10:22:04.510429	5.06597960932539	-6.56334985274731	-1.70506311525894	-1.70581514183599	-6.77104272458433	-1.70506311525894	-5.06597960932539	-1.70506311525894	-6.56334985274731	-1.70506311525894	-6.77104272458433	1.70506311525894	-6.468855023989547	-11.479395355150062	-4.613988337023543	-10.981770270936218	-15.546975702314061	-4.613988337023543	0.3550059044160181	-13.314909531663574	-6.846054507674027	-11.247723073524938	-4.8456606186486635	4	missed	0.0
309.93733039987296	6.5052122001068255	go_punish	0.3316638998221606	309.9648941999769	311.6372859000694	314.1856029999908	1.6723917000924757	310.96209489996545	313.1625864999369	315.19548430014356	0.6751910001039505	1.0230165000539273	1.2746220999401885	n/a	1.0	n/a	2	0	107	4	go_punish	0	-1	0	1	1	1	1	n/a	n/a	-1	0.3316638998221606	1.0	1701.9123551000375	2011.8772493000145	2012.874450000003	2013.549641000107	2015.0749415999744	2016.0979581000283	n/a	n/a	2017.107839400181	2018.3824615001213	2020-02-08 10:22:04.510429	7.8919936587791	-0.187581208323631	-7.80646396961628	-0.193886865649361	0.0855296891628212	-7.80646396961628	-7.8919936587791	-0.187581208323631	-7.80646396961628	0.0855296891628212	-7.80646396961628	-9.49972917213869	-3.6428409745358366	-5.103626710726384	-10.715389191380883	-9.46984199474959	-8.69040328856691	-10.715389191380883	-10.84978638298161	-11.524316727241814	-7.881475752705977	-9.730241166589629	-6.088774735517633	4	missed	0.0
316.49251469993055	5.94225009996444	go_reward	0.3709201000165194	316.5200785000345	317.87605489999964	320.42108420003206	1.3559763999651295	317.52657470013946	319.4079841999337	321.434946499998	0.34948019986018153	1.0131000000983477	1.0273821000009775	n/a	1.0	n/a	2	0	108	2	go_reward	1	1	0	1	1	1	0	n/a	n/a	1	0.3709201000165194	1.0	1701.9123551000375	2018.432433600072	2019.438929800177	2019.7884100000372	2021.3203392999712	2022.3334393000696	n/a	n/a	2023.3473016000355	2024.3746837000365	2020-02-08 10:22:04.510429	18.3327792446913	13.5270410805919	0.0	13.5088992125312	18.3327792446913	0.0	-18.3327792446913	13.5270410805919	0.0	18.3327792446913	0.0	19.246254689119198	6.797944611376362	8.610995578189147	-2.908925221764603	4.23294408343097	9.556846266961568	-2.908925221764603	17.896197478276274	6.722932828286664	-0.07501178308969737	3.9843811223259014	1.7176892340986458	4	missed	0.0
322.4610617000144	6.41527899983339	go_punish	0.2779667999129742	322.48862550011836	324.15299380011857	326.6929792000449	1.6643683000002056	323.49757859995566	325.6828322999645	327.70784749998734	0.6554152001629063	1.0101469000803718	1.1960569999644122	n/a	1.0	n/a	2	0	109	4	go_punish	1	0	-1	1	1	1	1	n/a	n/a	0	0.2779667999129742	1.0	1701.9123551000375	2024.400980600156	2025.4099336999932	2026.065348900156	2027.595187400002	2028.6053343000824	n/a	n/a	2029.6202026000249	2030.8162595999893	2020-02-08 10:22:04.510429	2.38493336186377	-4.42747128107475	-7.80646396961628	-4.43212450927082	-5.42153060775251	-7.80646396961628	-2.38493336186377	-4.42747128107475	-7.80646396961628	-5.42153060775251	-7.80646396961628	4.42747128107475	-9.149901271451167	-9.343516783477503	-10.715389191380883	-13.70807963837105	-14.197463585482241	-10.715389191380883	3.077414070231828	-17.031377024157145	-7.881475752705977	-13.970131239340748	-6.088774735517633	4	missed	0.0
328.9318387999665	6.413969199872099	nogo_punish	1.0	328.95940260007046	330.36556100007147	332.8859846999401	1.4061584000010043	329.9707108999137	331.87315670005046	333.89547380013414	0.39485010015778244	1.0128279998896232	1.4778979998084196	n/a	1.0	n/a	2	0	110	3	nogo_punish	0	0	-1	0	0	1	0	n/a	n/a	-1	1.0	1.0	1701.9123551000375	2030.871757700108	2031.8830659999512	2032.277916100109	2033.785511800088	2034.7983397999776	n/a	n/a	2035.8078289001717	2037.28572689998	2020-02-08 10:22:04.510429	5.55202050241664	-6.56334985274731	-0.999084396459676	-0.999657973749394	-6.55110489887632	-0.999084396459676	-5.55202050241664	-0.999084396459676	-6.56334985274731	-0.999084396459676	-6.55110489887632	-8.688225984002644	-5.982814130898297	-11.479395355150062	-3.908009618224279	-10.275613102849622	-15.32703787660605	-3.908009618224279	-10.038283194845565	-12.60893081286431	-6.626116681966017	-10.541744354725674	-4.8456606186486635	4	missed	0.0
335.3881180000026	6.567193299997598	nogo_punish	1.0	335.41568180010654	337.4611544001384	339.99212169996485	2.0454726000318715	336.42409029998817	338.9677917000372	340.99300529994093	1.0370641001502463	1.0243299999276587	0.9898698001632056	n/a	1.0	n/a	2	0	111	3	nogo_punish	0	0	-1	0	0	1	0	n/a	n/a	-1	1.0	1.0	1701.9123551000375	2037.328036900144	2038.3364454000257	2039.373509500176	2040.8801468000747	2041.9044768000024	n/a	n/a	2042.9053603999785	2043.8952302001417	2020-02-08 10:22:04.510429	2.80450677615808	-6.56334985274731	-4.91077865403622	-4.91121812678594	-7.7152854301943	-4.91077865403622	-2.80450677615808	-4.91077865403622	-6.56334985274731	-4.91077865403622	-7.7152854301943	-4.776531726426099	-8.730327857156857	-11.479395355150062	-7.8197038758008235	-14.187173255886169	-16.49121840792403	-7.8197038758008235	-6.126588937269021	-16.520625070440854	-7.790297213283997	-14.453438612302218	-4.8456606186486635	4	missed	0.0
341.9856147998946	5.67593979998469	nogo_reward	1.0	342.0131785999986	343.373865300091	345.9060893000569	1.3606867000924012	343.01562620000936	344.88163079996616	346.9148248999845	0.35823910008161874	1.0244585000907591	0.7742934999987483	n/a	1.0	n/a	2	0	112	1	nogo_reward	1	0	1	0	0	1	0	n/a	n/a	1	1.0	1.0	1701.9123551000375	2043.925533700036	2044.927981300047	2045.2862204001285	2046.7939859000037	2047.8184444000944	n/a	n/a	2048.827180000022	2049.601473500021	2020-02-08 10:22:04.510429	19.3843726317687	0.0	28.9790469283489	28.9790469283489	9.59467429658026	28.9790469283489	-19.3843726317687	28.9790469283489	0.0	28.9790469283489	9.59467429658026	3.7942488413621973	7.849537998453762	-4.916045502402753	26.070121706584295	19.70309179924867	0.8187413188505293	26.070121706584295	2.4441916305192755	17.369200511944264	9.519662513490562	19.4363869700829	1.7176892340986458	4	missed	0.0
347.6929760000203	7.29773739981465	nogo_reward	1.0	347.72053980012424	350.27119250013493	352.7907189000398	2.550652700010687	348.7252362999134	351.76615649997257	353.8004069000017	1.5459562002215534	1.024562400067225	1.2178702999372035	n/a	1.0	n/a	2	0	113	1	nogo_reward	1	0	1	0	0	1	0	n/a	n/a	1	1.0	1.0	1701.9123551000375	2049.632894900162	2050.637591399951	2052.1835476001725	2053.67851160001	2054.7030740000773	n/a	n/a	2055.712762000039	2056.9306322999764	2020-02-08 10:22:04.510429	20.4256657473205	0.0	30.5342374188799	30.5342374188799	10.1085716715594	30.5342374188799	-20.4256657473205	30.5342374188799	0.0	30.5342374188799	10.1085716715594	2.239058350831197	8.890831114005564	-4.916045502402753	27.6253121971153	21.25828228977967	1.3326386938296686	27.6253121971153	0.8890011399882751	18.924391002475268	10.033559888469702	20.991577460613904	1.7176892340986458	4	missed	0.0
355.0154063999653	5.829961499897763	go_punish	0.4895483998116106	355.04297020006925	356.3284601001069	358.91187570011243	1.2854899000376463	356.0482127999426	357.87141010002233	359.91970470012166	0.2802473001643193	1.0404656000901014	0.9532269998453557	n/a	1.0	n/a	2	0	114	4	go_punish	1	0	-1	1	1	1	0	n/a	n/a	0	0.4895483998116106	1.0	1701.9123551000375	2056.955325300107	2057.96056789998	2058.2408152001444	2059.78376520006	2060.82423080015	n/a	n/a	2061.832059800159	2062.7852868000045	2020-02-08 10:22:04.510429	5.0808727874657	-2.33849871668911	-7.80646396961628	-2.34195490048511	-2.72559118215057	-7.80646396961628	-5.0808727874657	-2.33849871668911	-7.80646396961628	-2.72559118215057	-7.80646396961628	2.33849871668911	-6.4539618458492365	-7.254544219091862	-10.715389191380883	-11.617910029585339	-11.5015241598803	-10.715389191380883	0.988441505846188	-14.335437598555204	-7.881475752705977	-11.881158674955108	-6.088774735517633	4	missed	0.0
360.95747399982065	7.303990500047803	go_reward	0.3908901000395417	360.9850377999246	363.3470372001175	365.8893301000353	2.3619994001928717	361.99506639991887	364.8755779999774	366.89848079998046	1.3519708001986146	1.0137521000579	1.3905474999919534	n/a	1.0	n/a	2	0	115	2	go_reward	1	1	0	1	1	1	0	n/a	n/a	1	0.3908901000395417	1.0	1701.9123551000375	2062.897392899962	2063.9074214999564	2065.259392300155	2066.787933100015	2067.801685200073	n/a	n/a	2068.810835900018	2070.20138340001	2020-02-08 10:22:04.510429	30.3703760808415	22.7460536467429	0.0	22.733267286712	30.3703760808415	0.0	-30.3703760808415	22.7460536467429	0.0	30.3703760808415	0.0	10.027242122968197	18.835541447526563	17.830008144340148	-2.908925221764603	13.45731215761177	21.594443103111768	-2.908925221764603	8.677184912125275	18.760529664436866	-0.07501178308969737	13.203393688476902	1.7176892340986458	4	missed	0.0
368.2930338999722	7.338982200017199	nogo_reward	1.0	368.3205977000762	371.0268320001196	373.5559106001165	2.706234300043434	369.31742520001717	372.5331228000582	374.5565104000275	1.7094068001024425	1.0227878000582677	1.1030695000658852	n/a	1.0	n/a	2	0	116	1	nogo_reward	1	0	1	0	0	1	0	n/a	n/a	1	1.0	1.0	1701.9123551000375	2070.2329528001137	2071.2297803000547	2072.939187100157	2074.4454779000957	2075.468265700154	n/a	n/a	2076.468865500065	2077.571935000131	2020-02-08 10:22:04.510429	21.0077630756884	0.0	31.4118531915582	31.4118531915582	10.4040901158698	31.4118531915582	-21.0077630756884	31.4118531915582	0.0	31.4118531915582	10.4040901158698	1.3614425781528965	9.472928442373462	-4.916045502402753	28.502927969793596	22.135898062457972	1.6281571381400681	28.502927969793596	0.011385367309974637	19.802006775153565	10.329078332780101	21.8691932332922	1.7176892340986458	4	missed	0.0
375.6594131998718	6.682056100107729	nogo_reward	1.0	375.68697699997574	377.4797342000529	380.0202568001114	1.792757200077176	376.69423809996806	378.99690199992665	381.02038870006754	0.7854961000848562	1.023354800184734	1.3486444000159281	n/a	1.0	n/a	2	0	117	1	nogo_reward	1	0	1	0	0	1	0	n/a	n/a	1	1.0	1.0	1701.9123551000375	2077.5993321000133	2078.6065932000056	2079.3920893000904	2080.909257099964	2081.932611900149	n/a	n/a	2082.932743800105	2084.281388200121	2020-02-08 10:22:04.510429	21.3444026161259	0.0	31.9236687810825	31.9236687810825	10.5792661649566	31.9236687810825	-21.3444026161259	31.9236687810825	0.0	31.9236687810825	10.5792661649566	0.8496269886285965	9.809567982810965	-4.916045502402753	29.0147435593179	22.647713651982272	1.803333187226869	29.0147435593179	-0.5004302222143253	20.31382236467787	10.504254381866902	22.381008822816504	1.7176892340986458	4	missed	0.0
382.3676960999146	6.91443459992297	go_punish	0.3221418999601155	382.3952599000186	384.3697202000767	386.92250950005837	1.9744603000581264	383.40220979996957	385.9015051999595	387.92525700014085	0.9675104001071304	1.0210043000988662	1.384437499800697	n/a	1.0	n/a	2	0	118	4	go_punish	1	0	-1	1	1	1	0	n/a	n/a	0	0.3221418999601155	1.0	1701.9123551000375	2084.307615000056	2085.314564900007	2086.2820753001142	2087.813860299997	2088.834864600096	n/a	n/a	2089.8376121001784	2091.222049599979	2020-02-08 10:22:04.510429	6.43465634441335	-1.2975149430736	-7.80646396961628	-1.30009764557725	-1.37180762520293	-7.80646396961628	-6.43465634441335	-1.2975149430736	-7.80646396961628	-1.37180762520293	-7.80646396961628	1.2975149430736	-5.100178288901587	-6.213560445476353	-10.715389191380883	-10.576052774677478	-10.147740602932661	-10.715389191380883	-0.052542267769321915	-12.981654041607564	-7.881475752705977	-10.840174901339598	-6.088774735517633	4	missed	0.0
389.31067969999276	6.1733305000234395	go_punish	1.0	389.3382435000967	390.7712324000895	393.28641299996525	1.432988899992779	390.3421412999746	392.27631799993105	394.2999818001408	0.4290911001148743	1.0100950000341982	1.21159219997935	n/a	1.0	n/a	2	0	119	4	go_punish	0	-1	0	1	0	0	0	n/a	n/a	0	1.0	1.0	1701.9123551000375	2091.2505986001343	2092.254496400012	2092.683587500127	2094.1886730999686	2095.198768100003	n/a	n/a	2096.2123369001783	2097.4239291001577	2020-02-08 10:22:04.510429	-7.15113149802724	-0.750235372081894	-7.80646396961628	-0.752176364300534	-0.655332471589032	-7.80646396961628	7.15113149802724	-7.80646396961628	-0.750235372081894	-7.80646396961628	-0.655332471589032	7.80646396961628	-18.685966131342177	-5.666280874484647	-10.715389191380883	-10.028131493400762	-9.431265449318763	-10.715389191380883	6.456406758773358	-19.416310386020914	-0.7303442546787293	-17.349123927882278	0.9674538620167519	4	missed	0.0
395.53110259980895	6.930111500201747	go_reward	0.3543006998952478	395.5586663999129	398.1295636000582	400.714838600019	2.570897200145282	396.5626381000038	399.70011610002257	401.72459809994325	1.5669255000543671	1.0147224999964237	0.7641798001714051	n/a	1.0	n/a	2	0	120	2	go_reward	1	1	0	1	1	1	0	n/a	n/a	1	0.3543006998952478	1.0	1701.9123551000375	2097.4710214999504	2098.4749932000414	2100.0419187000957	2101.61247120006	2102.6271937000565	n/a	n/a	2103.636953199981	2104.401133000152	2020-02-08 10:22:04.510429	36.3475980452719	27.2907427150173	0.0	27.2816479629594	36.3475980452719	0.0	-36.3475980452719	27.2907427150173	0.0	36.3475980452719	0.0	5.482553054693799	24.812763411956965	22.374697212614546	-2.908925221764603	18.00569283385917	27.57166506754217	-2.908925221764603	4.132495843850878	24.737751628867265	-0.07501178308969737	17.7480827567513	1.7176892340986458	4	missed	0.0
