onset	duration	trial_type	response_time	cueOnset	targetOnset	fbOnset	cueRT	firstfixOnset	secondfixOnset	waitOnset	firstfixdur	secondfixdur	waitdur	nback_fbOnset	nback_response_time	nback_targetOnset	block	wm	trial	cue	cond	is_common	outcome_go	outcome_nogo	key_correct	key_pressed	is_correct	key_correct_nback	key_pressed_nback	is_correct_nback	outcome	rt	rt_nback	time_scan	time_onset	time_isi1	time_circle	time_isi2	time_feedback	time_same	time_correct	time_iti	time_done	timestamp_scan	DV	Qgo	Qnogo	SV	Wgo	Wnogo	mDV	Qchosen	Qunchosen	Wchosen	Wunchosen	PE	DVC	QgoC	QnogoC	SVC	WgoC	WnogoC	PEC	WchosenC	WunchosenC	QchosenC	QunchosenC	run	outcome_nback	nback_targetResp
0.0	9.128758700098842	go_punish	0.4063320998102426	0.0272834999486804	2.3038616001140326	4.846529900096357	2.2765781001653522	1.0210516001097858	3.834662500070408	7.912467800080776	1.2828100000042468	1.0118674000259489	1.2435743999667466	6.90399880008772	0.7526416999753565	5.860906299902126	1	1	61	4	go_punish	1	0	-1	1	1	1	0	0.0	1.0	0	0.4063320998102426	0.7526416999753565	639.335700500058	639.3629840000067	640.3567521001678	641.639562100172	643.1703630001284	644.1822304001544	645.1966067999601	646.2396993001457	647.2481683001388	648.4917427001055	2020-02-08 10:04:21.936628	1.23540918079311	-2.00316136532912	-4.68324686682288	-4.17476991592372	-3.44783768602978	-4.68324686682288	-1.23540918079311	-2.00316136532912	-4.68324686682288	-3.44783768602978	-4.68324686682288	2.00316136532912	-10.299425452521827	-6.919206867731873	-7.592172088587483	-13.45072504502395	-12.223770663759511	-7.592172088587483	0.653104154486198	-15.057684102434415	-4.758258649912577	-11.545821323595119	-2.965557632724234	2	correct	1.0
9.16283809999004	8.686851300066337	nogo_reward	1.0	9.19012159993872	10.920500200008973	13.451531199971214	1.730378600070253	10.206629700027406	12.436480300035328	16.492974400054663	0.7138704999815673	1.0150508999358863	1.383998499950394	15.490469499956816	0.5334878999274224	14.460793700069189	1	1	62	1	nogo_reward	1	0	1	0	0	1	1	0.0	0.0	1	1.0	0.5334878999274224	639.335700500058	648.5258220999967	649.5423302000854	650.256200700067	651.7721808000933	652.7872317000292	653.7964942001272	654.8261700000148	655.8286749001127	657.2126734000631	2020-02-08 10:04:21.936628	5.70627788577905	3.13799107725486	16.6873990463695	16.8689485483327	10.9811211605905	16.6873990463695	-5.70627788577905	16.6873990463695	3.13799107725486	16.6873990463695	10.9811211605905	16.085896723341598	-5.828556747535886	-1.778054425147893	13.778473824604896	7.592993419232471	2.20518818286077	13.778473824604896	14.735839512498677	5.077552629964865	10.906109377500803	7.144739088103501	4.855680311353506	2	wrong	1.0
17.883444300154224	8.47149319993332	go_punish	0.8593117999844253	17.910727800102904	19.58383130002767	22.141525400104	1.673103499924764	18.927613799925894	21.115639199968427	25.19497000006959	0.6562175001017749	1.0258862001355737	1.1872509999666363	24.1816026000306	0.3123334001284092	23.152869699988514	1	1	63	4	go_punish	1	0	-1	1	1	1	1	1.0	1.0	0	0.8593117999844253	0.3123334001284092	639.335700500058	657.2464283001609	658.2633142999839	658.9195318000857	660.4513397000264	661.477225900162	662.4885702000465	663.5173031000886	664.5306705001276	665.7179215000942	2020-02-08 10:04:21.936628	2.1362287390684	-1.51664293332962	-4.68324686682288	-3.22917084314897	-2.54701812775448	-4.68324686682288	-2.1362287390684	-1.51664293332962	-4.68324686682288	-2.54701812775448	-4.68324686682288	1.51664293332962	-9.398605894246536	-6.432688435732373	-7.592172088587483	-12.5051259722492	-11.322951105484211	-7.592172088587483	0.16658572248669823	-14.156864544159115	-4.758258649912577	-11.05930289159562	-2.965557632724234	2	correct	1.0
26.390060600126162	8.4896996000316	nogo_reward	1.0	26.417344100074843	27.93244790006429	30.452899100026116	1.515103799989447	27.43268599989824	29.438604699913412	33.49921909999102	0.4997619001660496	1.0142944001127034	1.4078246001154184	32.48627540003508	0.4629042998421937	31.457310399971902	1	1	64	1	nogo_reward	1	0	1	0	0	1	1	1.0	1.0	1	1.0	0.4629042998421937	639.335700500058	665.7530446001329	666.7683864999563	667.2681484001223	668.7743051999714	669.7885996000841	670.7930109000299	671.8219759000931	672.834919600049	674.2427442001645	2020-02-08 10:04:21.936628	7.60240688864715	3.13799107725486	20.1418999052947	20.299781569037	12.5394930166476	20.1418999052947	-7.60240688864715	20.1418999052947	3.13799107725486	20.1418999052947	12.5394930166476	12.631395864416398	-3.9324277446677867	-1.778054425147893	17.232974683530095	11.02382643993677	3.76356003891787	17.232974683530095	11.281338653573476	8.532053488890066	12.464481233557903	10.599239947028702	4.855680311353506	2	correct	1.0
34.914431900018826	8.220285899937153	go_punish	1.0	34.94171539996751	36.31190839991905	38.84303990006447	1.3701929999515414	35.9511049001012	37.82690290012397	41.91240409994498	0.3608034998178482	1.0161369999404997	1.2495971999596804	40.89385450002737	0.3883340000174939	39.85984480008483	1	1	65	4	go_punish	0	-1	0	1	0	0	1	1.0	1.0	0	1.0	0.3883340000174939	639.335700500058	674.2774159000255	675.2868054001592	675.6476088999771	677.162603400182	678.1787404001225	679.1955453001428	680.2295550000854	681.248104600003	682.4977017999627	2020-02-08 10:04:21.936628	-2.79403515263176	-1.16344256816415	-4.68324686682288	-2.52851478034995	-1.88921171419112	-4.68324686682288	2.79403515263176	-4.68324686682288	-1.16344256816415	-4.68324686682288	-1.88921171419112	4.68324686682288	-14.328869785946697	-6.079488070566903	-7.592172088587483	-11.804469909450178	-10.665144691920851	-7.592172088587483	3.333189655979958	-16.293093283227513	-1.9642234972808175	-14.225906825088877	0.5542466659344958	2	correct	1.0
43.17665380006656	9.765355299925432	nogo_punish	1.0	43.20393730001524	45.96961529995315	48.50738069997169	2.765677999937907	44.208788899937645	47.48652880010195	51.554279499920085	1.7608264000155032	1.02085189986974	1.4150131000205874	50.54913690011017	0.480280099902302	49.52386990003288	1	1	66	3	nogo_punish	1	-1	0	0	0	1	0	0.0	1.0	0	1.0	0.480280099902302	639.335700500058	682.5396378000733	683.5444893999957	685.3053158000112	686.82222930016	687.8430812000297	688.8595704000909	689.8848374001682	690.8899799999781	692.3049930999987	2020-02-08 10:04:21.936628	1.2275452173438	-3.24353452108768	-3.08825793535399	-3.34939698242025	-4.31580315269779	-3.08825793535399	-1.2275452173438	-3.08825793535399	-3.24353452108768	-3.08825793535399	-4.31580315269779	3.08825793535399	-10.307289415971137	-8.159580023490433	-5.997183157118593	-12.62535211152048	-13.09173613042752	-5.997183157118593	1.738200724511068	-14.698104351758625	-4.390814935787487	-12.630917893619989	-1.5258452869890342	2	correct	1.0
52.980668700067326	8.613309799926355	nogo_punish	1.0	53.00795220001601	54.570206000003964	57.090064600110054	1.5622537999879569	54.020392700098455	56.07084850012325	60.13439809996635	0.5498132999055088	1.0192160999868065	1.486863899976015	59.11705469992012	0.7250022999942303	58.10314700007439	1	1	67	3	nogo_punish	0	0	-1	0	0	1	0	0.0	1.0	-1	1.0	0.7250022999942303	639.335700500058	692.343652700074	693.3560932001565	693.905906500062	695.4065490001813	696.4257651001681	697.4388475001324	698.4527551999781	699.4700986000244	700.9569625000004	2020-02-08 10:04:21.936628	1.59051372370743	-3.24353452108768	-2.42427649359821	-2.65286849151076	-4.01479021730564	-2.42427649359821	-1.59051372370743	-2.42427649359821	-3.24353452108768	-2.42427649359821	-4.01479021730564	-7.263033886864109	-9.944320909607507	-8.159580023490433	-5.333201715362813	-11.928823620610988	-12.79072319503537	-5.333201715362813	-8.61309109770703	-14.034122910002845	-4.089802000395337	-11.966936451864209	-1.5258452869890342	2	correct	1.0
61.62917249999009	8.151799600105733	go_punish	1.0	61.65645599993877	63.007072400068864	65.53855330008082	1.350616400130093	62.662729900097474	64.51387559995055	68.60357109992765	0.34434249997138977	1.024677700130269	1.204684500116855	67.59123859996907	0.3620120999403298	66.56114690005779	1	1	68	4	go_punish	1	0	-1	1	0	0	0	0.0	1.0	-1	1.0	0.3620120999403298	639.335700500058	700.9921564999968	701.9984304001555	702.3427729001269	703.8495761000086	704.8742538001388	705.8968474001158	706.9269391000271	707.9392715999857	709.1439561001025	2020-02-08 10:04:21.936628	-1.9213464962554	-1.16344256816415	-3.58358216615139	-2.00249510623796	-1.66223566989599	-3.58358216615139	1.9213464962554	-3.58358216615139	-1.16344256816415	-3.58358216615139	-1.66223566989599	-6.10372821431093	-13.456181129570336	-6.079488070566903	-6.4925073879159925	-11.27845023533819	-10.438168647625721	-6.4925073879159925	-7.453785425153852	-15.193428582556024	-1.7372474529856874	-13.126242124417388	0.5542466659344958	2	correct	1.0
69.81878870003857	8.846093599917367	go_punish	0.3579694000072777	69.84607219998725	71.66116899996996	74.29587720008567	1.8150967999827117	70.84979599993676	73.26954229990952	77.34924579993822	0.8113730000331998	1.0263349001761526	1.3429199999663979	76.33543589990586	0.6235724999569356	75.31064900010824	1	1	69	4	go_punish	0	-1	0	1	1	1	0	0.0	1.0	-1	0.3579694000072777	0.6235724999569356	639.335700500058	709.1817727000453	710.1854964999948	710.996869500028	712.6052427999675	713.6315777001437	714.6463495001663	715.6711363999639	716.6849462999962	718.0278662999626	2020-02-08 10:04:21.936628	2.4218768207458	-1.16344256816415	-4.77980047757309	-3.60584663878847	-2.35792365682729	-4.77980047757309	-2.4218768207458	-1.16344256816415	-4.77980047757309	-2.35792365682729	-4.77980047757309	-8.52386781229817	-9.112957812569137	-6.079488070566903	-7.688725699337693	-12.8818017678887	-11.13385663455702	-7.688725699337693	-9.87392502314109	-13.967770073231925	-4.854812260662787	-10.706102526430149	-3.0621112434744444	2	correct	1.0
78.6985577000305	8.191288399975747	go_punish	1.0	78.72584119997919	80.29863919992931	82.81910889991559	1.5727979999501258	79.73503610002808	81.79542209999636	85.86826410004869	0.5636030999012291	1.0236867999192327	1.048865499906242	84.85503270011395	0.4448675001040101	83.83330380008556	1	1	70	4	go_punish	1	0	-1	1	0	0	1	1.0	1.0	-1	1.0	0.4448675001040101	639.335700500058	718.0615417000372	719.0707366000861	719.6343396999873	721.1311226000544	722.1548093999736	723.1690043001436	724.190733200172	725.2039646001067	726.2528301000129	2020-02-08 10:04:21.936628	-0.158198478399329	-2.90665802998674	-4.77980047757309	-4.81506630030604	-4.62160199917376	-4.77980047757309	0.158198478399329	-4.77980047757309	-2.90665802998674	-4.77980047757309	-4.62160199917376	-4.907509902889229	-11.693033111714266	-7.822703532389493	-7.688725699337693	-14.091021429406268	-13.39753497690349	-7.688725699337693	-6.257567113732151	-16.389646893977726	-4.696613782263457	-14.322460435839089	-1.1889687958880941	2	correct	1.0
86.92586449999362	8.147200500126928	go_punish	0.3718536000233143	86.9531479999423	88.530281299958	91.10774119989946	1.5771333000157028	87.96804230008274	90.07660429994576	94.14645959995687	0.5622389998752624	1.031136899953708	0.9538889001123607	93.13549200003035	0.9280840000137688	92.11302469996735	1	1	71	4	go_punish	1	0	-1	1	1	1	1	1.0	1.0	0	0.3718536000233143	0.9280840000137688	639.335700500058	726.2888485000003	727.3037428001408	727.865981800016	729.4123048000038	730.4434416999575	731.4487252000254	732.4711925000884	733.4821601000149	734.4360490001272	2020-02-08 10:04:21.936628	0.679985830335524	-2.90665802998674	-5.69644986233248	-5.73953659570781	-5.01646403199696	-5.69644986233248	-0.679985830335524	-2.90665802998674	-5.69644986233248	-5.01646403199696	-5.69644986233248	2.90665802998674	-10.854848802979413	-7.822703532389493	-8.605375084097084	-15.01549172480804	-13.792397009726692	-8.605375084097084	1.556600819143818	-16.626310448401593	-5.771461645422177	-12.449317988252739	-3.9787606282338346	2	correct	1.0
95.10709180007689	8.303478799993172	nogo_reward	1.0	95.13437530002557	96.62020360003226	99.13515609991737	1.4858283000066876	96.14835030003451	98.12849160004407	102.17130280006677	0.47185329999774694	1.0066644998732954	1.2665512999519706	101.16747010010295	0.5104865999892354	100.15051069995388	1	1	72	1	nogo_reward	1	0	1	0	0	1	0	0.0	1.0	1	1.0	0.5104865999892354	639.335700500058	734.4700758000836	735.4840508000925	735.9559041000903	737.4641921001021	738.4708565999754	739.4862112000119	740.503170600161	741.5070033001248	742.7735546000767	2020-02-08 10:04:21.936628	9.04079872609771	3.13799107725486	22.7390804075672	22.8765666012814	13.6982816814695	22.7390804075672	-9.04079872609771	22.7390804075672	3.13799107725486	22.7390804075672	13.6982816814695	10.034215362143897	-2.494035907217226	-1.778054425147893	19.830155185802596	13.600611472181171	4.922348703739768	19.830155185802596	8.684158151300975	11.129233991162566	13.623269898379801	13.196420449301202	4.855680311353506	2	correct	1.0
103.44705489999615	8.022965100128204	go_punish	1.0	103.47433839994483	104.90410839999095	107.43896030005999	1.429770000046119	104.48114040005021	106.41803160007112	110.49620880000293	0.4229679999407381	1.0209286999888718	1.001094700070098	109.48477780004032	0.6336972001008689	108.45344329997897	1	1	73	4	go_punish	1	0	-1	1	0	0	1	0.0	0.0	-1	1.0	0.6336972001008689	639.335700500058	742.8100389000028	743.8168409001082	744.239808900049	745.7537321001291	746.774660800118	747.789143800037	748.8204783000983	749.8319093000609	750.833004000131	2020-02-08 10:04:21.936628	-1.92373201719073	-2.22634281275182	-5.69644986233248	-4.45220090652167	-3.77271784514175	-5.69644986233248	1.92373201719073	-5.69644986233248	-2.22634281275182	-5.69644986233248	-3.77271784514175	-3.990860518129839	-13.458566650505666	-7.142388315154573	-8.605375084097084	-13.728156035621899	-12.548650822871481	-8.605375084097084	-5.3409177289727605	-17.306296278737115	-3.8477296282314475	-15.239109820598479	-0.5086535786531741	2	wrong	1.0
111.50417260010727	9.30043219984509	go_reward	0.3736738001462072	111.53145610005595	113.71543519990519	116.30039059999399	2.183979099849239	112.54196069994941	115.26132260006852	119.33166359993629	1.1734744999557734	1.0390679999254644	1.5002246999647468	118.31878839991987	0.4457034999504685	117.30540900002234	1	1	74	2	go_reward	1	1	0	1	1	1	0	0.0	1.0	1	0.3736738001462072	0.4457034999504685	639.335700500058	750.867156600114	751.8776612000074	753.0511356999632	754.5970231001265	755.636091100052	756.6411095000803	757.6544888999779	758.6673640999943	760.167588799959	2020-02-08 10:04:21.936628	41.6311578427892	30.1755853153164	0.0	25.0955189044071	41.6311578427892	0.0	-41.6311578427892	30.1755853153164	0.0	41.6311578427892	0.0	2.597710454394697	30.096323209474264	25.259539812913648	-2.908925221764603	15.819563775306872	32.85522486505947	-2.908925221764603	1.2476532435517753	30.021311426384564	-0.07501178308969737	20.632925357050404	1.7176892340986458	2	correct	1.0
120.83858560002409	8.308134499937296	nogo_reward	1.0	120.86586909997277	122.20324980001897	124.73120309994556	1.3373807000461966	121.87196710007265	123.71637569996528	127.76810609991662	0.3312826999463141	1.0148273999802768	1.4058974999934435	126.76374799991027	0.5148172997869551	125.74630580004305	1	1	75	1	nogo_reward	1	0	1	0	0	1	0	0.0	1.0	1	1.0	0.5148172997869551	639.335700500058	760.2015696000308	761.2076676001307	761.538950300077	763.0520762000233	764.0669036000036	765.082006300101	766.0994484999683	767.1038065999746	768.5097040999681	2020-02-08 10:04:21.936628	10.1449574367411	3.13799107725486	24.7159355388987	24.8358582735372	14.5709781021576	24.7159355388987	-10.1449574367411	24.7159355388987	3.13799107725486	24.7159355388987	14.5709781021576	8.057360230812396	-1.3898771965738366	-1.778054425147893	21.8070103171341	15.559903144436973	5.795045124427869	21.8070103171341	6.7073030199694745	13.106089122494067	14.495966319067902	15.173275580632703	4.855680311353506	2	correct	1.0
129.18250899994746	8.535416200058535	go_punish	1.0	129.20979249989614	131.1959520999808	133.72118270001374	1.9861596000846475	130.2184586999938	132.69957539997995	136.76618160004728	0.9774933999869972	1.0216073000337929	0.9790270999073982	135.7642622999847	0.6893095001578331	134.7347645999398	1	1	76	4	go_punish	1	0	-1	1	0	0	0	0.0	1.0	-1	1.0	0.6893095001578331	639.335700500058	768.5454929999541	769.5541592000518	770.5316526000388	772.035275900038	773.0568832000718	774.0704650999978	775.0999628000427	776.1018821001053	777.0809092000127	2020-02-08 10:04:21.936628	-2.18354103037163	-2.22634281275182	-6.40819844611134	-5.49961645700286	-4.22465741573971	-6.40819844611134	2.18354103037163	-6.40819844611134	-2.22634281275182	-6.40819844611134	-4.22465741573971	-3.279111934350979	-13.718375663686567	-7.142388315154573	-9.317123667875943	-14.775571586103089	-13.000590393469441	-9.317123667875943	-4.6291691451939005	-18.018044862515975	-4.299669198829407	-15.950858404377339	-0.5086535786531741	2	correct	1.0
137.75162160000764	8.121489700162783	nogo_reward	1.0	137.77890509995632	139.10716919996776	141.6357390000485	1.3282641000114381	138.78771360008977	140.61164420004934	144.68837650003843	0.31945559987798333	1.0240947999991477	1.212018300080672	143.6788675999269	0.8129373001866043	142.65726720006205	1	1	77	1	nogo_reward	1	0	1	0	0	1	1	0.0	0.0	1	1.0	0.8129373001866043	639.335700500058	777.1146056000143	778.1234141001478	778.4428697000258	779.9473447001074	780.9714395001065	781.9929677001201	783.0145680999849	784.0240770000964	785.2360953001771	2020-02-08 10:04:21.936628	11.0020236301543	3.13799107725486	26.2381781886165	26.3429737287706	15.2361545584622	26.2381781886165	-11.0020236301543	26.2381781886165	3.13799107725486	26.2381781886165	15.2361545584622	6.535117581094596	-0.5328110031606368	-1.778054425147893	23.329252966851897	17.06701859967037	6.460221580732469	23.329252966851897	5.185060370251675	14.628331772211867	15.161142775372502	16.6955182303505	4.855680311353506	2	wrong	1.0
145.90806130017154	8.402873099781573	nogo_reward	1.0	145.93534480012022	147.9737027999945	150.5141877999995	2.038357999874279	146.9397199000232	149.48778559989296	153.57891339994967	1.0339828999713063	1.0264022001065314	0.7593044999521226	152.56641420000233	0.4532150998711586	151.531813000096	1	1	78	1	nogo_reward	0	1	0	0	0	1	0	0.0	1.0	0	1.0	0.4532150998711586	639.335700500058	785.2710453001782	786.2754204000812	787.3094033000525	788.823486099951	789.8498883000575	790.867513500154	791.9021147000603	792.9146139000077	793.6739183999598	2020-02-08 10:04:21.936628	11.6742814827035	3.13799107725486	27.4232307615637	27.5149873430103	15.7489492788601	27.4232307615637	-11.6742814827035	27.4232307615637	3.13799107725486	27.4232307615637	15.7489492788601	-27.4232307615637	0.13944684938856433	-1.778054425147893	24.514305539799096	18.239032213910072	6.97301630113037	24.514305539799096	-28.773287972406624	15.813384345159067	15.673937495770403	17.8805708032977	4.855680311353506	2	correct	1.0
154.34522829996422	8.9270594001282	go_punish	0.3038387999404222	154.3725117999129	156.3581846000161	158.96410290012136	1.9856728001032025	155.38892580009997	157.94656160008162	162.00817429996096	0.9692587999161333	1.0175413000397384	1.2913969000801444	161.00657829991542	0.4267312998417765	159.9824194998946	1	1	79	4	go_punish	1	0	-1	1	1	1	0	0.0	1.0	0	0.3038387999404222	0.4267312998417765	639.335700500058	793.7082122999709	794.724626300158	795.6938851000741	797.2822621001396	798.2998034001794	799.3181199999526	800.3422787999734	801.343874800019	802.6352717000991	2020-02-08 10:04:21.936628	2.40159925982205	-2.22634281275182	-6.96763782915494	-6.29721633292333	-4.56603856933289	-6.96763782915494	-2.40159925982205	-2.22634281275182	-6.96763782915494	-4.56603856933289	-6.96763782915494	2.22634281275182	-9.133235373492887	-7.142388315154573	-9.876563050919543	-15.57317146202356	-13.34197154706262	-9.876563050919543	0.876285601908898	-16.175884985737525	-7.042649612244637	-11.769002771017819	-5.249948595056294	2	correct	1.0
163.30838540010154	9.217122500063851	go_reward	0.448073900071904	163.33566890005022	166.07179470011033	168.63856259989552	2.7361258000601083	164.3469130001031	167.60823470004834	171.6943345000036	1.724881700007245	1.0303278998471797	0.8584569001104683	170.67979439999908	0.3915064998436719	169.66149910003878	1	1	80	2	go_reward	0	0	1	1	1	1	0	0.0	1.0	0	0.448073900071904	0.3915064998436719	639.335700500058	802.6713694001082	803.6826135001611	805.4074952001683	806.9439352001064	807.9742630999535	808.9971996000968	810.0154949000571	811.0300350000616	811.8884919001721	2020-02-08 10:04:21.936628	42.7435826576208	30.5404870484514	0.0	26.7351469605108	42.7435826576208	0.0	-42.7435826576208	30.5404870484514	0.0	42.7435826576208	0.0	-30.5404870484514	31.208748024305862	25.624441546048647	-2.908925221764603	17.45919183141057	33.96764967989107	-2.908925221764603	-31.890544259294323	31.133736241216162	-0.07501178308969737	20.997827090185403	1.7176892340986458	2	correct	1.0
172.56009140005335	8.033993900055066	go_punish	0.4078160999342799	172.58737490000203	173.98627340001985	176.5738538999576	1.3988985000178218	173.5944346000906	175.56254830001853	179.6229852999095	0.3918387999292463	1.011305599939078	0.9983835001476109	178.6103040999733	0.3628008998930454	177.5822729000356	1	1	81	4	go_punish	1	0	-1	1	1	1	1	1.0	1.0	0	0.4078160999342799	0.3628008998930454	639.335700500058	811.92307540006	812.9301351001486	813.3219739000779	814.8982488000765	815.9095544000156	816.9179734000936	817.9460046000313	818.9586857999675	819.9570693001151	2020-02-08 10:04:21.936628	3.50649398284653	-1.72689158775806	-6.96763782915494	-4.90975331997772	-3.4611438463084	-6.96763782915494	-3.50649398284653	-1.72689158775806	-6.96763782915494	-3.4611438463084	-6.96763782915494	1.72689158775806	-8.028340650468406	-6.642937090160813	-9.876563050919543	-14.18570844907795	-12.23707682403813	-9.876563050919543	0.3768343769151381	-15.070990262713035	-7.042649612244637	-11.269551546024058	-5.249948595056294	2	correct	1.0
180.63023780006915	9.337360200006515	go_punish	0.3325292998924851	180.65752130001783	183.6324724999722	186.18228529999033	2.9749511999543756	181.67292269994505	185.16232040012255	189.22016429994255	1.9595498000271618	1.019964899867773	0.7747172000817955	188.21063739992678	0.491147099994123	187.19577350001782	1	1	82	4	go_punish	1	0	-1	1	1	1	0	0.0	1.0	0	0.3325292998924851	0.491147099994123	639.335700500058	819.9932218000758	821.0086232000031	822.9681730000302	824.4980209001806	825.5179858000483	826.5314740000758	827.5463378999848	828.5558648000006	829.3305820000824	2020-02-08 10:04:21.936628	4.3263518696472	-1.35529934492996	-6.96763782915494	-3.87444318138708	-2.64128595950774	-6.96763782915494	-4.3263518696472	-1.35529934492996	-6.96763782915494	-2.64128595950774	-6.96763782915494	1.35529934492996	-7.208482763667736	-6.2713448473327125	-9.876563050919543	-13.150398310487308	-11.417218937237472	-9.876563050919543	0.005242134087038108	-14.251132375912373	-7.042649612244637	-10.89795930319596	-5.249948595056294	2	correct	1.0
190.00161539996043	9.238713500089943	go_punish	0.3564166999422014	190.0288988999091	192.4665787999984	195.0535357000772	2.437679900089279	191.0376126000192	194.03317920002155	198.1031965999864	1.428966199979186	1.020356500055641	1.164415800012648	197.088661900023	0.3160068998113274	196.072073899908	1	1	83	4	go_punish	1	0	-1	1	1	1	1	1.0	1.0	0	0.3564166999422014	0.3160068998113274	639.335700500058	829.3645993999671	830.3733131000772	831.8022793000564	833.3688797000796	834.3892362001352	835.407774399966	836.424362400081	837.4388971000444	838.6033129000571	2020-02-08 10:04:21.936628	4.94267788553687	-1.07534247723038	-6.96763782915494	-3.09173340529731	-2.02495994361807	-6.96763782915494	-4.94267788553687	-1.07534247723038	-6.96763782915494	-2.02495994361807	-6.96763782915494	1.07534247723038	-6.592156747778066	-5.991387979633132	-9.876563050919543	-12.367688534397539	-10.8008929213478	-9.876563050919543	-0.27471473361254195	-13.634806360022704	-7.042649612244637	-10.61800243549638	-5.249948595056294	2	correct	1.0
199.29376549995504	8.383583700051531	nogo_punish	0.7526194001547992	199.32104899990372	201.02343380008824	203.60174839990214	1.702384800184518	200.3338178000413	202.56927320011891	206.65798670006916	0.6896160000469536	1.0324751997832209	1.0466459998860955	205.64373770006932	0.6684397000353783	204.62258059997112	1	1	84	3	nogo_punish	1	-1	0	0	1	0	0	0.0	1.0	-1	0.7526194001547992	0.6684397000353783	639.335700500058	838.6567494999617	839.6695183000993	840.3591343001463	841.9049737001769	842.9374488999601	843.9582811000291	844.9794382001273	845.9936872001272	847.0403332000133	2020-02-08 10:04:21.936628	-0.727511791810854	-3.24353452108768	-3.92767296055852	-4.12778431475394	-4.65518475236937	-3.92767296055852	0.727511791810854	-3.24353452108768	-3.92767296055852	-4.65518475236937	-3.92767296055852	-6.4437758593746395	-12.262346425125791	-8.159580023490433	-6.836598182323123	-13.40373944385417	-13.4311177300991	-6.836598182323123	-7.793833070217561	-16.265031168774005	-4.002684743648217	-12.786194479353679	-2.2099837264598743	2	correct	1.0
207.7192238001153	8.253523099934682	nogo_punish	1.0	207.74650730006397	209.22531679994427	211.73089740006253	1.478809499880299	208.75565820001066	210.71850210009143	214.78670349996537	0.46965859993360937	1.0123952999711037	1.2133269000332803	213.7740891999565	0.5029325999785215	212.74900100007653	1	1	85	3	nogo_punish	0	0	-1	0	0	1	0	0.0	1.0	-1	1.0	0.5029325999785215	639.335700500058	847.082207800122	848.0913587000687	848.5610173000023	850.0542026001494	851.0665979001205	852.0847015001345	853.1097897000145	854.1224040000234	855.3357309000567	2020-02-08 10:04:21.936628	2.48441875354687	-4.52190327842322	-3.92767296055852	-5.23882967818798	-6.41209171410539	-3.92767296055852	-2.48441875354687	-3.92767296055852	-4.52190327842322	-3.92767296055852	-6.41209171410539	-5.759637419903799	-9.050415879768067	-9.437948780825973	-6.836598182323123	-14.514784807288208	-15.188024691835121	-6.836598182323123	-7.109694630746722	-15.537519376963154	-6.487103497195087	-13.470332918824518	-2.8042140443245738	2	correct	1.0
216.013300599996	9.19802140002139	go_reward	0.3352457999717444	216.04058409994468	218.88371279998682	221.45608719997108	2.8431287000421435	217.04021760006435	220.425555099966	224.4792861000169	1.8434951999224722	1.0305321000050753	0.7593193999491632	223.47444160003215	0.6647638001013547	222.4611678000074	1	1	86	2	go_reward	1	1	0	1	1	1	0	0.0	1.0	1	0.3352457999717444	0.6647638001013547	639.335700500058	855.3762846000027	856.3759181001224	858.2194133000448	859.761255600024	860.7917877000291	861.7968683000654	862.8101421000902	863.8149866000749	864.5743060000241	2020-02-08 10:04:21.936628	32.9622742226953	23.5416519137991	0.0	20.6591214256853	32.9622742226953	0.0	-32.9622742226953	23.5416519137991	0.0	32.9622742226953	0.0	9.231643855911997	21.427439589380363	18.625606411396348	-2.908925221764603	11.38316629658507	24.18634124496557	-2.908925221764603	7.881586645069076	21.352427806290663	-0.07501178308969737	13.998991955533102	1.7176892340986458	2	correct	1.0
225.24619149998762	9.41933810012415	nogo_reward	1.0	225.2734749999363	227.7180371999275	230.25552439992316	2.4445621999911964	226.28857450000942	229.2322378999088	233.2935927999206	1.4294626999180764	1.0232865000143647	1.3992203001398593	232.28094299999066	0.3590408000163734	231.26189969992265	1	1	87	1	nogo_reward	1	0	1	0	0	1	0	0.0	1.0	1	1.0	0.3590408000163734	639.335700500058	864.6091754999943	865.6242750000674	867.0537376999855	868.5679383999668	869.5912248999812	870.5976001999807	871.6166435000487	872.6292932999786	874.0285136001185	2020-02-08 10:04:21.936628	8.23940032212291	3.13799107725486	21.0520812651395	21.1325852630903	12.8126809430166	21.0520812651395	-8.23940032212291	21.0520812651395	3.13799107725486	21.0520812651395	12.8126809430166	11.721214504571599	-3.295434311192027	-1.778054425147893	18.143156043374894	11.85663013399007	4.036747965286869	18.143156043374894	10.371157293728677	9.442234848734865	12.737669159926902	11.5094213068735	4.855680311353506	2	correct	1.0
234.70410640002228	9.051513500045985	go_reward	0.3652845001779496	234.73138989997096	237.22067050007172	239.81075070006773	2.4892806001007557	235.74340400006622	238.77778010000475	242.87024200009182	1.4772665000054985	1.0329706000629812	0.9126613999251276	241.851062099915	0.3385940000880509	240.82138839992695	1	1	88	2	go_reward	1	1	0	1	1	1	1	1.0	1.0	1	0.3652845001779496	0.3385940000880509	639.335700500058	874.067090400029	875.0791045001242	876.5563710001297	878.1134806000628	879.1464512001257	880.157088899985	881.186762599973	882.2059425001498	883.118603900075	2020-02-08 10:04:21.936628	36.3650308055065	25.6553996083372	0.0	23.448776031125	36.3650308055065	0.0	-36.3650308055065	25.6553996083372	0.0	36.3650308055065	0.0	7.117896161373899	24.830196172191563	20.739354105934446	-2.908925221764603	14.172820902024771	27.58909782777677	-2.908925221764603	5.767838950530978	24.755184389101863	-0.07501178308969737	16.112739650071198	1.7176892340986458	2	correct	1.0
243.83552980003878	8.691584500018507	nogo_punish	1.0	243.86281329998747	245.64173440006562	248.15069529996254	1.7789211000781506	244.8550825000275	247.14121389994398	251.19540080009028	0.7866519000381231	1.009481400018558	1.3589969999156892	250.19100410002284	0.4999931000638753	249.16593939997256	1	1	89	3	nogo_punish	0	0	-1	0	0	1	0	0.0	1.0	-1	1.0	0.4999931000638753	639.335700500058	883.1985138000455	884.1907830000855	884.9774349001236	886.476914400002	887.4863958000205	888.5016399000306	889.5267046000808	890.5311013001483	891.890098300064	2020-02-08 10:04:21.936628	1.71119442260333	-4.52190327842322	-5.06351970307561	-6.0872301139203	-6.77471412567894	-5.06351970307561	-1.71119442260333	-5.06351970307561	-4.52190327842322	-5.06351970307561	-6.77471412567894	-4.62379067738671	-9.823640210711606	-9.437948780825973	-7.972444924840213	-15.363185243020528	-15.550647103408672	-7.972444924840213	-5.973847888229631	-16.673366119480242	-6.849725908768637	-14.606179661341608	-2.8042140443245738	2	correct	1.0
252.5663962000981	8.326798799913377	go_punish	0.3859312999993562	252.59367970004678	254.36308460007422	256.94388030003756	1.769404900027439	253.60475590010174	255.90777459996752	259.9986431999132	0.7583286999724805	1.0361057000700384	0.9218353000469506	258.98583539994434	0.5440921001136303	257.9667690000497	1	1	90	4	go_punish	1	0	-1	1	1	1	0	0.0	1.0	0	0.3859312999993562	0.5440921001136303	639.335700500058	891.9293802001048	892.9404564001597	893.6987851001322	895.2434751000255	896.2795808000956	897.3024695001077	898.3215359000023	899.3343436999712	900.2561790000182	2020-02-08 10:04:21.936628	5.41171821720243	-0.861915122602167	-6.96763782915494	-2.49268848448393	-1.5559196119525	-6.96763782915494	-5.41171821720243	-0.861915122602167	-6.96763782915494	-1.5559196119525	-6.96763782915494	0.861915122602167	-6.123116416112507	-5.77796062500492	-9.876563050919543	-11.768643613584159	-10.331852589682232	-9.876563050919543	-0.4881420882407549	-13.165766028357135	-7.042649612244637	-10.404575080868165	-5.249948595056294	2	correct	1.0
260.9297724000644	8.462903100065887	go_reward	0.6243630000390112	260.9570559000131	262.8045898999552	265.3556590999942	1.8475339999421294	261.97097979998216	264.33124869992037	268.39546689996496	0.8336100999730434	1.0244104000738616	1.0244921001140028	267.38243540003896	0.4457302999217063	266.36319880001236	1	1	91	2	go_reward	1	1	0	1	1	1	0	0.0	1.0	1	0.6243630000390112	0.4457302999217063	639.335700500058	900.2927564000711	901.3066803000402	902.1402904000132	903.6669491999784	904.6913596000522	905.6988993000704	906.718135900097	907.731167400023	908.755659500137	2020-02-08 10:04:21.936628	38.8535980945588	27.206169616095	0.0	25.5000801518913	38.8535980945588	0.0	-38.8535980945588	27.206169616095	0.0	38.8535980945588	0.0	5.567126153616098	27.31876346124386	22.290124113692247	-2.908925221764603	16.22412502279107	30.077665116829067	-2.908925221764603	4.217068942773176	27.24375167815416	-0.07501178308969737	17.663509657829003	1.7176892340986458	2	correct	1.0
269.42836969997734	9.283640400040781	go_punish	0.2662840001285076	269.455653199926	272.23280979995616	274.79809599998396	2.777156600030139	270.4707798999734	273.78068679990236	277.84829100011837	1.7620298999827355	1.0174092000816017	0.8910025998484343	276.83790239994414	0.3312247002031654	275.8086894999724	1	1	92	4	go_punish	1	0	-1	1	1	1	1	1.0	1.0	0	0.2662840001285076	0.3312247002031654	639.335700500058	908.791353699984	909.8064804000314	911.5685103000142	913.1163872999604	914.133796500042	915.1443900000304	916.1736029000022	917.1839915001764	918.0749941000248	2020-02-08 10:04:21.936628	5.77281961009189	-0.697384905840145	-6.96763782915494	-2.02890535075666	-1.19481821906304	-6.96763782915494	-5.77281961009189	-0.697384905840145	-6.96763782915494	-1.19481821906304	-6.96763782915494	0.697384905840145	-5.7620150232230465	-5.613430408242897	-9.876563050919543	-11.304860479856888	-9.97075119679277	-9.876563050919543	-0.6526723050027768	-12.804664635467674	-7.042649612244637	-10.240044864106144	-5.249948595056294	2	correct	1.0
278.7446910000873	9.456151499878388	nogo_reward	1.0	278.771974500036	281.25594930001535	283.7806667000988	2.4839747999793644	279.77294060005795	282.76561679993756	286.8382697000634	1.483008699957395	1.015049900161216	1.389856299850976	285.82503019995056	0.438794800080359	284.79715820006095	1	1	93	1	nogo_reward	1	0	1	0	0	1	0	0.0	1.0	1	1.0	0.438794800080359	639.335700500058	918.107675000094	919.108641100116	920.5916498000734	922.1013172999956	923.1163672001568	924.132858700119	925.1607307000086	926.1739702001214	927.5638264999724	2020-02-08 10:04:21.936628	9.6499843475381	3.13799107725486	23.6506750277254	23.7214533345846	14.0006906801873	23.6506750277254	-9.6499843475381	23.6506750277254	3.13799107725486	23.6506750277254	14.0006906801873	9.122620741985699	-1.884850285776837	-1.778054425147893	20.741749805960794	14.44549820548437	5.22475770245757	20.741749805960794	7.772563531142778	12.040828611320764	13.925678897097603	14.1080150694594	4.855680311353506	2	correct	1.0
288.2353728001473	8.985866099828854	nogo_reward	1.0	288.26265630009595	290.7954834999982	293.319304500008	2.532827199902272	289.2789459999184	292.2943625999616	296.35942690004595	1.516537500079835	1.0249419000464286	0.8890954998788629	295.3462147999088	0.3814260999206453	294.33348180004396	1	1	94	1	nogo_reward	1	0	1	0	0	1	0	0.0	1.0	1	1.0	0.3814260999206453	639.335700500058	927.598356800154	928.6146464999764	930.1311840000562	931.6300631000196	932.655005000066	933.669182300102	934.6819152999668	935.695127400104	936.5842228999828	2020-02-08 10:04:21.936628	10.7070523502126	3.13799107725486	25.5792656198097	25.6416233528885	14.872213269597	25.5792656198097	-10.7070523502126	25.5792656198097	3.13799107725486	25.5792656198097	14.872213269597	7.194030149901398	-0.8277822831023371	-1.778054425147893	22.6703403980451	16.365668223788273	6.096280291867268	22.6703403980451	5.843972939058476	13.969419203405065	14.797201486507301	16.036605661543703	4.855680311353506	2	correct	1.0
297.26246810005966	9.370904499897847	nogo_punish	1.0	297.28975160000834	299.6294114999472	302.14385970006697	2.3396598999388516	298.3002692000008	301.133797199931	305.1986454001162	1.3291422999463975	1.010062500135973	1.4620106997899711	304.1864678999408	0.6411904999986291	303.162672100123	1	1	95	3	nogo_punish	1	-1	0	0	0	1	0	0.0	1.0	0	1.0	0.6411904999986291	639.335700500058	936.6254521000664	937.6359697000588	938.9651120000052	940.469497699989	941.479560200125	942.498372600181	943.5221683999988	944.5343459001742	945.9963565999642	2020-02-08 10:04:21.936628	1.11967509224285	-4.52190327842322	-5.93346082574942	-6.74336793759905	-7.05313591799227	-5.93346082574942	-1.11967509224285	-5.93346082574942	-4.52190327842322	-5.93346082574942	-7.05313591799227	5.93346082574942	-10.415159541072086	-9.437948780825973	-8.842386047514022	-16.01932306669928	-15.829068895722001	-8.842386047514022	4.583403614906498	-17.543307242154054	-7.128147701081967	-15.476120784015418	-2.8042140443245738	2	correct	1.0
306.6664702000561	8.243891400052462	nogo_reward	1.0	306.6937537000048	307.9751742000226	310.50962710008037	1.2814205000178163	307.6934577000792	309.48967780009843	313.5510098000524	0.28171649994339987	1.0199492999819313	1.3866353000048548	312.5383413999808	0.3632912999019027	311.51762709999457	1	1	96	1	nogo_reward	0	1	0	0	0	1	1	1.0	1.0	0	1.0	0.3632912999019027	639.335700500058	946.0294542000628	947.0291582001372	947.3108747000806	948.8253783001564	949.8453276001384	950.8533276000526	951.8740419000388	952.8867103001104	954.2733456001152	2020-02-08 10:04:21.936628	11.5099234597386	3.13799107725486	27.0307720699209	27.0858254737845	15.5208486101823	27.0307720699209	-11.5099234597386	27.0307720699209	3.13799107725486	27.0307720699209	15.5208486101823	-27.0307720699209	-0.024911173576336765	-1.778054425147893	24.121846848156295	17.80987034468427	6.744915632452569	24.121846848156295	-28.380829280763823	15.420925653516266	15.445836827092602	17.4881121116549	4.855680311353506	2	correct	1.0
314.9466797001661	9.52380939992122	go_reward	0.2900497999507934	314.9739632001148	317.5257991000544	320.1120555999224	2.551835899939647	315.98843610007316	319.08747059991583	323.15453270007856	1.5373629999812692	1.0245850000065957	1.3432398999574389	322.13942699995823	0.3788290999364108	321.1201168000698	1	1	97	2	go_reward	1	1	0	1	1	1	0	0.0	1.0	1	0.2900497999507934	0.3788290999364108	639.335700500058	954.3096637001728	955.3241366001312	956.8614996001124	958.4231710999738	959.4477560999804	960.4558173001278	961.4751275000162	962.4902332001366	963.833473100094	2020-02-08 10:04:21.936628	40.7001310908947	28.3607793591456	0.0	27.0292191867482	40.7001310908947	0.0	-40.7001310908947	28.3607793591456	0.0	40.7001310908947	0.0	4.412516410565498	29.165296457579764	23.444733856742847	-2.908925221764603	17.75326405764797	31.92419811316497	-2.908925221764603	3.0624591997225763	29.090284674490064	-0.07501178308969737	18.818119400879603	1.7176892340986458	2	correct	1.0
324.5245537001173	9.506490099942425	nogo_punish	1.0	324.55183720006596	327.2640420999378	329.79161450010724	2.7122048998718356	325.554562299978	328.7783270999788	332.83061480009917	1.7094797999598086	1.0132874001284335	1.2277124999092166	331.8270723999012	0.4627817999571562	330.8080774999688	1	1	98	3	nogo_punish	1	-1	0	0	0	1	0	0.0	1.0	0	1.0	0.4627817999571562	639.335700500058	963.887537700124	964.890262800036	966.5997425999958	968.1140276000368	969.1273150001653	970.1437780000268	971.1627728999592	972.1663153001572	973.3940278000664	2020-02-08 10:04:21.936628	1.79746922834781	-4.52190327842322	-4.6051248831602	-5.25372329845253	-6.40259411150802	-4.6051248831602	-1.79746922834781	-4.6051248831602	-4.52190327842322	-4.6051248831602	-6.40259411150802	4.6051248831602	-9.737365404967127	-9.437948780825973	-7.514050104924803	-14.52967842755276	-15.17852708923775	-7.514050104924803	3.2550676723172782	-16.214971299564834	-6.477605894597717	-14.147784841426198	-2.8042140443245738	2	correct	1.0
334.0661800999661	8.43890359997738	go_punish	0.8277098000980914	334.0934635999148	336.1011874999384	338.69906180002715	2.0077239000236204	335.10105010005634	337.68041080003604	341.75359490001574	1.0001373998820782	1.0186509999911095	0.7787722998764366	340.7348267000634	0.3712607000488788	339.7166663999668	1	1	99	4	go_punish	1	0	-1	1	1	1	0	0.0	1.0	0	0.8277098000980914	0.3712607000488788	639.335700500058	973.4291640999728	974.4367506001144	975.4368879999964	977.016111300094	978.0347623000852	979.0523669000248	980.0705272001214	981.0892954000738	981.8680676999502	2020-02-08 10:04:21.936628	6.05386308754011	-0.569212250299442	-6.96763782915494	-1.66594921648742	-0.913774741614824	-6.96763782915494	-6.05386308754011	-0.569212250299442	-6.96763782915494	-0.913774741614824	-6.96763782915494	0.569212250299442	-5.4809715457748265	-5.485257752702195	-9.876563050919543	-10.941904345587648	-9.689707719344556	-9.876563050919543	-0.7808449605434798	-12.52362115801946	-7.042649612244637	-10.11187220856544	-5.249948595056294	2	correct	1.0
342.53865440003574	9.366121500032023	nogo_reward	1.0	342.5659378999844	345.32409569993615	347.85391080006957	2.758157799951732	343.5671711000614	346.8387323000934	350.9059693000744	1.7569245998747647	1.015178499976173	1.0260900999420528	349.89564589993097	0.4157927001360804	348.86901629995555	1	1	100	1	nogo_reward	1	0	1	0	0	1	0	0.0	1.0	1	1.0	0.4157927001360804	639.335700500058	981.9016384000424	982.9028716001194	984.6597961999942	986.1744328001514	987.1896113001276	988.2047168000136	989.231346399989	990.2416698001324	991.2677599000745	2020-02-08 10:04:21.936628	8.16003669056741	3.13799107725486	20.8343399165845	20.8830447092941	12.6743032260171	20.8343399165845	-8.16003669056741	20.8343399165845	3.13799107725486	20.8343399165845	12.6743032260171	11.938955853126597	-3.374797942747527	-1.778054425147893	17.9254146948199	11.607089580193872	3.898370248287369	17.9254146948199	10.588898642283675	9.224493500179866	12.599291442927402	11.291679958318502	4.855680311353506	2	correct	1.0
351.9442156001461	8.099423100007584	go_reward	0.4722144000697881	351.9714991000948	353.4756599999964	356.084823400015	1.504160899901649	352.97290659998544	355.04895940003917	359.1240159000736	0.5027534000109881	1.0358639999758452	0.9469063000287861	358.11145820003003	0.3547068000771105	357.093205400044	1	1	101	2	go_reward	0	0	1	1	1	1	0	0.0	1.0	0	0.4722144000697881	0.3547068000771105	639.335700500058	991.3071996001528	992.3086071000434	992.8113605000544	994.3846599000972	995.420523900073	996.428905900102	997.447158700088	998.4597164001316	999.4066227001604	2020-02-08 10:04:21.936628	42.0890993060157	29.232428094324	0.0	28.1838818384142	42.0890993060157	0.0	-42.0890993060157	29.232428094324	0.0	42.0890993060157	0.0	-29.232428094324	30.55426467270076	24.316382591921247	-2.908925221764603	18.907926709313973	33.313166328285966	-2.908925221764603	-30.582485305166923	30.47925288961106	-0.07501178308969737	19.689768136058	1.7176892340986458	2	correct	1.0
360.08201480004936	8.143387699965388	go_punish	0.3499693002086133	360.10929829999804	361.68481869995594	364.24052150011994	1.5755203999578953	361.12043630005803	363.2196692998988	367.2995507000014	0.5643823998979087	1.0208522002211566	0.953135299962014	366.2868520000484	0.2971310999710113	365.25768229994003	1	1	102	4	go_punish	1	0	-1	1	1	1	0	0.0	1.0	0	0.3499693002086133	0.2971310999710113	639.335700500058	999.444998800056	1000.456136800116	1001.020519200014	1002.5553697999568	1003.576222000178	1004.593382799998	1005.6225525001064	1006.6352512000594	1007.5883865000214	2020-02-08 10:04:21.936628	6.27484756369471	-0.468372927186492	-6.96763782915494	-1.37901678910827	-0.692790265460229	-6.96763782915494	-6.27484756369471	-0.468372927186492	-6.96763782915494	-0.692790265460229	-6.96763782915494	0.468372927186492	-5.259987069620227	-5.384418429589244	-9.876563050919543	-10.6549719182085	-9.46872324318996	-9.876563050919543	-0.8816842836564298	-12.302636681864863	-7.042649612244637	-10.01103288545249	-5.249948595056294	2	correct	1.0
368.2591779001523	8.158406900009027	nogo_reward	1.0	368.28646140010096	369.967906099977	372.48258730000816	1.6814446998760104	369.295534099918	371.4699013000354	375.5294059999288	0.6723720000589992	1.0126859999727458	0.9154623001811615	374.5175453000702	0.4171134999487549	373.488672199892	1	1	103	1	nogo_reward	1	0	1	0	0	1	0	0.0	1.0	1	1.0	0.4171134999487549	639.335700500058	1007.622161900159	1008.631234599976	1009.303606600035	1010.8056018000934	1011.8182878000662	1012.82437269995	1013.8532458001282	1014.8651064999868	1015.780568800168	2020-02-08 10:04:21.936628	9.62543302942285	3.13799107725486	23.547028039493	23.5902036297524	13.9215950100702	23.547028039493	-9.62543302942285	23.547028039493	3.13799107725486	23.547028039493	13.9215950100702	9.226267730218098	-1.9094016038920874	-1.778054425147893	20.638102817728395	14.31424850065217	5.14566203234047	20.638102817728395	7.876210519375176	11.937181623088366	13.846583226980503	14.004368081227001	4.855680311353506	2	correct	1.0
376.45484190015134	8.417775699868685	go_punish	0.3340028999373317	376.4821254001	378.4077338001224	381.0136663001032	1.9256084000223836	377.48477780004043	379.98561959993094	384.06234619999304	0.9229560000819674	1.02804670017224	0.8375548999756575	383.0494903998916	0.3821745999157429	382.0316367999184	1	1	104	4	go_punish	1	0	-1	1	1	1	1	1.0	1.0	0	0.3340028999373317	0.3821745999157429	639.335700500058	1015.817825900158	1016.8204783000984	1017.7434343001804	1019.321320099989	1020.3493668001612	1021.3673372999764	1022.3851908999496	1023.398046700051	1024.2356016000267	2020-02-08 10:04:21.936628	6.45028564182464	-0.388298836324368	-6.96763782915494	-1.15003081531455	-0.517352187330299	-6.96763782915494	-6.45028564182464	-0.388298836324368	-6.96763782915494	-0.517352187330299	-6.96763782915494	0.388298836324368	-5.084548991490297	-5.3043443387271205	-9.876563050919543	-10.425985944414778	-9.29328516506003	-9.876563050919543	-0.9617583745185538	-12.127198603734934	-7.042649612244637	-9.930958794590367	-5.249948595056294	2	correct	1.0
384.90918640000723	9.47863180004083	go_punish	0.3430725999642163	384.9364698999559	387.3938390999099	389.9437696998939	2.4573691999539733	385.95056969998404	388.9402840998955	392.9689394000452	1.443269399925839	1.0034855999983847	1.4461622999515384	391.96494630002417	0.38080760021694	390.9520451000426	1	1	105	4	go_punish	1	0	-1	1	1	1	0	0.0	1.0	0	0.3430725999642163	0.38080760021694	639.335700500058	1024.272170400014	1025.286270200042	1026.729539599968	1028.2759845999535	1029.279470199952	1030.2877456001006	1031.3006468000822	1032.3046399001032	1033.7508022000547	2020-02-08 10:04:21.936628	6.59082591912818	-0.324157811168669	-6.96763782915494	-0.965667887276313	-0.376811910026753	-6.96763782915494	-6.59082591912818	-0.324157811168669	-6.96763782915494	-0.376811910026753	-6.96763782915494	0.324157811168669	-4.944008714186756	-5.240203313571421	-9.876563050919543	-10.241623016376542	-9.152744887756484	-9.876563050919543	-1.025899399674253	-11.986658326431387	-7.042649612244637	-9.866817769434668	-5.249948595056294	2	correct	1.0
394.42405800009146	9.569911299971864	go_reward	0.3124446999281645	394.45134150004014	397.0453339999076	399.66176309995353	2.593992499867454	395.4659291999417	398.6410129999276	402.70607020007446	1.5794047999659142	1.0207501000259072	1.3151825999375433	401.7027010000311	0.3952293999027461	400.68356180004776	1	1	106	2	go_reward	0	0	1	1	1	1	0	0.0	1.0	0	0.3124446999281645	0.3952293999027461	639.335700500058	1033.7870420000982	1034.8016296999997	1036.3810344999656	1037.9767134999856	1038.9974636000115	1040.0192623001058	1041.038401500089	1042.0417707001325	1043.35695330007	2020-02-08 10:04:21.936628	32.5083371834761	22.5958698861148	0.0	21.7631914902217	32.5083371834761	0.0	-32.5083371834761	22.5958698861148	0.0	32.5083371834761	0.0	-22.5958698861148	20.973502550161164	17.67982438371205	-2.908925221764603	12.487236361121472	23.73240420574637	-2.908925221764603	-23.945927096957725	20.898490767071465	-0.07501178308969737	13.053209927848803	1.7176892340986458	2	correct	1.0
404.0296666000504	8.445331699913368	go_reward	0.5213662998285145	404.0569500999991	405.6163850999435	408.20736459991895	1.5594349999444148	405.0719256999437	407.1805825000629	411.2541340999303	0.5444593999998233	1.0267820998560637	1.2481476999821552	410.2503971001131	0.4311166999395937	409.222568300087	1	1	107	2	go_reward	1	1	0	1	1	1	0	0.0	1.0	1	0.5213662998285145	0.4311166999395937	639.335700500058	1043.392650600057	1044.4076262000017	1044.9520856000015	1046.516283000121	1047.543065099977	1048.558268800145	1049.5860976001711	1050.5898345999883	1051.8379822999705	2020-02-08 10:04:21.936628	25.4172997755583	17.667180689096	0.0	17.0006263884203	25.4172997755583	0.0	-25.4172997755583	17.667180689096	0.0	25.4172997755583	0.0	15.106115080615098	13.882465142243362	12.751135186693247	-2.908925221764603	7.724671259320072	16.641366797828567	-2.908925221764603	13.756057869772176	13.807453359153664	-0.07501178308969737	8.124520730830001	1.7176892340986458	2	correct	1.0
412.5139866999816	8.973060700111091	go_reward	0.3567821001634002	412.5412701999303	414.39900250011124	416.98458650009707	1.8577323001809418	413.5542480000297	415.96009700000286	420.03065999993123	0.8447545000815353	1.0244895000942051	1.4836709001101553	419.0173440000508	0.4502527001313865	417.9875549999997	1	1	108	2	go_reward	1	1	0	1	1	1	1	0.0	0.0	1	0.3567821001634002	0.4502527001313865	639.335700500058	1051.8769706999883	1052.8899485000877	1053.7347030001692	1055.2957975000609	1056.320287000155	1057.3232555000577	1058.3530445001088	1059.3663604999892	1060.8500314000994	2020-02-08 10:04:21.936628	30.7427440687452	21.2651722146853	0.0	20.7275501884684	30.7427440687452	0.0	-30.7427440687452	21.2651722146853	0.0	30.7427440687452	0.0	11.508123555025797	19.207909435430263	16.349126712282548	-2.908925221764603	11.45159505936817	21.96681109101547	-2.908925221764603	10.158066344182876	19.132897652340567	-0.07501178308969737	11.722512256419302	1.7176892340986458	2	wrong	1.0
421.5277625001038	7.812369799939688	go_reward	0.3857654000166803	421.55504600005247	422.92389829992317	425.51466470002197	1.3688522998706958	422.5606402999256	424.4921375999693	428.5617498999927	0.363257999997586	1.0225271000526845	0.8056658999994397	427.54762129997835	0.2843167998362332	426.53047009999864	1	1	109	2	go_reward	0	0	1	1	1	1	1	1.0	1.0	0	0.3857654000166803	0.2843167998362332	639.335700500058	1060.8907465001105	1061.8963407999836	1062.2595987999812	1063.8278381000273	1064.85036520008	1065.8661706000566	1066.8833218000364	1067.8974504000507	1068.7031163000502	2020-02-08 10:04:21.936628	34.6218517870567	23.8925820814921	0.0	23.4558401593692	34.6218517870567	0.0	-34.6218517870567	23.8925820814921	0.0	34.6218517870567	0.0	-23.8925820814921	23.087017153741762	18.97653657908935	-2.908925221764603	14.17988503026897	25.845918809326967	-2.908925221764603	-25.242639292335024	23.012005370652062	-0.07501178308969737	14.349922123226102	1.7176892340986458	2	correct	1.0
429.3783095001709	8.921205199789256	go_reward	0.4337544001173228	429.40559300011955	431.33393480000086	433.9175623001063	1.9283417998813093	430.41816159989685	432.89811690011993	436.9667611999903	0.9157732001040131	1.0194453999863526	1.3600369999185205	435.9565967998931	0.3720217999070883	434.92663490003906	1	1	110	2	go_reward	1	1	0	1	1	1	1	1.0	1.0	1	0.4337544001173228	0.3720217999070883	639.335700500058	1068.7412935001776	1069.7538620999549	1070.6696353000589	1072.233817400178	1073.2532628001643	1074.262335400097	1075.292297299951	1076.3024617000483	1077.6624986999668	2020-02-08 10:04:21.936628	26.8460641237998	18.533395347456	0.0	18.1761966377085	26.8460641237998	0.0	-26.8460641237998	18.533395347456	0.0	26.8460641237998	0.0	14.239900422255097	15.311229490484862	13.617349845053248	-2.908925221764603	8.900241508608271	18.070131146070068	-2.908925221764603	12.889843211412176	15.236217707395165	-0.07501178308969737	8.990735389190002	1.7176892340986458	2	correct	1.0
438.3368198000826	9.087822200031951	nogo_reward	1.0	438.3641033000313	440.41671820008196	442.93488080007955	2.052614900050685	439.378742699977	441.91997770010494	445.9899267000146	1.0379755001049489	1.0149030999746174	1.4619988000486046	444.97754270001315	0.4776461001019925	443.9491286000705	1	1	111	1	nogo_reward	1	0	1	0	0	1	0	0.0	1.0	1	1.0	0.4776461001019925	639.335700500058	1077.6998038000893	1078.714443200035	1079.75241870014	1081.255678200163	1082.2705813001376	1083.2848291001285	1084.3132432000712	1085.3256272000726	1086.7876260001212	2020-02-08 10:04:21.936628	10.7172594457363	3.13799107725486	25.5494173795867	25.5877674432196	14.8321579338504	25.5494173795867	-10.7172594457363	25.5494173795867	3.13799107725486	25.5494173795867	14.8321579338504	7.223878390124398	-0.8175751875786368	-1.778054425147893	22.640492157822095	16.311812314119372	6.056224956120669	22.640492157822095	5.873821179281476	13.939570963182065	14.757146150760702	16.0067574213207	4.855680311353506	2	correct	1.0
447.5172393999528	8.40603860002011	nogo_punish	1.0	447.5445228999015	449.2125482999254	451.7309489999898	1.6680254000239074	448.5538850000594	450.71806350001134	454.7532794000581	0.6586632998660207	1.012885499978438	1.1972820998635143	453.7503166999668	0.460111599881202	452.73762760008685	1	1	112	3	nogo_punish	1	-1	0	0	0	1	0	0.0	1.0	0	1.0	0.460111599881202	639.335700500058	1086.8802233999595	1087.8895855001174	1088.5482487999834	1090.0537640000694	1091.0666495000478	1092.0733281001449	1093.0860172000248	1094.088979900116	1095.2862619999796	2020-02-08 10:04:21.936628	2.30331333528418	-4.52190327842322	-3.61820947983473	-4.14346475581912	-5.9215228151189	-3.61820947983473	-2.30331333528418	-3.61820947983473	-4.52190327842322	-3.61820947983473	-5.9215228151189	3.61820947983473	-9.231521298030756	-9.437948780825973	-6.5271347015993335	-13.41941988491935	-14.697455792848631	-6.5271347015993335	2.268152268991808	-15.228055896239365	-5.996534598208597	-13.160869438100729	-2.8042140443245738	2	correct	1.0
455.96127580013126	8.643482399871573	go_reward	0.3538925999309867	455.98855930007994	457.85180770000443	460.4444329000544	1.8632483999244869	457.0013727999758	459.4206185999792	463.4945058999583	0.8504349000286311	1.0238143000751734	1.137535799993202	462.4719658999238	0.528673900058493	461.45101010007784	1	1	113	2	go_reward	1	1	0	1	1	1	0	0.0	1.0	1	0.3538925999309867	0.528673900058493	639.335700500058	1095.324259800138	1096.3370733000338	1097.1875082000624	1098.7563191000372	1099.7801334001124	1100.7867106001358	1101.8076663999818	1102.8302064000163	1103.9677422000095	2020-02-08 10:04:21.936628	31.7179163343282	21.8480764635563	0.0	21.5540607489945	31.7179163343282	0.0	-31.7179163343282	21.8480764635563	0.0	31.7179163343282	0.0	10.925219306154798	20.183081701013265	16.932030961153547	-2.908925221764603	12.278105619894273	22.94198335659847	-2.908925221764603	9.575162095311876	20.108069917923565	-0.07501178308969737	12.305416505290301	1.7176892340986458	2	correct	1.0
464.6416845000349	9.174620599951595	go_reward	0.2747718000318855	464.6689679999836	467.2928132999225	469.87426740000956	2.623845299938921	465.6832413999364	468.85704039991833	472.9128284000326	1.609571899986122	1.017227000091225	0.9307601999025792	471.9090062999169	0.3940844999160617	470.88961399998516	1	1	114	2	go_reward	1	1	0	1	1	1	0	0.0	1.0	1	0.2747718000318855	0.3940844999160617	639.335700500058	1104.0046685000416	1105.0189418999944	1106.6285137999805	1108.1927408999763	1109.2099679000676	1110.2253145000432	1111.244706799975	1112.2485289000906	1113.1792890999932	2020-02-08 10:04:21.936628	35.2932251458525	24.2872084228357	0.0	24.0437342460408	35.2932251458525	0.0	-35.2932251458525	24.2872084228357	0.0	35.2932251458525	0.0	8.486087346875397	23.758390512537567	19.371162920432948	-2.908925221764603	14.76777911694057	26.517292168122772	-2.908925221764603	7.136030136032476	23.683378729447867	-0.07501178308969737	14.744548464569702	1.7176892340986458	2	correct	1.0
473.8616747001654	7.980854799970757	nogo_punish	1.0	473.8889582001141	475.3345411999617	477.8597667000722	1.445582999847602	474.89468119991943	476.84713790006936	480.9172670999542	0.4398600000422448	1.012628800002858	0.9525459001306444	479.9043010000603	0.4231006000190973	478.8765722999815	1	1	115	3	nogo_punish	1	-1	0	0	0	1	0	0.0	1.0	0	1.0	0.4231006000190973	639.335700500058	1113.224658700172	1114.2303816999774	1114.6702417000197	1116.1828384001274	1117.1954672001302	1118.2122728000395	1119.2400015001183	1120.2529676000122	1121.2055135001428	2020-02-08 10:04:21.936628	2.68571252416125	-4.52190327842322	-2.87522219443286	-3.30497187535085	-5.5609347185941	-2.87522219443286	-2.68571252416125	-2.87522219443286	-4.52190327842322	-2.87522219443286	-5.5609347185941	2.87522219443286	-8.849122109153686	-9.437948780825973	-5.784147416197463	-12.580927004451079	-14.336867696323832	-5.784147416197463	1.5251649835899381	-14.485068610837494	-5.635946501683797	-12.417882152698859	-2.8042140443245738	2	correct	1.0
481.8763029000256	8.768831100082025	nogo_reward	1.0	481.9035863999743	484.1309927999971	486.6681657000445	2.227406400022801	482.91112449998036	485.6448749999979	489.7021242999472	1.219868300016742	1.023290700046573	0.970293200109154	488.6891276000531	0.3669278000015765	487.674699800089	1	1	116	1	nogo_reward	1	0	1	0	0	1	0	0.0	1.0	1	1.0	0.3669278000015765	639.335700500058	1121.2392869000323	1122.2468250000384	1123.466693300055	1124.980575500056	1126.0038662001025	1127.010400300147	1128.024828100111	1129.0378248000052	1130.0081180001143	2020-02-08 10:04:21.936628	11.5415384757846	3.13799107725486	27.0478361301904	27.0819660328261	15.5062976544059	27.0478361301904	-11.5415384757846	27.0478361301904	3.13799107725486	27.0478361301904	15.5062976544059	5.725459639520697	0.006703842469663712	-1.778054425147893	24.1389109084258	17.80601090372587	6.730364676676169	24.1389109084258	4.375402428677775	15.437989713785766	15.431285871316202	17.505176171924404	4.855680311353506	2	correct	1.0
490.6867270001678	8.067377799888845	nogo_punish	1.0	490.7140105001165	492.08522069989704	494.6229646999857	1.3712101997805348	491.72503490000963	493.58887979993597	497.6683672000654	0.36018579988740385	1.03408490004972	1.1130210999399424	496.6658379000146	0.3262275999877602	495.6383579999674	1	1	117	3	nogo_punish	1	-1	0	0	0	1	1	1.0	1.0	0	1.0	0.3262275999877602	639.335700500058	1130.0497110001745	1131.0607354000676	1131.420921199955	1132.924580299994	1133.9586652000437	1134.9740585000254	1136.0015384000726	1137.0040677001234	1138.1170888000634	2020-02-08 10:04:21.936628	2.97828457047317	-4.52190327842322	-2.30890218746392	-2.6638255161991	-5.28718675793709	-2.30890218746392	-2.97828457047317	-2.30890218746392	-4.52190327842322	-2.30890218746392	-5.28718675793709	2.30890218746392	-8.556550062841767	-9.437948780825973	-5.217827409228523	-11.93978064529933	-14.06311973566682	-5.217827409228523	0.9588449766209983	-13.918748603868554	-5.362198541026787	-11.851562145729918	-2.8042140443245738	2	correct	1.0
498.7936788999941	8.675705699948594	nogo_reward	1.0	498.8209623999428	500.6943308999762	503.21057539992034	1.8733685000333935	499.83254320011474	502.19679199997336	506.2533231000416	0.861787699861452	1.0137833999469876	1.2433449998497963	505.2391478000209	0.4110091999173164	504.2157244000118	1	1	118	1	nogo_reward	1	0	1	0	0	1	1	1.0	1.0	1	1.0	0.4110091999173164	639.335700500058	1138.1566629000008	1139.1682437001728	1140.0300314000342	1141.5324925000314	1142.5462758999784	1143.5514249000698	1144.5748483000789	1145.5890236000996	1146.8323685999494	2020-02-08 10:04:21.936628	12.1715682151315	3.13799107725486	28.1836035215678	28.2140350410797	16.0120353064362	28.1836035215678	-12.1715682151315	28.1836035215678	3.13799107725486	28.1836035215678	16.0120353064362	4.589692248143297	0.6367335818165643	-1.778054425147893	25.2746782998032	18.93807991197947	7.236102328706469	25.2746782998032	3.2396350373003755	16.573757105163168	15.937023523346502	18.640943563301803	4.855680311353506	2	correct	1.0
507.5079849001486	9.564508999930695	go_reward	0.3647872000001371	507.53526840009727	509.9327835999429	512.5566821999382	2.3975151998456568	508.5430405999068	511.53339600004256	515.6217962000519	1.3897430000361055	1.023286199895665	1.4779811999760568	514.60636970005	0.5258025999646634	513.5778701999225	1	1	119	2	go_reward	1	1	0	1	1	1	0	0.0	1.0	1	0.3647872000001371	0.5258025999646634	639.335700500058	1146.8709689001553	1147.8787410999648	1149.268484100001	1150.8690965001006	1151.8923826999962	1152.9135706999805	1153.942070200108	1154.95749670011	1156.435477900086	2020-02-08 10:04:21.936628	37.9510765159997	26.1050985358597	0.0	25.9023253402514	37.9510765159997	0.0	-37.9510765159997	26.1050985358597	0.0	37.9510765159997	0.0	6.668197233851398	26.416241882684766	21.189053033456947	-2.908925221764603	16.626370211151173	29.17514353826997	-2.908925221764603	5.3181400230084765	26.341230099595066	-0.07501178308969737	16.562438577593703	1.7176892340986458	2	correct	1.0
517.1086782000493	8.878056900110096	go_punish	0.4772254000417888	517.135961699998	518.912408299977	521.4900507999121	1.7764465999789536	518.1374262999743	520.4629220000934	524.5362096999306	0.7749820000026375	1.0271287998186835	1.4778089001774788	523.5262293000706	0.4788007000461221	522.5070168999955	1	1	120	4	go_punish	1	0	-1	1	1	1	0	0.0	1.0	0	0.4772254000417888	0.4788007000461221	639.335700500058	1156.471662200056	1157.4731268000323	1158.248108800035	1159.7986225001514	1160.82575129997	1161.8427174000535	1162.8619298001286	1163.8719101999886	1165.349719100166	2020-02-08 10:04:21.936628	6.70436486170631	-0.272358117291314	-6.96763782915494	-0.816003108421216	-0.263272967448622	-6.96763782915494	-6.70436486170631	-0.272358117291314	-6.96763782915494	-0.263272967448622	-6.96763782915494	0.272358117291314	-4.830469771608627	-5.188403619694067	-9.876563050919543	-10.091958237521444	-9.039205945178352	-9.876563050919543	-1.0776990935516078	-11.873119383853256	-7.042649612244637	-9.815018075557312	-5.249948595056294	2	correct	1.0
