onset	duration	trial_type	response_time	cueOnset	targetOnset	fbOnset	cueRT	firstfixOnset	secondfixOnset	waitOnset	firstfixdur	secondfixdur	waitdur	nback_fbOnset	nback_response_time	nback_targetOnset	block	wm	trial	cue	cond	is_common	outcome_go	outcome_nogo	key_correct	key_pressed	is_correct	key_correct_nback	key_pressed_nback	is_correct_nback	outcome	rt	rt_nback	time_scan	time_onset	time_isi1	time_circle	time_isi2	time_feedback	time_same	time_correct	time_iti	time_done	timestamp_scan	DV	Qgo	Qnogo	SV	Wgo	Wnogo	mDV	Qchosen	Qunchosen	Wchosen	Wunchosen	PE	DVC	QgoC	QnogoC	SVC	WgoC	WnogoC	PEC	WchosenC	WunchosenC	QchosenC	QunchosenC	run	outcome_nback	nback_targetResp
0.0	6.237927499925718	nogo_punish	0.8693578999955207	0.044931399868801236	1.385974699864164	4.031007999787107	1.3410432999953628	1.0530925998464227	2.991068099858012	5.041034099878743	0.3328821000177413	1.0399398999290952	1.2418247999157757	n/a	1.0	n/a	2	0	1	3	nogo_punish	0	0	-1	0	1	0	0	n/a	n/a	0	0.8693578999955207	1.0	1229.6499136001803	1229.694845000049	1230.7030062000267	1231.0358883000445	1232.6409817000383	1233.6809215999674	n/a	n/a	1234.690947700059	1235.9327724999748	2020-02-08 10:14:12.247110	0.339478460071209	0.0	0.0	0.0	0.339478460071209	0.0	-0.339478460071209	0.0	0.0	0.339478460071209	0.0	0.0	-11.195356173243727	-4.916045502402753	-2.908925221764603	-9.275955129100229	-8.436454517658522	-2.908925221764603	-1.3500572108429219	-11.270367956333425	-0.07501178308969737	-9.542659958265999	1.7176892340986458	3	missed	0.0
6.28868869994767	6.7067256001755595	nogo_reward	0.4675179000478238	6.333620099816471	8.612663799896836	11.152900099987392	2.279043700080365	7.338377999840304	10.14167579985201	12.156191299902275	1.274285800056532	1.0112243001353818	0.8841544000897557	n/a	1.0	n/a	2	0	2	1	nogo_reward	1	0	1	0	1	0	0	n/a	n/a	0	0.4675179000478238	1.0	1229.6499136001803	1235.9835336999968	1236.9882916000206	1238.2625774000771	1239.7915894000323	1240.8028137001677	n/a	n/a	1241.8061049000826	1242.6902593001723	2020-02-08 10:14:12.247110	0.339478460071209	0.0	0.0	0.0	0.339478460071209	0.0	-0.339478460071209	0.0	0.0	0.339478460071209	0.0	0.0	-11.195356173243727	-4.916045502402753	-2.908925221764603	-9.275955129100229	-8.436454517658522	-2.908925221764603	-1.3500572108429219	-11.270367956333425	-0.07501178308969737	-9.542659958265999	1.7176892340986458	3	missed	0.0
13.036862100008875	6.515338199911639	nogo_punish	0.3430695000570267	13.081793499877676	14.934307199902833	17.484389999881387	1.8525137000251561	14.091176899848506	16.47069469979033	18.49401929997839	0.8431303000543267	1.013695300091058	1.1031123998109251	n/a	1.0	n/a	2	0	3	3	nogo_punish	1	-1	0	0	1	0	1	n/a	n/a	-1	0.3430695000570267	1.0	1229.6499136001803	1242.731707100058	1243.7410905000288	1244.5842208000831	1246.1206082999706	1247.1343036000617	n/a	n/a	1248.1439329001587	1249.2470452999696	2020-02-08 10:14:12.247110	0.339478460071209	0.0	0.0	0.0	0.339478460071209	0.0	-0.339478460071209	0.0	0.0	0.339478460071209	0.0	-9.68731038046232	-11.195356173243727	-4.916045502402753	-2.908925221764603	-9.275955129100229	-8.436454517658522	-2.908925221764603	-11.037367591305241	-11.270367956333425	-0.07501178308969737	-9.542659958265999	1.7176892340986458	3	missed	0.0
19.59593029995449	7.160057800123468	nogo_punish	1.0	19.64086169982329	22.005665799835697	24.539446599781513	2.3648041000124067	20.648004999849945	23.51998669980094	25.55619759997353	1.3576607999857515	1.0194598999805748	1.2447218999732286	n/a	1.0	n/a	2	0	4	3	nogo_punish	1	-1	0	0	0	1	0	n/a	n/a	0	1.0	1.0	1229.6499136001803	1249.2907753000036	1250.2979186000302	1251.655579400016	1253.1699002999812	1254.1893601999618	n/a	n/a	1255.2061112001538	1256.450833100127	2020-02-08 10:14:12.247110	5.25583307012568	-4.30558919358249	0.0	-4.30558919358249	-5.25583307012568	0.0	-5.25583307012568	0.0	-4.30558919358249	0.0	-5.25583307012568	0.0	-6.279001563189256	-9.221634695985243	-2.908925221764603	-13.581544322682719	-14.031766047855411	-2.908925221764603	-1.3500572108429219	-11.609846416404634	-5.330844853215377	-9.542659958265999	-2.587899959483844	3	missed	0.0
26.79529880010523	7.226340799825266	nogo_punish	1.0	26.84023019997403	29.326188299804926	31.861048499820754	2.4859580998308957	27.85247499984689	30.841770899947733	32.87001209985465	1.4737132999580353	1.0192775998730212	1.1965588999446481	n/a	1.0	n/a	2	0	5	3	nogo_punish	0	0	-1	0	0	1	1	n/a	n/a	-1	1.0	1.0	1229.6499136001803	1256.4901438001543	1257.5023886000272	1258.9761018999852	1260.491684500128	1261.510962100001	n/a	n/a	1262.519925700035	1263.7164845999796	2020-02-08 10:14:12.247110	4.66323143895149	-4.30558919358249	0.0	-2.25776065916482	-4.66323143895149	0.0	-4.66323143895149	0.0	-4.30558919358249	0.0	-4.66323143895149	-9.68731038046232	-6.871603194363447	-9.221634695985243	-2.908925221764603	-11.533715788265049	-13.439164416681221	-2.908925221764603	-11.037367591305241	-11.609846416404634	-4.738243222041187	-9.542659958265999	-2.587899959483844	3	missed	0.0
34.0478833001107	6.595368599984795	nogo_reward	0.3732104001101106	34.0928146999795	35.66389069985621	38.22131599998079	1.5710759998767116	35.10181919997581	37.201651899842545	39.234511599876214	0.5620714998804033	1.0196641001382432	1.4536717000880799	n/a	1.0	n/a	2	0	6	1	nogo_reward	1	0	1	0	1	0	0	n/a	n/a	0	0.3732104001101106	1.0	1229.6499136001803	1263.7427283001598	1264.751732800156	1265.3138043000365	1266.8515655000228	1267.871229600161	n/a	n/a	1268.8844252000565	1270.3380969001446	2020-02-08 10:14:12.247110	0.339478460071209	0.0	0.0	0.0	0.339478460071209	0.0	-0.339478460071209	0.0	0.0	0.339478460071209	0.0	0.0	-11.195356173243727	-4.916045502402753	-2.908925221764603	-9.275955129100229	-8.436454517658522	-2.908925221764603	-1.3500572108429219	-11.270367956333425	-0.07501178308969737	-9.542659958265999	1.7176892340986458	3	missed	0.0
40.67216369998641	6.038094599964097	go_punish	0.9647869998589158	40.717095099855214	42.38943039998412	44.93120329990052	1.672335300128907	41.732110099866986	43.92036489979364	45.94434369984083	0.657320300117135	1.010838400106877	0.8108459999784827	n/a	1.0	n/a	2	0	7	4	go_punish	1	0	-1	1	1	1	0	n/a	n/a	0	0.9647869998589158	1.0	1229.6499136001803	1270.3670087000355	1271.3820237000473	1272.0393440001644	1273.570278499974	1274.5811169000808	n/a	n/a	1275.5942573000211	1276.4051032999996	2020-02-08 10:14:12.247110	0.339478460071209	0.0	0.0	0.0	0.339478460071209	0.0	-0.339478460071209	0.0	0.0	0.339478460071209	0.0	0.0	-11.195356173243727	-4.916045502402753	-2.908925221764603	-9.275955129100229	-8.436454517658522	-2.908925221764603	-1.3500572108429219	-11.270367956333425	-0.07501178308969737	-9.542659958265999	1.7176892340986458	3	missed	0.0
46.73539400007576	6.981844799825922	go_punish	0.2539000001270324	46.78032539994456	49.19544259994291	51.73785799997859	2.415117199998349	47.78176339995139	50.727083599893376	52.75697119999677	1.4136791999915204	1.0107744000852108	1.005198999773711	n/a	1.0	n/a	2	0	8	4	go_punish	1	0	-1	1	1	1	0	n/a	n/a	0	0.2539000001270324	1.0	1229.6499136001803	1276.4302390001249	1277.4316770001317	1278.8453562001232	1280.3769972000737	1281.3877716001589	n/a	n/a	1282.406884800177	1283.4120837999508	2020-02-08 10:14:12.247110	0.339478460071209	0.0	0.0	0.0	0.339478460071209	0.0	-0.339478460071209	0.0	0.0	0.339478460071209	0.0	0.0	-11.195356173243727	-4.916045502402753	-2.908925221764603	-9.275955129100229	-8.436454517658522	-2.908925221764603	-1.3500572108429219	-11.270367956333425	-0.07501178308969737	-9.542659958265999	1.7176892340986458	3	missed	0.0
53.798427999950945	6.033175199991092	nogo_punish	0.3142109999898821	53.84335939981975	55.29798879986629	57.84227429982275	1.4546294000465423	54.85991069977172	56.81767459982075	58.8521399998574	0.4380781000945717	1.0245997000019997	1.024394599953439	n/a	1.0	n/a	2	0	9	3	nogo_punish	1	-1	0	0	1	0	0	n/a	n/a	-1	0.3142109999898821	1.0	1229.6499136001803	1283.493273	1284.509824299952	1284.9479024000466	1286.467588200001	1287.492187900003	n/a	n/a	1288.5020536000377	1289.5264481999911	2020-02-08 10:14:12.247110	-1.34390421338176	-4.30558919358249	-4.30558919358249	-5.54870331045146	-5.64949340696425	-4.30558919358249	1.34390421338176	-4.30558919358249	-4.30558919358249	-5.64949340696425	-4.30558919358249	-5.38172118687983	-12.878738846696697	-9.221634695985243	-7.214514415347093	-14.824658439551689	-14.425426384693981	-7.214514415347093	-6.731778397722751	-17.259339823368883	-4.380600976672187	-13.848249151848488	-2.587899959483844	3	missed	0.0
59.864210499916	7.425110000185896	go_punish	0.3284020000137388	59.9091418997848	62.369829799979925	64.9156129998155	2.4606879001951256	60.9026507998351	63.89887979999162	65.92850959999487	1.4671790001448244	1.0167331998238751	1.4057422999758273	n/a	1.0	n/a	2	0	10	4	go_punish	1	0	-1	1	1	1	1	n/a	n/a	0	0.3284020000137388	1.0	1229.6499136001803	1289.559055499965	1290.5525644000154	1292.0197434001602	1293.548793400172	1294.5655265999958	n/a	n/a	1295.5784232001752	1296.984165500151	2020-02-08 10:14:12.247110	0.339478460071209	0.0	0.0	0.0	0.339478460071209	0.0	-0.339478460071209	0.0	0.0	0.339478460071209	0.0	0.0	-11.195356173243727	-4.916045502402753	-2.908925221764603	-9.275955129100229	-8.436454517658522	-2.908925221764603	-1.3500572108429219	-11.270367956333425	-0.07501178308969737	-9.542659958265999	1.7176892340986458	3	missed	0.0
67.37316630012378	6.038234599865746	go_reward	0.6659354001749307	67.41809769999259	68.70425319997594	71.2396547999233	1.2861554999833515	68.4226016998291	70.22633139998652	72.24295179988258	0.28165150014683604	1.0133233999367803	1.2133804999757558	n/a	1.0	n/a	2	0	11	2	go_reward	1	1	0	1	1	1	0	n/a	n/a	1	0.6659354001749307	1.0	1229.6499136001803	1297.0680113001729	1298.0725153000094	1298.3541668001562	1299.8762450001668	1300.8895684001036	n/a	n/a	1301.8928654000629	1303.1062459000386	2020-02-08 10:14:12.247110	0.339478460071209	0.0	0.0	0.0	0.339478460071209	0.0	-0.339478460071209	0.0	0.0	0.339478460071209	0.0	32.7732957697111	-11.195356173243727	-4.916045502402753	-2.908925221764603	-9.275955129100229	-8.436454517658522	-2.908925221764603	31.423238558868174	-11.270367956333425	-0.07501178308969737	-9.542659958265999	1.7176892340986458	3	missed	0.0
73.4390992000699	5.889970399904996	nogo_reward	0.8215710998047143	73.4840305999387	74.85074289981276	77.3953883999493	1.3667122998740524	74.49139659991488	76.3820694999306	78.41227399976924	0.35934629989787936	1.013318900018703	0.9617270000744611	n/a	1.0	n/a	2	0	12	1	nogo_reward	1	0	1	0	1	0	0	n/a	n/a	0	0.8215710998047143	1.0	1229.6499136001803	1303.133944200119	1304.1413102000952	1304.500656499993	1306.031983100111	1307.0453020001296	n/a	n/a	1308.0621875999495	1309.023914600024	2020-02-08 10:14:12.247110	0.339478460071209	0.0	0.0	0.0	0.339478460071209	0.0	-0.339478460071209	0.0	0.0	0.339478460071209	0.0	0.0	-11.195356173243727	-4.916045502402753	-2.908925221764603	-9.275955129100229	-8.436454517658522	-2.908925221764603	-1.3500572108429219	-11.270367956333425	-0.07501178308969737	-9.542659958265999	1.7176892340986458	3	missed	0.0
79.41726769995898	7.576321600004803	go_reward	0.4880955999251455	79.46219909982779	81.99217929993779	84.54576339991763	2.5299802001100034	80.46277559990995	83.52130679995753	85.55395859992132	1.5294037000278422	1.0244565999601036	1.4845620999112725	n/a	1.0	n/a	2	0	13	2	go_reward	1	1	0	1	1	1	1	n/a	n/a	1	0.4880955999251455	1.0	1229.6499136001803	1309.112112700008	1310.1126892000902	1311.642092900118	1313.1712204001378	1314.195677000098	n/a	n/a	1315.2038722001016	1316.688434300013	2020-02-08 10:14:12.247110	20.1245557189311	15.0861268786429	0.0	15.0861268786429	20.1245557189311	0.0	-20.1245557189311	15.0861268786429	0.0	20.1245557189311	0.0	17.687168891068197	8.589721085616162	10.170081376240148	-2.908925221764603	5.810171749542672	11.348622741201368	-2.908925221764603	16.337111680225274	8.514709302526464	-0.07501178308969737	5.543466920376902	1.7176892340986458	3	missed	0.0
87.04048809991218	5.994796300074086	go_reward	0.4782180001493543	87.08541949978098	88.51097939978354	91.06512929988094	1.425559900002554	88.08927869983017	90.0422525999602	92.07124989992008	0.42170069995336235	1.0228766999207437	1.0089658999349922	n/a	1.0	n/a	2	0	14	2	go_reward	1	1	0	1	1	1	0	n/a	n/a	1	0.4782180001493543	1.0	1229.6499136001803	1316.7353330999613	1317.7391923000105	1318.1608929999638	1319.6921662001405	1320.7150429000612	n/a	n/a	1321.7211635001004	1322.7301294000354	2020-02-08 10:14:12.247110	30.2869079158125	22.7810127492004	0.0	22.7810127492004	30.2869079158125	0.0	-30.2869079158125	22.7810127492004	0.0	30.2869079158125	0.0	9.992283020510698	18.752073282497562	17.864967246797647	-2.908925221764603	13.505057620100171	21.510974938082768	-2.908925221764603	8.642225809667776	18.677061499407863	-0.07501178308969737	13.238352790934401	1.7176892340986458	3	missed	0.0
93.06178220012225	6.839741999981925	nogo_reward	0.370799999916926	93.10671359999105	95.44440879998729	97.9720075998921	2.337695199996233	94.11746689979941	96.96523829991929	98.98441539984219	1.326941900187876	1.0067692999728024	0.9620402001307866	n/a	1.0	n/a	2	0	15	1	nogo_reward	1	0	1	0	1	0	0	n/a	n/a	0	0.370799999916926	1.0	1229.6499136001803	1322.7566272001714	1323.7673804999797	1325.0943224001676	1326.6151519000996	1327.6219212000724	n/a	n/a	1328.6343290000225	1329.5963692001533	2020-02-08 10:14:12.247110	0.339478460071209	0.0	0.0	0.0	0.339478460071209	0.0	-0.339478460071209	0.0	0.0	0.339478460071209	0.0	0.0	-11.195356173243727	-4.916045502402753	-2.908925221764603	-9.275955129100229	-8.436454517658522	-2.908925221764603	-1.3500572108429219	-11.270367956333425	-0.07501178308969737	-9.542659958265999	1.7176892340986458	3	missed	0.0
99.95224589994177	6.693109600106254	go_reward	0.3467266000807285	99.99717729981057	101.84745609993115	104.40374039998278	1.8502788001205772	101.01255189999938	103.38284879992739	105.41538229980506	0.8349041999317706	1.0208916000553927	1.2749046001117676	n/a	1.0	n/a	2	0	16	2	go_reward	0	0	1	1	1	1	1	n/a	n/a	0	0.3467266000807285	1.0	1229.6499136001803	1329.6470908999909	1330.6624655001797	1331.4973697001114	1333.0327624001077	1334.053654000163	n/a	n/a	1335.0652958999854	1336.3402005000971	2020-02-08 10:14:12.247110	35.7694768441184	26.907490466185	0.0	26.907490466185	35.7694768441184	0.0	-35.7694768441184	26.907490466185	0.0	35.7694768441184	0.0	-26.907490466185	24.234642210803464	21.991444963782246	-2.908925221764603	17.63153533708477	26.99354386638867	-2.908925221764603	-28.257547677027922	24.159630427713765	-0.07501178308969737	17.364830507919002	1.7176892340986458	3	missed	0.0
106.68976470013149	6.828764099860564	go_reward	0.4206739000510424	106.73469610000029	108.69966129981913	111.24214469990693	1.9649651998188347	107.73800649982877	110.23154259985313	112.2469035999386	0.961654799990356	1.0106021000538021	1.3165565999222508	n/a	1.0	n/a	2	0	17	2	go_reward	0	0	1	1	1	1	0	n/a	n/a	0	0.4206739000510424	1.0	1229.6499136001803	1336.3846097001806	1337.387920100009	1338.3495748999994	1339.8814562000334	1340.8920583000872	n/a	n/a	1341.896817200119	1343.2133738000412	2020-02-08 10:14:12.247110	19.0674598401622	14.1298240359212	0.0	14.1298240359212	19.0674598401622	0.0	-19.0674598401622	14.1298240359212	0.0	19.0674598401622	0.0	-14.1298240359212	7.532625206847264	9.213778533518447	-2.908925221764603	4.853868906820971	10.29152686243247	-2.908925221764603	-15.479881246764121	7.457613423757566	-0.07501178308969737	4.587164077655201	1.7176892340986458	3	missed	0.0
113.58302529994398	6.565793700050563	nogo_punish	1.0	113.62795669981278	115.19338419986889	117.7182588998694	1.5654275000561029	114.63109519984573	116.7083747999277	118.73187559982762	0.5622890000231564	1.0098840999417007	1.46187480003573	n/a	1.0	n/a	2	0	18	3	nogo_punish	1	-1	0	0	0	1	0	n/a	n/a	0	1.0	1.0	1229.6499136001803	1343.277870299993	1344.281008800026	1344.8432978000492	1346.358288400108	1347.3681725000497	n/a	n/a	1348.381789200008	1349.8436640000436	2020-02-08 10:14:12.247110	4.13577303865675	-6.56334985274731	-4.30558919358249	-7.27637318806066	-8.44136223223925	-4.30558919358249	-4.13577303865675	-4.30558919358249	-6.56334985274731	-4.30558919358249	-8.44136223223925	4.30558919358249	-7.399061594658186	-11.479395355150062	-7.214514415347093	-16.55232831716089	-17.21729520996898	-7.214514415347093	2.955531982739568	-15.915435609987124	-8.516374015328948	-13.848249151848488	-4.8456606186486635	3	missed	0.0
120.1903860999737	7.701612200122327	go_reward	0.2717843998689204	120.2353174998425	122.99342449987307	125.54652719991282	2.758107000030577	121.24417999992147	124.5236899999436	126.54617159999907	1.749244499951601	1.0228371999692172	1.3907580999657512	n/a	1.0	n/a	2	0	19	2	go_reward	1	1	0	1	1	1	1	n/a	n/a	1	0.2717843998689204	1.0	1229.6499136001803	1349.8852311000228	1350.8940936001018	1352.6433381000534	1354.173603600124	1355.1964408000931	n/a	n/a	1356.1960852001794	1357.5868433001451	2020-02-08 10:14:12.247110	10.7013952091234	7.77387717357372	0.0	7.77387717357372	10.7013952091234	0.0	-10.7013952091234	7.77387717357372	0.0	10.7013952091234	0.0	24.999418596137378	-0.8334394241915373	2.8578316711709677	-2.908925221764603	-1.5020779555265085	1.9254622313936682	-2.908925221764603	23.649361385294455	-0.9084512072812352	-0.07501178308969737	-1.7687827846922781	1.7176892340986458	3	missed	0.0
127.9222325000444	6.46726739988685	nogo_reward	1.0	127.9671638999132	129.473545699846	132.00919599994086	1.5063817999327966	128.971899199998	130.9892383997792	133.01935079996474	0.5016464998479933	1.0199576001616606	1.4150804998353124	n/a	1.0	n/a	2	0	20	1	nogo_reward	1	0	1	0	0	1	0	n/a	n/a	1	1.0	1.0	1229.6499136001803	1357.6170775000935	1358.6218128001783	1359.1234593000263	1360.6391519999595	1361.6591096001212	n/a	n/a	1362.669264400145	1364.0843448999804	2020-02-08 10:14:12.247110	-0.339478460071209	0.0	0.0	0.0	0.339478460071209	0.0	0.339478460071209	0.0	0.0	0.0	0.339478460071209	32.7732957697111	-11.874313093386146	-4.916045502402753	-2.908925221764603	-9.275955129100229	-8.436454517658522	-2.908925221764603	31.423238558868174	-11.609846416404634	0.26446667698151166	-9.542659958265999	1.7176892340986458	3	missed	0.0
134.4311822000891	6.562239599879831	nogo_punish	1.0	134.4761135999579	136.28841739986092	138.8152354999911	1.8123037999030203	135.48528809985146	137.7947427998297	139.8272084998896	0.8031293000094593	1.0204927001614124	1.211144699948136	n/a	1.0	n/a	2	0	21	3	nogo_punish	1	-1	0	0	0	1	0	n/a	n/a	0	1.0	1.0	1229.6499136001803	1364.1260272001382	1365.1352017000318	1365.9383310000412	1367.44465640001	1368.4651491001714	n/a	n/a	1369.47712210007	1370.688266800018	2020-02-08 10:14:12.247110	5.19635653884284	-6.56334985274731	-2.25776065916482	-3.92429518562436	-7.45411719800766	-2.25776065916482	-5.19635653884284	-2.25776065916482	-6.56334985274731	-2.25776065916482	-7.45411719800766	2.25776065916482	-6.338478094472096	-11.479395355150062	-5.166685880929423	-13.200250314724588	-16.23005017573739	-5.166685880929423	0.907703448321898	-13.867607075569454	-7.529128981097357	-11.800420617430818	-4.8456606186486635	3	missed	0.0
141.0470873999875	6.9383980999703	nogo_punish	1.0	141.0920187998563	143.12227019993588	145.65845619980246	2.030251400079578	142.09972029994242	144.6385571998544	146.6715747998096	1.0225498999934644	1.0198989999480546	1.3588421000170001	n/a	1.0	n/a	2	0	22	3	nogo_punish	1	-1	0	0	0	1	0	n/a	n/a	0	1.0	1.0	1229.6499136001803	1370.7419324000366	1371.7496339001227	1372.7721838001162	1374.2884708000347	1375.3083697999828	n/a	n/a	1376.32148839999	1377.680330500007	2020-02-08 10:14:12.247110	5.69172251824322	-6.56334985274731	-1.24311411686897	-2.21518110009544	-6.93483663511219	-1.24311411686897	-5.69172251824322	-1.24311411686897	-6.56334985274731	-1.24311411686897	-6.93483663511219	1.24311411686897	-5.843112115071716	-11.479395355150062	-4.152039338633573	-11.491136229195668	-15.710769612841922	-4.152039338633573	-0.10694309397395174	-12.852960533273604	-7.009848418201887	-10.785774075134968	-4.8456606186486635	3	missed	0.0
148.0295444999358	6.295258700148906	nogo_punish	1.0	148.0744758998046	150.08048179978482	152.6012811998371	2.0060058999802095	149.08122819988057	151.58736099977978	153.61082269996405	0.9992535999042502	1.0139202000573277	0.7589118999894708	n/a	1.0	n/a	2	0	23	3	nogo_punish	0	0	-1	0	0	1	1	n/a	n/a	-1	1.0	1.0	1229.6499136001803	1377.724389499985	1378.7311418000609	1379.7303953999651	1381.23727459996	1382.2511948000174	n/a	n/a	1383.2607363001443	1384.0196482001338	2020-02-08 10:14:12.247110	5.93609786909113	-6.56334985274731	-0.713023335313346	-1.29906192331863	-6.64912120440447	-0.713023335313346	-5.93609786909113	-0.713023335313346	-6.56334985274731	-0.713023335313346	-6.64912120440447	-8.974287045148973	-5.598736764223807	-11.479395355150062	-3.6219485570779493	-10.57501705241886	-15.4250541821342	-3.6219485570779493	-10.324344255991894	-12.322869751717981	-6.724132987494167	-10.255683293579345	-4.8456606186486635	3	missed	0.0
154.36699080001563	6.144962599966675	nogo_punish	1.0	154.41192219988443	155.7680662998464	158.31075109983794	1.3561440999619663	155.40869269985706	157.29000399983488	159.3136043997947	0.3593735999893397	1.0207471000030637	1.243280400056392	n/a	1.0	n/a	2	0	24	3	nogo_punish	1	-1	0	0	0	1	1	n/a	n/a	0	1.0	1.0	1229.6499136001803	1384.0618358000647	1385.0586063000374	1385.4179799000267	1386.9399176000152	1387.9606647000182	n/a	n/a	1388.963517999975	1390.2067984000314	2020-02-08 10:14:12.247110	3.04652577514482	-6.56334985274731	-4.72900960317307	-5.09246053850038	-7.77553537831789	-4.72900960317307	-3.04652577514482	-4.72900960317307	-6.56334985274731	-4.72900960317307	-7.77553537831789	4.72900960317307	-8.488308858170116	-11.479395355150062	-7.637934824937673	-14.368415667600608	-16.55146835604762	-7.637934824937673	3.3789523923301483	-16.338856019577705	-7.8505471614075875	-14.271669561439069	-4.8456606186486635	3	missed	0.0
160.53550030011684	6.425337199819978	go_punish	0.5971417999826372	160.58043169998564	162.1210504998453	164.6506955998484	1.5406187998596579	161.58633239986375	163.62940509989858	165.6638833999168	0.5347180999815464	1.0212904999498278	1.3418854998888037	n/a	1.0	n/a	2	0	25	4	go_punish	1	0	-1	1	1	1	0	n/a	n/a	0	0.5971417999826372	1.0	1229.6499136001803	1390.230345300166	1391.236246000044	1391.7709641000256	1393.2793187000789	1394.3006092000287	n/a	n/a	1395.313797000097	1396.655682499986	2020-02-08 10:14:12.247110	0.339478460071209	0.0	0.0	0.0	0.339478460071209	0.0	-0.339478460071209	0.0	0.0	0.339478460071209	0.0	0.0	-11.195356173243727	-4.916045502402753	-2.908925221764603	-9.275955129100229	-8.436454517658522	-2.908925221764603	-1.3500572108429219	-11.270367956333425	-0.07501178308969737	-9.542659958265999	1.7176892340986458	3	missed	0.0
167.00600289995782	6.048085100017488	go_reward	0.4927302000578493	167.05093429982662	168.6234307999257	171.17763169994578	1.5724965000990778	168.0597554999406	170.15460169990547	172.1826187998522	0.5636752999851069	1.0230300000403076	0.9164005999919027	n/a	1.0	n/a	2	0	26	2	go_reward	1	1	0	1	1	1	0	n/a	n/a	1	0.4927302000578493	1.0	1229.6499136001803	1396.700847900007	1397.709669100121	1398.273344400106	1399.8045153000858	1400.827545300126	n/a	n/a	1401.8325324000325	1402.7489330000244	2020-02-08 10:14:12.247110	26.0830155451161	19.5347323705101	0.0	19.5347323705101	26.0830155451161	0.0	-26.0830155451161	19.5347323705101	0.0	26.0830155451161	0.0	13.238563399200999	14.548180911801165	14.618686868107346	-2.908925221764603	10.25877724140987	17.30708256738637	-2.908925221764603	11.888506188358077	14.473169128711467	-0.07501178308969737	9.9920724122441	1.7176892340986458	3	missed	0.0
173.0804137000814	7.258283699862659	nogo_reward	1.0	173.1253450999502	175.5545588999521	178.08350289985538	2.4292138000018895	174.12676749983802	177.0589390997775	179.09368199994788	1.4277914001140743	1.0245638000778854	1.2899467998649925	n/a	1.0	n/a	2	0	27	1	nogo_reward	1	0	1	0	0	1	0	n/a	n/a	1	1.0	1.0	1229.6499136001803	1402.7752587001305	1403.7766811000183	1405.2044725001324	1406.7088526999578	1407.7334165000357	n/a	n/a	1408.7435956001282	1410.0335423999932	2020-02-08 10:14:12.247110	10.0476980383547	0.0	15.0861268786429	15.0861268786429	5.0384288402882	15.0861268786429	-10.0476980383547	15.0861268786429	0.0	15.0861268786429	5.0384288402882	17.687168891068197	-1.487136594960237	-4.916045502402753	12.177201656878298	5.810171749542672	-3.7375041374415314	12.177201656878298	16.337111680225274	3.4762804622382664	4.963417057198503	5.543466920376902	1.7176892340986458	3	missed	0.0
180.38109329994768	6.42065680003725	go_reward	0.4274630998261273	180.42602469981648	181.89262669999152	184.43729379982688	1.466602000175044	181.42354829981923	183.4140031998977	185.4472091998905	0.4690784001722932	1.0232905999291688	1.3994722999632359	n/a	1.0	n/a	2	0	28	2	go_reward	1	1	0	1	1	1	1	n/a	n/a	1	0.4274630998261273	1.0	1229.6499136001803	1410.0759382999968	1411.0734618999995	1411.5425403001718	1413.063916800078	1414.0872074000072	n/a	n/a	1415.0971228000708	1416.496595100034	2020-02-08 10:14:12.247110	33.8280948714084	25.4137756429578	0.0	25.4137756429578	33.8280948714084	0.0	-33.8280948714084	25.4137756429578	0.0	33.8280948714084	0.0	7.359520126753299	22.293260238093467	20.497730140555046	-2.908925221764603	16.13782051385757	25.052161893678672	-2.908925221764603	6.009462915910378	22.218248455003767	-0.07501178308969737	15.8711156846918	1.7176892340986458	3	missed	0.0
186.845074699959	6.120266900164779	go_reward	0.4308971001300961	186.89000609982781	188.2622252998408	190.8160147999879	1.372219200012978	187.9029692998156	189.79358879989013	191.8237818998748	0.35925600002519786	1.0224260000977665	1.1864911001177916	n/a	1.0	n/a	2	0	29	2	go_reward	1	1	0	1	1	1	0	n/a	n/a	1	0.4308971001300961	1.0	1229.6499136001803	1416.539919700008	1417.552882899996	1417.912138900021	1419.4435024000704	1420.4659284001682	n/a	n/a	1421.473695500055	1422.660186600173	2020-02-08 10:14:12.247110	37.9348666383706	28.5114804218499	0.0	28.5114804218499	37.9348666383706	0.0	-37.9348666383706	28.5114804218499	0.0	37.9348666383706	0.0	4.261815347861198	26.400032005055664	23.595434919447147	-2.908925221764603	19.23552529274967	29.15893366064087	-2.908925221764603	2.911758137018276	26.325020221965964	-0.07501178308969737	18.968820463583903	1.7176892340986458	3	missed	0.0
192.9930839999579	6.418093299958855	nogo_reward	1.0	193.0380153998267	195.03248219983652	197.5610331997741	1.9944668000098318	194.04537719977088	196.5470896998886	198.57065699994564	0.9871050000656396	1.0139434998854995	0.8854516998399049	n/a	1.0	n/a	2	0	30	1	nogo_reward	1	0	1	0	0	1	0	n/a	n/a	1	1.0	1.0	1229.6499136001803	1422.687929000007	1423.6952907999512	1424.6823958000168	1426.197003300069	1427.2109467999544	n/a	n/a	1428.220570600126	1429.1060222999658	2020-02-08 10:14:12.247110	15.2751175825882	0.0	22.7810127492004	22.7810127492004	7.50589516661217	22.7810127492004	-15.2751175825882	22.7810127492004	0.0	22.7810127492004	7.50589516661217	9.992283020510698	3.740282949273263	-4.916045502402753	19.872087527435795	13.505057620100171	-1.270037811117561	19.872087527435795	8.642225809667776	11.171166332795766	7.430883383522473	13.238352790934401	1.7176892340986458	3	missed	0.0
199.43660790007561	6.352912300033495	go_punish	1.0	199.48153929994442	201.05801539984532	203.5792344999502	1.5764760999009013	200.4850579998456	202.56688239984214	204.5914359998426	0.5729573999997228	1.0123521001080462	1.2430156001353225	n/a	1.0	n/a	2	0	31	4	go_punish	0	-1	0	1	0	0	0	n/a	n/a	0	1.0	1.0	1229.6499136001803	1429.1314529001247	1430.134971600026	1430.7079290000256	1432.2167960000224	1433.2291481001305	n/a	n/a	1434.2413496000229	1435.4843652001582	2020-02-08 10:14:12.247110	-0.339478460071209	0.0	0.0	0.0	0.339478460071209	0.0	0.339478460071209	0.0	0.0	0.0	0.339478460071209	0.0	-11.874313093386146	-4.916045502402753	-2.908925221764603	-9.275955129100229	-8.436454517658522	-2.908925221764603	-1.3500572108429219	-11.609846416404634	0.26446667698151166	-9.542659958265999	1.7176892340986458	3	missed	0.0
205.8175073999446	5.923412400065217	nogo_reward	1.0	205.8624387998134	207.2174544997979	209.7380178999158	1.3550156999845058	206.86992879980244	208.72409969987348	210.7374589999672	0.3475256999954581	1.0139182000423261	1.0483921999114045	n/a	1.0	n/a	2	0	32	1	nogo_reward	1	0	1	0	0	1	1	n/a	n/a	1	1.0	1.0	1229.6499136001803	1435.5123523999937	1436.5198423999827	1436.8673680999782	1438.3740133000538	1439.387931500096	n/a	n/a	1440.3873726001475	1441.435764800059	2020-02-08 10:14:12.247110	18.0455040882516	0.0	26.907490466185	26.907490466185	8.8619863779334	26.907490466185	-18.0455040882516	26.907490466185	0.0	26.907490466185	8.8619863779334	5.865805303526098	6.510669454936664	-4.916045502402753	23.998565244420398	17.63153533708477	0.08605340020366903	23.998565244420398	4.515748092683177	15.297644049780365	8.786974594843702	17.364830507919002	1.7176892340986458	3	missed	0.0
211.76356719993055	7.7490461000707	go_punish	1.0	211.80849859979935	214.5244718999602	217.06422989978455	2.71597330016084	212.81605939986162	216.04094119998626	218.07981739984825	1.708412500098575	1.023288699798286	1.4777273000217974	n/a	1.0	n/a	2	0	33	4	go_punish	1	0	-1	1	0	0	1	n/a	n/a	-1	1.0	1.0	1229.6499136001803	1441.4584121999796	1442.465973000042	1444.1743855001405	1445.6908548001666	1446.7141434999648	n/a	n/a	1447.7297310000286	1449.2074583000503	2020-02-08 10:14:12.247110	-0.339478460071209	0.0	0.0	0.0	0.339478460071209	0.0	0.339478460071209	0.0	0.0	0.0	0.339478460071209	-9.68731038046232	-11.874313093386146	-4.916045502402753	-2.908925221764603	-9.275955129100229	-8.436454517658522	-2.908925221764603	-11.037367591305241	-11.609846416404634	0.26446667698151166	-9.542659958265999	1.7176892340986458	3	missed	0.0
219.588321000105	7.323257699841406	go_reward	0.2902708000037819	219.6332523999738	222.37985009979457	224.9933552998118	2.746597699820768	220.63892909977562	223.97127189999446	226.0031664997805	1.7409210000189432	1.0220833998173475	0.9533436000347137	n/a	1.0	n/a	2	0	34	2	go_reward	1	1	0	1	1	1	0	n/a	n/a	1	0.2902708000037819	1.0	1229.6499136001803	1449.283166000154	1450.288842699956	1452.0297636999749	1453.6211855001748	1454.643268899992	n/a	n/a	1455.6530800999608	1456.6064236999955	2020-02-08 10:14:12.247110	40.2099156363588	30.2181544680142	0.0	30.2181544680142	40.2099156363588	0.0	-40.2099156363588	30.2181544680142	0.0	40.2099156363588	0.0	2.5551413016968993	28.675081003043864	25.302108965611446	-2.908925221764603	20.94219933891397	31.43398265862907	-2.908925221764603	1.2050840908539775	28.600069219954165	-0.07501178308969737	20.675494509748198	1.7176892340986458	3	missed	0.0
226.9543689999266	6.191060200100537	go_reward	0.6388089000247419	226.9993003997954	228.66709449980408	231.22120359982364	1.6677941000086776	228.01017529983073	230.19802659982815	232.22693979996257	0.6569191999733448	1.023176999995485	0.9634207999333739	n/a	1.0	n/a	2	0	35	2	go_reward	1	1	0	1	1	1	0	n/a	n/a	1	0.6388089000247419	1.0	1229.6499136001803	1456.6492139999757	1457.660088900011	1458.3170080999844	1459.8479402000085	1460.871117200004	n/a	n/a	1461.8768534001429	1462.8402742000762	2020-02-08 10:14:12.247110	41.5184267500591	31.1950904076242	0.0	31.1950904076242	41.5184267500591	0.0	-41.5184267500591	31.1950904076242	0.0	41.5184267500591	0.0	1.5782053620868979	29.983592116744163	26.279044905221447	-2.908925221764603	21.91913527852397	32.74249377232937	-2.908925221764603	0.22814815124397603	29.908580333654463	-0.07501178308969737	21.6524304493582	1.7176892340986458	3	missed	0.0
233.16814920003526	7.690894699888531	go_punish	0.322282399982214	233.21308059990406	235.98176529980265	238.5419474998489	2.7686846998985857	234.21689289994538	237.5189862998668	239.55152239999734	1.7648723998572677	1.0229611999820918	1.352452899795253	n/a	1.0	n/a	2	0	36	4	go_punish	0	-1	0	1	1	1	0	n/a	n/a	-1	0.322282399982214	1.0	1229.6499136001803	1462.8629942000844	1463.8668065001257	1465.631678899983	1467.168899900047	1468.1918611000292	n/a	n/a	1469.2014360001776	1470.553888899973	2020-02-08 10:14:12.247110	3.35534531703931	0.0	-4.30558919358249	-4.30558919358249	-0.950243876543186	-4.30558919358249	-3.35534531703931	0.0	-4.30558919358249	-0.950243876543186	-4.30558919358249	-9.68731038046232	-8.179489316275626	-4.916045502402753	-7.214514415347093	-13.581544322682719	-9.726176854272918	-7.214514415347093	-11.037367591305241	-12.56009029294782	-4.380600976672187	-9.542659958265999	-2.587899959483844	3	missed	0.0
240.9675328999292	5.84740940015763	nogo_punish	1.0	241.012464299798	242.46913369977847	245.0096861999482	1.4566693999804556	242.00784699991345	243.9898591998499	246.0221952998545	0.46128669986501336	1.019827000098303	0.8376784001011401	n/a	1.0	n/a	2	0	37	3	nogo_punish	1	-1	0	0	0	1	0	n/a	n/a	0	1.0	1.0	1229.6499136001803	1470.6623778999783	1471.6577606000938	1472.1190472999588	1473.6397728000302	1474.6595998001285	n/a	n/a	1475.6721089000348	1476.509787300136	2020-02-08 10:14:12.247110	4.56968370382365	-6.56334985274731	-2.51680430707794	-2.74779319225934	-7.08648801090159	-2.51680430707794	-4.56968370382365	-2.51680430707794	-6.56334985274731	-2.51680430707794	-7.08648801090159	2.51680430707794	-6.965150929491286	-11.479395355150062	-5.425729528842544	-12.02374832135957	-15.862420988631321	-5.425729528842544	1.1667470962350182	-14.126650723482575	-7.161499793991287	-12.059464265343939	-4.8456606186486635	3	missed	0.0
246.86422009998932	6.625878599938005	nogo_punish	1.0	246.90915149985813	248.96368970000162	251.5010601999238	2.0545382001434973	247.9183211999482	250.48045569984242	252.51052199979313	1.0453685000534279	1.0206045000813901	1.024508100003004	n/a	1.0	n/a	2	0	38	3	nogo_punish	1	-1	0	0	0	1	0	n/a	n/a	0	1.0	1.0	1229.6499136001803	1476.5590651000384	1477.5682348001285	1478.613603300182	1480.1303693000227	1481.150973800104	n/a	n/a	1482.1604355999734	1483.1849436999764	2020-02-08 10:14:12.247110	5.31869726463362	-6.56334985274731	-1.40573229528367	-1.55570036806541	-6.72442955991729	-1.40573229528367	-5.31869726463362	-1.40573229528367	-6.56334985274731	-1.40573229528367	-6.72442955991729	1.40573229528367	-6.216137368681316	-11.479395355150062	-4.314657517048273	-10.831655497165638	-15.500362537647021	-4.314657517048273	0.05567508444074809	-13.015578711688304	-6.799441343006987	-10.948392253549668	-4.8456606186486635	3	missed	0.0
253.53258490003645	7.864977499935549	nogo_punish	1.0	253.57751629990526	256.4048163997941	258.93469989998266	2.8273000998888165	254.5777903997805	257.91731299995445	259.948996099876	1.827026000013575	1.0173869000282139	1.4934976999647915	n/a	1.0	n/a	2	0	39	3	nogo_punish	1	-1	0	0	0	1	1	n/a	n/a	0	1.0	1.0	1229.6499136001803	1483.2274299000856	1484.2277039999608	1486.0547299999744	1487.5672266001347	1488.584613500163	n/a	n/a	1489.5989097000563	1491.092407400021	2020-02-08 10:14:12.247110	5.70748818256884	-6.56334985274731	-0.817430622727531	-0.916637058355639	-6.52491880529637	-0.817430622727531	-5.70748818256884	-0.817430622727531	-6.56334985274731	-0.817430622727531	-6.52491880529637	0.817430622727531	-5.827346450746097	-11.479395355150062	-3.726355844492134	-10.192592187455867	-15.3008517830261	-3.726355844492134	-0.5326265881153909	-12.427277039132166	-6.599930588386067	-10.36009058099353	-4.8456606186486635	3	missed	0.0
261.441825899994	7.231666000094265	go_reward	0.303573900135234	261.4867572998628	263.66042079986073	266.240206599934	2.1736634999979287	262.49738389998674	265.2170033999719	267.23948459979147	1.1630368998739868	1.023203199962154	1.4789387001655996	n/a	1.0	n/a	2	0	40	2	go_reward	1	1	0	1	1	1	0	n/a	n/a	1	0.303573900135234	1.0	1229.6499136001803	1491.136670900043	1492.147297500167	1493.310334400041	1494.8669170001522	1495.8901202001143	n/a	n/a	1496.8893981999718	1498.3683369001374	2020-02-08 10:14:12.247110	42.295855371925	31.7731033813499	0.0	31.7731033813499	42.295855371925	0.0	-42.295855371925	31.7731033813499	0.0	42.295855371925	0.0	1.0001923883611958	30.761020738610064	26.85705787894715	-2.908925221764603	22.497148252249673	33.51992239419527	-2.908925221764603	-0.349864822481726	30.686008955520364	-0.07501178308969737	22.230443423083905	1.7176892340986458	3	missed	0.0
268.75641990010627	7.592551299836714	nogo_punish	1.0	268.80135129997507	271.41859939997084	273.940028199926	2.617248099995777	269.80912499991246	272.9293388999067	274.953026099829	1.6094744000583887	1.010689300019294	1.4408764999827781	n/a	1.0	n/a	2	0	41	3	nogo_punish	1	-1	0	0	0	1	1	n/a	n/a	0	1.0	1.0	1229.6499136001803	1498.4512649001554	1499.4590386000928	1501.0685130001511	1502.579252500087	1503.5899418001063	n/a	n/a	1504.6029397000093	1506.043816199992	2020-02-08 10:14:12.247110	5.91870840202723	-6.56334985274731	-0.49179111635727	-0.558513405946491	-6.4104995183845	-0.49179111635727	-5.91870840202723	-0.49179111635727	-6.56334985274731	-0.49179111635727	-6.4104995183845	0.49179111635727	-5.616126231287707	-11.479395355150062	-3.4007163381218732	-9.83446853504672	-15.186432496114232	-3.4007163381218732	-0.8582660944856518	-12.101637532761904	-6.485511301474197	-10.034451074623268	-4.8456606186486635	3	missed	0.0
276.3731503000017	6.3364172000437975	go_punish	1.0	276.4180816998705	277.8094000997953	280.3489199997857	1.391318399924785	277.4182910998354	279.32556629995815	281.36112669995055	0.3911089999598971	1.0233536998275667	1.3933721999637783	n/a	1.0	n/a	2	0	42	4	go_punish	1	0	-1	1	0	0	0	n/a	n/a	-1	1.0	1.0	1229.6499136001803	1506.0679953000508	1507.0682047000157	1507.4593136999756	1508.9754799001385	1509.998833599966	n/a	n/a	1511.0110403001308	1512.4044125000946	2020-02-08 10:14:12.247110	1.64736458198339	-4.30558919358249	-4.30558919358249	-6.56334985274731	-5.95295377556588	-4.30558919358249	-1.64736458198339	-4.30558919358249	-4.30558919358249	-4.30558919358249	-5.95295377556588	-5.38172118687983	-9.887470051331547	-9.221634695985243	-7.214514415347093	-15.839304981847539	-14.728886753295612	-7.214514415347093	-6.731778397722751	-15.915435609987124	-6.027965558655577	-13.848249151848488	-2.587899959483844	3	missed	0.0
282.7546105000656	6.175174599979073	go_reward	1.0	282.7995418999344	284.51673659984954	287.0572974998504	1.717194699915126	283.80494499998167	286.0319423999174	288.06571839982644	0.7117915998678654	1.0253550999329946	0.9089981000870466	n/a	1.0	n/a	2	0	43	2	go_reward	1	1	0	1	0	0	0	n/a	n/a	0	1.0	1.0	1229.6499136001803	1512.4494555001147	1513.454858600162	1514.1666502000298	1515.6818560000977	1516.7072111000307	n/a	n/a	1517.7156320000067	1518.6246301000938	2020-02-08 10:14:12.247110	-42.7710019789858	32.1250762658912	0.0	32.1250762658912	42.7710019789858	0.0	42.7710019789858	0.0	32.1250762658912	0.0	42.7710019789858	0.0	-54.30583661230074	27.20903076348845	-2.908925221764603	22.849121136790973	33.99506900125607	-2.908925221764603	-1.3500572108429219	-11.609846416404634	42.6959901958961	-9.542659958265999	33.842765499989845	3	missed	0.0
288.9552971001249	6.669141699792817	go_punish	1.0	289.0002284999937	290.78059809980914	293.30033499980345	1.780369599815458	290.0007680999115	292.27574779978	294.3165377997793	0.779829999897629	1.0245872000234613	1.3528324000071734	n/a	1.0	n/a	2	0	44	4	go_punish	1	0	-1	1	0	0	1	n/a	n/a	-1	1.0	1.0	1229.6499136001803	1518.650142100174	1519.6506817000918	1520.4305116999894	1521.9256613999603	1522.9502485999838	n/a	n/a	1523.9664513999596	1525.3192837999668	2020-02-08 10:14:12.247110	-0.216735740342853	-4.30558919358249	-6.56334985274731	-7.80646396961628	-6.34661411240446	-6.56334985274731	0.216735740342853	-6.56334985274731	-4.30558919358249	-6.56334985274731	-6.34661411240446	-3.1239605277150098	-11.75157037365779	-9.221634695985243	-9.472275074511913	-17.082419098716507	-15.12254709013419	-9.472275074511913	-4.474017738557931	-18.173196269151944	-6.421625895494157	-16.10600981101331	-2.587899959483844	3	missed	0.0
295.6522554999683	7.013435099972412	nogo_reward	1.0	295.6971868998371	298.27180869993754	300.80394739983603	2.574621800100431	296.7046883997973	299.78798579983413	301.8033820998389	1.5671203001402318	1.0159616000019014	0.9072398999705911	n/a	1.0	n/a	2	0	45	1	nogo_reward	1	0	1	0	0	1	0	n/a	n/a	1	1.0	1.0	1229.6499136001803	1525.3471005000174	1526.3546019999776	1527.9217223001178	1529.4378994000144	1530.4538610000163	n/a	n/a	1531.4532957000192	1532.3605355999898	2020-02-08 10:14:12.247110	19.579364730106	0.0	29.215950914564	29.215950914564	9.63658618445803	29.215950914564	-19.579364730106	29.215950914564	0.0	29.215950914564	9.63658618445803	3.5573448551470968	8.044530096791064	-4.916045502402753	26.3070256927994	19.939995785463772	0.8606532067282995	26.3070256927994	2.207287644304175	17.606104498159368	9.561574401368333	19.673290956298004	1.7176892340986458	3	missed	0.0
302.69358010008	7.713394099846482	nogo_reward	1.0	302.7385114999488	305.71133239986375	308.22737879981287	2.97282089991495	303.74347859993577	307.216664099833	309.2394840999041	1.9678537999279797	1.0107146999798715	1.2124214998912066	n/a	1.0	n/a	2	0	46	1	nogo_reward	0	1	0	0	0	1	0	n/a	n/a	0	1.0	1.0	1229.6499136001803	1532.388425100129	1533.393392200116	1535.361246000044	1536.8665777000133	1537.8772923999932	n/a	n/a	1538.8893977000844	1540.1018191999756	2020-02-08 10:14:12.247110	20.4609551806834	0.0	30.5548899227741	30.5548899227741	10.0939347420907	30.5548899227741	-20.4609551806834	30.5548899227741	0.0	30.5548899227741	10.0939347420907	-30.5548899227741	8.926120547368463	-4.916045502402753	27.645964701009497	21.278934793673873	1.3180017643609698	27.645964701009497	-31.904947133617025	18.945043506369466	10.018922959001003	21.0122299645081	1.7176892340986458	3	missed	0.0
310.4315434000455	6.21623810008191	go_punish	0.276540599996224	310.4764747999143	312.1634472999722	314.70189619995654	1.686972500057891	311.48648779978976	313.6850186998488	315.71485749981366	0.67695950018242	1.0168775001077393	0.9778554001825341	n/a	1.0	n/a	2	0	47	4	go_punish	1	0	-1	1	1	1	0	n/a	n/a	0	0.276540599996224	1.0	1229.6499136001803	1540.1263884000946	1541.13640139997	1541.8133609001525	1543.334932300029	1544.3518098001368	n/a	n/a	1545.364771099994	1546.3426265001765	2020-02-08 10:14:12.247110	1.22920205970327	-4.30558919358249	-7.80646396961628	-8.51948730492962	-6.577261909913	-7.80646396961628	-1.22920205970327	-4.30558919358249	-7.80646396961628	-6.577261909913	-7.80646396961628	4.30558919358249	-10.305632573611666	-9.221634695985243	-10.715389191380883	-17.795442434029848	-15.353194887642731	-10.715389191380883	2.955531982739568	-18.187108326317635	-7.881475752705977	-13.848249151848488	-6.088774735517633	3	missed	0.0
316.7296541000251	7.469686100026593	nogo_punish	1.0	316.7745854998939	319.5466909999959	322.0769671997987	2.772105500102043	317.78137919981964	321.0536506997887	323.0792708999943	1.7653118001762778	1.0233165000099689	1.1650006999261677	n/a	1.0	n/a	2	0	48	3	nogo_punish	0	0	-1	0	0	1	0	n/a	n/a	-1	1.0	1.0	1229.6499136001803	1546.4244991000742	1547.4312928	1549.1966046001762	1550.703564299969	1551.726880799979	n/a	n/a	1552.7291845001746	1553.8941852001008	2020-02-08 10:14:12.247110	6.03800451438561	-6.56334985274731	-0.304604433280687	-0.35014501645331	-6.3426089476663	-0.304604433280687	-6.03800451438561	-0.304604433280687	-6.56334985274731	-0.304604433280687	-6.3426089476663	-9.382705947181632	-5.496830118929327	-11.479395355150062	-3.2135296550452903	-9.626100145553538	-15.11854192539603	-3.2135296550452903	-10.732763158024554	-11.914450849685322	-6.417620730755997	-9.847264391546686	-4.8456606186486635	3	missed	0.0
324.2452952999156	7.309106200002134	nogo_punish	1.0	324.2902266997844	326.84220439987257	329.371037799865	2.551977700088173	325.2951675998047	328.3468256997878	330.3793169998096	1.5470368000678718	1.024212100077193	1.2200158999769428	n/a	1.0	n/a	2	0	49	3	nogo_punish	0	0	-1	0	0	1	0	n/a	n/a	-1	1.0	1.0	1229.6499136001803	1553.9401402999647	1554.945081199985	1556.4921180000529	1557.996739299968	1559.0209514000453	n/a	n/a	1560.02923059999	1561.2492464999668	2020-02-08 10:14:12.247110	3.09180719096096	-6.56334985274731	-4.49904310085861	-4.53053880096454	-7.59085029181957	-4.49904310085861	-3.09180719096096	-4.49904310085861	-6.56334985274731	-4.49904310085861	-7.59085029181957	-5.18826727960371	-8.443027442353976	-11.479395355150062	-7.407968322623213	-13.806493930064768	-16.366783269549302	-7.407968322623213	-6.538324490446632	-16.108889517263243	-7.665862074909267	-14.041703059124607	-4.8456606186486635	3	missed	0.0
331.5835798000917	6.411959199933108	nogo_reward	1.0	331.6285111999605	333.5552814998664	336.09366079978645	1.926770299905911	332.6419741997961	335.0701768998988	337.10328059992753	0.9133073000703007	1.0234838998876512	0.9371897999660632	n/a	1.0	n/a	2	0	50	1	nogo_reward	1	0	1	0	0	1	0	n/a	n/a	1	1.0	1.0	1229.6499136001803	1561.2784248001408	1562.2918877999764	1563.2051951000467	1564.720090500079	1565.7435743999667	n/a	n/a	1566.7531942001078	1567.690384000074	2020-02-08 10:14:12.247110	10.5970787473752	0.0	16.2699690794094	16.2699690794094	5.67289033203414	16.2699690794094	-10.5970787473752	16.2699690794094	0.0	16.2699690794094	5.67289033203414	16.503326690301698	-0.9377558859397368	-4.916045502402753	13.361043857644797	6.994013950309171	-3.1030426456955906	13.361043857644797	15.153269479458777	4.660122663004765	5.597878548944443	6.727309121143401	1.7176892340986458	3	missed	0.0
338.04051740001887	6.950021700002253	go_reward	0.2472711000591516	338.0854487998877	340.51857219985686	343.1026899998542	2.4331233999691904	339.08228619978763	342.0718795999419	344.1044257998001	1.4362860000692308	1.0308103999122977	0.9310447000898421	n/a	1.0	n/a	2	0	51	2	go_reward	0	0	1	1	1	1	0	n/a	n/a	0	0.2472711000591516	1.0	1229.6499136001803	1567.735362400068	1568.732199799968	1570.1684858000372	1571.7217932001222	1572.7526036000345	n/a	n/a	1573.7543393999804	1574.6853841000702	2020-02-08 10:14:12.247110	38.1499412304122	32.1250762658912	0.0	17.2587503616246	38.1499412304122	0.0	-38.1499412304122	32.1250762658912	0.0	38.1499412304122	0.0	-32.1250762658912	26.615106597097267	27.20903076348845	-2.908925221764603	7.982795232524371	29.374008252682472	-2.908925221764603	-33.47513347673412	26.540094814007567	-0.07501178308969737	22.582416307625202	1.7176892340986458	3	missed	0.0
345.06664390000515	6.2552334000356495	nogo_punish	1.0	345.11157529987395	346.95506829977967	349.48516579996794	1.8434929999057204	346.1093145997729	348.46552299987525	350.49818089976907	0.8457537000067532	1.0196428000926971	0.8686278001405299	n/a	1.0	n/a	2	0	52	3	nogo_punish	1	-1	0	0	0	1	0	n/a	n/a	0	1.0	1.0	1229.6499136001803	1574.7614889000542	1575.7592281999532	1576.60498189996	1578.1154366000555	1579.1350794001482	n/a	n/a	1580.1480944999494	1581.01672230009	2020-02-08 10:14:12.247110	1.57305377106875	-6.56334985274731	-6.68891864438315	-6.71096098284589	-8.26197241545191	-6.68891864438315	-1.57305377106875	-6.68891864438315	-6.56334985274731	-6.68891864438315	-8.26197241545191	6.68891864438315	-9.961780862246187	-11.479395355150062	-9.597843866147752	-15.986916111946119	-17.03790539318164	-9.597843866147752	5.338861433540227	-18.298765060787783	-8.336984198541607	-16.231578602649147	-4.8456606186486635	3	missed	0.0
351.36844939994626	6.507448600139469	nogo_punish	1.0	351.41338079981506	353.6138778999448	356.1399300999474	2.2004971001297235	352.4080498998519	355.1292504000014	357.1527254998216	1.205828000092879	1.0106796999459675	0.7681039001329282	n/a	1.0	n/a	2	0	53	3	nogo_punish	1	-1	0	0	0	1	0	n/a	n/a	0	1.0	1.0	1229.6499136001803	1581.0632943999954	1582.0579635000322	1583.263791500125	1584.7791640001817	1585.7898437001277	n/a	n/a	1586.802639100002	1587.5707430001348	2020-02-08 10:14:12.247110	3.76529798038268	-6.56334985274731	-3.58395033711168	-3.59954332426587	-7.34924831749436	-3.58395033711168	-3.76529798038268	-3.58395033711168	-6.56334985274731	-3.58395033711168	-7.34924831749436	3.58395033711168	-7.769536652932256	-11.479395355150062	-6.492875558876284	-12.875498453366099	-16.125181295224092	-6.492875558876284	2.2338931262687582	-15.193796753516315	-7.424260100584057	-13.126610295377679	-4.8456606186486635	3	missed	0.0
357.8997329000849	6.893602099967893	go_punish	0.3219654001295566	357.94466429995373	359.8769398999866	362.4278419998009	1.932275600032881	358.955866899807	361.41779989982	363.4472809999718	0.9210730001796037	1.0100420999808648	1.390985399949841	n/a	1.0	n/a	2	0	54	4	go_punish	1	0	-1	1	1	1	0	n/a	n/a	0	0.3219654001295566	1.0	1229.6499136001803	1587.594577900134	1588.6057804999873	1589.526853500167	1591.0677135000003	1592.0777555999812	n/a	n/a	1593.097194600152	1594.488180000102	2020-02-08 10:14:12.247110	4.42728816768256	-2.25776065916482	-7.80646396961628	-4.63731852093771	-3.37917580193371	-7.80646396961628	-4.42728816768256	-2.25776065916482	-7.80646396961628	-3.37917580193371	-7.80646396961628	2.25776065916482	-7.107546465632376	-7.173806161567573	-10.715389191380883	-13.91327365003794	-12.155108779663442	-10.715389191380883	0.907703448321898	-14.989022218338345	-7.881475752705977	-11.800420617430818	-6.088774735517633	3	missed	0.0
364.81777009996586	6.404545499943197	go_punish	0.3320493001956492	364.86270149983466	366.6419041999618	369.19817299977876	1.7792027001271435	365.87464739987627	368.17842089990154	370.2107925999444	0.7672568000855335	1.0197520998772234	1.0564543998334557	n/a	1.0	n/a	2	0	55	4	go_punish	1	0	-1	1	1	1	0	n/a	n/a	0	0.3320493001956492	1.0	1229.6499136001803	1594.512615100015	1595.5245610000566	1596.291817800142	1597.8283345000818	1598.848086599959	n/a	n/a	1599.8607062001247	1600.9171605999582	2020-02-08 10:14:12.247110	6.05239830732965	-1.24311411686897	-7.80646396961628	-2.63860150968602	-1.75406566228663	-7.80646396961628	-6.05239830732965	-1.24311411686897	-7.80646396961628	-1.75406566228663	-7.80646396961628	1.24311411686897	-5.482436325985287	-6.159159619271723	-10.715389191380883	-11.914556638786248	-10.52999864001636	-10.715389191380883	-0.10694309397395174	-13.363912078691264	-7.881475752705977	-10.785774075134968	-6.088774735517633	3	missed	0.0
371.28747579990886	6.629112800117582	go_reward	0.3923916001804173	371.33240719977766	372.9984118998982	375.5462871999482	1.6660047001205385	372.3363798998762	374.5231215998065	376.55588469980285	0.662032000022009	1.0231656001417377	1.4056353000923991	n/a	1.0	n/a	2	0	56	2	go_reward	1	1	0	1	1	1	0	n/a	n/a	1	0.3923916001804173	1.0	1229.6499136001803	1600.982320799958	1601.9862935000565	1602.6483255000785	1604.1730351999868	1605.1962008001285	n/a	n/a	1606.2057982999831	1607.6114336000755	2020-02-08 10:14:12.247110	20.8664385260077	17.2587503616246	0.0	9.70420727308636	20.8664385260077	0.0	-20.8664385260077	17.2587503616246	0.0	20.8664385260077	0.0	15.514545408086498	9.331603892692762	12.342704859221847	-2.908925221764603	0.428252143986132	12.090505548277967	-2.908925221764603	14.164488197243577	9.256592109603064	-0.07501178308969737	7.716090403358601	1.7176892340986458	3	missed	0.0
377.9915877000892	6.092327299993713	nogo_punish	1.0	378.036519099958	379.8269462999888	382.3515763999892	1.7904272000307628	379.04384149983525	381.3398136999458	383.3696371999106	0.7831048001535237	1.0117627000433913	0.7592092000411412	n/a	1.0	n/a	2	0	57	3	nogo_punish	1	-1	0	0	0	1	0	n/a	n/a	0	1.0	1.0	1229.6499136001803	1607.6864327001383	1608.6937551000156	1609.476859900169	1610.989727300126	1612.0014900001695	n/a	n/a	1613.0195508000909	1613.778760000132	2020-02-08 10:14:12.247110	4.85985285695071	-6.56334985274731	-2.01203243343414	-2.02317144327294	-6.87188529038486	-2.01203243343414	-4.85985285695071	-2.01203243343414	-6.56334985274731	-2.01203243343414	-6.87188529038486	2.01203243343414	-6.674981776364227	-11.479395355150062	-4.920957655198743	-11.299126572373169	-15.647818268114591	-4.920957655198743	0.6619752225912183	-13.621878849838774	-6.946897073474557	-11.554692391700138	-4.8456606186486635	3	missed	0.0
384.1124321001116	6.167213999899104	nogo_reward	1.0	384.1573634999804	386.0227520999033	388.54033529991284	1.8653885999228805	385.1641323999502	387.5249890999403	389.5496029998178	0.8586196999531239	1.015346199972555	0.7749745000617168	n/a	1.0	n/a	2	0	58	1	nogo_reward	1	0	1	0	0	1	0	n/a	n/a	1	1.0	1.0	1229.6499136001803	1613.8072771001607	1614.8140460001305	1615.6726657000836	1617.1749027001206	1618.1902489000931	n/a	n/a	1619.199516599998	1619.9744911000598	2020-02-08 10:14:12.247110	16.0762840177916	0.0	24.1538279377641	24.1538279377641	8.07754391997244	24.1538279377641	-16.0762840177916	24.1538279377641	0.0	24.1538279377641	8.07754391997244	8.619467831946999	4.541449384476664	-4.916045502402753	21.244902715999494	14.87787280866387	-0.6983890577572911	21.244902715999494	7.269410621104077	12.543981521359465	8.002532136882742	14.6111679794981	1.7176892340986458	3	missed	0.0
390.3088793000204	6.368618299952004	nogo_reward	1.0	390.3538106998892	391.6960812998004	394.2283660999965	1.3422705999112168	391.3667116998695	393.20516149979085	395.23848959989846	0.32936959993094206	1.023204600205645	1.4839393999427557	n/a	1.0	n/a	2	0	59	1	nogo_reward	1	0	1	0	0	1	0	n/a	n/a	1	1.0	1.0	1229.6499136001803	1620.0037243000695	1621.0166253000498	1621.3459948999807	1622.8550750999711	1623.8782797001768	n/a	n/a	1624.8884032000788	1626.3723426000215	2020-02-08 10:14:12.247110	18.7331587920976	0.0	28.0324021614543	28.0324021614543	9.29924336935673	28.0324021614543	-18.7331587920976	28.0324021614543	0.0	28.0324021614543	9.29924336935673	4.740893608256798	7.198324158782665	-4.916045502402753	25.123476939689695	18.75644703235407	0.5233103916269997	25.123476939689695	3.3908363974138758	16.422555745049664	9.224231586267033	18.4897422031883	1.7176892340986458	3	missed	0.0
396.70216400013305	6.203500699950155	go_punish	0.3220561000052839	396.74709540000185	398.2408404999876	400.8043656998782	1.4937450999857447	397.74761819979176	399.77109709987417	401.80867479997687	0.4932223001958391	1.0332686000040212	1.141921299975138	n/a	1.0	n/a	2	0	60	4	go_punish	1	0	-1	1	1	1	0	n/a	n/a	0	0.3220561000052839	1.0	1229.6499136001803	1626.3970090001822	1627.397531799972	1627.890754100168	1629.4210107000545	1630.4542793000585	n/a	n/a	1631.4585884001572	1632.6005097001323	2020-02-08 10:14:12.247110	6.9210121745568	-0.713023335313346	-7.80646396961628	-1.55810557123175	-0.885451795059477	-7.80646396961628	-6.9210121745568	-0.713023335313346	-7.80646396961628	-0.885451795059477	-7.80646396961628	0.713023335313346	-4.613822458758136	-5.6290688377160985	-10.715389191380883	-10.834060700331978	-9.661384772789209	-10.715389191380883	-0.6370338755295758	-12.495298211464112	-7.881475752705977	-10.255683293579345	-6.088774735517633	3	missed	0.0
