onset	duration	trial_type	response_time	cueOnset	targetOnset	fbOnset	cueRT	firstfixOnset	secondfixOnset	waitOnset	firstfixdur	secondfixdur	waitdur	nback_fbOnset	nback_response_time	nback_targetOnset	block	wm	trial	cue	cond	is_common	outcome_go	outcome_nogo	key_correct	key_pressed	is_correct	key_correct_nback	key_pressed_nback	is_correct_nback	outcome	rt	rt_nback	time_scan	time_onset	time_isi1	time_circle	time_isi2	time_feedback	time_same	time_correct	time_iti	time_done	timestamp_scan	DV	Qgo	Qnogo	SV	Wgo	Wnogo	mDV	Qchosen	Qunchosen	Wchosen	Wunchosen	PE	DVC	QgoC	QnogoC	SVC	WgoC	WnogoC	PEC	WchosenC	WunchosenC	QchosenC	QunchosenC	run	outcome_nback	nback_targetResp
0.0	8.775905600050464	go_reward	0.2896417999872938	0.009323399979621172	1.9256938000326045	4.4770571999831645	1.9163704000529833	1.0025389000072664	3.4559443999896757	7.5419791000313126	0.9231549000253381	1.0211127999934888	1.243249899998773	6.532713100022875	0.5793605999788269	5.489931599993724	2	1	61	4	go_reward	0	0	1	1	1	1	1	0.0	0.0	0	0.2896417999872938	0.5793605999788269	1944.8527569000144	1944.862080299994	1945.8552958000216	1946.778450700047	1948.308701300004	1949.3298140999975	1950.342688500008	1951.3854700000372	1952.3947360000457	1953.6379859000444	2020-02-21 17:57:25.982190	11.7461358926955	11.3131442062125	0.0	11.2674588883036	11.7461358926955	0.0	-11.7461358926955	11.3131442062125	0.0	11.7461358926955	0.0	-11.3131442062125	8.831206105527626	9.037255869222852	-0.7552045199111639	8.394657645772398	9.103750428056465	-0.7552045199111639	-11.944109738771408	8.58987600683646	-0.2413300986911632	8.418972455508987	-0.13692110619730063	4	wrong	1.0
8.800809400039725	9.452299500000663	go_reward	0.2612693999544717	8.810132800019346	11.41108460002556	13.96419089997653	2.6009518000062144	9.811334100028034	12.947631100018043	17.0191149000309	1.5997504999975263	1.016559799958486	1.2433173999891096	16.007882500009146	0.3768675000173971	14.969426900031976	2	1	62	4	go_reward	1	1	0	1	1	1	0	0.0	1.0	1	0.2612693999544717	0.3768675000173971	1944.8527569000144	1953.6628897000337	1954.6640910000424	1956.26384150004	1957.8003880000324	1958.8169477999909	1959.8221838000463	1960.8606394000235	1961.8718718000453	1963.1151892000344	2020-02-21 17:57:25.982190	8.65835238296468	8.14407273853618	0.0	8.10668802985164	8.65835238296468	0.0	-8.65835238296468	8.14407273853618	0.0	8.65835238296468	0.0	6.04177410807692	5.743422595796805	5.8681844015465305	-0.7552045199111639	5.233886787320437	6.015966918325644	-0.7552045199111639	5.410808575518014	5.5020924971056395	-0.2413300986911632	5.249900987832666	-0.13692110619730063	4	correct	1.0
18.277227300044387	7.990281299979188	go_reward	0.3602085000020452	18.28655070002401	19.621123699995223	22.189744299976155	1.3345729999712148	19.286477799993236	21.165961700025946	25.252296500024386	0.3346459000019877	1.0237825999502093	1.0245354999788105	24.24879949999763	0.3933112999657169	23.203989000001684	2	1	63	4	go_reward	1	1	0	1	1	1	1	1.0	1.0	1	0.3602085000020452	0.3933112999657169	1944.8527569000144	1963.1393076000384	1964.1392347000076	1964.4738806000096	1966.0187186000403	1967.0425011999905	1968.056745900016	1969.101556400012	1970.1050534000387	1971.1295889000176	2020-02-21 17:57:25.982190	10.140873720778	9.66892360274313	0.0	9.63805362026736	10.140873720778	0.0	-10.140873720778	9.66892360274313	0.0	10.140873720778	0.0	4.51692324386997	7.225943933610125	7.393035265753481	-0.7552045199111639	6.765252377736158	7.498488256138964	-0.7552045199111639	3.8859577113110637	6.98461383491896	-0.2413300986911632	6.774751852039616	-0.13692110619730063	4	correct	1.0
26.38170630001696	9.556463900021754	go_punish	0.2805354999727569	26.39102969999658	28.88967800000637	31.46213220001664	2.4986483000097905	27.405842599982407	30.432975900010433	34.51005640003132	1.4838354000239633	1.029156300006207	1.4374371999870164	33.490863599989325	0.8746448999736458	32.46766329999036	2	1	64	2	go_punish	0	-1	0	1	1	1	0	1.0	0.0	-1	0.2805354999727569	0.8746448999736458	1944.8527569000144	1971.243786600011	1972.2585994999968	1973.7424349000207	1975.2857328000248	1976.314889100031	1977.3204202000047	1978.3436205000037	1979.3628133000457	1980.8002505000327	2020-02-21 17:57:25.982190	1.03722088711626	-0.447895259371624	-0.953846908167834	-0.603548403860466	0.0833739789484241	-0.953846908167834	-1.03722088711626	-0.447895259371624	-0.953846908167834	0.0833739789484241	-0.953846908167834	-1.280447855329986	-1.8777089000516152	-2.7237835963612724	-1.709051428078998	-3.476349646391668	-2.559011485690612	-1.709051428078998	-1.9114133878888924	-3.0728859069106154	-1.1951770068589973	-3.3420670100751377	-1.0907680143651346	4	wrong	1.0
35.98366359999636	8.771646200038958	go_punish	1.0	35.99298699997598	38.435090499988064	40.959882399998605	2.442103500012081	36.998375400027726	39.94578870001715	43.989907999988645	1.4367150999603382	1.0140936999814585	0.7747252000262961	42.98806170001603	0.8956922999932431	41.9658056999906	2	1	65	2	go_punish	1	0	-1	1	0	0	0	0.0	1.0	-1	1.0	0.8956922999932431	1944.8527569000144	1980.8457438999903	1981.851132300042	1983.2878474000024	1984.7985456000315	1985.812639300013	1986.818562600005	1987.8408186000304	1988.842664900003	1989.6173901000293	2020-02-21 17:57:25.982190	-0.736672477419049	-0.745913579892394	-0.953846908167834	-0.868189869515871	-0.217174430748785	-0.953846908167834	0.736672477419049	-0.953846908167834	-0.745913579892394	-0.953846908167834	-0.217174430748785	-0.7744962065337759	-3.6516022645869244	-3.0218019168820422	-1.709051428078998	-3.740991112047073	-2.859559895387821	-1.709051428078998	-1.4054617390926822	-4.110106794026874	-0.45850452943994824	-3.8480186588713474	-0.8828346860896947	4	correct	1.0
44.77995200001169	8.655603800027166	go_reward	0.285117799998261	44.78927539999131	46.46516010002233	49.013871199975256	1.6758847000310197	45.80576979997568	47.990622300014365	52.0599755999865	0.6593903000466526	1.0232488999608904	1.3849036000319757	51.04770120000467	0.3731523000169545	50.023187200014945	2	1	66	4	go_reward	1	1	0	1	1	1	0	0.0	1.0	1	0.285117799998261	0.3731523000169545	1944.8527569000144	1989.6420323000057	1990.65852669999	1991.3179170000367	1992.8433792000287	1993.8666280999896	1994.8759441000293	1995.900458100019	1996.9127325000009	1998.2976361000328	2020-02-21 17:57:25.982190	11.1087177358023	10.6533735402555	0.0	10.6276712999613	11.1087177358023	0.0	-11.1087177358023	10.6533735402555	0.0	11.1087177358023	0.0	3.5324733063576	8.193787948634425	8.37748520326585	-0.7552045199111639	7.7548700574300975	8.466332271163264	-0.7552045199111639	2.901507773798694	7.95245784994326	-0.2413300986911632	7.759201789551986	-0.13692110619730063	4	correct	1.0
53.460366900020745	8.215580400021281	go_reward	0.3253744000103324	53.469690300000366	55.19364910002332	57.750057800032664	1.723958800022956	54.47981869999762	56.72578199999407	60.816628200002015	0.7138304000256994	1.0242758000385948	0.8686425000196323	59.80183519999264	0.4361995999934152	58.76425200002268	2	1	67	4	go_reward	1	1	0	1	1	1	0	0.0	1.0	1	0.3253744000103324	0.4361995999934152	1944.8527569000144	1998.3224472000147	1999.332575600012	2000.0464060000377	2001.5785389000084	2002.602814700047	2003.617008900037	2004.654592100007	2005.6693851000164	2006.538027600036	2020-02-21 17:57:25.982190	11.7808666293234	11.3313240775998	0.0	11.3097611829785	11.7808666293234	0.0	-11.7808666293234	11.3313240775998	0.0	11.7808666293234	0.0	2.8545227690132986	8.865936842155525	9.055435740610152	-0.7552045199111639	8.436959940447299	9.138481164684364	-0.7552045199111639	2.2235572364543925	8.62460674346436	-0.2413300986911632	8.437152326896287	-0.13692110619730063	4	correct	1.0
61.72056410001801	9.445563799992897	nogo_reward	0.2481237000320106	61.72988749999763	64.24131650000322	66.78620480000973	2.5114290000055917	62.735960600024555	65.76272539998172	69.82018799998332	1.5053558999786674	1.023479400028009	1.3552633000072092	68.81431929999962	0.7395219000172801	67.79980749997753	2	1	68	3	nogo_reward	0	1	0	0	1	0	0	0.0	1.0	1	0.2481237000320106	0.7395219000172801	1944.8527569000144	2006.582644400012	2007.588717500039	2009.0940734000176	2010.615482299996	2011.638961700024	2012.652564399992	2013.667076200014	2014.6729448999977	2016.0282082000049	2020-02-21 17:57:25.982190	0.981410065273807	0.436327979774237	0.0	0.436327979774237	0.981410065273807	0.0	-0.981410065273807	0.436327979774237	0.0	0.981410065273807	0.0	13.749518866838862	-1.933519721894068	-1.8395603572154113	-0.7552045199111639	-2.436473262756965	-1.660975399365229	-0.7552045199111639	13.118553334279955	-2.1748498205852322	-0.2413300986911632	-2.4578437709292764	-0.13692110619730063	4	correct	1.0
71.19245850003813	7.975806300004251	nogo_punish	0.3069303999654948	71.20178190001775	72.68040990002919	75.21244440000714	1.4786280000114402	72.21105360001093	74.20184850000078	78.27312189998315	0.4693563000182621	1.010595900006365	0.9044663000388482	77.2605957000053	0.4324825999792665	76.23085860000015	2	1	69	1	nogo_punish	0	0	-1	0	1	0	0	0.0	1.0	0	0.3069303999654948	0.4324825999792665	1944.8527569000144	2016.054538800032	2017.0638105000253	2017.5331668000435	2019.0546054000151	2020.0652013000215	2021.0836155000145	2022.1133526000197	2023.1258787999975	2024.0303451000364	2020-02-21 17:57:25.982190	-0.419939456621726	-0.953846908167834	0.0	-0.069002813469167	-0.419939456621726	0.0	0.419939456621726	-0.953846908167834	0.0	-0.419939456621726	0.0	0.953846908167834	-3.3348692437896013	-3.2297352451574826	-0.7552045199111639	-2.941804056000369	-3.062324921260762	-0.7552045199111639	0.3228813756089277	-3.5761993424807654	-0.2413300986911632	-3.8480186588713474	-0.13692110619730063	4	correct	1.0
79.21431200002553	8.662910600017995	nogo_reward	0.2905096000176854	79.22363540000515	81.08589940000115	83.66753169999015	1.862263999996003	80.23581769998395	82.64577760000248	86.72118759999285	0.8500817000171992	1.0217540999876746	1.1653584000303	85.7089309000296	0.3414326999918557	84.6850121000316	2	1	70	3	nogo_reward	1	0	1	0	1	0	1	1.0	1.0	0	0.2905096000176854	0.3414326999918557	1944.8527569000144	2024.0763923000195	2025.0885745999983	2025.9386563000155	2027.4985345000168	2028.5202886000045	2029.537769000046	2030.561687800044	2031.5739445000072	2032.7393029000375	2020-02-21 17:57:25.982190	4.41974355680749	3.95313580051549	0.0	3.95313580051549	4.41974355680749	0.0	-4.41974355680749	3.95313580051549	0.0	4.41974355680749	0.0	-3.95313580051549	1.504813769639615	1.6772474635258416	-0.7552045199111639	1.0803345579842878	1.7773580921684542	-0.7552045199111639	-4.584101333074396	1.263483670948451	-0.2413300986911632	1.0589640498119763	-0.13692110619730063	4	correct	1.0
87.90105390001531	8.622700500011206	go_reward	0.2552875999826938	87.91037729999493	89.61346510000294	92.15088919998402	1.7030878000080065	88.92172380001284	91.13635460002115	95.18226159998449	0.6917412999900989	1.0145345999628717	1.3508162000216544	94.17912280000724	0.5221751999924891	93.16418910003267	2	1	71	4	go_reward	1	1	0	1	1	1	0	0.0	1.0	1	0.2552875999826938	0.5221751999924891	1944.8527569000144	2032.7631342000093	2033.7744807000272	2034.4662220000173	2035.9891115000355	2037.0036460999984	2038.016946000047	2039.0318797000216	2040.0350184999988	2041.3858347000205	2020-02-21 17:57:25.982190	12.2695896807679	11.8210703651622	0.0	11.8028528583531	12.2695896807679	0.0	-12.2695896807679	11.8210703651622	0.0	12.2695896807679	0.0	2.3647764814508996	9.354659893600026	9.545182028172551	-0.7552045199111639	8.930051615821899	9.627204216128865	-0.7552045199111639	1.7338109488919933	9.11332979490886	-0.2413300986911632	8.926898614458686	-0.13692110619730063	4	correct	1.0
96.54758230003085	7.684710200002655	go_reward	0.5439873999566771	96.55690570001047	97.84335490001854	100.37230180000165	1.2864492000080645	97.55939549999334	99.3693563999841	103.40505330002634	0.2839594000251964	1.002945400017552	0.8365625999867916	102.39249930001074	0.3942238000454381	101.37816770002246	2	1	72	4	go_reward	0	0	1	1	1	1	0	0.0	1.0	0	0.5439873999566771	0.3942238000454381	1944.8527569000144	2041.4096626000248	2042.4121524000077	2042.696111800033	2044.2221132999985	2045.225058700016	2046.2309246000368	2047.245256200025	2048.2578102000407	2049.0943728000275	2020-02-21 17:57:25.982190	12.6377987596345	12.1881579978847	0.0	12.172666607834	12.6377987596345	0.0	-12.6377987596345	12.1881579978847	0.0	12.6377987596345	0.0	-12.1881579978847	9.722868972466625	9.912269660895051	-0.7552045199111639	9.299865365302797	9.995413294995464	-0.7552045199111639	-12.819123530443607	9.48153887377546	-0.2413300986911632	9.293986247181186	-0.13692110619730063	4	correct	1.0
104.25747390004108	9.34246809995966	go_reward	0.2841797000146471	104.2667973000207	106.59721139998874	109.16510460001882	2.3304140999680385	105.26598309999099	108.14178180001863	112.20990110002458	1.331228299997747	1.0233228000001873	1.3993642999557778	111.20590649999212	0.388326899963431	110.17608870001277	2	1	73	4	go_reward	1	1	0	1	1	1	1	1.0	1.0	1	0.2841797000146471	0.388326899963431	1944.8527569000144	2049.119554200035	2050.1187400000053	2051.449968300003	2052.994538700033	2054.017861500033	2055.028845600027	2056.0586634000065	2057.062658000039	2058.4620222999947	2020-02-21 17:57:25.982190	9.41404297759341	8.88447511563796	0.0	8.87122223952098	9.41404297759341	0.0	-9.41404297759341	8.88447511563796	0.0	9.41404297759341	0.0	5.30137173097514	6.499113190425534	6.608586778648311	-0.7552045199111639	5.998420996989778	6.7716575129543735	-0.7552045199111639	4.6704061984162335	6.257783091734369	-0.2413300986911632	5.990303364934446	-0.13692110619730063	4	correct	1.0
113.62785590003477	8.711481100006495	nogo_punish	0.2962574000121094	113.6371793000144	115.43407660000958	118.00364020001143	1.7968972999951802	114.6450438000029	116.98348400002578	121.05845240002964	0.7890328000066802	1.0201561999856494	1.290207999991253	120.04689360002567	0.9054573999601416	119.02085219998844	2	1	74	1	nogo_punish	0	0	-1	0	1	0	0	0.0	1.0	0	0.2962574000121094	0.9054573999601416	1944.8527569000144	2058.4899362000288	2059.4978007000173	2060.286833500024	2061.83624090004	2062.856397100026	2063.873609100003	2064.89965050004	2065.911209300044	2067.2014173000352	2020-02-21 17:57:25.982190	-0.12200578258062	-0.656399084238752	0.0	-0.0580169673748604	-0.12200578258062	0.0	0.12200578258062	-0.656399084238752	0.0	-0.12200578258062	0.0	0.656399084238752	-3.036935569748495	-2.9322874212284002	-0.7552045199111639	-2.9308182099060627	-2.764391247219656	-0.7552045199111639	0.025433551679845734	-3.2782656684396594	-0.2413300986911632	-3.5505708349422656	-0.13692110619730063	4	correct	1.0
122.36361830000578	8.786068700020678	go_reward	0.3494145000004209	122.3729416999854	124.14701000001469	126.70957710000266	1.7740683000292847	123.38098259997787	125.68388359999472	129.74428199999966	0.766027400036819	1.0256935000079466	1.4147284000064246	128.7405574999866	0.3557536999578587	127.72194770001806	2	1	75	4	go_reward	1	1	0	1	1	1	1	1.0	1.0	1	0.3494145000004209	0.3557536999578587	1944.8527569000144	2067.2256985999998	2068.233739499992	2068.999766900029	2070.536640500009	2071.562334000017	2072.5747046000324	2073.593314400001	2074.597038900014	2076.0117673000204	2020-02-21 17:57:25.982190	10.7869075804239	10.3009654674041	0.0	10.2895638034468	10.7869075804239	0.0	-10.7869075804239	10.3009654674041	0.0	10.7869075804239	0.0	3.8848813792090002	7.8719777932560255	8.02507713041445	-0.7552045199111639	7.416762560915598	8.144522115784865	-0.7552045199111639	3.253915846650094	7.6306476945648605	-0.2413300986911632	7.4067937167005855	-0.13692110619730063	4	correct	1.0
131.21686260000615	8.597519500006001	go_punish	1.0	131.22618599998577	132.8935519999941	135.4253624000121	1.6673660000083146	132.24113839998608	134.40982880000956	138.479522300011	0.6524136000080034	1.0155336000025272	1.3441831999807619	137.4670406000223	0.6207539000315592	136.43775470001856	2	1	76	2	go_punish	1	0	-1	1	0	0	0	0.0	1.0	-1	1.0	0.6207539000315592	1944.8527569000144	2076.0789429	2077.0938953000004	2077.7463089000084	2079.262585700024	2080.2781193000264	2081.290511600033	2082.3197975000367	2083.3322792000254	2084.676462400006	2020-02-21 17:57:25.982190	-0.883841296345158	-0.745913579892394	-1.10429434361038	-1.05169103909352	-0.220453047265218	-1.10429434361038	0.883841296345158	-1.10429434361038	-0.745913579892394	-1.10429434361038	-0.220453047265218	-0.6240487710912299	-3.7987710835130333	-3.0218019168820422	-1.859498863521544	-3.924492281624722	-2.862838511904254	-1.859498863521544	-1.2550143036501362	-4.260554229469419	-0.4617831459563812	-3.9984660943138937	-0.8828346860896947	4	correct	1.0
139.86135950003518	7.908879199996591	nogo_reward	0.3872397000086494	139.8706829000148	141.19512769998983	143.8122620999934	1.3244447999750264	140.8667804999859	142.78789410000945	146.8486208000104	0.32834720000391826	1.0243679999839514	0.9309413000009954	145.83025469997665	0.4899588000262156	144.8164171000244	2	1	77	3	nogo_reward	0	1	0	0	1	0	0	0.0	1.0	1	0.3872397000086494	0.4899588000262156	1944.8527569000144	2084.723439800029	2085.7195374000003	2086.047884600004	2087.640651000024	2088.6650190000078	2089.6691740000388	2090.683011599991	2091.7013777000248	2092.6323190000257	2020-02-21 17:57:25.982190	3.21672090499004	2.70466954192769	0.0	2.70466954192769	3.21672090499004	0.0	-3.21672090499004	2.70466954192769	0.0	3.21672090499004	0.0	11.48117730468541	0.3017911178221646	0.4287812049380415	-0.7552045199111639	-0.16813170060351235	0.5743354403510037	-0.7552045199111639	10.850211772126503	0.06046101913100044	-0.2413300986911632	-0.1895022087758238	-0.13692110619730063	4	correct	1.0
147.79631649999646	8.64155420003226	nogo_punish	0.3990314000402577	147.8056398999761	149.36931069998582	151.91153919999442	1.5636708000097315	148.8151002000086	150.8961447000038	154.97921930003213	0.5542104999772164	1.0153944999906344	1.4679747999762185	153.96660689997952	0.4698105999850668	152.93162799999072	2	1	78	1	nogo_punish	1	-1	0	0	1	0	0	0.0	1.0	-1	0.3990314000402577	0.4698105999850668	1944.8527569000144	2092.6583967999904	2093.667857100023	2094.2220676	2095.748901600018	2096.764296100009	2097.784384900005	2098.819363799994	2099.8319762000465	2101.2999510000227	2020-02-21 17:57:25.982190	0.0643645839066916	-0.470440252809135	0.0	-0.0492017708476537	0.0643645839066916	0.0	-0.0643645839066916	-0.470440252809135	0.0	0.0643645839066916	0.0	-1.257902861892475	-2.8505652032611835	-2.7463285897987832	-0.7552045199111639	-2.922003013378856	-2.5780208807323444	-0.7552045199111639	-1.8888683944513813	-3.0918953019523476	-0.2413300986911632	-3.3646120035126486	-0.13692110619730063	4	correct	1.0
156.47984790004557	9.384908999956679	nogo_reward	0.2572809000266716	156.4891713000252	158.92498389998218	161.46861819998594	2.4358125999569893	157.49794969998766	160.45281990000512	164.5149937000242	1.427034199994523	1.0157982999808155	1.3590865999576636	163.50219500000821	0.4705849000019952	162.47183930000756	2	1	79	3	nogo_reward	0	1	0	0	1	0	1	0.0	0.0	1	0.2572809000266716	0.4705849000019952	1944.8527569000144	2101.3419282000395	2102.350706600002	2103.7777407999965	2105.3055768000195	2106.3213751000003	2107.324596200022	2108.3549519000226	2109.3677506000386	2110.726837199996	2020-02-21 17:57:25.982190	5.98488004606715	5.53097423854565	0.0	5.53097423854565	5.98488004606715	0.0	-5.98488004606715	5.53097423854565	0.0	5.98488004606715	0.0	8.65487260806745	3.0699502588992744	3.255085901556002	-0.7552045199111639	2.6581729960144482	3.3424945814281135	-0.7552045199111639	8.023907075508543	2.8286201602081102	-0.2413300986911632	2.6368024878421368	-0.13692110619730063	4	wrong	1.0
165.90773680002894	8.959176299977116	go_punish	0.3543340000323951	165.91706020000856	168.14909199997783	170.68368800001872	2.2320317999692634	166.92533840000397	169.67059140000538	173.74227950000204	1.2237535999738611	1.0130966000133412	1.1339569999836385	172.72399259998974	0.8912812999915332	171.7010502999765	2	1	80	2	go_punish	1	0	-1	1	1	1	0	0.0	1.0	0	0.3543340000323951	0.8912812999915332	1944.8527569000144	2110.769817100023	2111.7780953000183	2113.001848899992	2114.5233483000197	2115.536444900033	2116.553807199991	2117.576749500004	2118.5950364000164	2119.7289934	2020-02-21 17:57:25.982190	0.99263075756558	-0.745913579892394	-1.21635383270153	-1.18382415283108	-0.223723075135949	-1.21635383270153	-0.99263075756558	-0.745913579892394	-1.21635383270153	-0.223723075135949	-1.21635383270153	0.745913579892394	-1.9222990296022953	-3.0218019168820422	-1.9715583526126939	-4.056625395362282	-2.8661085397749853	-1.9715583526126939	0.11494804733348774	-3.3799829609949885	-1.4576839313926933	-3.6400853305959076	-1.3532749388988305	4	correct	1.0
174.91630219999934	8.57489620003571	nogo_reward	0.4935781999956816	174.92562559997896	176.43361100001493	178.9892608000082	1.5079854000359774	175.93403320002835	177.9700048000086	182.0384479999775	0.49957779998658225	1.0192559999995865	1.4620738000371603	181.02618970000185	0.3149866000167094	179.99639370001387	2	1	81	3	nogo_reward	1	0	1	0	1	0	1	1.0	1.0	0	0.4935781999956816	0.3149866000167094	1944.8527569000144	2119.7783824999933	2120.7867901000427	2121.2863679000293	2122.822761700023	2123.8420177000226	2124.849150600028	2125.878946600016	2126.891204899992	2128.353278700029	2020-02-21 17:57:25.982190	7.86236995815548	7.43151323507756	0.0	7.43151323507756	7.86236995815548	0.0	-7.86236995815548	7.43151323507756	0.0	7.86236995815548	0.0	-7.43151323507756	4.947440170987605	5.155624898087911	-0.7552045199111639	4.558711992546358	5.219984493516444	-0.7552045199111639	-8.062478767636467	4.70611007229644	-0.2413300986911632	4.537341484374046	-0.13692110619730063	4	correct	1.0
183.51739340001905	9.251184699999158	nogo_punish	0.26060109998798	183.52671679999867	185.96179670002266	188.515408199979	2.435079900023993	184.53404430003138	187.49006839998765	191.56586780003272	1.4277523999912773	1.0253397999913432	1.2120336999651045	190.55332310002996	0.3644633000367321	189.52789560001065	2	1	82	1	nogo_punish	1	-1	0	0	1	0	0	0.0	1.0	-1	0.26060109998798	0.3644633000367321	1944.8527569000144	2128.379473700013	2129.3868012000457	2130.814553600037	2132.342825300002	2133.3681650999933	2134.380652500025	2135.4060800000443	2136.418624700047	2137.630658400012	2020-02-21 17:57:25.982190	-0.261184311688186	-0.795887849861356	0.0	-0.489948374598956	-0.261184311688186	0.0	0.261184311688186	-0.795887849861356	0.0	-0.261184311688186	0.0	-0.932455264840254	-3.176114098856061	-3.0717761868510043	-0.7552045199111639	-3.362749617130158	-2.903569776327222	-0.7552045199111639	-1.5634207973991603	-3.4174441975472254	-0.2413300986911632	-3.6900596005648696	-0.13692110619730063	4	correct	1.0
192.794900900044	8.662914799991995	nogo_punish	0.2962490999489091	192.80422430002363	194.85008320002817	197.4184723999938	2.045858900004532	193.80214149999665	196.39415010000812	200.4725269000046	1.0479417000315152	1.0243222999856698	0.9946122000110336	199.46493279997958	0.7034282999811694	198.4349535999936	2	1	83	1	nogo_punish	1	-1	0	0	1	0	0	0.0	1.0	-1	0.2962490999489091	0.7034282999811694	1944.8527569000144	2137.656981200038	2138.654898400011	2139.7028401000425	2141.2469070000225	2142.271229300008	2143.287710500008	2144.317689699994	2145.325283800019	2146.31989600003	2020-02-21 17:57:25.982190	-0.47826360478124	-1.00999893956772	0.0	-0.782113591231119	-0.47826360478124	0.0	0.47826360478124	-1.00999893956772	0.0	-0.47826360478124	0.0	-0.7183441751338899	-3.393193391949115	-3.2858872765573683	-0.7552045199111639	-3.654914833762321	-3.120649069420276	-0.7552045199111639	-1.3493097076927962	-3.6345234906402792	-0.2413300986911632	-3.9041706902712336	-0.13692110619730063	4	correct	1.0
201.48589930002345	8.246964999998454	nogo_punish	0.3223138999892398	201.49522270000307	202.8640682999976	205.43415859999368	1.368845599994529	202.50298099999782	204.42388640000672	208.49341270001605	0.36108729999978095	1.0102721999869573	1.2487749999854714	207.480963399983	0.60018469998613	206.4511741999886	2	1	84	1	nogo_punish	0	0	-1	0	1	0	1	1.0	1.0	0	0.3223138999892398	0.60018469998613	1944.8527569000144	2146.3479796000174	2147.355737900012	2147.716825200012	2149.276643300021	2150.286915500008	2151.303931100003	2152.3337202999974	2153.3461696000304	2154.594944600016	2020-02-21 17:57:25.982190	-0.630533116420694	-1.15856812881532	0.0	-0.985212416192649	-0.630533116420694	0.0	0.630533116420694	-1.15856812881532	0.0	-0.630533116420694	0.0	1.15856812881532	-3.545462903588569	-3.4344564658049683	-0.7552045199111639	-3.858013658723851	-3.27291858105973	-0.7552045199111639	0.5276025962564137	-3.786793002279733	-0.2413300986911632	-4.052739879518834	-0.13692110619730063	4	correct	1.0
209.77723480004306	9.75873860000911	go_punish	0.2873467999743297	209.78655820002268	212.549101600016	215.09475170000223	2.7625433999933193	210.79204660002142	214.0802252999856	218.1300224000006	1.7570549999945797	1.0145264000166208	1.415274400031194	217.124179299979	0.4371673999703489	216.1052847999963	2	1	85	2	go_punish	1	0	-1	1	1	1	0	0.0	1.0	0	0.2873467999743297	0.4371673999703489	1944.8527569000144	2154.639315100037	2155.644803500036	2157.4018585000304	2158.9329822	2159.9475086000166	2160.9580417000107	2161.9769361999934	2162.982779300015	2164.398053700046	2020-02-21 17:57:25.982190	1.23005059273898	-0.50595164879621	-1.21635383270153	-0.833980818094873	0.0136967600374514	-1.21635383270153	-1.23005059273898	-0.50595164879621	-1.21635383270153	0.0136967600374514	-1.21635383270153	0.50595164879621	-1.6848791944288952	-2.7818399857858584	-1.9715583526126939	-3.7067820606260753	-2.6286887046015845	-1.9715583526126939	-0.1250138837626963	-3.142563125821588	-1.4576839313926933	-3.4001233994997238	-1.3532749388988305	4	correct	1.0
219.57896190002793	8.491470200010099	nogo_reward	0.276339000032749	219.58828530000756	221.4991487999796	224.05063279997557	1.910863499972038	220.59150640002917	223.03006640000967	227.10180220002076	0.9076423999504186	1.020566399965901	0.9779532999968978	226.09835270000667	0.3757494000019505	225.06680239998968	2	1	86	3	nogo_reward	1	0	1	0	1	0	0	0.0	1.0	0	0.276339000032749	0.3757494000019505	1944.8527569000144	2164.441042200022	2165.4442633000435	2166.351905699994	2167.882823300024	2168.90338969999	2169.919559300004	2170.951109600021	2171.954559100035	2172.932512400032	2020-02-21 17:57:25.982190	5.68797430278756	5.18697558264433	0.0	5.18697558264433	5.68797430278756	0.0	-5.68797430278756	5.18697558264433	0.0	5.68797430278756	0.0	-5.18697558264433	2.773044515619685	2.9110872456546812	-0.7552045199111639	2.3141743401131274	3.045588838148524	-0.7552045199111639	-5.817941115203236	2.5317144169285206	-0.2413300986911632	2.292803831940816	-0.13692110619730063	4	correct	1.0
228.11437700001989	9.472780200012494	go_punish	0.2812308999709785	228.1237003999995	230.60122650000267	233.15380470000673	2.4775261000031605	229.13550829997985	232.13389880000614	236.19695409998576	1.4657182000228204	1.0199059000005946	1.3995265000262407	235.19347469997592	0.4830238000140525	234.16539410001133	2	1	87	2	go_punish	1	0	-1	1	1	1	1	1.0	1.0	0	0.2812308999709785	0.4830238000140525	1944.8527569000144	2172.976457300014	2173.988265199994	2175.453983400017	2176.9866557000205	2178.006561600021	2179.0181510000257	2180.0462315999903	2181.049711	2182.4492375000264	2020-02-21 17:57:25.982190	1.37824599142008	-0.358380763717982	-1.21635383270153	-0.61054734905157	0.161892158718555	-1.21635383270153	-1.37824599142008	-0.358380763717982	-1.21635383270153	0.161892158718555	-1.21635383270153	0.358380763717982	-1.5366837957477952	-2.6342691007076304	-1.9715583526126939	-3.4833485915827724	-2.480493305920481	-1.9715583526126939	-0.2725847688409243	-2.9943677271404843	-1.4576839313926933	-3.2525525144214957	-1.3532749388988305	4	correct	1.0
237.6317916000262	8.655456300009973	nogo_reward	0.3969713000115007	237.6411150000058	239.2143183000153	241.7630046000122	1.5732033000094816	238.64730900002178	240.74315829999978	244.81296850001672	0.567009299993515	1.019846300012432	1.483602799999062	243.80078270001104	0.3990995999774895	242.76932459999807	2	1	88	3	nogo_reward	1	0	1	0	1	0	1	1.0	1.0	0	0.3969713000115007	0.3990995999774895	1944.8527569000144	2182.49387190002	2183.500065900036	2184.0670752000296	2185.595915200014	2186.6157615000266	2187.6220815000124	2188.6535396000254	2189.665725400031	2191.14932820003	2020-02-21 17:57:25.982190	4.30833417401032	3.77626438749703	0.0	3.77626438749703	4.30833417401032	0.0	-4.30833417401032	3.77626438749703	0.0	4.30833417401032	0.0	-3.77626438749703	1.393404386842445	1.5003760505073815	-0.7552045199111639	0.9034631449658277	1.6659487093712841	-0.7552045199111639	-4.407229920055936	1.1520742881512809	-0.2413300986911632	0.8820926367935162	-0.13692110619730063	4	correct	1.0
246.33005140000023	8.463294100016356	go_punish	0.6438421999919228	246.33937479997985	247.72970179998083	250.26919289998477	1.3903270000009798	247.33953800000018	249.2581917999778	253.3249947000295	0.3901637999806553	1.011001100006979	1.4776741999667138	252.30941360001452	0.443302700005006	251.29219339997462	2	1	89	2	go_punish	1	0	-1	1	1	1	1	1.0	1.0	0	0.6438421999919228	0.443302700005006	1944.8527569000144	2191.192131699994	2192.1922949000145	2192.582458699995	2194.110948699992	2195.121949799999	2196.144950299989	2197.162170500029	2198.177751600044	2199.6554258000106	2020-02-21 17:57:25.982190	1.47578146242021	-0.262506924533695	-1.21635383270153	-0.460542072312181	0.259427629718679	-1.21635383270153	-1.47578146242021	-0.262506924533695	-1.21635383270153	0.259427629718679	-1.21635383270153	0.262506924533695	-1.4391483247476653	-2.5383952615233434	-1.9715583526126939	-3.333343314843383	-2.382957834920357	-1.9715583526126939	-0.3684586080252113	-2.8968322561403603	-1.4576839313926933	-3.1566786752372087	-1.3532749388988305	4	correct	1.0
254.83529000001727	9.158654100028798	go_punish	0.304811600013636	254.8446133999969	257.38955429999623	259.9171082000248	2.5449408999993466	255.844185199996	258.920435899985	262.95632579998346	1.5453691000002436	0.9966723000397906	1.0469417000422254	261.9543556999997	0.296408700000029	260.94100450002543	2	1	90	2	go_punish	1	0	-1	1	1	1	0	0.0	1.0	0	0.304811600013636	0.296408700000029	1944.8527569000144	2199.6973703000112	2200.6969421000103	2202.2423112000106	2203.7731927999994	2204.769865100039	2205.79376140004	2206.807112600014	2207.809082699998	2208.85602440004	2020-02-21 17:57:25.982190	1.54263174497628	-0.19754515504719	-1.21635383270153	-0.355894945989802	0.326277912274748	-1.21635383270153	-1.54263174497628	-0.19754515504719	-1.21635383270153	0.326277912274748	-1.21635383270153	0.19754515504719	-1.3722980421915951	-2.4734334920368384	-1.9715583526126939	-3.2286961885210044	-2.3161075523642882	-1.9715583526126939	-0.4334203775117163	-2.8299819735842915	-1.4576839313926933	-3.0917169057507037	-1.3532749388988305	4	correct	1.0
264.04342860000907	8.2159673999995	go_punish	0.0342227999935857	264.0527519999887	265.899274800031	268.4659301000065	1.846522800042294	265.0676940000267	267.4412354999804	271.5032169999904	0.8315808000043035	1.0246946000261232	0.7655023999977857	270.49752390000504	0.3698990000411868	269.4795919000171	2	1	91	2	go_punish	0	-1	0	1	1	1	1	0.0	0.0	-1	0.0342227999935857	0.3698990000411868	1944.8527569000144	2208.905508900003	2209.920450900041	2210.7520317000453	2212.2939923999947	2213.318687000021	2214.3323488000315	2215.3502808000194	2216.3559739000048	2217.1214763000025	2020-02-21 17:57:25.982190	1.58995691252768	-0.152025870584168	-1.21635383270153	-0.280611521262735	0.373603079826155	-1.21635383270153	-1.58995691252768	-0.152025870584168	-1.21635383270153	0.373603079826155	-1.21635383270153	-1.576317244117442	-1.3249728746401952	-2.4279142075738163	-1.9715583526126939	-3.1534127637939373	-2.268782384812881	-1.9715583526126939	-2.2072827766763483	-2.7826568060328842	-1.4576839313926933	-3.0461976212876816	-1.3532749388988305	4	wrong	1.0
272.28596150001977	7.752866700000595	nogo_punish	0.3035633000545203	272.2952848999994	273.7157804000308	276.22662670002273	1.420495500031393	273.3039506999776	275.22612870001467	279.28262269997504	0.41182970005320385	1.000498000008065	0.7655289000249468	278.2707856000052	0.4374559999560006	277.2420273000025	2	1	92	1	nogo_punish	1	-1	0	0	1	0	0	0.0	1.0	-1	0.3035633000545203	0.4374559999560006	1944.8527569000144	2217.1480418000137	2218.156707599992	2218.568537300045	2220.078885600029	2221.079383600037	2222.094784200017	2223.1235425000195	2224.1353795999894	2224.9009085000143	2020-02-21 17:57:25.982190	-0.293158093686214	-0.817996547585177	0.0	-0.683739243635576	-0.293158093686214	0.0	0.293158093686214	-0.817996547585177	0.0	-0.293158093686214	0.0	-0.9103465671164329	-3.208087880854089	-3.0938848845748255	-0.7552045199111639	-3.556540486166778	-2.93554355832525	-0.7552045199111639	-1.541312099675339	-3.4494179795452533	-0.2413300986911632	-3.7121682982886908	-0.13692110619730063	4	correct	1.0
280.08306010003434	9.303938800003834	nogo_reward	0.2910937999840826	280.09238350001397	282.86531010002363	285.41002730000764	2.7729266000096686	281.1007802999811	284.3898516999907	288.48119750001933	1.76452980004251	1.0201756000169553	0.9151247999984662	287.4623522000038	0.3657042999984696	286.4326642000233	2	1	93	3	nogo_reward	1	0	1	0	1	0	0	0.0	1.0	0	0.2910937999840826	0.3657042999984696	1944.8527569000144	2224.9451404000283	2225.9535371999955	2227.718067000038	2229.242608600005	2230.262784200022	2231.2854211000376	2232.315109100018	2233.3339544000337	2234.249079200032	2020-02-21 17:57:25.982190	3.38543768909685	2.83941262532034	0.0	2.83941262532034	3.38543768909685	0.0	-3.38543768909685	2.83941262532034	0.0	3.38543768909685	0.0	-2.83941262532034	0.4705079019289746	0.5635242883306915	-0.7552045199111639	-0.03338861721086239	0.7430522244578137	-0.7552045199111639	-3.470378157879246	0.22917780323781045	-0.2413300986911632	-0.054759125383173846	-0.13692110619730063	4	correct	1.0
289.41123790002894	9.058302099991124	go_reward	0.2613393000210635	289.42056130000856	291.58407819998683	294.1223376999842	2.1635168999782763	290.4228971999837	293.0967655000277	297.1675091999937	1.1611810000031255	1.025572199956514	1.3113542000060079	296.15578249999044	0.4802209000336006	295.13639910001075	2	1	94	4	go_reward	1	1	0	1	1	1	0	0.0	1.0	1	0.2613393000210635	0.4802209000336006	1944.8527569000144	2234.273318200023	2235.275654099998	2236.436835100001	2237.949522400042	2238.9750945999986	2239.989156000025	2241.008539400005	2242.020266100008	2243.331620300014	2020-02-21 17:57:25.982190	11.6653407824564	11.1972068993901	0.0	11.1873463058486	11.6653407824564	0.0	-11.6653407824564	11.1972068993901	0.0	11.6653407824564	0.0	2.9886399472229996	8.750410995288526	8.921318562400451	-0.7552045199111639	8.314545063317397	9.022955317817365	-0.7552045199111639	2.3576744146640936	8.50908089659736	-0.2413300986911632	8.303035148686586	-0.13692110619730063	4	correct	1.0
298.5149546000175	8.69100009999238	nogo_reward	0.2810293000075035	298.52427799999714	300.3824715000228	302.9568836999824	1.8581935000256635	299.5301059000194	301.9170449000085	306.0035980999819	0.8523656000033952	1.0398387999739498	1.2116800000076182	304.99959419999504	0.3136968999751843	303.9697903000051	2	1	95	3	nogo_reward	1	0	1	0	1	0	1	1.0	1.0	0	0.2810293000075035	0.3136968999751843	1944.8527569000144	2243.3770349000115	2244.3828628000338	2245.235228400037	2246.769801800023	2247.809640599997	2248.8225472000195	2249.8523511000094	2250.8563549999963	2252.068035000004	2020-02-21 17:57:25.982190	2.74280854284558	2.19077427067657	0.0	2.19077427067657	2.74280854284558	0.0	-2.74280854284558	2.19077427067657	0.0	2.74280854284558	0.0	-2.19077427067657	-0.17212124432229503	-0.0851140663130785	-0.7552045199111639	-0.6820269718546323	0.10042307820654406	-0.7552045199111639	-2.8217398032354764	-0.4134513430134592	-0.2413300986911632	-0.7033974800269438	-0.13692110619730063	4	correct	1.0
307.23166109999875	8.44647960003931	go_reward	0.8137462000013329	307.24098449997837	308.5996574999881	311.15167019999353	1.3586730000097305	308.23977089999244	310.136880200007	314.1889642000315	0.3598865999956615	1.014789999986533	1.4984998999862	313.17779009998776	0.5042912000208162	312.16527410002936	2	1	96	4	go_reward	1	1	0	1	1	1	1	1.0	1.0	1	0.8137462000013329	0.5042912000208162	1944.8527569000144	2252.0937413999927	2253.092527800007	2253.4524144000025	2254.9896371000214	2256.004427100008	2257.0180310000437	2258.030547000002	2259.041721100046	2260.540221000032	2020-02-21 17:57:25.982190	12.2638621685789	11.802628221336	0.0	11.7940584581058	12.2638621685789	0.0	-12.2638621685789	11.802628221336	0.0	12.2638621685789	0.0	2.383218625277099	9.348932381411025	9.526739884346352	-0.7552045199111639	8.921257215574599	9.621476703939864	-0.7552045199111639	1.7522530927181925	9.10760228271986	-0.2413300986911632	8.908456470632487	-0.13692110619730063	4	correct	1.0
315.70724550000205	9.651795200013567	nogo_punish	0.3753030000370927	315.71656889998167	318.5510637999978	321.0911302000168	2.834494900016125	316.7238896000199	320.08192560001044	324.15023839997593	1.8271741999778897	1.009204600006342	1.2181257000193	323.13809959997843	0.3446114999824203	322.1089232999948	2	1	97	1	nogo_punish	0	0	-1	0	1	0	0	0.0	1.0	0	0.3753030000370927	0.3446114999824203	1944.8527569000144	2260.569325799996	2261.5766465000343	2263.403820700012	2264.934682500025	2265.943887100031	2266.961680200009	2267.990856499993	2269.0029952999903	2270.2211210000096	2020-02-21 17:57:25.982190	-0.523564897922361	-1.04789946007434	0.0	-0.942299200604433	-0.523564897922361	0.0	0.523564897922361	-1.04789946007434	0.0	-0.523564897922361	0.0	1.04789946007434	-3.4384946850902365	-3.3237877970639884	-0.7552045199111639	-3.815100443135635	-3.1659503625613974	-0.7552045199111639	0.4169339275154338	-3.6798247837814007	-0.2413300986911632	-3.9420712107778537	-0.13692110619730063	4	correct	1.0
325.4509427000303	9.210355999995954	nogo_reward	0.2744721999624744	325.4602661000099	328.1879298000131	330.7234261999838	2.727663700003177	326.46316029998707	329.72002230002545	333.7860915000201	1.7247695000260137	1.0034038999583572	0.8845305999857374	332.7742750000325	0.5959641000372358	331.7375123000238	2	1	98	3	nogo_reward	0	1	0	0	1	0	0	0.0	1.0	1	0.2744721999624744	0.5959641000372358	1944.8527569000144	2270.3130230000243	2271.3159172000014	2273.0406867000274	2274.57277920004	2275.576183099998	2276.590269200038	2277.627031900047	2278.6388484000345	2279.52337900002	2020-02-21 17:57:25.982190	2.28085963584141	1.7266344461097	0.0	1.7266344461097	2.28085963584141	0.0	-2.28085963584141	1.7266344461097	0.0	2.28085963584141	0.0	12.4592124005034	-0.634070151326465	-0.5492538908799482	-0.7552045199111639	-1.146166796421502	-0.36152582879762596	-0.7552045199111639	11.828246867944493	-0.8754002500176292	-0.2413300986911632	-1.1675373045938136	-0.13692110619730063	4	correct	1.0
334.6855582999997	8.116140600002836	go_reward	0.4771564999828115	334.6948816999793	336.2512191000278	338.796158400015	1.5563374000485055	335.7034632000141	337.7823318000301	341.84886460000416	0.5477559000137262	1.0138265999848954	0.9621576999779791	340.834996199992	0.3297689000028185	339.8106504000025	2	1	99	4	go_reward	1	1	0	1	1	1	0	1.0	0.0	1	0.4771564999828115	0.3297689000028185	1944.8527569000144	2279.5476385999937	2280.5562201000284	2281.103976000042	2282.6350887000444	2283.6489153000293	2284.663407300017	2285.6877531000064	2286.7016215000185	2287.6637791999965	2020-02-21 17:57:25.982190	12.6914091438481	12.2321927027314	0.0	12.2247104298249	12.6914091438481	0.0	-12.6914091438481	12.2321927027314	0.0	12.6914091438481	0.0	1.9536541438816997	9.776479356680225	9.956304365741751	-0.7552045199111639	9.351909187293696	10.049023679209064	-0.7552045199111639	1.3226886113227934	9.53514925798906	-0.2413300986911632	9.338020952027886	-0.13692110619730063	4	wrong	1.0
342.8281574000139	8.262714300013158	go_reward	0.7340634999563918	342.8374807999935	344.2902966000256	346.83646650001174	1.4528158000321127	343.8352473999839	345.8106334999902	349.8755443000118	0.45504920004168525	1.025833000021521	1.2246507999948335	348.8627738999785	0.4452600999502465	347.85019510000666	2	1	100	4	go_reward	1	1	0	1	1	1	0	0.0	1.0	1	0.7340634999563918	0.4452600999502465	1944.8527569000144	2287.690237700008	2288.6880042999983	2289.14305350004	2290.6633904000046	2291.689223400026	2292.702952000021	2293.715530799993	2294.728301200026	2295.952952000021	2020-02-21 17:57:25.982190	13.0083713187487	12.5489287903706	0.0	12.5423676808942	13.0083713187487	0.0	-13.0083713187487	12.5489287903706	0.0	13.0083713187487	0.0	1.6369180562425	10.093441531580826	10.27304045338095	-0.7552045199111639	9.669566438362999	10.365985854109665	-0.7552045199111639	1.0059525236835938	9.85211143288966	-0.2413300986911632	9.654757039667086	-0.13692110619730063	4	correct	1.0
351.1376705000298	8.502107899984821	nogo_reward	0.2860231999657117	351.1469939000094	352.93140920001315	355.500870399992	1.7844153000037295	352.15116589999525	354.4707306000055	358.54621689999476	0.7802433000179008	1.0301397999865003	1.1028848999994807	357.5340452999808	0.3495481999707408	356.5129091999838	2	1	101	3	nogo_reward	1	0	1	0	1	0	0	0.0	1.0	0	0.2860231999657117	0.3495481999707408	1944.8527569000144	2295.999750800024	2297.0039228000096	2297.7841661000275	2299.32348750002	2300.3536273000063	2301.365666099998	2302.386802199995	2303.398973800009	2304.5018587000086	2020-02-21 17:57:25.982190	5.44916029266797	4.97247795337681	0.0	4.97247795337681	5.44916029266797	0.0	-5.44916029266797	4.97247795337681	0.0	5.44916029266797	0.0	-4.97247795337681	2.5342305055000947	2.6965896163871617	-0.7552045199111639	2.099676710845608	2.8067748280289337	-0.7552045199111639	-5.603443485935716	2.2929004068089305	-0.2413300986911632	2.0783062026732964	-0.13692110619730063	4	correct	1.0
359.6635303000221	9.026450300007127	go_reward	0.2755995000479743	359.6728537000017	361.7088117999956	364.2569517000229	2.035958099993877	360.67538319999585	363.2371940999874	367.31558340002084	1.033428599999752	1.0197576000355184	1.3837205999880098	366.3030309000169	0.3448315000277944	365.26770790002774	2	1	102	4	go_reward	0	0	1	1	1	1	1	1.0	1.0	0	0.2755995000479743	0.3448315000277944	1944.8527569000144	2304.525610600016	2305.52814010001	2306.56156870001	2308.0899510000017	2309.1097086000373	2310.120464800042	2311.1557878000312	2312.168340300035	2313.552060900023	2020-02-21 17:57:25.982190	13.2505303211651	12.7898408215998	0.0	12.7840639769098	13.2505303211651	0.0	-13.2505303211651	12.7898408215998	0.0	13.2505303211651	0.0	-12.7898408215998	10.335600533997225	10.51395248461015	-0.7552045199111639	9.9112627343786	10.608144856526064	-0.7552045199111639	-13.420806354158707	10.09427043530606	-0.2413300986911632	9.895669070896286	-0.13692110619730063	4	correct	1.0
368.73437000002014	8.11174070002744	go_punish	0.4127723000128753	368.74369339999976	370.2397706999909	372.772481699998	1.496077299991157	369.75015279999934	371.7613730999874	375.8138232000056	0.4896178999915719	1.0111086000106297	1.0416109000216238	374.80970460001845	0.2511087000020779	373.77842590003274	2	1	103	2	go_punish	1	0	-1	1	1	1	0	0.0	1.0	0	0.4127723000128753	0.2511087000020779	1944.8527569000144	2313.596450300014	2314.6029097000137	2315.0925276000053	2316.6141300000018	2317.6252386000124	2318.631182800047	2319.662461500033	2320.66658010002	2321.7081910000416	2020-02-21 17:57:25.982190	1.17601778101796	-0.567130814063071	-1.21635383270153	-0.672954509611311	-0.0403360516835665	-1.21635383270153	-1.17601778101796	-0.567130814063071	-1.21635383270153	-0.0403360516835665	-1.21635383270153	0.567130814063071	-1.7389120061499153	-2.843019151052719	-1.9715583526126939	-3.5457557521425134	-2.682721516322603	-1.9715583526126939	-0.06383471849583533	-3.196595937542606	-1.4576839313926933	-3.4613025647665845	-1.3532749388988305	4	correct	1.0
376.8898220999981	9.127738200012118	nogo_reward	0.2735958999837748	376.89914549997775	379.47475639998447	382.06588940002257	2.5756109000067227	377.90631140000187	381.04092110000784	385.10485300002665	1.568444999982603	1.0249683000147343	0.9220306999632157	384.0911412999849	0.0044240999850444	383.07912270003	2	1	104	3	nogo_reward	1	0	1	0	1	0	0	1.0	0.0	0	0.2735958999837748	0.0044240999850444	1944.8527569000144	2321.751902399992	2322.759068300016	2324.327513299999	2325.893678000022	2326.918646300037	2327.9318796000443	2328.9438981999992	2329.957609900041	2330.879640600004	2020-02-21 17:57:25.982190	4.04561864467647	3.52346689390813	0.0	3.52346689390813	4.04561864467647	0.0	-4.04561864467647	3.52346689390813	0.0	4.04561864467647	0.0	-3.52346689390813	1.1306888575085945	1.2475785569184819	-0.7552045199111639	0.650665651376928	1.4032331800374336	-0.7552045199111639	-4.154432426467037	0.8893587588174303	-0.2413300986911632	0.6292951432046165	-0.13692110619730063	4	wrong	1.0
386.0458106000442	9.326184999954421	nogo_punish	0.2308462000219151	386.0551340000238	388.8186497000279	391.3640258000232	2.7635157000040635	387.05413190001855	390.3492944000177	394.41938640002627	1.7645178000093438	1.0147314000055303	0.9619325999519788	393.4064055000199	0.483775999979116	392.3766967999982	2	1	105	1	nogo_punish	1	-1	0	0	1	0	0	0.0	1.0	-1	0.2308462000219151	0.483775999979116	1944.8527569000144	2330.907890900038	2331.906888800033	2333.6714066000422	2335.202051300032	2336.2167827000376	2337.2294537000125	2338.2591624000343	2339.2721433000406	2340.2340758999926	2020-02-21 17:57:25.982190	-0.228762535813029	-0.751318061938915	0.0	-0.667123020281124	-0.228762535813029	0.0	0.228762535813029	-0.751318061938915	0.0	-0.228762535813029	0.0	-0.9770250527626949	-3.1436923229809044	-3.0272063989285636	-0.7552045199111639	-3.539924262812326	-2.8711480004520653	-0.7552045199111639	-1.6079905853216012	-3.3850224216720686	-0.2413300986911632	-3.6454898126424284	-0.13692110619730063	4	correct	1.0
395.41666030004853	8.966980499971669	nogo_reward	0.0271238000132143	395.42598370002815	397.78441179997753	400.33371360000456	2.3584280999493785	396.425873900007	399.3155053000082	403.38373760000104	1.3585378999705426	1.0182082999963313	1.009226599998783	402.37165139999706	0.4487008000141941	401.34182159998454	2	1	106	3	nogo_reward	1	0	1	0	1	0	1	1.0	1.0	0	0.0271238000132143	0.4487008000141941	1944.8527569000144	2340.2787406000425	2341.2786308000213	2342.637168699992	2344.1682622000226	2345.186470500019	2346.194578499999	2347.2244083000114	2348.2364945000154	2349.245721100014	2020-02-21 17:57:25.982190	3.15272074540324	2.61124874134661	0.0	2.61124874134661	3.15272074540324	0.0	-3.15272074540324	2.61124874134661	0.0	3.15272074540324	0.0	-2.61124874134661	0.23779095823536478	0.3353604043569618	-0.7552045199111639	-0.26155250118459206	0.5103352807642039	-0.7552045199111639	-3.2422142739055166	-0.0035391404557993944	-0.2413300986911632	-0.2829230093569035	-0.13692110619730063	4	correct	1.0
404.40867600002093	8.090655700012576	go_reward	0.342450900003314	404.41799940000055	405.8600950000109	408.4161838000291	1.4420956000103615	405.428158499999	407.39185690000886	411.4859605000238	0.4319365000119433	1.0243269000202417	1.022694599989336	410.47223670000676	0.3887209999957122	409.4387960000313	2	1	107	4	go_reward	1	1	0	1	1	1	0	0.0	1.0	1	0.342450900003314	0.3887209999957122	1944.8527569000144	2349.270756300015	2350.2809154000133	2350.7128519000253	2352.244613800023	2353.2689407000435	2354.2915529000456	2355.324993600021	2356.338717400038	2357.3614120000275	2020-02-21 17:57:25.982190	9.93105243818798	9.39080714688808	0.0	9.38570122985983	9.93105243818798	0.0	-9.93105243818798	9.39080714688808	0.0	9.93105243818798	0.0	4.79503969972502	7.016122651020105	7.11491880989843	-0.7552045199111639	6.512899987328628	7.288666973548944	-0.7552045199111639	4.164074167166114	6.77479255232894	-0.2413300986911632	6.4966353961845655	-0.13692110619730063	4	correct	1.0
412.5502737000352	8.433902899967507	go_punish	0.4298200000193901	412.5595971000148	413.90164140000707	416.44835780002177	1.342044299992267	413.5681538999779	415.4343394000316	419.50455860001966	0.3334875000291504	1.0140183999901637	1.4889413999626413	418.4922827000264	0.2822854000260122	417.4622860000236	2	1	108	2	go_punish	0	-1	0	1	1	1	0	0.0	1.0	-1	0.4298200000193901	0.2822854000260122	1944.8527569000144	2357.412354000029	2358.4209107999923	2358.7543983000214	2360.287096300046	2361.301114700036	2362.315042900038	2363.3450396000408	2364.357315500034	2365.8462568999967	2020-02-21 17:57:25.982190	1.34866209719497	-0.393075579239064	-1.21635383270153	-0.481195819693624	0.132308264493439	-1.21635383270153	-1.34866209719497	-0.393075579239064	-1.21635383270153	0.132308264493439	-1.21635383270153	-1.3352675354625458	-1.566267689972905	-2.668963916228712	-1.9715583526126939	-3.3539970622248263	-2.5100772001455973	-1.9715583526126939	-1.9662330680214521	-3.0239516213656006	-1.4576839313926933	-3.2872473299425775	-1.3532749388988305	4	correct	1.0
421.02654470002744	7.681629800004885	go_punish	0.433047299971804	421.03586810000706	422.3734428000171	424.9062454000227	1.337574700010009	422.04568680003285	423.894184099976	427.95827790000476	0.32775599998421967	1.0120613000467529	0.7592200000071898	426.955272399995	0.2507762999739498	425.92363179998983	2	1	109	2	go_punish	1	0	-1	1	1	1	0	0.0	1.0	0	0.433047299971804	0.2507762999739498	1944.8527569000144	2365.8886250000214	2366.898443700047	2367.2261997000314	2368.7469409999903	2369.759002300037	2370.776388700004	2371.8080293000094	2372.811034800019	2373.5702548000263	2020-02-21 17:57:25.982190	1.00910338058506	-0.732697185477326	-1.21635383270153	-0.806842837873218	-0.207250452116475	-1.21635383270153	-1.00910338058506	-0.732697185477326	-1.21635383270153	-0.207250452116475	-1.21635383270153	0.732697185477326	-1.9058264065828152	-3.008585522466974	-1.9715583526126939	-3.67964408040442	-2.849635916755511	-1.9715583526126939	0.10173165291841968	-3.3635103379755145	-1.4576839313926933	-3.6268689361808395	-1.3532749388988305	4	correct	1.0
428.73452570004156	8.615814899967518	nogo_punish	0.2709464999497868	428.7438491000212	430.5703956999937	433.1168722999864	1.8265465999725166	429.7527488999767	432.0926846999787	436.1385467000073	0.8176468000169734	1.0241876000077355	1.2211172999814153	435.1367731000064	0.4428752000094391	434.1226070999983	2	1	110	1	nogo_punish	1	-1	0	0	1	0	0	0.0	1.0	-1	0.2709464999497868	0.4428752000094391	1944.8527569000144	2373.5966060000355	2374.605505799991	2375.423152600008	2376.945441599993	2377.969629200001	2378.9753640000126	2379.9895300000207	2380.9913036000216	2382.212420900003	2020-02-21 17:57:25.982190	-0.483788424504575	-1.00654283564645	0.0	-0.938602497069468	-0.483788424504575	0.0	0.483788424504575	-1.00654283564645	0.0	-0.483788424504575	0.0	-0.7218002790551599	-3.3987182116724504	-3.282431172636098	-0.7552045199111639	-3.81140373960067	-3.1261738891436113	-0.7552045199111639	-1.3527658116140662	-3.6400483103636145	-0.2413300986911632	-3.900714586349964	-0.13692110619730063	4	correct	1.0
437.37801530002616	8.247716300014872	nogo_punish	0.2480723000480793	437.3873387000058	439.06657169997925	441.61460139998235	1.6792329999734648	438.3951295000147	440.59401900001103	444.67278329998953	0.671442199964531	1.0205823999713175	0.962271700031124	443.66065430000936	0.5421650999924168	442.6302827000036	2	1	111	1	nogo_punish	1	-1	0	0	1	0	0	0.0	1.0	-1	0.2480723000480793	0.5421650999924168	1944.8527569000144	2382.24009560002	2383.247886400029	2383.9193285999936	2385.4467759000254	2386.4673582999967	2387.483039600018	2388.5134112000237	2389.525540200004	2390.487811900035	2020-02-21 17:57:25.982190	-0.652203192662943	-1.17311444447826	0.0	-1.11769885831304	-0.652203192662943	0.0	0.652203192662943	-1.17311444447826	0.0	-0.652203192662943	0.0	-0.55522867022335	-3.5671329798308182	-3.4490027814679083	-0.7552045199111639	-3.9905001008442422	-3.294588657301979	-0.7552045199111639	-1.1861942027822563	-3.8084630785219824	-0.2413300986911632	-4.067286195181774	-0.13692110619730063	4	correct	1.0
445.657735100016	8.790089700022236	nogo_punish	0.4099012999795377	445.6670584999956	447.66966529999627	450.2102615000331	2.002606800000649	446.66865120001603	449.1964576999894	453.2606362000224	1.0010140999802388	1.0138038000436609	1.1965119999954368	452.2524846000015	0.3711813999689184	451.21628960000817	2	1	112	1	nogo_punish	1	-1	0	0	1	0	1	1.0	1.0	-1	0.4099012999795377	0.3711813999689184	1944.8527569000144	2390.51981540001	2391.5214081000304	2392.5224222000106	2394.049214600004	2395.0630184000474	2396.0690465000225	2397.105241500016	2398.113393100037	2399.309905100032	2020-02-21 17:57:25.982190	-0.769447825860953	-1.28797813032348	0.0	-1.24233943715358	-0.769447825860953	0.0	0.769447825860953	-1.28797813032348	0.0	-0.769447825860953	0.0	-0.4403649843781299	-3.684377613028828	-3.5638664673131286	-0.7552045199111639	-4.1151406796847825	-3.411833290499989	-0.7552045199111639	-1.0713305169370362	-3.9257077117199923	-0.2413300986911632	-4.1821498810269935	-0.13692110619730063	4	correct	1.0
454.4978822999983	8.143773100047838	go_punish	0.3984925000113435	454.50720569997793	456.07403660001	458.63274149998324	1.5668309000320733	455.5209423999768	457.6058793999837	461.6888064999948	0.5530942000332288	1.026862099999562	0.962172300030943	460.6865319000208	0.3888516000006348	459.64956130000064	2	1	113	2	go_punish	1	0	-1	1	1	1	0	0.0	1.0	0	0.3984925000113435	0.3888516000006348	1944.8527569000144	2399.3599625999923	2400.373699299991	2400.9267935000244	2402.458636299998	2403.4854983999976	2404.502318200015	2405.539288800035	2406.541563400009	2407.50373570004	2020-02-21 17:57:25.982190	1.228687005347	-0.511410998236747	-1.21635383270153	-0.574379871841452	0.01233317264547	-1.21635383270153	-1.228687005347	-0.511410998236747	-1.21635383270153	0.01233317264547	-1.21635383270153	0.511410998236747	-1.6862427818208752	-2.787299335226395	-1.9715583526126939	-3.447181114372654	-2.6300522919935663	-1.9715583526126939	-0.11955453432215934	-3.1439267132135695	-1.4576839313926933	-3.405582748940261	-1.3532749388988305	4	correct	1.0
462.66906899999594	8.456995600019127	nogo_punish	1.0	462.67839239997556	464.6698403999908	467.2023290999937	1.9914480000152253	463.68634730001213	466.18146170000546	470.2448894000263	0.9834930999786593	1.0208673999882194	0.8904985999683959	469.2439296999946	0.369807299983222	468.2137820000062	2	1	114	1	nogo_punish	1	-1	0	0	0	1	1	1.0	1.0	0	1.0	0.369807299983222	1944.8527569000144	2407.53114929999	2408.5391042000265	2409.522597300005	2411.03421860002	2412.055086000008	2413.0665389000205	2414.096686600009	2415.0976463000407	2415.988144900009	2020-02-21 17:57:25.982190	0.854402264160875	-1.3705578931046	0.0	-1.33264067082188	-0.854402264160875	0.0	-0.854402264160875	0.0	-1.3705578931046	0.0	-0.854402264160875	0.0	-2.0605275230070004	-3.6464462300942486	-0.7552045199111639	-4.2054419133530825	-3.496787728799911	-0.7552045199111639	-0.6309655325589063	-3.1562598858590394	-1.0957323628520381	-2.8941717507035136	-1.5074789993019007	4	correct	1.0
471.15349260001676	9.730260399985127	nogo_punish	1.0	471.1628159999964	473.86520090000704	476.3910205999855	2.7023849000106566	472.1611655000015	475.3802636000328	479.4404788999818	1.7040354000055231	1.0107569999527186	1.4525974999996834	478.42771930003073	0.5289147000294179	477.3985933000222	2	1	115	1	nogo_punish	1	-1	0	0	0	1	0	0.0	1.0	0	1.0	0.5289147000294179	1944.8527569000144	2416.0155729000107	2417.013922400016	2418.7179578000214	2420.233020500047	2421.2437775	2422.2513502000365	2423.280476200045	2424.293235799996	2425.745833299996	2020-02-21 17:57:25.982190	0.856129131418903	-1.3705578931046	0.0	-0.95226663371138	-0.856129131418903	0.0	-0.856129131418903	0.0	-1.3705578931046	0.0	-0.856129131418903	0.0	-2.058800655748972	-3.6464462300942486	-0.7552045199111639	-3.8250678762425823	-3.498514596057939	-0.7552045199111639	-0.6309655325589063	-3.1562598858590394	-1.0974592301100663	-2.8941717507035136	-1.5074789993019007	4	correct	1.0
480.92834800004493	8.377875400008634	go_punish	1.0	480.93767140002456	482.80935689999023	485.3440432000207	1.871685499965679	481.9500411999761	484.3240704999771	488.3683279000106	0.8593157000141218	1.0199727000435814	0.9472189000225626	487.3633659000038	1.0	486.3535949999937	2	1	116	2	go_punish	0	-1	0	1	0	0	0	n/a	0.0	0	1.0	1.0	1944.8527569000144	2425.790428300039	2426.8027980999905	2427.6621138000046	2429.1768273999915	2430.196800100035	2431.206351900008	2432.216122800018	2433.221084800025	2434.1683037000475	2020-02-21 17:57:25.982190	-1.36852168594014	-0.372115016515377	-1.21635383270153	-0.426039490003369	0.152167853238612	-1.21635383270153	1.36852168594014	-1.21635383270153	-0.372115016515377	-1.21635383270153	0.152167853238612	1.21635383270153	-4.283451473108015	-2.6480033535050254	-1.9715583526126939	-3.298840732534571	-2.490217611400424	-1.9715583526126939	0.5853883001426237	-4.37261371856057	-0.08916224545255119	-4.110525583405043	-0.5090361227126776	4	missed	0.0
489.3517777000088	9.367548200010788	go_punish	0.2685384000069462	489.36110109998845	492.32309469999745	494.8847459999961	2.9619936000090092	490.36226199998055	493.8612068999787	497.9233651999966	1.9608327000169083	1.0235391000173877	0.8052841000026092	496.9182828000048	0.4638464999734424	495.9021244000178	2	1	117	2	go_punish	0	-1	0	1	1	1	0	0.0	1.0	-1	0.2685384000069462	0.4638464999734424	1944.8527569000144	2434.213858000003	2435.215018899995	2437.175851600012	2438.713963799993	2439.7375029000104	2440.754881300032	2441.771039700019	2442.776122100011	2443.5814062000136	2020-02-21 17:57:25.982190	1.00736541250902	-0.372115016515377	-0.853944239285941	-0.326054937851336	0.153421173223079	-0.853944239285941	-1.00736541250902	-0.372115016515377	-0.853944239285941	0.153421173223079	-0.853944239285941	-1.356228098186233	-1.9075643746588553	-2.6480033535050254	-1.609148759197105	-3.1988561803825384	-2.4889642914159573	-1.609148759197105	-1.9871936307451392	-3.0028387126359606	-1.0952743379771042	-3.2662867672188907	-0.9908653454832417	4	correct	1.0
498.74717860005376	8.445269699964683	nogo_punish	1.0	498.7565020000334	500.3330520000304	502.86634369997773	1.5765499999970416	499.75727679999545	501.84445299999743	505.92454049998196	0.5757752000349683	1.021890699980304	1.2772312000161037	504.90917320002336	0.3190284000011161	503.88046930002747	2	1	118	1	nogo_punish	1	-1	0	0	0	1	0	0.0	1.0	0	1.0	0.3190284000011161	1944.8527569000144	2443.6092589000477	2444.61003370001	2445.185808900045	2446.697209900012	2447.719100599992	2448.733226200042	2449.7619301000377	2450.7772973999963	2452.0545286000124	2020-02-21 17:57:25.982190	0.854791344426044	-1.3705578931046	0.0	-0.706045727799667	-0.854791344426044	0.0	-0.854791344426044	0.0	-1.3705578931046	0.0	-0.854791344426044	0.0	-2.060138442741831	-3.6464462300942486	-0.7552045199111639	-3.5788469703308694	-3.4971768090650803	-0.7552045199111639	-0.6309655325589063	-3.1562598858590394	-1.0961214431172073	-2.8941717507035136	-1.5074789993019007	4	correct	1.0
507.2204690000508	8.73325459996704	nogo_punish	1.0	507.2297924000304	509.20585060003214	511.7072103000246	1.9760582000017166	508.2369305000175	510.70883650000906	514.7669678999814	0.9689201000146568	0.9983738000155427	1.1960791000160498	513.7545376999774	0.4409216000349261	512.7255371999927	2	1	119	1	nogo_punish	1	-1	0	0	0	1	0	0.0	1.0	0	1.0	0.4409216000349261	1944.8527569000144	2452.082549300045	2453.089687400032	2454.0586075000465	2455.5615934000234	2456.559967200039	2457.578294100007	2458.6072945999917	2459.6197247999958	2460.815803900012	2020-02-21 17:57:25.982190	0.852517324983333	-1.3705578931046	0.0	-0.538702048859714	-0.852517324983333	0.0	-0.852517324983333	0.0	-1.3705578931046	0.0	-0.852517324983333	0.0	-2.0624124621845423	-3.6464462300942486	-0.7552045199111639	-3.411503291390916	-3.494902789622369	-0.7552045199111639	-0.6309655325589063	-3.1562598858590394	-1.0938474236744962	-2.8941717507035136	-1.5074789993019007	4	correct	1.0
515.9996124000172	9.261174899991602	go_punish	0.2888385999831371	516.0089357999968	518.2937376999762	520.8294453999843	2.2848018999793567	517.0127501999959	519.8245488000102	523.8868419000064	1.280987499980256	1.0048965999740176	1.3832687999820337	522.8744264999987	0.3972906999988481	521.8423695000238	2	1	120	2	go_punish	1	0	-1	1	1	1	0	0.0	1.0	0	0.2888385999831371	0.3972906999988481	1944.8527569000144	2460.861692700011	2461.8655071000103	2463.1464945999905	2464.6773057000246	2465.6822022999986	2466.695126400038	2467.727183400013	2468.7395988000208	2470.122867600003	2020-02-21 17:57:25.982190	0.653007785662413	-0.72742201616789	-0.853944239285941	-0.703707402757035	-0.200936453623529	-0.853944239285941	-0.653007785662413	-0.72742201616789	-0.853944239285941	-0.200936453623529	-0.853944239285941	0.72742201616789	-2.261922001505462	-3.0033103531575382	-1.609148759197105	-3.576508645288237	-2.843321918262565	-1.609148759197105	0.09645648360898373	-3.3571963394825683	-1.0952743379771042	-3.6215937668714036	-0.9908653454832417	4	correct	1.0
