onset	duration	trial_type	response_time	cueOnset	targetOnset	fbOnset	cueRT	firstfixOnset	secondfixOnset	waitOnset	firstfixdur	secondfixdur	waitdur	nback_fbOnset	nback_response_time	nback_targetOnset	block	wm	trial	cue	cond	is_common	outcome_go	outcome_nogo	key_correct	key_pressed	is_correct	key_correct_nback	key_pressed_nback	is_correct_nback	outcome	rt	rt_nback	time_scan	time_onset	time_isi1	time_circle	time_isi2	time_feedback	time_same	time_correct	time_iti	time_done	timestamp_scan	DV	Qgo	Qnogo	SV	Wgo	Wnogo	mDV	Qchosen	Qunchosen	Wchosen	Wunchosen	PE	DVC	QgoC	QnogoC	SVC	WgoC	WnogoC	PEC	WchosenC	WunchosenC	QchosenC	QunchosenC	run	outcome_nback	nback_targetResp
0.0	8.358668699976988	go_punish	0.3747724000131711	0.03741630003787577	1.9526877999887802	4.499828100029845	1.9152714999509044	1.0457776000257581	3.4731325000175275	7.5281365000410005	0.906910199963022	1.0266956000123173	0.8679484999738634	6.521589400013909	1.0	5.51205369998911	2	1	1	2	go_punish	0	-1	0	1	1	1	0	n/a	0.0	0	0.3747724000131711	1.0	1354.6194886000012	1354.656904900039	1355.665266200027	1356.57217639999	1358.0926211000187	1359.119316700031	1360.1315422999903	1361.141078000015	1362.1476251000422	1363.015573600016	2020-02-21 17:47:35.744906	0.537581556382681	0.0	0.0	0.0	0.537581556382681	0.0	-0.537581556382681	0.0	0.0	0.537581556382681	0.0	-1.72834311470161	-2.377348230785194	-2.2758883369896483	-0.7552045199111639	-2.872801242531202	-2.104803908256355	-0.7552045199111639	-2.3593086472605163	-2.6186783294763583	-0.2413300986911632	-2.8941717507035136	-0.13692110619730063	3	missed	0.0
8.401634199952014	8.429985600000009	nogo_reward	0.3561872999998741	8.43905049998989	10.015116200025659	12.575268300017115	1.5760657000357696	9.452799900027685	11.55525120004313	15.624033200030908	0.5623162999979741	1.020017099973984	1.2450028999589904	14.626338100002613	0.5459307000273839	13.594505999993999	2	1	2	3	nogo_reward	1	0	1	0	1	0	0	0.0	1.0	0	0.3561872999998741	0.5459307000273839	1354.6194886000012	1363.058539099991	1364.072288500029	1364.6346048000269	1366.1747398000443	1367.1947569000183	1368.2139945999952	1369.2458267000038	1370.243521800032	1371.488524699991	2020-02-21 17:47:35.744906	0.537581556382681	0.0	0.0	0.0	0.537581556382681	0.0	-0.537581556382681	0.0	0.0	0.537581556382681	0.0	0.0	-2.377348230785194	-2.2758883369896483	-0.7552045199111639	-2.872801242531202	-2.104803908256355	-0.7552045199111639	-0.6309655325589063	-2.6186783294763583	-0.2413300986911632	-2.8941717507035136	-0.13692110619730063	3	correct	1.0
16.858102199970745	8.56214719999116	nogo_punish	0.5035270000225864	16.89551850000862	18.754976199998055	21.2845604000031	1.8594576999894343	17.904147299995884	20.2700574999908	24.3225937000243	0.8508289000021705	1.0145029000123031	1.1350719999754801	23.318598500045482	0.548075600003358	22.28933570004301	2	1	3	1	nogo_punish	1	-1	0	0	1	0	0	0.0	1.0	-1	0.5035270000225864	0.548075600003358	1354.6194886000012	1371.5150071000098	1372.523635899997	1373.3744647999993	1374.889546099992	1375.9040490000043	1376.9088243000442	1377.9380871000467	1378.9420823000255	1380.077154300001	2020-02-21 17:47:35.744906	0.537581556382681	0.0	0.0	0.0	0.537581556382681	0.0	-0.537581556382681	0.0	0.0	0.537581556382681	0.0	-1.72834311470161	-2.377348230785194	-2.2758883369896483	-0.7552045199111639	-2.872801242531202	-2.104803908256355	-0.7552045199111639	-2.3593086472605163	-2.6186783294763583	-0.2413300986911632	-2.8941717507035136	-0.13692110619730063	3	correct	1.0
25.444874099979643	8.015169300022535	nogo_punish	1.0	25.48229040001752	26.888663100020494	29.3989221000229	1.4063727000029758	26.498760599992238	28.39386489999015	32.45730950002326	0.3899025000282563	1.005057200032752	1.0401502000167966	31.443666900042444	0.3670440000132657	30.420333600020967	2	1	4	1	nogo_punish	1	-1	0	0	0	1	0	0.0	1.0	0	1.0	0.3670440000132657	1354.6194886000012	1380.1017790000187	1381.1182491999934	1381.5081517000217	1383.0133534999914	1384.018410700024	1385.0398222000222	1386.0631555000436	1387.0767981000245	1388.1169483000413	2020-02-21 17:47:35.744906	-0.0892356674502846	-0.447895259371624	0.0	-0.447895259371624	0.0892356674502846	0.0	0.0892356674502846	0.0	-0.447895259371624	0.0	0.0892356674502846	0.0	-3.00416545461816	-2.7237835963612724	-0.7552045199111639	-3.3206965019028263	-2.5531497971887513	-0.7552045199111639	-0.6309655325589063	-3.1562598858590394	-0.1520944312408786	-2.8941717507035136	-0.5848163655689247	3	correct	1.0
33.502940999984276	8.847277599968947	nogo_reward	0.6288388000102714	33.54035730002215	35.3925050999967	37.92521220003255	1.8521477999745457	34.5483614000259	36.903303000028245	40.971852299989905	0.8441436999708003	1.021909200004302	1.4157826000011937	39.97102280001832	0.4643050999729894	38.938035600003786	2	1	5	3	nogo_reward	1	0	1	0	1	0	0	1.0	0.0	0	0.6288388000102714	0.4643050999729894	1354.6194886000012	1388.1598459000234	1389.167850000027	1390.011993699998	1391.5227916000294	1392.5447008000338	1393.557524200005	1394.5905114000195	1395.591340899991	1397.0071234999923	2020-02-21 17:47:35.744906	0.537581556382681	0.0	0.0	0.0	0.537581556382681	0.0	-0.537581556382681	0.0	0.0	0.537581556382681	0.0	0.0	-2.377348230785194	-2.2758883369896483	-0.7552045199111639	-2.872801242531202	-2.104803908256355	-0.7552045199111639	-0.6309655325589063	-2.6186783294763583	-0.2413300986911632	-2.8941717507035136	-0.13692110619730063	3	wrong	1.0
42.37411879998399	9.00455559999682	go_reward	0.3051906000473536	42.411535100021865	45.0382507999891	47.5895959000336	2.626715699967235	43.42268000001786	46.56589680002071	50.61955740000121	1.6155707999712376	1.023699100012891	0.7965333000174724	49.6070796000422	0.3984557999647222	48.59297100000549	2	1	6	4	go_reward	1	1	0	1	1	1	0	0.0	1.0	1	0.3051906000473536	0.3984557999647222	1354.6194886000012	1397.031023700023	1398.042168600019	1399.6577393999903	1401.185385400022	1402.2090845000348	1403.2124596000067	1404.2265682000434	1405.2390460000024	1406.03557930002	2020-02-21 17:47:35.744906	0.537581556382681	0.0	0.0	0.0	0.537581556382681	0.0	-0.537581556382681	0.0	0.0	0.537581556382681	0.0	14.1858468466131	-2.377348230785194	-2.2758883369896483	-0.7552045199111639	-2.872801242531202	-2.104803908256355	-0.7552045199111639	13.554881314054192	-2.6186783294763583	-0.2413300986911632	-2.8941717507035136	-0.13692110619730063	3	correct	1.0
51.423177999968175	8.909728099999484	nogo_reward	0.2298417999991215	51.46059430000605	53.27962310001021	55.82043890003115	1.819028800004162	52.46685540000931	54.810284700011835	58.87199720001081	0.8127677000009044	1.0101542000193149	1.4983251999947242	57.86096550000366	0.3264588000020012	56.83182250004029	2	1	7	3	nogo_reward	1	0	1	0	1	0	1	1.0	1.0	0	0.2298417999991215	0.3264588000020012	1354.6194886000012	1406.0800829000073	1407.0863440000105	1407.8991117000114	1409.429773300013	1410.4399275000324	1411.4513111000415	1412.4804541000049	1413.491485800012	1414.9898110000067	2020-02-21 17:47:35.744906	0.537581556382681	0.0	0.0	0.0	0.537581556382681	0.0	-0.537581556382681	0.0	0.0	0.537581556382681	0.0	0.0	-2.377348230785194	-2.2758883369896483	-0.7552045199111639	-2.872801242531202	-2.104803908256355	-0.7552045199111639	-0.6309655325589063	-2.6186783294763583	-0.2413300986911632	-2.8941717507035136	-0.13692110619730063	3	correct	1.0
60.35885839996604	8.243766800034791	nogo_punish	0.3142058000084944	60.396274700003914	61.844180800020695	64.39846600004239	1.4479061000167803	61.40547140000831	63.374763100000564	67.43814550002571	0.43870940001238523	1.023702900041826	1.2018960000129937	66.42592030001128	0.5719961000140756	65.41245589999016	2	1	8	1	nogo_punish	1	-1	0	0	1	0	0	0.0	1.0	-1	0.3142058000084944	0.5719961000140756	1354.6194886000012	1415.0157633000051	1416.0249600000095	1416.463669400022	1417.9942517000018	1419.0179546000436	1420.0319444999914	1421.0454089000125	1422.057634100027	1423.25953010004	2020-02-21 17:47:35.744906	0.0864207520713369	-0.447895259371624	0.0	-0.29801832052077	0.0864207520713369	0.0	-0.0864207520713369	-0.447895259371624	0.0	0.0864207520713369	0.0	-1.280447855329986	-2.8285090350965385	-2.7237835963612724	-0.7552045199111639	-3.170819563051972	-2.5559647125676994	-0.7552045199111639	-1.9114133878888924	-3.0698391337877027	-0.2413300986911632	-3.3420670100751377	-0.13692110619730063	3	correct	1.0
68.64821129996562	8.277397300000302	nogo_reward	0.4237091999966651	68.6856276000035	70.10653109999839	72.65473230002681	1.4209034999948926	69.69270250003319	71.62770579999778	75.70713600004069	0.41382859996519983	1.0270265000290237	1.2558888999631108	74.69457140000304	0.4980887999990955	73.6644499000397	2	1	9	3	nogo_reward	0	1	0	0	1	0	1	1.0	1.0	1	0.4237091999966651	0.4980887999990955	1354.6194886000012	1423.3051162000047	1424.3121911000344	1424.7260196999996	1426.247194399999	1427.274220900028	1428.283938500041	1429.3140600000042	1430.326624600042	1431.582513500005	2020-02-21 17:47:35.744906	0.537581556382681	0.0	0.0	0.0	0.537581556382681	0.0	-0.537581556382681	0.0	0.0	0.537581556382681	0.0	14.1858468466131	-2.377348230785194	-2.2758883369896483	-0.7552045199111639	-2.872801242531202	-2.104803908256355	-0.7552045199111639	13.554881314054192	-2.6186783294763583	-0.2413300986911632	-2.8941717507035136	-0.13692110619730063	3	correct	1.0
76.94749190000584	9.35227939998731	go_reward	0.3713303999975323	76.98490820004372	79.53000359999714	82.08471730002202	2.545095399953425	77.99088310002116	81.0649390000035	85.14961750002112	1.5391204999759793	1.0197783000185154	1.187570100009907	84.1370469999963	0.4176234999904409	83.10881200002041	2	1	10	4	go_reward	0	0	1	1	1	1	0	0.0	1.0	0	0.3713303999975323	0.4176234999904409	1354.6194886000012	1431.604396800045	1432.6103717000224	1434.1494921999983	1435.6844276000047	1436.7042059000232	1437.7283006000216	1438.7565355999975	1439.7691061000223	1440.9566762000322	2020-02-21 17:47:35.744906	4.04674748898555	3.58704213023668	0.0	3.58704213023668	4.04674748898555	0.0	-4.04674748898555	3.58704213023668	0.0	4.04674748898555	0.0	-3.58704213023668	1.1318177018176745	1.3111537932470316	-0.7552045199111639	0.7142408877054778	1.4043620243465136	-0.7552045199111639	-4.2180076627955865	0.8904876031265103	-0.2413300986911632	0.6928703795331663	-0.13692110619730063	3	correct	1.0
86.32289499999001	9.402989699971386	go_reward	0.3527625999995507	86.36031130002789	88.72139060002519	91.26013539999258	2.3610792999973	87.37245990004158	90.24779009999475	94.30136350000976	1.3489306999836117	1.0123452999978326	1.4619374999895172	93.28811540000606	0.3349426999920979	92.26863370003389	2	1	11	4	go_reward	0	0	1	1	1	1	0	0.0	1.0	0	0.3527625999995507	0.3349426999920979	1354.6194886000012	1440.979799900029	1441.9919485000428	1443.3408792000264	1444.867278699996	1445.8796239999938	1446.888122300035	1447.9076040000073	1448.920852100011	1450.3827896000005	2020-02-21 17:47:35.744906	2.90032535236873	2.39459380170102	0.0	2.39459380170102	2.90032535236873	0.0	-2.90032535236873	2.39459380170102	0.0	2.90032535236873	0.0	-2.39459380170102	-0.014604434799145416	0.11870546471137189	-0.7552045199111639	-0.47820744083018196	0.2579398877296937	-0.7552045199111639	-3.0255593342599267	-0.2559345334903096	-0.2413300986911632	-0.4995779490024934	-0.13692110619730063	3	correct	1.0
95.76929809997091	9.801239699998405	nogo_reward	0.2774453000165522	95.80671440000879	98.52390640001977	101.07078440004261	2.717192000010982	96.8209068000433	100.0600033000228	104.11475870001595	1.702999599976465	1.0107811000198126	1.4931953999912366	103.10196659999201	0.3350509000010788	102.09037150000222	2	1	12	3	nogo_reward	1	0	1	0	1	0	0	0.0	1.0	0	0.2774453000165522	0.3350509000010788	1354.6194886000012	1450.42620300001	1451.4403954000445	1453.143395000021	1454.679491900024	1455.6902730000438	1456.7098601000034	1457.7214551999932	1458.7342473000172	1460.2274427000084	2020-02-21 17:47:35.744906	4.04674748898555	3.58704213023668	0.0	3.58704213023668	4.04674748898555	0.0	-4.04674748898555	3.58704213023668	0.0	4.04674748898555	0.0	-3.58704213023668	1.1318177018176745	1.3111537932470316	-0.7552045199111639	0.7142408877054778	1.4043620243465136	-0.7552045199111639	-4.2180076627955865	0.8904876031265103	-0.2413300986911632	0.6928703795331663	-0.13692110619730063	3	correct	1.0
105.61132569995243	9.488376100023743	go_punish	1.0	105.6487419999903	108.3991864999989	110.92290050000884	2.750444500008598	106.66467480000574	109.91000410000561	113.97198930004379	1.7345116999931633	1.0128964000032283	1.1651287999702618	112.95739080000203	0.57623380003497	111.93673920002766	2	1	13	2	go_punish	1	0	-1	1	0	0	0	0.0	1.0	-1	1.0	0.57623380003497	1354.6194886000012	1460.2682305999915	1461.284163400007	1463.0186751	1464.5294927000068	1465.54238910001	1466.5562278000289	1467.5768794000032	1468.591477900045	1469.7566067000153	2020-02-21 17:47:35.744906	-0.537581556382681	0.0	0.0	0.0	0.537581556382681	0.0	0.537581556382681	0.0	0.0	0.0	0.537581556382681	-1.72834311470161	-3.4525113435505563	-2.2758883369896483	-0.7552045199111639	-2.872801242531202	-2.104803908256355	-0.7552045199111639	-2.3593086472605163	-3.1562598858590394	0.29625145769151784	-2.8941717507035136	-0.13692110619730063	3	correct	1.0
115.12516209995374	8.002577400009613	nogo_punish	0.8668436000007205	115.16257839999162	116.61652879999019	119.16889510001056	1.4539503999985754	116.16099699999904	118.15218110004207	122.22740910004359	0.45553179999114946	1.0167139999684878	0.9377466999576427	121.21537720004562	0.4858412000467069	120.18062370002735	2	1	14	1	nogo_punish	1	-1	0	0	1	0	0	0.0	1.0	-1	0.8668436000007205	0.4858412000467069	1354.6194886000012	1469.7820669999928	1470.7804856000002	1471.2360173999914	1472.7716697000433	1473.7883837000118	1474.8001123000286	1475.8348658000468	1476.8468977000448	1477.7846444000024	2020-02-21 17:47:35.744906	-0.212736843261748	-0.745913579892394	0.0	-0.655828587647064	-0.212736843261748	0.0	0.212736843261748	-0.745913579892394	0.0	-0.212736843261748	0.0	-0.9824295348092159	-3.1276666304296232	-3.0218019168820422	-0.7552045199111639	-3.528629830178266	-2.855122307900784	-0.7552045199111639	-1.6133950673681223	-3.3689967291207874	-0.2413300986911632	-3.6400853305959076	-0.13692110619730063	3	correct	1.0
123.14952589996392	8.43478310003411	go_reward	1.0	123.1869422000018	125.0595145000259	127.5899369000108	1.8725723000241032	124.20051009999588	126.57031850004569	130.64568150002742	0.8590044000300168	1.0196183999651112	0.9760438000084832	129.63268070004415	0.4383034000056796	128.60216190002393	2	1	15	4	go_reward	1	1	0	1	0	0	0	0.0	1.0	0	1.0	0.4383034000056796	1354.6194886000012	1477.806430800003	1478.819998699997	1479.679003100027	1481.189807100047	1482.209425500012	1483.2216505000251	1484.2521693000454	1485.2651701000286	1486.241213900037	2020-02-21 17:47:35.744906	-2.20507590139997	1.67906673544316	0.0	1.67906673544316	2.20507590139997	0.0	2.20507590139997	0.0	1.67906673544316	0.0	2.20507590139997	0.0	-5.120005688567845	-0.5968216015464882	-0.7552045199111639	-1.193734507088042	-0.437309563239066	-0.7552045199111639	-0.6309655325589063	-3.1562598858590394	1.9637458027088068	-2.8941717507035136	1.5421456292458595	3	correct	1.0
131.6100186999538	9.348630800028332	nogo_punish	1.0	131.64743499999167	134.0729505000054	136.58938230003696	2.4255155000137165	132.65675030002603	135.5761613000068	139.65448440000182	1.4162001999793574	1.0132210000301711	1.3415814000181854	138.63926480000373	0.3910381000023335	137.60542949999217	2	1	16	1	nogo_punish	1	-1	0	0	0	1	1	0.0	0.0	0	1.0	0.3910381000023335	1354.6194886000012	1486.2669235999929	1487.2762389000272	1488.6924391000066	1490.195649900008	1491.2088709000382	1492.2249180999934	1493.258753400005	1494.273973000003	1495.6155544000212	2020-02-21 17:47:35.744906	0.423846168391947	-0.953846908167834	0.0	-0.896361015334936	-0.423846168391947	0.0	-0.423846168391947	0.0	-0.953846908167834	0.0	-0.423846168391947	0.0	-2.491083618775928	-3.2297352451574826	-0.7552045199111639	-3.769162257866138	-3.0662316330309833	-0.7552045199111639	-0.6309655325589063	-3.1562598858590394	-0.6651762670831102	-2.8941717507035136	-1.0907680143651346	3	wrong	1.0
140.98290740000084	9.766408899973612	go_reward	1.0	141.02032370003872	143.78064760001143	146.30521600000793	2.760323899972718	142.02316400001268	145.2945858000312	149.3401948999965	1.75748359999875	1.010630199976731	1.4465377000158242	148.3354594000266	0.3952986999647692	147.32307350001088	2	1	17	4	go_reward	1	1	0	1	0	0	1	0.0	0.0	0	1.0	0.3952986999647692	1354.6194886000012	1495.63981230004	1496.642652600014	1498.4001362000126	1499.9140744000324	1500.9247046000091	1501.942562100012	1502.9549480000278	1503.9596834999977	1505.4062212000135	2020-02-21 17:47:35.744906	-2.21437988802283	1.67906673544316	0.0	1.22188940735041	2.21437988802283	0.0	2.21437988802283	0.0	1.67906673544316	0.0	2.21437988802283	0.0	-5.129309675190705	-0.5968216015464882	-0.7552045199111639	-1.650911835180792	-0.4280055766162061	-0.7552045199111639	-0.6309655325589063	-3.1562598858590394	1.9730497893316667	-2.8941717507035136	1.5421456292458595	3	wrong	1.0
150.79478359996574	8.732330100028776	nogo_reward	0.6397773000062443	150.83219990000362	153.1255354000025	155.6807090000366	2.293335499998875	151.84337240003515	154.66077560000122	158.72627490002196	1.2821629999673405	1.0199334000353701	0.8382551000104286	157.7173790000379	0.4035946999792941	156.68898490001447	2	1	18	3	nogo_reward	1	0	1	0	1	0	0	0.0	1.0	0	0.6397773000062443	0.4035946999792941	1354.6194886000012	1505.4516885000048	1506.4628610000364	1507.7450240000037	1509.2802642000024	1510.3001976000378	1511.3084735000157	1512.336867600039	1513.3457635000232	1514.1840186000336	2020-02-21 17:47:35.744906	2.90032535236873	2.39459380170102	0.0	2.39459380170102	2.90032535236873	0.0	-2.90032535236873	2.39459380170102	0.0	2.90032535236873	0.0	-2.39459380170102	-0.014604434799145416	0.11870546471137189	-0.7552045199111639	-0.47820744083018196	0.2579398877296937	-0.7552045199111639	-3.0255593342599267	-0.2559345334903096	-0.2413300986911632	-0.4995779490024934	-0.13692110619730063	3	correct	1.0
159.56920929998182	8.990647099970147	go_punish	1.0	159.6066256000197	162.05970710003749	164.59780410001986	2.453081500017788	160.61568600003375	163.57445310003823	167.6499306000187	1.444021100003738	1.0233509999816306	0.9473420999711379	166.6381779999938	0.476304900017567	165.61124210001435	2	1	19	2	go_punish	1	0	-1	1	0	0	0	0.0	1.0	-1	1.0	0.476304900017567	1354.6194886000012	1514.226114200021	1515.235174600035	1516.6791957000387	1518.1939417000394	1519.217292700021	1520.2307307000156	1521.257666599995	1522.26941920002	1523.216761299991	2020-02-21 17:47:35.744906	-0.985026186193533	0.0	-0.447895259371624	-0.447895259371624	0.537130926821909	-0.447895259371624	0.985026186193533	-0.447895259371624	0.0	-0.447895259371624	0.537130926821909	-1.280447855329986	-3.899955973361408	-2.2758883369896483	-1.203099779282788	-3.3206965019028263	-2.1052545378171272	-1.203099779282788	-1.9114133878888924	-3.6041551452306635	0.2958008281307458	-3.3420670100751377	-0.13692110619730063	3	correct	1.0
168.6019293999998	8.529567199992016	go_punish	0.2559847999946214	168.63934570003767	170.6934704000014	173.2331633000283	2.0541246999637224	169.64491360000102	172.21268240001518	176.2696049000367	1.0485568000003695	1.0204809000131263	0.8993079999929705	175.26335890003247	0.5453089000075124	174.2501750999943	2	1	20	2	go_punish	1	0	-1	1	1	1	0	0.0	1.0	0	0.2559847999946214	0.5453089000075124	1354.6194886000012	1523.2588343000389	1524.2644022000022	1525.3129590000026	1526.8321710000164	1527.8526519000295	1528.8696636999955	1529.8828475000337	1530.889093500038	1531.788401500031	2020-02-21 17:47:35.744906	1.27977896177458	0.0	-0.745913579892394	-0.745913579892394	0.533865381882189	-0.745913579892394	-1.27977896177458	0.0	-0.745913579892394	0.533865381882189	-0.745913579892394	0.0	-1.6351508253932951	-2.2758883369896483	-1.5011180998035578	-3.618714822423596	-2.108520082756847	-1.5011180998035578	-0.6309655325589063	-2.6223945039768504	-0.9872436785835572	-2.8941717507035136	-0.8828346860896947	3	correct	1.0
177.156735399971	9.844801200029679	nogo_punish	1.0	177.1941517000089	180.17287930002203	182.7017830000259	2.978727600013144	178.21130950003862	181.6817167000263	185.75692830001935	1.9615697999834083	1.0200662999995984	1.2820246000192128	184.74828500003787	0.3700505999731831	183.71838840004057	2	1	21	1	nogo_punish	1	-1	0	0	0	1	0	0.0	1.0	0	1.0	0.3700505999731831	1354.6194886000012	1531.81364030001	1532.8307981000398	1534.7923679000232	1536.3012053000275	1537.321271600027	1538.3378770000418	1539.367773600039	1540.3764169000206	1541.6584415000398	2020-02-21 17:47:35.744906	0.42699077557788	-0.953846908167834	0.0	-0.618011137887364	-0.42699077557788	0.0	-0.42699077557788	0.0	-0.953846908167834	0.0	-0.42699077557788	0.0	-2.487939011589995	-3.2297352451574826	-0.7552045199111639	-3.490812380418566	-3.0693762402169162	-0.7552045199111639	-0.6309655325589063	-3.1562598858590394	-0.6683208742690432	-2.8941717507035136	-1.0907680143651346	3	correct	1.0
187.0260720999795	8.608149499981664	nogo_punish	1.0	187.06348840001738	188.86284030001843	191.3974334000377	1.7993519000010565	188.07439190003788	190.3767847000272	194.46058710000943	0.7884483999805525	1.0206487000104971	1.2110507999896072	193.44637160003185	0.3593199999886565	192.41815280000446	2	1	22	1	nogo_punish	1	-1	0	0	0	1	0	0.0	1.0	0	1.0	0.3593199999886565	1354.6194886000012	1541.6829770000186	1542.693880500039	1543.4823289000196	1544.9962733000284	1546.016922000039	1547.0376414000057	1548.065860200033	1549.0800757000106	1550.2911265000002	2020-02-21 17:47:35.744906	0.4271636372217	-0.953846908167834	0.0	-0.443866429674018	-0.4271636372217	0.0	-0.4271636372217	0.0	-0.953846908167834	0.0	-0.4271636372217	0.0	-2.487766149946175	-3.2297352451574826	-0.7552045199111639	-3.31666767220522	-3.069549101860736	-0.7552045199111639	-0.6309655325589063	-3.1562598858590394	-0.6684937359128632	-2.8941717507035136	-1.0907680143651346	3	correct	1.0
195.73216089996276	8.457582200004254	go_punish	0.3953976000193506	195.76957720000064	197.32298060000176	199.86385610001162	1.553403400001116	196.77424040000187	198.84242440003436	202.9057592000463	0.5487401999998838	1.0214316999772564	1.321400199958589	201.89837450004416	0.3989719999954104	200.88063080003485	2	1	23	2	go_punish	1	0	-1	1	1	1	0	0.0	1.0	0	0.3953976000193506	0.3989719999954104	1354.6194886000012	1550.3890658000018	1551.393729000003	1551.942469200003	1553.4619130000356	1554.4833447000128	1555.500119400036	1556.5178631000454	1557.5252478000475	1558.846648000006	2020-02-21 17:47:35.744906	1.27627540114409	0.0	-0.745913579892394	-0.50595164879621	0.530361821251698	-0.745913579892394	-1.27627540114409	0.0	-0.745913579892394	0.530361821251698	-0.745913579892394	0.0	-1.6386543860237852	-2.2758883369896483	-1.5011180998035578	-3.3787528913274123	-2.1120236433873383	-1.5011180998035578	-0.6309655325589063	-2.6258980646073415	-0.9872436785835572	-2.8941717507035136	-0.8828346860896947	3	correct	1.0
204.24078639998334	8.964722700009588	nogo_reward	0.3362264999886974	204.2782027000212	206.8623677000287	209.4120772000167	2.584165000007488	205.2930782000185	208.38506619998952	212.46822129999055	1.5692895000101998	1.027011000027187	0.7747041000402533	211.44977430003928	0.3134320999961346	210.4210041000042	2	1	24	3	nogo_reward	1	0	1	0	1	0	0	0.0	1.0	0	0.3362264999886974	0.3134320999961346	1354.6194886000012	1558.8976913000224	1559.9125668000197	1561.48185630003	1563.0045547999907	1564.031565800018	1565.0404927000054	1566.0692629000405	1567.0877098999918	1567.862414000032	2020-02-21 17:47:35.744906	2.20507590139997	1.67906673544316	0.0	1.67906673544316	2.20507590139997	0.0	-2.20507590139997	1.67906673544316	0.0	2.20507590139997	0.0	-1.67906673544316	-0.7098538857679051	-0.5968216015464882	-0.7552045199111639	-1.193734507088042	-0.437309563239066	-0.7552045199111639	-2.3100322680020664	-0.9511839844590693	-0.2413300986911632	-1.2151050152603535	-0.13692110619730063	3	correct	1.0
213.2491052999976	8.434211399988271	nogo_reward	0.2925224999780766	213.28652160003548	214.65497430000687	217.1999274000409	1.3684526999713853	214.29406869999366	216.18429210002068	220.25293920002878	0.36090560001321137	1.0156353000202216	1.467793799994979	219.2384375000256	0.5686262000235729	218.2118226000457	2	1	25	3	nogo_reward	0	1	0	0	1	0	0	0.0	1.0	1	0.2925224999780766	0.5686262000235729	1354.6194886000012	1567.9060102000367	1568.9135572999949	1569.274462900008	1570.803780700022	1571.819416000042	1572.831311200047	1573.8579261000268	1574.87242780003	1576.340221600025	2020-02-21 17:47:35.744906	1.75720255993008	1.22188940735041	0.0	1.22188940735041	1.75720255993008	0.0	-1.75720255993008	1.22188940735041	0.0	1.75720255993008	0.0	12.963957439262689	-1.1577272272377952	-1.0539989296392382	-0.7552045199111639	-1.650911835180792	-0.8851829047089561	-0.7552045199111639	12.332991906703782	-1.3990573259289594	-0.2413300986911632	-1.6722823433531036	-0.13692110619730063	3	correct	1.0
221.707881999959	8.070895600016001	nogo_punish	1.0	221.74529829999688	223.2566969000036	225.78322820004541	1.5113986000067143	222.75733870000113	224.76222580001922	228.81637720001163	0.49935820000246167	1.021002400026191	0.9998167000012472	227.8041266000364	0.3473585000028834	226.78916560002835	2	1	26	1	nogo_punish	1	-1	0	0	0	1	0	0.0	1.0	0	1.0	0.3473585000028834	1354.6194886000012	1576.364786899998	1577.3768273000023	1577.8761855000048	1579.3817144000204	1580.4027168000466	1581.4086542000296	1582.4236152000376	1583.4358658000128	1584.435682500014	2020-02-21 17:47:35.744906	0.426301572652089	-0.953846908167834	0.0	-0.329047129161827	-0.426301572652089	0.0	-0.426301572652089	0.0	-0.953846908167834	0.0	-0.426301572652089	0.0	-2.4886282145157863	-3.2297352451574826	-0.7552045199111639	-3.2018483716930293	-3.068687037291125	-0.7552045199111639	-0.6309655325589063	-3.1562598858590394	-0.6676316713432522	-2.8941717507035136	-1.0907680143651346	3	correct	1.0
229.8249413999729	8.782339400029741	nogo_reward	0.4340955999796279	229.86235770001076	231.53138960001525	234.11788959999103	1.6690319000044838	230.867075200018	233.0969131999882	237.16712470003404	0.6643143999972381	1.0209764000028372	1.4775724000064656	236.1629243000059	0.3139555999659933	235.13351930002682	2	1	27	3	nogo_reward	1	0	1	0	1	0	1	1.0	1.0	0	0.4340955999796279	0.3139555999659933	1354.6194886000012	1584.481846300012	1585.4865638000192	1586.1508782000165	1587.7164017999894	1588.7373781999922	1589.753007900028	1590.782412900007	1591.7866133000352	1593.2641857000417	2020-02-21 17:47:35.744906	4.9644722838786	4.5027400154013	0.0	4.5027400154013	4.9644722838786	0.0	-4.9644722838786	4.5027400154013	0.0	4.9644722838786	0.0	-4.5027400154013	2.049542496710725	2.2268516784116517	-0.7552045199111639	1.6299387728700978	2.3220868192395643	-0.7552045199111639	-5.133705547960206	1.808212398019561	-0.2413300986911632	1.6085682646977864	-0.13692110619730063	3	correct	1.0
238.63138709997293	8.877743899996858	go_reward	0.4561998000135645	238.6688034000108	241.00322020001477	243.53523660002975	2.3344168000039645	239.67689450003672	242.5240438000185	246.59424140001647	1.3263256999780424	1.0111928000112584	0.9523058999911882	245.58104170003207	0.3876159999636002	244.55389020004077	2	1	28	4	go_reward	0	0	1	1	1	1	0	0.0	1.0	0	0.4561998000135645	0.3876159999636002	1354.6194886000012	1593.288292000012	1594.296383100038	1595.622708800016	1597.1435324000197	1598.154725200031	1599.173378800042	1600.2005303000333	1601.2137300000177	1602.1660359000089	2020-02-21 17:47:35.744906	2.21867520155428	1.67906673544316	0.0	0.91569788516462	2.21867520155428	0.0	-2.21867520155428	1.67906673544316	0.0	2.21867520155428	0.0	-1.67906673544316	-0.6962545856135951	-0.5968216015464882	-0.7552045199111639	-1.9571033573665821	-0.423710263084756	-0.7552045199111639	-2.3100322680020664	-0.9375846843047593	-0.2413300986911632	-1.2151050152603535	-0.13692110619730063	3	correct	1.0
247.55526739999186	8.562351399974432	go_punish	0.366567799996119	247.59268370002974	249.0658448000322	251.6350581000445	1.4731611000024714	248.59182550001424	250.6268401000416	254.67753610003274	0.47401930001797155	1.0082180000028984	1.4774989999714307	253.66401960002258	0.3367708000005223	252.65072030003648	2	1	29	2	go_punish	1	0	-1	1	1	1	0	0.0	1.0	0	0.366567799996119	0.3367708000005223	1354.6194886000012	1602.212172300031	1603.2113141000154	1603.6853334000334	1605.2463287000428	1606.2545467000457	1607.2702089000377	1608.2835082000238	1609.297024700034	1610.7745237000054	2020-02-21 17:47:35.744906	1.27567630397751	0.0	-0.745913579892394	-0.358380763717982	0.529762724085117	-0.745913579892394	-1.27567630397751	0.0	-0.745913579892394	0.529762724085117	-0.745913579892394	0.0	-1.6392534831903651	-2.2758883369896483	-1.5011180998035578	-3.2311820062491843	-2.112622740553919	-1.5011180998035578	-0.6309655325589063	-2.6264971617739223	-0.9872436785835572	-2.8941717507035136	-0.8828346860896947	3	correct	1.0
256.1421975999838	8.374561899981927	go_reward	0.8836133999866433	256.17961390002165	257.545889800007	260.09693450003397	1.3662758999853395	257.18705250002677	259.071870499989	263.1637576000069	0.3588372999802232	1.0250640000449494	1.3904181999967022	262.14590420003515	0.3875578999868594	261.11096710001584	2	1	30	4	go_reward	1	1	0	1	1	1	1	1.0	1.0	1	0.8836133999866433	0.3875578999868594	1354.6194886000012	1610.7991025000229	1611.806541100028	1612.1653784000082	1613.6913590999902	1614.7164231000352	1615.730455700017	1616.7653928000364	1617.783246200008	1619.1736644000048	2020-02-21 17:47:35.744906	1.76339974433798	1.22188940735041	0.0	0.702922564407621	1.76339974433798	0.0	-1.76339974433798	1.22188940735041	0.0	1.76339974433798	0.0	12.963957439262689	-1.1515300428298951	-1.0539989296392382	-0.7552045199111639	-2.169878678123581	-0.878985720301056	-0.7552045199111639	12.332991906703782	-1.3928601415210593	-0.2413300986911632	-1.6722823433531036	-0.13692110619730063	3	correct	1.0
264.54427600000054	8.363527399953455	nogo_punish	1.0	264.5816923000384	265.91713160002837	268.43743310001446	1.3354392999899574	265.5896621000138	267.4227754000458	271.4727253000019	0.32746950001455843	1.0146576999686658	1.4724943999899551	270.4595155999996	0.6655936000170186	269.4458132000293	2	1	31	1	nogo_punish	1	-1	0	0	0	1	0	0.0	1.0	0	1.0	0.6655936000170186	1354.6194886000012	1619.2011809000396	1620.209150700015	1620.5366202000296	1622.042264000047	1623.0569217000157	1624.0653018000305	1625.0790042000008	1626.0922139000031	1627.564708299993	2020-02-21 17:47:35.744906	0.425144343462369	-0.953846908167834	0.0	-0.250240505110504	-0.425144343462369	0.0	-0.425144343462369	0.0	-0.953846908167834	0.0	-0.425144343462369	0.0	-2.489785443705506	-3.2297352451574826	-0.7552045199111639	-3.123041747641706	-3.0675298081014053	-0.7552045199111639	-0.6309655325589063	-3.1562598858590394	-0.6664744421535322	-2.8941717507035136	-1.0907680143651346	3	correct	1.0
272.94920589996036	8.938626800023485	go_punish	0.2858288999996148	272.98662219999824	274.9607598000439	277.49765740003204	1.9741376000456512	273.99715619999915	276.48643610003637	280.5364807000151	0.9636036000447348	1.0112212999956682	1.3887683000066318	279.5237504999968	0.6034593000076711	278.5060268000234	2	1	32	2	go_punish	1	0	-1	1	1	1	0	0.0	1.0	0	0.2858288999996148	0.6034593000076711	1354.6194886000012	1627.6061107999994	1628.6166448000004	1629.580248400045	1631.1059247000376	1632.1171460000332	1633.1255154000246	1634.143239099998	1635.1559693000163	1636.544737600023	2020-02-21 17:47:35.744906	1.27612480550703	0.0	-0.745913579892394	-0.262506924533695	0.530211225614637	-0.745913579892394	-1.27612480550703	0.0	-0.745913579892394	0.530211225614637	-0.745913579892394	0.0	-1.6388049816608452	-2.2758883369896483	-1.5011180998035578	-3.1353081670648972	-2.112174239024399	-1.5011180998035578	-0.6309655325589063	-2.626048660244402	-0.9872436785835572	-2.8941717507035136	-0.8828346860896947	3	correct	1.0
281.9116180999554	9.1876136000501	go_reward	0.2961485999985598	281.94903439999325	284.1332955000107	286.6885647000163	2.1842611000174657	282.9617772999918	285.6643054000451	289.7546424000177	1.1715182000189088	1.0242592999711633	1.38200560002565	288.73587959998986	0.4392689000233076	287.7062389000205	2	1	33	4	go_reward	1	1	0	1	1	1	0	0.0	1.0	1	0.2961485999985598	0.4392689000233076	1354.6194886000012	1636.5685229999945	1637.581265899993	1638.752784100012	1640.2837940000463	1641.3080533000175	1642.3257275000217	1643.355368199991	1644.374131000019	1645.7561366000446	2020-02-21 17:47:35.744906	4.96710064864418	4.5027400154013	0.0	4.13761167523289	4.96710064864418	0.0	-4.96710064864418	4.5027400154013	0.0	4.96710064864418	0.0	9.683106831211798	2.0521708614763052	2.2268516784116517	-0.7552045199111639	1.2648104327016876	2.3247151840051443	-0.7552045199111639	9.052141298652892	1.810840762785141	-0.2413300986911632	1.6085682646977864	-0.13692110619730063	3	correct	1.0
291.1251083999523	9.265628800028935	nogo_punish	1.0	291.1625246999902	293.63441699999385	296.14602889999514	2.471892300003674	292.1622289000079	295.1385474000126	299.18502259999514	1.4721880999859422	1.0074814999825321	1.2431309000239708	298.18565960001433	0.3877144000143744	297.15737460000673	2	1	34	1	nogo_punish	1	-1	0	0	0	1	0	0.0	1.0	0	1.0	0.3877144000143744	1354.6194886000012	1645.7820132999914	1646.781717500009	1648.253905599995	1649.7580360000138	1650.7655174999963	1651.776863200008	1652.8051482000155	1653.8045111999963	1655.0476421000203	2020-02-21 17:47:35.744906	0.42398121692188	-0.953846908167834	0.0	-0.194387779239146	-0.42398121692188	0.0	-0.42398121692188	0.0	-0.953846908167834	0.0	-0.42398121692188	0.0	-2.4909485702459953	-3.2297352451574826	-0.7552045199111639	-3.067189021770348	-3.066366681560916	-0.7552045199111639	-0.6309655325589063	-3.1562598858590394	-0.6653113156130432	-2.8941717507035136	-1.0907680143651346	3	correct	1.0
300.4144565999741	8.995169900008477	go_reward	0.8852906000101939	300.45187290001195	302.93298199999845	305.4912279000273	2.4811090999864973	301.4634273000413	304.4660698000223	308.52568910003174	1.4695546999571434	1.025158100005001	0.9213536999886855	307.52066199999535	0.3745944999973289	306.5004029000413	2	1	35	4	go_reward	1	1	0	1	1	1	1	0.0	0.0	1	0.8852906000101939	0.3745944999973289	1354.6194886000012	1655.0713615000132	1656.0829159000425	1657.5524705999997	1659.0855584000235	1660.1107165000285	1661.1198915000425	1662.1401505999966	1663.145177700033	1664.0665314000216	2020-02-21 17:47:35.744906	7.11721329096997	6.68455849634533	0.0	6.42035918915736	7.11721329096997	0.0	-7.11721329096997	6.68455849634533	0.0	7.11721329096997	0.0	7.501288350267769	4.202283503802095	4.408670159355681	-0.7552045199111639	3.547557946626158	4.474827826330934	-0.7552045199111639	6.870322817708863	3.960953405110931	-0.2413300986911632	3.7903867456418165	-0.13692110619730063	3	wrong	1.0
309.54838609998114	8.143620199989527	go_punish	0.3535491999937221	309.585802400019	311.1525772000314	313.7034940000158	1.5667748000123538	310.5945725000347	312.6720765000207	316.74607500003185	0.5580046999966726	1.0314174999950865	0.9833475999766961	315.7404507999893	0.367110599996522	314.72412389999954	2	1	36	2	go_punish	1	0	-1	1	1	1	0	0.0	1.0	0	0.3535491999937221	0.367110599996522	1354.6194886000012	1664.2052910000202	1665.214061100036	1665.7720658000326	1667.291565100022	1668.322982600017	1669.3436125000007	1670.3599393999905	1671.365563600033	1672.3489112000098	2020-02-21 17:47:35.744906	1.27690999447435	0.0	-0.745913579892394	-0.19754515504719	0.530996414581955	-0.745913579892394	-1.27690999447435	0.0	-0.745913579892394	0.530996414581955	-0.745913579892394	0.0	-1.6380197926935252	-2.2758883369896483	-1.5011180998035578	-3.0703463975783922	-2.111389050057081	-1.5011180998035578	-0.6309655325589063	-2.6252634712770844	-0.9872436785835572	-2.8941717507035136	-0.8828346860896947	3	correct	1.0
317.71577299997443	8.520918300026096	go_reward	0.2563813999877311	317.7531893000123	319.7649925000153	322.3028793000267	2.011803200002987	318.7661437999925	321.29061419999925	325.35916640004143	0.9988487000227906	1.0122651000274345	0.9149411999969743	324.3449050000054	0.3749684000504203	323.3165635000332	2	1	37	4	go_reward	0	0	1	1	1	1	1	1.0	1.0	0	0.2563813999877311	0.3749684000504203	1354.6194886000012	1672.3726779000135	1673.3856323999937	1674.3844811000165	1675.9101028000005	1676.922367900028	1677.9360521000344	1678.9643936000066	1679.9786550000426	1680.8935962000396	2020-02-21 17:47:35.744906	8.6322146408606	8.21127221237707	0.0	8.01555377485633	8.6322146408606	0.0	-8.6322146408606	8.21127221237707	0.0	8.6322146408606	0.0	-8.21127221237707	5.717284853692725	5.935383875387421	-0.7552045199111639	5.142752532325129	5.989829176221564	-0.7552045199111639	-8.842237744935977	5.47595475500156	-0.2413300986911632	5.317100461673556	-0.13692110619730063	3	correct	1.0
326.2823833999573	8.025868199998513	nogo_reward	0.3837889999849722	326.3197996999952	327.67573150002863	330.25115590001224	1.3559318000334315	327.3149646000238	329.23014749999857	333.28942869999446	0.36076690000481904	1.0210084000136703	1.0562391999992542	332.28759620001074	0.3756756000220775	331.2687103000351	2	1	38	3	nogo_reward	1	0	1	0	1	0	0	0.0	1.0	0	0.3837889999849722	0.3756756000220775	1354.6194886000012	1680.9392882999964	1681.934453200025	1682.2952201000298	1683.8496360999998	1684.8706445000134	1685.8881989000363	1686.907084800012	1687.9089172999957	1688.965156499995	2020-02-21 17:47:35.744906	3.60717669738124	3.09751636610864	0.0	3.09751636610864	3.60717669738124	0.0	-3.60717669738124	3.09751636610864	0.0	3.60717669738124	0.0	-3.09751636610864	0.6922469102133646	0.8216280291189917	-0.7552045199111639	0.22471512357743784	0.9647912327422037	-0.7552045199111639	-3.728481898667546	0.4509168115222004	-0.2413300986911632	0.20334461540512638	-0.13692110619730063	3	correct	1.0
334.3340158999781	9.426620799989905	nogo_punish	1.0	334.371432200016	337.1288056999913	339.6615008999945	2.7573734999753015	335.3811171000125	338.6442061000273	342.6953111999901	1.747688599978801	1.0172947999672033	1.1027418000157923	341.69148760003736	0.3691796999773942	340.6782674000133	2	1	39	1	nogo_punish	1	-1	0	0	0	1	0	0.0	1.0	0	1.0	0.3691796999773942	1354.6194886000012	1688.9909208000172	1690.0006057000137	1691.7482942999925	1693.2636947000285	1694.2809894999957	1695.2977560000145	1696.3109762000386	1697.3147997999913	1698.417541600007	2020-02-21 17:47:35.744906	0.422919279780483	-0.953846908167834	0.0	-0.15374224386673	-0.422919279780483	0.0	-0.422919279780483	0.0	-0.953846908167834	0.0	-0.422919279780483	0.0	-2.492010507387392	-3.2297352451574826	-0.7552045199111639	-3.0265434863979324	-3.065304744419519	-0.7552045199111639	-0.6309655325589063	-3.1562598858590394	-0.6642493784716462	-2.8941717507035136	-1.0907680143651346	3	correct	1.0
343.80495409999276	8.132885999977589	go_punish	0.403742800001055	343.84237040003063	345.12080440000864	347.68429300002754	1.2784339999780059	344.84934090002207	346.6727566000193	350.74798899999587	0.2714634999865666	1.0115364000082536	1.2272674000123516	349.7355065000013	0.393485700013116	348.7020695999963	2	1	40	2	go_punish	1	0	-1	1	1	1	0	0.0	1.0	0	0.403742800001055	0.393485700013116	1354.6194886000012	1698.4618590000318	1699.4688295000233	1699.7402930000098	1701.2922452000205	1702.3037816000287	1703.3215581999975	1704.3549951000025	1705.367477599997	1706.5947450000094	2020-02-21 17:47:35.744906	1.2777497930372	0.0	-0.745913579892394	-0.152025870584168	0.531836213144806	-0.745913579892394	-1.2777497930372	0.0	-0.745913579892394	0.531836213144806	-0.745913579892394	0.0	-1.6371799941306753	-2.2758883369896483	-1.5011180998035578	-3.02482711311537	-2.11054925149423	-1.5011180998035578	-0.6309655325589063	-2.6244236727142334	-0.9872436785835572	-2.8941717507035136	-0.8828346860896947	3	correct	1.0
351.9633942999644	8.596856800024398	go_reward	0.2810344999888912	352.0008106000023	353.67253650003113	356.2171638000291	1.6717259000288323	353.0166487999959	355.20152100000996	359.2438686999958	0.6558877000352368	1.0156428000191227	1.353798700030893	358.2352469000034	0.5553314999560826	357.22015190002276	2	1	41	4	go_reward	1	1	0	1	1	1	0	0.0	1.0	1	0.2810344999888912	0.5553314999560826	1354.6194886000012	1706.6202992000035	1707.636137399997	1708.2920251000323	1709.8210096000112	1710.8366524000303	1711.839640500024	1712.8547355000046	1713.863357299997	1715.217156000028	2020-02-21 17:47:35.744906	6.23055252862283	5.73427320171425	0.0	5.58634050188475	6.23055252862283	0.0	-6.23055252862283	5.73427320171425	0.0	6.23055252862283	0.0	8.45157364489885	3.315622741454955	3.4583848647246014	-0.7552045199111639	2.7135392593535475	3.588167063983794	-0.7552045199111639	7.8206081123399445	3.074292642763791	-0.2413300986911632	2.840101451010736	-0.13692110619730063	3	correct	1.0
360.6064647999592	8.1225108000217	nogo_reward	0.3697060999693349	360.6438810999971	362.1938504000427	364.76592710003024	1.5499693000456318	361.6485159000149	363.7315673000412	367.8108773000422	0.5453345000278205	1.0343597999890335	0.9555145999765955	366.8072460000403	0.4011524000088684	365.77936300000874	2	1	42	3	nogo_reward	1	0	1	0	1	0	0	0.0	1.0	0	0.3697060999693349	0.4011524000088684	1354.6194886000012	1715.2633696999983	1716.268004500016	1716.813339000044	1718.3510559000424	1719.3854157000314	1720.39885160001	1721.4267346000415	1722.4303659000434	1723.38588050002	2020-02-21 17:47:35.744906	2.7603007208902	2.22963628043936	0.0	2.22963628043936	2.7603007208902	0.0	-2.7603007208902	2.22963628043936	0.0	2.7603007208902	0.0	-2.22963628043936	-0.15462906627767525	-0.04625205655028841	-0.7552045199111639	-0.6431649620918423	0.11791525625116384	-0.7552045199111639	-2.860601812998266	-0.3959591649688394	-0.2413300986911632	-0.6645354702641537	-0.13692110619730063	3	correct	1.0
368.7550448999973	8.388913800008595	nogo_punish	1.0	368.7924612000352	370.7138193999999	373.2205509000339	1.921358199964743	369.79216740000993	372.20758530002786	376.2750993000227	0.9216519999899901	1.012965600006055	0.9062757000210695	375.25714200001676	0.3746828000294044	374.2368017000265	2	1	43	1	nogo_punish	1	-1	0	0	0	1	0	0.0	1.0	0	1.0	0.3746828000294044	1354.6194886000012	1723.4119498000364	1724.4116560000111	1725.3333080000011	1726.827073900029	1727.8400395000351	1728.8562903000277	1729.876630600018	1730.894587900024	1731.800863600045	2020-02-21 17:47:35.744906	0.421989579995696	-0.953846908167834	0.0	-0.123495811816446	-0.421989579995696	0.0	-0.421989579995696	0.0	-0.953846908167834	0.0	-0.421989579995696	0.0	-2.4929402071721793	-3.2297352451574826	-0.7552045199111639	-2.9962970543476484	-3.064375044634732	-0.7552045199111639	-0.6309655325589063	-3.1562598858590394	-0.6633196786868591	-2.8941717507035136	-1.0907680143651346	3	correct	1.0
377.19018049997976	8.519112800015137	nogo_reward	0.2763870999915525	377.22759680001764	379.197080700018	381.75027050002245	1.9694839000003412	378.223961300042	380.730315599998	384.7846353999919	0.9731193999759853	1.0199549000244588	0.9620742000408882	383.7702979000169	0.2894685000064783	382.7592397000408	2	1	44	3	nogo_reward	1	0	1	0	1	0	1	0.0	0.0	0	0.2763870999915525	0.2894685000064783	1354.6194886000012	1731.8470854000188	1732.8434499000432	1733.8165693000192	1735.3498041999992	1736.3697591000237	1737.378728300042	1738.389786500018	1739.404123999993	1740.366198200034	2020-02-21 17:47:35.744906	2.20072525874048	1.66061266457007	0.0	1.66061266457007	2.20072525874048	0.0	-2.20072525874048	1.66061266457007	0.0	2.20072525874048	0.0	-1.66061266457007	-0.7142045284273952	-0.6152756724195783	-0.7552045199111639	-1.212188577961132	-0.44166020589855615	-0.7552045199111639	-2.2915781971289766	-0.9555346271185594	-0.2413300986911632	-1.2335590861334436	-0.13692110619730063	3	wrong	1.0
385.7362900999726	8.33926849998511	nogo_punish	1.0	385.7737064000105	387.5685451000463	390.0947565000388	1.7948387000358252	386.7822271999903	389.08391929999925	393.1511288000038	0.7863179000560194	1.010837200039532	0.961846099991817	392.13668830000097	0.44233059999533	391.1121542000328	2	1	45	1	nogo_punish	1	-1	0	0	0	1	1	1.0	1.0	0	1.0	0.44233059999533	1354.6194886000012	1740.3931950000117	1741.4017157999915	1742.1880337000475	1743.7034079000005	1744.71424510004	1745.731642800034	1746.7561769000022	1747.770617400005	1748.7324634999968	2020-02-21 17:47:35.744906	0.421191796024899	-0.953846908167834	0.0	-0.100552243880893	-0.421191796024899	0.0	-0.421191796024899	0.0	-0.953846908167834	0.0	-0.421191796024899	0.0	-2.493737991142976	-3.2297352451574826	-0.7552045199111639	-2.973353486412095	-3.0635772606639353	-0.7552045199111639	-0.6309655325589063	-3.1562598858590394	-0.6625218947160622	-2.8941717507035136	-1.0907680143651346	3	correct	1.0
394.1188239000039	9.036188199999742	nogo_reward	0.2814919999800622	394.1562402000418	396.38298490003217	398.9272992000333	2.226744699990377	395.16427629999816	397.90388800000073	401.9901984000462	1.218708600034006	1.0234112000325695	1.2022299999953248	400.984935400018	0.7165246000513434	399.9489166000276	2	1	46	3	nogo_reward	1	0	1	0	1	0	1	1.0	1.0	0	0.2814919999800622	0.7165246000513434	1354.6194886000012	1748.775728800043	1749.7837648999994	1751.0024735000334	1752.523376600002	1753.5467878000345	1754.5684052000288	1755.6044240000192	1756.6096870000474	1757.8119170000427	2020-02-21 17:47:35.744906	1.8148169246267	1.27054899264008	0.0	1.27054899264008	1.8148169246267	0.0	-1.8148169246267	1.27054899264008	0.0	1.8148169246267	0.0	-1.27054899264008	-1.1001128625411751	-1.0053393443495684	-0.7552045199111639	-1.6022522498911222	-0.827568540012336	-0.7552045199111639	-1.9015145251989862	-1.3414429612323393	-0.2413300986911632	-1.6236227580634337	-0.13692110619730063	3	correct	1.0
403.1962232000078	7.96485379996011	go_punish	1.0	403.2336395000457	404.58637100004125	407.1300447999963	1.3527314999955706	404.24362770002335	406.10211219999474	410.1676609000424	0.34274330001790076	1.0279326000015772	1.0308323999634013	409.1577368000287	0.9742133999825456	408.13533880002797	2	1	47	2	go_punish	1	0	-1	1	0	0	0	0.0	1.0	-1	1.0	0.9742133999825456	1354.6194886000012	1757.853128100047	1758.8631163000246	1759.2058596000425	1760.721600799996	1761.7495333999975	1762.7548274000292	1763.77722540003	1764.7871495000436	1765.817981900007	2020-02-21 17:47:35.744906	-1.27853539629969	0.0	-0.745913579892394	-0.119235554691447	0.5326218164073	-0.745913579892394	1.27853539629969	-0.745913579892394	0.0	-0.745913579892394	0.5326218164073	-0.9824295348092159	-4.193465183467565	-2.2758883369896483	-1.5011180998035578	-2.9920367972226494	-2.109763648231736	-1.5011180998035578	-1.6133950673681223	-3.9021734657514333	0.2912917177161368	-3.6400853305959076	-0.13692110619730063	3	correct	1.0
411.20596769999247	8.689725200005341	go_punish	0.2519813999533653	411.24338400003035	413.3004956000368	415.8712458999944	2.057111600006465	412.24649779999163	414.84720100002596	418.9153624000028	1.053997800045181	1.0240448999684304	1.01774680003291	417.9066652000183	0.9785358000081033	416.88495460001286	2	1	48	2	go_punish	1	0	-1	1	1	1	0	1.0	0.0	0	0.2519813999533653	0.9785358000081033	1354.6194886000012	1765.8628726000316	1766.8659863999928	1767.919984200038	1769.4666896000272	1770.4907344999956	1771.504443200014	1772.5261538000195	1773.534851000004	1774.552597800037	2020-02-21 17:47:35.744906	1.4867134632144	0.0	-0.953846908167834	-0.542952518089918	0.532866555046568	-0.953846908167834	-1.4867134632144	0.0	-0.953846908167834	0.532866555046568	-0.953846908167834	0.0	-1.4282163239534753	-2.2758883369896483	-1.709051428078998	-3.4157537606211203	-2.109518909592468	-1.709051428078998	-0.6309655325589063	-2.6233933308124713	-1.1951770068589973	-2.8941717507035136	-1.0907680143651346	3	wrong	1.0
419.9368892000057	8.842263899976388	go_punish	0.24400579999201	419.97430550004356	422.405542100023	424.9939556000172	2.4312365999794565	420.98403930000495	423.9722965999972	428.0498962000129	1.421502800018061	1.0216590000200085	0.7666732000070624	427.0311037999927	0.3369814999750815	426.0104820000124	2	1	49	2	go_punish	1	0	-1	1	1	1	1	1.0	1.0	0	0.24400579999201	0.3369814999750815	1354.6194886000012	1774.5937941000448	1775.6035279000062	1777.0250307000242	1778.5917851999984	1779.6134442000184	1780.6299706000136	1781.650592399994	1782.669384800014	1783.4360580000211	2020-02-21 17:47:35.744906	1.48449820969199	0.0	-0.953846908167834	-0.374886918351032	0.530651301524161	-0.953846908167834	-1.48449820969199	0.0	-0.953846908167834	0.530651301524161	-0.953846908167834	0.0	-1.4304315774758851	-2.2758883369896483	-1.709051428078998	-3.2476881608822343	-2.111734163114875	-1.709051428078998	-0.6309655325589063	-2.6256085843348784	-1.1951770068589973	-2.8941717507035136	-1.0907680143651346	3	correct	1.0
428.8222978999838	8.020858799980488	nogo_reward	0.4603846999816596	428.8597142000217	430.36028280004393	432.9374654000276	1.500568600022234	429.8597804000019	431.9261187000084	435.9962901000399	0.5005024000420235	1.0113467000192031	0.8842828999622725	434.9834542000317	0.3271440000389702	433.95545649999985	2	1	50	3	nogo_reward	1	0	1	0	1	0	0	0.0	1.0	0	0.4603846999816596	0.3271440000389702	1354.6194886000012	1783.479202800023	1784.4792690000031	1784.9797714000451	1786.5456073000096	1787.5569540000288	1788.574945100001	1789.602942800033	1790.6157787000411	1791.5000616000034	2020-02-21 17:47:35.744906	1.5396120292551	0.993713121797775	0.0	0.993713121797775	1.5396120292551	0.0	-1.5396120292551	0.993713121797775	0.0	1.5396120292551	0.0	-0.993713121797775	-1.375317757912775	-1.2821752151918733	-0.7552045199111639	-1.8790881207334271	-1.102773435383936	-0.7552045199111639	-1.6246786543566814	-1.6166478566039393	-0.2413300986911632	-1.9004586289057386	-0.13692110619730063	3	correct	1.0
436.86686469998676	8.605385200004093	go_reward	0.361577799951192	436.90428100002464	438.5620307000354	441.1053039000251	1.6577497000107542	437.9070557000232	440.09105990000535	444.1507898000418	0.6549750000122003	1.014244000019744	1.3588763999869116	443.1385060999892	0.5286132000037469	442.11889829998836	2	1	51	4	go_reward	1	1	0	1	1	1	0	0.0	1.0	1	0.361577799951192	0.5286132000037469	1354.6194886000012	1791.5237696000258	1792.5265443000244	1793.1815193000366	1794.7105485000066	1795.7247925000263	1796.7383868999896	1797.7579946999904	1798.770278400043	1800.12915480003	2020-02-21 17:47:35.744906	8.21050510147263	7.75854726567034	0.0	7.64476480975735	8.21050510147263	0.0	-8.21050510147263	7.75854726567034	0.0	8.21050510147263	0.0	6.427299580942759	5.295575314304756	5.482658928680692	-0.7552045199111639	4.771963567226148	5.568119636833595	-0.7552045199111639	5.796334048383853	5.054245215613591	-0.2413300986911632	4.864375514966826	-0.13692110619730063	3	correct	1.0
445.5194918999914	9.719133000005968	nogo_reward	0.2483104999992065	445.5569082000293	448.33286140003474	450.87592369999084	2.7759532000054605	446.5603022000289	449.8549703999888	453.9230548000196	1.772559200005844	1.0209533000020201	1.3529864000156522	452.9106973000453	0.3093061000108719	451.89307480002753	2	1	52	3	nogo_reward	1	0	1	0	1	0	1	1.0	1.0	0	0.2483104999992065	0.3093061000108719	1354.6194886000012	1800.1763968000305	1801.17979080003	1802.952350000036	1804.47445899999	1805.495412299992	1806.5125634000287	1807.5301859000465	1808.5425434000208	1809.8955298000365	2020-02-21 17:47:35.744906	1.33794138898925	0.79163819655868	0.0	0.79163819655868	1.33794138898925	0.0	-1.33794138898925	0.79163819655868	0.0	1.33794138898925	0.0	-0.79163819655868	-1.5769883981786252	-1.4842501404309685	-0.7552045199111639	-2.0811630459725223	-1.3044440756497861	-0.7552045199111639	-1.4226037291175864	-1.8183184968697894	-0.2413300986911632	-2.102533554144834	-0.13692110619730063	3	correct	1.0
455.28079240000807	8.361184899986029	nogo_reward	0.8823202999774367	455.31820870004594	456.6553279000218	459.2087578999924	1.3371191999758594	456.3276009000256	458.19563140004175	462.2625325000263	0.32772699999623	1.0131264999506584	1.4168611000056899	461.2605372000253	0.3692557000322267	460.2323161000388	2	1	53	3	nogo_reward	1	0	1	0	1	0	0	0.0	1.0	0	0.8823202999774367	0.3692557000322267	1354.6194886000012	1809.9376973000471	1810.9470895000268	1811.274816500023	1812.815120000043	1813.8282464999936	1814.85180470004	1815.8800258000265	1816.8820211000275	1818.2988822000332	2020-02-21 17:47:35.744906	1.18676137439452	0.640646283746784	0.0	0.640646283746784	1.18676137439452	0.0	-1.18676137439452	0.640646283746784	0.0	1.18676137439452	0.0	-0.640646283746784	-1.7281684127733552	-1.6352420532428642	-0.7552045199111639	-2.232154958784418	-1.4556240902445161	-0.7552045199111639	-1.2716118163056902	-1.9694985114645194	-0.2413300986911632	-2.2535254669567295	-0.13692110619730063	3	correct	1.0
463.6677956999629	9.319388700008858	nogo_punish	1.0	463.70521200000076	466.2149528000157	468.7333468000288	2.5097408000149244	464.7088472000321	467.71221040003	471.77491010003723	1.5061055999835844	1.0211363999987952	1.2496905999723822	470.7625961000449	0.3018320999690331	469.7487103000167	2	1	54	1	nogo_punish	1	-1	0	0	0	1	0	0.0	1.0	0	1.0	0.3018320999690331	1354.6194886000012	1818.324700600002	1819.3283358000333	1820.8344414000169	1822.3316990000312	1823.35283540003	1824.368198900018	1825.382084700046	1826.3943987000384	1827.6440893000108	2020-02-21 17:47:35.744906	0.420513661759476	-0.953846908167834	0.0	-0.0828552516204924	-0.420513661759476	0.0	-0.420513661759476	0.0	-0.953846908167834	0.0	-0.420513661759476	0.0	-2.4944161254083994	-3.2297352451574826	-0.7552045199111639	-2.9556564941516945	-3.062899126398512	-0.7552045199111639	-0.6309655325589063	-3.1562598858590394	-0.6618437604506392	-2.8941717507035136	-1.0907680143651346	3	correct	1.0
473.0302126999593	8.850807700015139	nogo_reward	0.4398239000001922	473.06762899999717	474.930814400024	477.46821920003276	1.8631854000268504	474.0811001000111	476.457313299994	480.5188982000109	0.8497143000129199	1.0109059000387788	1.3995385000014267	479.5066824000096	0.3331322000012733	478.48548040003516	2	1	55	3	nogo_reward	1	0	1	0	1	0	1	1.0	1.0	0	0.4398239000001922	0.3331322000012733	1354.6194886000012	1827.6871175999984	1828.7005887000123	1829.5503030000252	1831.0768018999952	1832.087707800034	1833.1049690000364	1834.1261710000108	1835.138386800012	1836.5379253000135	2020-02-21 17:47:35.744906	1.07121511476896	0.52556144410071	0.0	0.52556144410071	1.07121511476896	0.0	-1.07121511476896	0.52556144410071	0.0	1.07121511476896	0.0	-0.52556144410071	-1.8437146723989153	-1.7503268928889382	-0.7552045199111639	-2.347239798430492	-1.5711703498700762	-0.7552045199111639	-1.1565269766596162	-2.0850447710900797	-0.2413300986911632	-2.3686103066028035	-0.13692110619730063	3	correct	1.0
481.905498299981	8.608063899969466	go_reward	0.2604576000012457	481.94291460001887	483.7170846000081	486.26314029999776	1.7741699999892262	482.9514930000296	485.23967979999725	489.3060848999885	0.7655915999785066	1.0234605000005104	1.2448935999998412	488.3025658000263	0.4380960999988019	487.2775084000316	2	1	56	4	go_reward	1	1	0	1	1	1	0	0.0	1.0	1	0.2604576000012457	0.4380960999988019	1354.6194886000012	1836.56240320002	1837.5709816000308	1838.3365732000093	1839.8591683999985	1840.882628899999	1841.8969970000328	1842.9220544000275	1843.9255734999897	1845.1704670999895	2020-02-21 17:47:35.744906	9.54821307848903	9.11293634625052	0.0	9.02406881538749	9.54821307848903	0.0	-9.54821307848903	9.11293634625052	0.0	9.54821307848903	0.0	5.07291050036258	6.633283291321154	6.8370480092608705	-0.7552045199111639	6.1512675728562884	6.905827613849993	-0.7552045199111639	4.441944967803674	6.391953192629989	-0.2413300986911632	6.218764595547006	-0.13692110619730063	3	correct	1.0
490.5566788999713	8.585091900022462	go_punish	0.2723563000326976	490.5940952000092	492.16426809999393	494.74684310000157	1.5701728999847546	491.5944357000408	493.7250951000028	497.79552839999087	0.5698323999531567	1.0217479999987518	1.383658700040769	496.7913365000277	0.3786962999729439	495.7619852999924	2	1	57	2	go_punish	1	0	-1	1	1	1	0	0.0	1.0	0	0.2723563000326976	0.3786962999729439	1354.6194886000012	1845.2135838000104	1846.213924300042	1846.7837566999951	1848.344583700004	1849.3663317000028	1850.3814738999936	1851.410825100029	1852.415016999992	1853.7986757000328	2020-02-21 17:47:35.744906	1.4843202299041	0.0	-0.953846908167834	-0.270878570548875	0.530473321736267	-0.953846908167834	-1.4843202299041	0.0	-0.953846908167834	0.530473321736267	-0.953846908167834	0.0	-1.4306095572637751	-2.2758883369896483	-1.709051428078998	-3.143679813080077	-2.111912142902769	-1.709051428078998	-0.6309655325589063	-2.6257865641227722	-1.1951770068589973	-2.8941717507035136	-1.0907680143651346	3	correct	1.0
499.166630599997	8.501972300000716	go_reward	0.2898047000053338	499.2040469000349	500.89875640004175	503.4408990000377	1.6947095000068657	500.21201030001976	502.4198755000252	506.4875852999976	0.6867461000219919	1.0210235000124612	1.2184339000380078	505.4837386000436	0.4086461000260897	504.4559814000388	2	1	58	4	go_reward	1	1	0	1	1	1	1	1.0	1.0	1	0.2898047000053338	0.4086461000260897	1354.6194886000012	1853.823535500036	1854.831498900021	1855.518245000043	1857.0393641000264	1858.060387600039	1859.07547000004	1860.1032272000448	1861.1070738999988	1862.3255078000368	2020-02-21 17:47:35.744906	10.5012678893572	10.0709613135118	0.0	10.0006029985746	10.5012678893572	0.0	-10.5012678893572	10.0709613135118	0.0	10.5012678893572	0.0	4.114885533101299	7.586338102189325	7.795072976522151	-0.7552045199111639	7.1278017560433975	7.858882424718164	-0.7552045199111639	3.483920000542393	7.34500800349816	-0.2413300986911632	7.1767895628082865	-0.13692110619730063	3	correct	1.0
507.69608589995187	8.060255100019504	go_reward	0.3184656000230461	507.73350219998974	509.4551069000156	511.99576950003393	1.721604700025864	508.73233060003236	510.9721260000372	515.0262416999908	0.7227762999832521	1.0236434999967514	0.7675156000184415	514.0125944000315	0.4604368000291288	512.998178000038	2	1	59	4	go_reward	1	1	0	1	1	1	0	0.0	1.0	1	0.3184656000230461	0.4604368000291288	1354.6194886000012	1862.352990799991	1863.3518192000336	1864.0745955000168	1865.5916146000384	1866.6152581000351	1867.6176666000392	1868.6320830000327	1869.645730299992	1870.4132459000105	2020-02-21 17:47:35.744906	11.2072404820237	10.7767304678819	0.0	10.7203448637388	11.2072404820237	0.0	-11.2072404820237	10.7767304678819	0.0	11.2072404820237	0.0	3.4091163787312	8.292310694855825	8.50084213089225	-0.7552045199111639	7.847543621207598	8.564855017384664	-0.7552045199111639	2.778150846172294	8.05098059616466	-0.2413300986911632	7.8825587171783855	-0.13692110619730063	3	correct	1.0
515.7995871999885	9.156987999973126	go_punish	0.247479299956467	515.8370035000264	518.6530477000051	521.1986916000028	2.8160441999787054	516.8333581000331	520.1751013000028	524.2350661000237	1.81968959997198	1.0235903000000235	0.7589253999758512	523.2224492999958	0.4826315999962389	522.2032468999969	2	1	60	2	go_punish	0	-1	0	1	1	1	0	0.0	1.0	-1	0.247479299956467	0.4826315999962389	1354.6194886000012	1870.4564921000276	1871.4528467000343	1873.2725363000063	1874.794589900004	1875.818180200004	1876.822735499998	1877.841937899997	1878.854554700025	1879.6134801000007	2020-02-21 17:47:35.744906	1.48484223168807	0.0	-0.953846908167834	-0.202569634591325	0.530995323520232	-0.953846908167834	-1.48484223168807	0.0	-0.953846908167834	0.530995323520232	-0.953846908167834	-1.72834311470161	-1.4300875554798052	-2.2758883369896483	-1.709051428078998	-3.075370877122527	-2.111390141118804	-1.709051428078998	-2.3593086472605163	-2.625264562338807	-1.1951770068589973	-2.8941717507035136	-1.0907680143651346	3	correct	1.0
