onset	duration	trial_type	response_time	cueOnset	targetOnset	fbOnset	cueRT	firstfixOnset	secondfixOnset	waitOnset	firstfixdur	secondfixdur	waitdur	nback_fbOnset	nback_response_time	nback_targetOnset	block	wm	trial	cue	cond	is_common	outcome_go	outcome_nogo	key_correct	key_pressed	is_correct	key_correct_nback	key_pressed_nback	is_correct_nback	outcome	rt	rt_nback	time_scan	time_onset	time_isi1	time_circle	time_isi2	time_feedback	time_same	time_correct	time_iti	time_done	timestamp_scan	DV	Qgo	Qnogo	SV	Wgo	Wnogo	mDV	Qchosen	Qunchosen	Wchosen	Wunchosen	PE	DVC	QgoC	QnogoC	SVC	WgoC	WnogoC	PEC	WchosenC	WunchosenC	QchosenC	QunchosenC	run	outcome_nback	nback_targetResp
0.0	6.007052300032228	go_punish	0.330270400037989	0.009405500022694468	1.578094899887219	4.129495800007135	1.5686893998645246	1.0154758000280708	3.108650299953297	5.131670200033113	0.5626190998591483	1.020845500053838	0.8847876000218093	n/a	1.0	n/a	2	0	61	4	go_punish	1	0	-1	1	1	1	0	n/a	n/a	0	0.330270400037989	1.0	1742.1606559001375	1742.1700614001602	1743.1761317001656	1743.7387508000247	1745.2693062000908	1746.2901517001446	n/a	n/a	1747.2923261001706	1748.1771137001924	2019-11-22 19:23:16.908380	6.18177625296616	-0.4943173485205	-6.9226516978656	-0.617442718460853	-0.740875444899437	-6.9226516978656	-6.18177625296616	-0.4943173485205	-6.9226516978656	-0.740875444899437	-6.9226516978656	0.4943173485205	-1.9522708620280786	-5.067265893462778	-9.502854116147597	-8.136583080890752	-8.207256909483993	-9.502854116147597	-0.5194177265858054	-9.831190943829833	-7.878920081801761	-8.13090485636703	-6.43921515324335	4	missed	0.0
6.0366613999940455	7.376823399914656	nogo_reward	1.0	6.04606690001674	8.67985319998138	11.200950299855322	2.6337862999646404	7.066047299886122	10.177457599900663	12.210670300060883	1.613805900095258	1.0234926999546587	1.2122199998705128	n/a	1.0	n/a	2	0	62	1	nogo_reward	1	0	1	0	0	1	0	n/a	n/a	1	1.0	1.0	1742.1606559001375	1748.2067228001542	1749.2267032000236	1750.8405091001189	1752.3381135000382	1753.3616061999928	n/a	n/a	1754.3713262001984	1755.583546200069	2019-11-22 19:23:16.908380	11.3999594325516	0.0	23.5945059563023	23.5945059563023	12.1945465237507	23.5945059563023	-11.3999594325516	23.5945059563023	0.0	23.5945059563023	12.1945465237507	5.164587124665502	3.265912317557362	-4.572948544942278	21.014303538020304	16.075365593872398	4.728165059166144	21.014303538020304	4.150852049559196	14.504190457371903	11.23827813981454	15.957918448455768	0.48343654462224994	4	missed	0.0
13.439784999936819	7.046333299949765	nogo_reward	1.0	13.449190499959514	15.799349599983543	18.33835650002561	2.3501591000240296	14.465763599844422	17.31523020006739	19.33617220004089	1.333586000139121	1.0231262999582214	1.159351599868387	n/a	1.0	n/a	2	0	63	1	nogo_reward	1	0	1	0	0	1	0	n/a	n/a	1	1.0	1.0	1742.1606559001375	1755.609846400097	1756.626419499982	1757.960005500121	1759.475886100205	1760.499012400163	n/a	n/a	1761.4968281001784	1762.6561797000468	2019-11-22 19:23:16.908380	12.3914368837743	0.0	25.6360082580446	25.6360082580446	13.2445713742703	25.6360082580446	-12.3914368837743	25.6360082580446	0.0	25.6360082580446	13.2445713742703	3.1230848229232	4.257389768780062	-4.572948544942278	23.055805839762606	18.116867895614703	5.778189909685744	23.055805839762606	2.1093497478168945	16.545692759114203	12.28830299033414	17.99942075019807	0.48343654462224994	4	missed	0.0
20.530531900003325	5.972613299963996	nogo_punish	1.0	20.53993740002602	22.201504699885618	24.728658499894664	1.6615672998595983	21.54597539990209	23.717546900035813	25.73778899991885	0.6555292999835274	1.0111115998588502	0.7747617000711671	n/a	1.0	n/a	2	0	64	3	nogo_punish	1	-1	0	0	0	1	0	n/a	n/a	0	1.0	1.0	1742.1606559001375	1762.7005933001635	1763.7066313000396	1764.3621606000231	1765.8782028001733	1766.8893144000322	n/a	n/a	1767.8984449000563	1768.6732066001275	2019-11-22 19:23:16.908380	1.93443197296386	-4.43293204527514	-4.50352354157167	-4.50929031969089	-6.43795551453553	-4.50352354157167	-1.93443197296386	-4.50352354157167	-4.43293204527514	-4.50352354157167	-6.43795551453553	4.50352354157167	-6.199615142030379	-9.00588059021742	-7.083725959853666	-12.028430682120788	-13.904336979120087	-7.083725959853666	3.489788466465364	-13.593839040502065	-7.394223898471691	-12.1401110494182	-3.9494955006528905	4	missed	0.0
26.545430399942916	5.783265199978132	nogo_punish	1.0	26.55483589996561	27.843269299948588	30.360220599919558	1.2884333999829778	27.563183299964294	29.349967199843377	31.37404470006004	0.2800859999842942	1.0102534000761807	0.9640563998837024	n/a	1.0	n/a	2	0	65	3	nogo_punish	1	-1	0	0	0	1	0	n/a	n/a	0	1.0	1.0	1742.1606559001375	1768.715491800103	1769.7238392001018	1770.003925200086	1771.5106230999809	1772.520876500057	n/a	n/a	1773.5347006001975	1774.4987570000812	2019-11-22 19:23:16.908380	2.9437486023397	-4.43293204527514	-2.65435579847812	-2.65844475947294	-5.59810440081782	-2.65435579847812	-2.9437486023397	-2.65435579847812	-4.43293204527514	-2.65435579847812	-5.59810440081782	2.65435579847812	-5.190298512654539	-9.00588059021742	-5.234558216760117	-10.17758512190284	-13.064485865402377	-5.234558216760117	1.6406207233718144	-11.744671297408516	-6.554372784753981	-10.29094330632465	-3.9494955006528905	4	missed	0.0
32.36876939982176	7.2534188001882285	nogo_punish	1.0	32.37817489984445	35.096661099931225	37.61813379987143	2.7184862000867724	33.38920699991286	36.598406200064346	38.63155040005199	1.7074541000183672	1.0197275998070836	1.000043299980689	n/a	1.0	n/a	2	0	66	3	nogo_punish	1	-1	0	0	0	1	1	n/a	n/a	0	1.0	1.0	1742.1606559001375	1774.538830799982	1775.5498629000504	1777.2573170000687	1778.7590621002018	1779.778789700009	n/a	n/a	1780.7922063001895	1781.7922496001702	2019-11-22 19:23:16.908380	3.52993889288387	-4.43293204527514	-1.58458855323672	-1.58752282550494	-5.11452744612058	-1.58458855323672	-3.52993889288387	-1.58458855323672	-4.43293204527514	-1.58458855323672	-5.11452744612058	1.58458855323672	-4.604108222110369	-9.00588059021742	-4.164790971518717	-9.10666318793484	-12.580908910705137	-4.164790971518717	0.5708534781304146	-10.674904052167117	-6.070795830056741	-9.22117606108325	-3.9494955006528905	4	missed	0.0
39.66265519987792	6.724813099950779	go_reward	0.334189600078389	39.67206069990061	41.4570348998534	44.043255399912596	1.784974199952785	40.67627159995027	43.01970229996368	45.04255949985259	0.7807632999031284	1.0235530999489129	1.354314299998805	n/a	1.0	n/a	2	0	67	2	go_reward	1	1	0	1	1	1	0	n/a	n/a	1	0.334189600078389	1.0	1742.1606559001375	1781.832716600038	1782.8369275000878	1783.617690799991	1785.1803582001012	1786.20391130005	n/a	n/a	1787.20321539999	1788.557529699989	2019-11-22 19:23:16.908380	36.3848161732003	27.8865335588655	0.0	16.475043433102	36.3848161732003	0.0	-36.3848161732003	27.8865335588655	0.0	36.3848161732003	0.0	0.8725595221022999	28.25076905820606	23.313585013923223	-2.580202418281997	8.955903070672102	28.91843470861574	-2.580202418281997	-0.14117555300400553	27.294500674269905	-0.9562683839361605	20.24994605101897	0.48343654462224994	4	missed	0.0
46.41603339998983	6.513402099953964	nogo_reward	1.0	46.42543890001252	47.9316191000396	50.450866299914196	1.5061802000270745	47.43238039989956	49.43710620002821	51.46125629986659	0.49923870014004024	1.0137600998859853	1.4775847000998965	n/a	1.0	n/a	2	0	68	1	nogo_reward	1	0	1	0	0	1	0	n/a	n/a	1	1.0	1.0	1742.1606559001375	1788.58609480015	1789.593036300037	1790.092275000177	1791.5977621001657	1792.6115222000517	n/a	n/a	1793.621912200004	1795.099496900104	2019-11-22 19:23:16.908380	12.978333530864	0.0	26.8414721625695	26.8414721625695	13.8631386317056	26.8414721625695	-12.978333530864	26.8414721625695	0.0	26.8414721625695	13.8631386317056	1.9176209183983026	4.844286415869762	-4.572948544942278	24.261269744287503	19.3223318001396	6.396757167121042	24.261269744287503	0.9038858432919972	17.7511566636391	12.906870247769438	19.204884654722967	0.48343654462224994	4	missed	0.0
52.95474600000307	7.017293599899858	nogo_reward	1.0	52.964151500025764	55.397736500017345	57.922694799955934	2.433584999991581	53.968212299979996	56.90201839990914	58.934878800064325	1.4295242000373491	1.0206764000467956	1.046566299861297	n/a	1.0	n/a	2	0	69	1	nogo_reward	0	1	0	0	0	1	0	n/a	n/a	0	1.0	1.0	1742.1606559001375	1795.1248074001633	1796.1288682001175	1797.5583924001548	1799.0626743000466	1800.0833507000934	n/a	n/a	1801.0955347002018	1802.1421010000631	2019-11-22 19:23:16.908380	13.3301872160518	0.0	27.563199915908	27.563199915908	14.2330126998561	27.563199915908	-13.3301872160518	27.563199915908	0.0	27.563199915908	14.2330126998561	-27.563199915908	5.19614010105756	-4.572948544942278	24.982997497626005	20.0440595534781	6.766631235271544	24.982997497626005	-28.576934991014305	18.472884416977607	13.27674431591994	19.92661240806147	0.48343654462224994	4	missed	0.0
60.015088899992634	6.9446407000068575	go_reward	0.2934892000630498	60.02449440001533	61.93472009990319	64.52334039984248	1.9102256998878602	61.03799430001527	63.49868429987691	65.52236329996958	0.8967257998879177	1.0246560999655685	1.446771800052602	n/a	1.0	n/a	2	0	70	2	go_reward	1	1	0	1	1	1	0	n/a	n/a	1	0.2934892000630498	1.0	1742.1606559001375	1802.1851503001528	1803.1986502001528	1804.0953760000407	1805.6593402000144	1806.68399629998	n/a	n/a	1807.683019200107	1809.1297910001597	2019-11-22 19:23:16.908380	39.3527312505876	28.1952610869876	0.0	21.5951343821261	39.3527312505876	0.0	-39.3527312505876	28.1952610869876	0.0	39.3527312505876	0.0	0.5638319939802017	31.218684135593364	23.62231254204532	-2.580202418281997	14.075994019696202	31.886349786003045	-2.580202418281997	-0.4499030811261038	30.26241575165721	-0.9562683839361605	20.558673579141068	0.48343654462224994	4	missed	0.0
66.98883039993211	7.7249576000037905	nogo_reward	1.0	66.9982358999548	69.7774332999254	72.30722539988346	2.779197399970599	68.00406219996489	71.28370240004733	73.30818269983843	1.7733710999605137	1.023522999836132	1.4150108001201716	n/a	1.0	n/a	2	0	71	1	nogo_reward	1	0	1	0	0	1	1	n/a	n/a	1	1.0	1.0	1742.1606559001375	1809.1588918000923	1810.1647181001024	1811.938089200063	1813.4443583001848	1814.467881300021	n/a	n/a	1815.468838599976	1816.883849400096	2019-11-22 19:23:16.908380	7.88135778044272	0.0	16.2812026356456	16.2812026356456	8.3998448552029	16.2812026356456	-7.88135778044272	16.2812026356456	0.0	16.2812026356456	8.3998448552029	12.477890445322203	-0.2526893345515191	-4.572948544942278	13.701000217363601	8.7620622732157	0.9334633906183436	13.701000217363601	11.464155370215897	7.190887136715203	7.44357647126674	8.644615127799067	0.48343654462224994	4	missed	0.0
74.73687290004455	6.9176256998907775	go_punish	0.3905005000997334	74.74627840006724	76.9206403000278	79.46378899994329	2.1743618999605587	75.74940470000729	78.45187569991685	80.46763890003808	1.171235600020509	1.0119133000264355	1.1962651999199352	n/a	1.0	n/a	2	0	72	4	go_punish	1	0	-1	1	1	1	0	n/a	n/a	0	0.3905005000997334	1.0	1742.1606559001375	1816.9069343002047	1817.9100606001448	1819.0812962001653	1820.6125316000544	1821.6244449000808	n/a	n/a	1822.6282948001756	1823.8245600000955	2019-11-22 19:23:16.908380	6.46423855838142	-0.311825651469787	-6.9226516978656	-0.393658016865359	-0.458413139484179	-6.9226516978656	-6.46423855838142	-0.311825651469787	-6.9226516978656	-0.458413139484179	-6.9226516978656	0.311825651469787	-1.6698085566128187	-4.8847741964120655	-9.502854116147597	-7.912798379295259	-7.924794604068736	-9.502854116147597	-0.7019094236365184	-9.548728638414575	-7.878920081801761	-7.948413159316318	-6.43921515324335	4	missed	0.0
81.68168439995497	6.832064799964883	nogo_reward	1.0	81.69108989997767	83.69878809992247	86.22315469989553	2.007698199944798	82.69874899997421	85.19869940006174	87.23284709989093	1.0000390999482534	1.0244552998337895	1.2903076000516194	n/a	1.0	n/a	2	0	73	1	nogo_reward	1	0	1	0	0	1	1	n/a	n/a	1	1.0	1.0	1742.1606559001375	1823.8517458001152	1824.8594049001117	1825.85944400006	1827.3593553001992	1828.383810600033	n/a	n/a	1829.3935030000284	1830.68381060008	2019-11-22 19:23:16.908380	10.3797926221592	0.0	21.4777334232468	21.4777334232468	11.0979408010876	21.4777334232468	-10.3797926221592	21.4777334232468	0.0	21.4777334232468	11.0979408010876	7.281359657721001	2.245745507164962	-4.572948544942278	18.897531004964804	13.9585930608169	3.6315593365030425	18.897531004964804	6.267624582614696	12.387417924316404	10.141672417151439	13.841145915400269	0.48343654462224994	4	missed	0.0
88.55661750002787	6.492242899955954	go_reward	1.0	88.56602300005056	90.0392463998869	92.5674431999214	1.4732233998363427	89.57115769991651	91.54510609991848	93.58057220000728	0.4680886999703944	1.0223371000029147	1.4776936999992358	n/a	1.0	n/a	2	0	74	2	go_reward	1	1	0	1	0	0	0	n/a	n/a	0	1.0	1.0	1742.1606559001375	1830.726678900188	1831.731813600054	1832.1999023000244	1833.705762000056	1834.728099100059	n/a	n/a	1835.7412281001448	1837.218921800144	2019-11-22 19:23:16.908380	-41.0580231589153	28.3887145340183	0.0	24.520013743506	41.0580231589153	0.0	41.0580231589153	0.0	28.3887145340183	0.0	41.0580231589153	0.0	-49.192070273909536	23.81576598907602	-2.580202418281997	17.000873381076097	33.59164169433074	-2.580202418281997	-1.0137350751063054	-9.090315498930396	40.101754774979135	-7.636587507846531	28.87215107864055	4	missed	0.0
95.08945139986463	7.900847000069916	go_reward	0.4269985000137239	95.09885689988732	98.08309690002352	100.63697390002221	2.9842400001361966	96.11588239995763	99.62107519991696	101.64711719984211	1.967214500065893	1.0158987001052537	1.3525867001151255	n/a	1.0	n/a	2	0	75	2	go_reward	1	1	0	1	1	1	0	n/a	n/a	1	0.4269985000137239	1.0	1742.1606559001375	1837.2595128000248	1838.2765383000951	1840.243752800161	1841.7817311000545	1842.7976298001597	n/a	n/a	1843.8077730999796	1845.1603598000947	2019-11-22 19:23:16.908380	35.8722255879252	28.3887145340183	0.0	14.4930473180522	35.8722255879252	0.0	-35.8722255879252	28.3887145340183	0.0	35.8722255879252	0.0	0.3703785469495031	27.73817847293096	23.81576598907602	-2.580202418281997	6.973906955622301	28.405844123340643	-2.580202418281997	-0.6433565281568023	26.781910088994806	-0.9562683839361605	20.752127026171767	0.48343654462224994	4	missed	0.0
103.05616589984857	7.447568600066006	nogo_punish	1.0	103.06557139987126	105.51946519990452	108.0481165999081	2.4538938000332564	104.0692580000034	107.03391860006377	109.05968909990042	1.450207199901115	1.0141979998443276	1.4534509000368416	n/a	1.0	n/a	2	0	76	3	nogo_punish	1	-1	0	0	0	1	0	n/a	n/a	0	1.0	1.0	1742.1606559001375	1845.2262273000088	1846.229913900141	1847.680121100042	1849.1945745002013	1850.2087725000456	n/a	n/a	1851.220345000038	1852.6737959000748	2019-11-22 19:23:16.908380	3.87427627212356	-4.43293204527514	-0.95816501819256	-0.960295774488015	-4.83244129031612	-0.95816501819256	-3.87427627212356	-0.95816501819256	-4.43293204527514	-0.95816501819256	-4.83244129031612	0.95816501819256	-4.259770842870679	-9.00588059021742	-3.538367436474557	-8.479436136917915	-12.298822754900677	-3.538367436474557	-0.0555700569137455	-10.048480517122956	-5.788709674252281	-8.594752526039091	-3.9494955006528905	4	missed	0.0
110.54813659982779	7.304119100095704	nogo_punish	1.0	110.55754209985048	112.9219235999044	115.45249609998405	2.3643815000539234	111.56372560001932	114.4380518998953	116.46267879987136	1.3581979998850784	1.0144442000887466	1.3989824000748285	n/a	1.0	n/a	2	0	77	3	nogo_punish	0	0	-1	0	0	1	0	n/a	n/a	-1	1.0	1.0	1742.1606559001375	1852.718197999988	1853.7243815001568	1855.082579500042	1856.5987078000328	1857.6131520001215	n/a	n/a	1858.6233347000089	1860.0223171000837	2019-11-22 19:23:16.908380	4.07884786682246	-4.43293204527514	-0.586887245736902	-0.588452694640964	-4.66573511255936	-0.586887245736902	-4.07884786682246	-0.586887245736902	-4.43293204527514	-0.586887245736902	-4.66573511255936	-10.503912052226198	-4.055199248171779	-9.00588059021742	-3.167089664018899	-8.107593057070863	-12.132116577143917	-3.167089664018899	-11.517647127332504	-9.677202744667298	-5.622003496495521	-8.223474753583433	-3.9494955006528905	4	missed	0.0
117.87473649997264	5.766113899880793	go_punish	1.0	117.88414199999534	119.2032818999146	121.73409330006689	1.3191398999192643	118.88680780003801	120.71059699985176	122.73482239991449	0.3164740998765865	1.023496300215129	0.9154334999616367	n/a	1.0	n/a	2	0	78	4	go_punish	1	0	-1	1	0	0	0	n/a	n/a	-1	1.0	1.0	1742.1606559001375	1860.0447979001328	1861.0474637001755	1861.363937800052	1862.8712528999893	1863.8947492002044	n/a	n/a	1864.895478300052	1865.8109118000136	2019-11-22 19:23:16.908380	-6.63914093820346	-0.199221410676562	-6.9226516978656	-0.254295418170323	-0.283510759662141	-6.9226516978656	6.63914093820346	-6.9226516978656	-0.199221410676562	-6.9226516978656	-0.283510759662141	-4.1681476000975	-14.7731880531977	-4.77216995561884	-9.502854116147597	-7.773435780600223	-7.749892224246698	-9.502854116147597	-5.181882675203806	-16.012967196795998	-1.2397791435983017	-14.559239205712132	0.284215133945688	4	missed	0.0
123.6826690000014	6.3441156998744646	go_reward	0.4759139001835137	123.69207450002409	125.06208999990486	127.62559770001099	1.3700154998807648	124.700892199995	126.59668169985525	128.62903159996495	0.3611977999098599	1.028916000155732	1.4071585999336094	n/a	1.0	n/a	2	0	79	2	go_reward	0	0	1	1	1	1	0	n/a	n/a	0	0.4759139001835137	1.0	1742.1606559001375	1865.8527304001616	1866.8615481001325	1867.2227459000424	1868.7573375999928	1869.7862536001485	n/a	n/a	1870.7896875001024	1872.196846100036	2019-11-22 19:23:16.908380	39.0651311845423	28.5117371369938	0.0	20.4132436316422	39.0651311845423	0.0	-39.0651311845423	28.5117371369938	0.0	39.0651311845423	0.0	-28.5117371369938	30.931084069548064	23.938788592051523	-2.580202418281997	12.8941032692123	31.598749719957745	-2.580202418281997	-29.525472212100105	29.974815685611908	-0.9562683839361605	20.87514962914727	0.48343654462224994	4	missed	0.0
130.06016069999896	6.357808099826798	nogo_reward	1.0	130.06956620002165	131.74811939988285	134.2776017000433	1.6785531998611987	131.07747459993698	133.26371859991923	135.29189280001447	0.670644799945876	1.013883100124076	1.1354814998339862	n/a	1.0	n/a	2	0	80	1	nogo_reward	1	0	1	0	0	1	0	n/a	n/a	1	1.0	1.0	1742.1606559001375	1872.2302221001592	1873.2381305000745	1873.9087753000204	1875.4243745000567	1876.4382576001808	n/a	n/a	1877.452548700152	1878.588030199986	2019-11-22 19:23:16.908380	11.8152748894695	0.0	24.4482234809469	24.4482234809469	12.6329485914773	24.4482234809469	-11.8152748894695	24.4482234809469	0.0	24.4482234809469	12.6329485914773	4.310869600020901	3.6812277744752606	-4.572948544942278	21.868021062664905	16.929083118517	5.166567126892743	21.868021062664905	3.297134524914595	15.357907982016505	11.676680207541139	16.81163597310037	0.48343654462224994	4	missed	0.0
136.4591292999687	7.079152399907116	go_reward	1.0	136.4685347999914	138.9869271998757	141.4967751000072	2.5183923998843056	137.47500939993165	140.4905067998916	142.50717039988376	1.511917799944058	1.0062683001156074	1.0405168000147569	n/a	1.0	n/a	2	0	81	2	go_reward	0	0	1	1	0	0	1	n/a	n/a	1	1.0	1.0	1742.1606559001375	1878.629190700129	1879.6356653000691	1881.1475831000132	1882.651162700029	1883.6574310001447	n/a	n/a	1884.6678263000213	1885.708343100036	2019-11-22 19:23:16.908380	-23.1179527949956	16.8709240245884	0.0	12.085920710469	23.1179527949956	0.0	23.1179527949956	0.0	16.8709240245884	0.0	23.1179527949956	28.7590930809678	-31.251999909989838	12.297975479646123	-2.580202418281997	4.566780348039101	15.651571330411041	-2.580202418281997	27.745358005861497	-9.090315498930396	22.16168441105944	-7.636587507846531	17.35436056921065	4	missed	0.0
143.5618186998181	7.223551200004067	go_punish	1.0	143.5712241998408	145.86318199988455	148.4011641999241	2.291957800043747	144.57341079995922	147.37780370004498	149.40286449994892	1.289771199925326	1.023360499879118	1.3919108998959473	n/a	1.0	n/a	2	0	82	4	go_punish	1	0	-1	1	0	0	0	n/a	n/a	-1	1.0	1.0	1742.1606559001375	1885.7318800999783	1886.7340667000967	1888.023837900022	1889.5384596001825	1890.5618201000616	n/a	n/a	1891.5635204000864	1892.9554312999824	2019-11-22 19:23:16.908380	-6.30401490243045	-0.199221410676562	-8.54913205729964	-4.59936838095185	-2.24511715486919	-8.54913205729964	6.30401490243045	-8.54913205729964	-0.199221410676562	-8.54913205729964	-2.24511715486919	-2.5416672406634593	-14.438062017424688	-4.77216995561884	-11.129334475581638	-12.11850874338175	-9.711498619453746	-11.129334475581638	-3.555402315769765	-17.63944755623004	-3.2013855388053507	-16.185719565146172	0.284215133945688	4	missed	0.0
150.81183000002056	7.68730029999233	go_punish	0.270502399886027	150.82123550004326	153.5954148999881	156.1565308999268	2.774179399944842	151.82986159995176	155.14341649995163	157.16347240004689	1.7655533000363448	1.0131143999751657	1.3450633999887032	n/a	1.0	n/a	2	0	83	4	go_punish	0	-1	0	1	1	1	0	n/a	n/a	-1	0.270502399886027	1.0	1742.1606559001375	1892.9818914001808	1893.9905175000893	1895.7560708001256	1897.3040724000891	1898.3171868000643	n/a	n/a	1899.3241283001844	1900.669191700173	2019-11-22 19:23:16.908380	6.12684059499647	-0.199221410676562	-9.51929652983162	-7.15076744824024	-3.39245593483516	-9.51929652983162	-6.12684059499647	-0.199221410676562	-9.51929652983162	-3.39245593483516	-9.51929652983162	-10.891577887286537	-2.0072065199977684	-4.77216995561884	-12.099498948113617	-14.66990781067014	-10.858837399419716	-12.099498948113617	-11.905312962392843	-12.482771433765556	-10.47556491376778	-7.835808918523092	-9.035859985209369	4	missed	0.0
158.62144429981709	7.212696600006666	nogo_punish	1.0	158.63084979983978	161.40240420005284	163.92420809995406	2.7715544002130628	159.6349655999802	162.9041681999804	164.9373115999624	1.7674386000726372	1.0200398999736535	0.9062347998840323	n/a	1.0	n/a	2	0	84	3	nogo_punish	1	-1	0	0	0	1	0	n/a	n/a	0	1.0	1.0	1742.1606559001375	1900.7915056999773	1901.7956215001177	1903.5630601001903	1905.064824100118	1906.0848640000916	n/a	n/a	1907.0979675001	1908.004202299984	2019-11-22 19:23:16.908380	1.7697813949567	-4.43293204527514	-4.79708654763959	-4.79824994265799	-6.56686794259629	-4.79708654763959	-1.7697813949567	-4.79708654763959	-4.43293204527514	-4.79708654763959	-6.56686794259629	4.79708654763959	-6.3642657200375385	-9.00588059021742	-7.377288965921586	-12.31739030508789	-14.033249407180847	-7.377288965921586	3.783351472533284	-13.887402046569985	-7.523136326532451	-12.43367405548612	-3.9494955006528905	4	missed	0.0
165.90238710003905	7.529018999775872	go_reward	0.2510674998629838	165.91179260006174	168.5027910999488	171.03919270006008	2.590998499887064	166.92599139991216	170.0257234000601	172.0550156000536	1.576799700036645	1.013469299999997	1.3857959997840226	n/a	1.0	n/a	2	0	85	2	go_reward	1	1	0	1	1	1	0	n/a	n/a	1	0.2510674998629838	1.0	1742.1606559001375	1908.0724485001992	1909.0866473000497	1910.6634470000863	1912.1863793001976	1913.1998486001976	n/a	n/a	1914.215671500191	1915.6014674999751	2019-11-22 19:23:16.908380	14.9708294505873	16.8709240245884	11.7202176538856	18.9829242498589	26.6910471044729	11.7202176538856	-14.9708294505873	16.8709240245884	11.7202176538856	26.6910471044729	11.7202176538856	11.8881690563794	6.83678233559306	12.297975479646123	9.140015235603602	11.463783887429	19.224665639888343	9.140015235603602	10.874433981273095	17.600731605542506	10.763949269949439	9.23433651674187	12.20365419850785	4	missed	0.0
173.4764280999077	6.303454099921737	nogo_punish	1.0	173.4858335999304	175.04378329985775	177.57411429984495	1.5579496999273488	174.48218209994957	176.55093789985403	178.58371170004807	0.561601199908182	1.0231763999909163	1.2055759998040685	n/a	1.0	n/a	2	0	86	3	nogo_punish	0	0	-1	0	0	1	1	n/a	n/a	-1	1.0	1.0	1742.1606559001375	1915.646489500068	1916.642838000087	1917.2044391999952	1918.7115937999915	1919.7347701999824	n/a	n/a	1920.7443676001856	1921.9499435999896	2019-11-22 19:23:16.908380	2.84150546154004	-4.43293204527514	-2.83637583304623	-2.83725020084351	-5.67788129458627	-2.83637583304623	-2.84150546154004	-2.83637583304623	-4.43293204527514	-2.83637583304623	-5.67788129458627	-8.25442346491687	-5.292541653454199	-9.00588059021742	-5.416578251328227	-10.35639056327341	-13.144262759170827	-5.416578251328227	-9.268158540023176	-11.926691331976626	-6.634149678522431	-10.472963340892761	-3.9494955006528905	4	missed	0.0
179.81997679988854	6.861865899991244	go_reward	0.3318853999953717	179.82938229991123	182.29801000002726	184.8530055999288	2.4686277001160306	180.83072640001774	183.82978649996244	185.85409709997498	1.467283600009523	1.0232190999663544	0.837151099927496	n/a	1.0	n/a	2	0	87	2	go_reward	1	1	0	1	1	1	1	n/a	n/a	1	0.3318853999953717	1.0	1742.1606559001375	1921.9900382000487	1922.9913823001552	1924.4586659001648	1925.9904424001	1927.0136615000663	n/a	n/a	1928.0147530001125	1928.85190410004	2019-11-22 19:23:16.908380	21.992747297991	21.8495829666143	11.7202176538856	22.9444366852462	33.7129649518765	11.7202176538856	-21.992747297991	21.8495829666143	11.7202176538856	33.7129649518765	11.7202176538856	6.909510114353502	13.85870018299676	17.27663442167202	9.140015235603602	15.4252963228163	26.246583487291943	9.140015235603602	5.895775039247196	24.622649452946106	10.763949269949439	14.212995458767768	12.20365419850785	4	missed	0.0
186.70460579986684	6.1363367000594735	go_punish	0.5274010000284761	186.71401129988953	188.0464095000641	190.60171970003285	1.3323982001745662	187.71917309984565	189.59043999994174	191.60694379988126	0.3272364002184531	1.0112797000911087	1.2434042000677437	n/a	1.0	n/a	2	0	88	4	go_punish	1	0	-1	1	1	1	0	n/a	n/a	0	0.5274010000284761	1.0	1742.1606559001375	1928.874667200027	1929.8798289999831	1930.2070654002016	1931.7510959000792	1932.7623756001703	n/a	n/a	1933.7675997000188	1935.0110039000865	2019-11-22 19:23:16.908380	1.08415795526435	-4.56183774950259	-9.51929652983162	-8.66759250622555	-8.43513857456727	-9.51929652983162	-1.08415795526435	-4.56183774950259	-9.51929652983162	-8.43513857456727	-9.51929652983162	4.56183774950259	-7.049889159729888	-9.134786294444869	-12.099498948113617	-16.186732868655447	-15.901520039151826	-12.099498948113617	3.5481026743962847	-17.525454073497666	-10.47556491376778	-12.198425257349122	-9.035859985209369	4	missed	0.0
192.86988439993024	6.429277099901583	go_punish	1.0	192.87928989995294	194.5640821000561	197.09659880003892	1.6847922001031748	193.8861745998729	196.072921999963	198.10613039997452	0.6779075001832098	1.0236768000759184	1.2024365998800022	n/a	1.0	n/a	2	0	89	4	go_punish	1	0	-1	1	0	0	0	n/a	n/a	-1	1.0	1.0	1742.1606559001375	1935.0399458000904	1936.0468305000104	1936.7247380001936	1938.2335779001005	1939.2572547001764	n/a	n/a	1940.266786300112	1941.469222899992	2019-11-22 19:23:16.908380	-4.54649337142023	-2.69194065737938	-9.51929652983162	-5.14765048059355	-4.97280315841139	-9.51929652983162	4.54649337142023	-9.51929652983162	-2.69194065737938	-9.51929652983162	-4.97280315841139	-1.5715027681314808	-12.680540486414468	-7.264889202321658	-12.099498948113617	-12.666790843023449	-12.439184622995946	-12.099498948113617	-2.5852378432377865	-18.609612028762015	-5.92907154234755	-17.15588403767815	-2.2085041127571303	4	missed	0.0
199.34193450002908	6.767070099944249	nogo_punish	1.0	199.35134000005178	201.31825320003554	203.86029420001455	1.9669131999837646	200.36054739984684	202.8343845999334	204.87540739984252	0.9577058001887053	1.0259096000811496	1.2430027001535109	n/a	1.0	n/a	2	0	90	3	nogo_punish	1	-1	0	0	0	1	0	n/a	n/a	0	1.0	1.0	1742.1606559001375	1941.5119959001893	1942.5212032999843	1943.478909100173	1944.995040500071	1946.020950100152	n/a	n/a	1947.03606329998	1948.2790660001335	2019-11-22 19:23:16.908380	1.03372671279588	-4.43293204527514	-6.13175640281286	-6.13242078539486	-7.16548311560874	-6.13175640281286	-1.03372671279588	-6.13175640281286	-4.43293204527514	-6.13175640281286	-7.16548311560874	6.13175640281286	-7.100320402198359	-9.00588059021742	-8.711958821094857	-13.65156114782476	-14.631864580193298	-8.711958821094857	5.118021327706554	-15.222071901743256	-8.121751499544901	-13.76834391065939	-3.9494955006528905	4	missed	0.0
206.13219160004496	7.391836699797295	go_punish	1.0	206.14159710006766	208.97059749998152	211.4986049998554	2.829000399913866	207.1441585000141	210.48419220000483	212.50806659995578	1.8264389999674222	1.014412799850561	1.0253671999091694	n/a	1.0	n/a	2	0	91	4	go_punish	1	0	-1	1	0	0	1	n/a	n/a	-1	1.0	1.0	1742.1606559001375	1948.3022530002052	1949.3048144001516	1951.131253400119	1952.6448481001423	1953.659260899993	n/a	n/a	1954.6687225000933	1955.6940897000025	2019-11-22 19:23:16.908380	-4.05555759833349	-2.69194065737938	-10.10548691026	-7.52949763680407	-6.04992931192654	-10.10548691026	4.05555759833349	-10.10548691026	-2.69194065737938	-10.10548691026	-6.04992931192654	-0.9853123877031003	-12.189604713327729	-7.264889202321658	-12.685689328541997	-15.04863799923397	-13.516310776511098	-12.685689328541997	-1.9990474628094057	-19.195802409190396	-7.006197695862701	-17.74207441810653	-2.2085041127571303	4	missed	0.0
213.55369769991376	5.925281600095332	go_punish	1.0	213.56310319993645	214.9897719998844	217.5183296999894	1.4266687999479473	214.56858329987153	216.49511509994045	218.5285638999194	0.4211887000128627	1.0232146000489593	0.9598209001123905	n/a	1.0	n/a	2	0	92	4	go_punish	1	0	-1	1	0	0	0	n/a	n/a	-1	1.0	1.0	1742.1606559001375	1955.723759100074	1956.729239200009	1957.150427900022	1958.655771000078	1959.678985600127	n/a	n/a	1960.689219800057	1961.6490407001693	2019-11-22 19:23:16.908380	-3.78478006161198	-2.69194065737938	-10.4642781917373	-8.92721674702706	-6.67949813012528	-10.4642781917373	3.78478006161198	-10.4642781917373	-2.69194065737938	-10.4642781917373	-6.67949813012528	-0.6265211062258	-11.918827176606218	-7.264889202321658	-13.044480610019297	-16.44635710945696	-14.145879594709836	-13.044480610019297	-1.6402561813321055	-19.554593690667694	-7.635766514061441	-18.10086569958383	-2.2085041127571303	4	missed	0.0
219.5022350999061	6.395754999946803	go_punish	0.6539399998728186	219.5116405999288	220.86792009999044	223.50218069995753	1.356279500061646	220.51897109998367	222.4656183999034	224.5105107999409	0.348949000006769	1.036562300054129	1.3968847999346963	n/a	1.0	n/a	2	0	93	4	go_punish	1	0	-1	1	1	1	1	n/a	n/a	0	0.6539399998728186	1.0	1742.1606559001375	1961.6722965000663	1962.6796270001212	1963.028576000128	1964.626274300041	1965.662836600095	n/a	n/a	1966.6711667000784	1968.068051500013	2019-11-22 19:23:16.908380	3.63413311302392	-2.69194065737938	-10.6867471837523	-9.75805136365499	-7.05261407072836	-10.6867471837523	-3.63413311302392	-2.69194065737938	-10.6867471837523	-7.05261407072836	-10.6867471837523	2.69194065737938	-4.499914001970319	-7.264889202321658	-13.266949602034297	-17.27719172608489	-14.518995535312918	-13.266949602034297	1.6782055822730746	-16.142929569658754	-11.64301556768846	-10.328528165225912	-10.203310639130049	4	missed	0.0
225.92459920002148	6.151837199926376	nogo_reward	1.0	225.93400470004417	227.79057769989572	230.31156629999123	1.8565729998515508	226.94240429997444	229.296539800009	231.3266875999982	0.8481733999212793	1.0150264999822411	0.7591542999723515	n/a	1.0	n/a	2	0	94	1	nogo_reward	1	0	1	0	0	1	0	n/a	n/a	1	1.0	1.0	1742.1606559001375	1968.0946606001817	1969.103060200112	1969.9512336000332	1971.4571957001465	1972.4722222001287	n/a	n/a	1973.4873435001357	1974.246497800108	2019-11-22 19:23:16.908380	12.6501694034817	0.0	26.1689769703168	26.1689769703168	13.5188075668351	26.1689769703168	-12.6501694034817	26.1689769703168	0.0	26.1689769703168	13.5188075668351	2.590116110651003	4.516122288487461	-4.572948544942278	23.588774552034803	18.649836607886897	6.052426102250544	23.588774552034803	1.5763810355446977	17.078661471386404	12.56253918289894	18.532389462470267	0.48343654462224994	4	missed	0.0
232.10348629998066	6.755763399880152	go_punish	1.0	232.11289180000335	233.87724389997288	236.40661689988337	1.7643520999695284	233.1215764998924	235.39144270005613	237.40552799985744	0.7556674000804833	1.0151741998272428	1.4631272000260651	n/a	1.0	n/a	2	0	95	4	go_punish	1	0	-1	1	0	0	1	n/a	n/a	-1	1.0	1.0	1742.1606559001375	1974.2735477001409	1975.28223240003	1976.0378998001104	1977.5520986001936	1978.5672728000209	n/a	n/a	1979.566183899995	1981.029311100021	2019-11-22 19:23:16.908380	-6.49369144954125	-1.60910310902903	-10.6867471837523	-5.82538486924109	-4.19305573421103	-10.6867471837523	6.49369144954125	-10.6867471837523	-1.60910310902903	-10.6867471837523	-4.19305573421103	-0.4040521142108009	-14.627738564535488	-6.182051653971309	-13.266949602034297	-13.344525231670989	-11.659437198795587	-13.266949602034297	-1.4177871893171063	-19.777062682682697	-5.149324118147191	-18.32333469159883	-1.12566656440678	4	missed	0.0
238.88590819993988	6.020558699965022	nogo_reward	1.0	238.89531369996257	240.45648309984244	242.97521479986654	1.5611693998798728	239.89460340002552	241.961943499977	243.9852503000293	0.5618796998169273	1.0132712998895386	0.9306220998983008	n/a	1.0	n/a	2	0	96	1	nogo_reward	1	0	1	0	0	1	1	n/a	n/a	1	1.0	1.0	1742.1606559001375	1981.0559696001	1982.055259300163	1982.61713899998	1984.1225994001145	1985.135870700004	n/a	n/a	1986.1459062001668	1987.076528300065	2019-11-22 19:23:16.908380	13.141791823795	0.0	27.1792879627155	27.1792879627155	14.0374961389205	27.1792879627155	-13.141791823795	27.1792879627155	0.0	27.1792879627155	14.0374961389205	1.5798051182523025	5.007744708800761	-4.572948544942278	24.599085544433503	19.660147600285597	6.571114674335944	24.599085544433503	0.5660700431459971	18.088972463785105	13.08122775498434	19.542700454868967	0.48343654462224994	4	missed	0.0
244.93167570000492	6.237603199901287	nogo_reward	1.0	244.9410812000276	246.85802399995737	249.39778460003458	1.9169427999297568	245.94176049996167	248.37415049993456	250.41367499995977	0.9162634999956936	1.0236341001000255	0.7650093999691308	n/a	1.0	n/a	2	0	97	1	nogo_reward	1	0	1	0	0	1	0	n/a	n/a	1	1.0	1.0	1742.1606559001375	1987.101737100165	1988.1024164000992	1989.0186799000949	1990.534806400072	1991.558440500172	n/a	n/a	1992.5743309000973	1993.3393403000664	2019-11-22 19:23:16.908380	13.4349322947978	0.0	27.7806293346479	27.7806293346479	14.3456970398501	27.7806293346479	-13.4349322947978	27.7806293346479	0.0	27.7806293346479	14.3456970398501	0.9784637463198997	5.300885179803561	-4.572948544942278	25.200426916365906	20.261488972218004	6.879315575265543	25.200426916365906	-0.03527132878640571	18.690313835717504	13.389428655913939	20.14404182680137	0.48343654462224994	4	missed	0.0
251.2130115998441	6.762400000123762	go_reward	0.5299042998813093	251.2224170998668	253.07159539987333	255.6186184999533	1.8491783000065425	252.22918320004806	254.60031639994122	256.6323053999804	0.8424121998252758	1.0183021000120789	1.3525117000101545	n/a	1.0	n/a	2	0	98	2	go_reward	0	0	1	1	1	1	0	n/a	n/a	0	0.5299042998813093	1.0	1742.1606559001375	1993.3830730000043	1994.3898391001856	1995.2322513000108	1996.7609723000787	1997.7792744000908	n/a	n/a	1998.792961300118	2000.145473000128	2019-11-22 19:23:16.908380	26.0143130058718	24.6860335152414	11.7202176538856	25.2501006555648	37.7345306597573	11.7202176538856	-26.0143130058718	24.6860335152414	11.7202176538856	37.7345306597573	11.7202176538856	-24.6860335152414	17.88026589087756	20.113084970299123	9.140015235603602	17.7309602931349	30.26814919517274	9.140015235603602	-25.699768590347706	28.644215160826903	10.763949269949439	17.04944600739487	12.20365419850785	4	missed	0.0
258.0199505998753	6.309148699976504	nogo_punish	1.0	258.029356099898	259.57094240002334	262.0975709999914	1.5415863001253456	259.0352663998492	261.0780463998674	263.1107487999834	0.535676000174135	1.0195246001239866	1.2277559998910874	n/a	1.0	n/a	2	0	99	3	nogo_punish	1	-1	0	0	0	1	0	n/a	n/a	0	1.0	1.0	1742.1606559001375	2000.1900120000355	2001.1959222999867	2001.7315983001608	2003.238702300005	2004.2582269001289	n/a	n/a	2005.271404700121	2006.499160700012	2019-11-22 19:23:16.908380	2.39850489470442	-4.43293204527514	-3.63820302494696	-3.63871324870397	-6.03670791965138	-3.63820302494696	-2.39850489470442	-3.63820302494696	-4.43293204527514	-3.63820302494696	-6.03670791965138	3.63820302494696	-5.735542220289819	-9.00588059021742	-6.218405443228956	-11.15785361113387	-13.503089384235937	-6.218405443228956	2.6244679498406542	-12.728518523877355	-6.9929763035875405	-11.27479053279349	-3.9494955006528905	4	missed	0.0
264.37014029989973	7.298055300023179	go_reward	0.3156095000449568	264.3795457999224	266.864173299866	269.40741560002766	2.484627499943599	265.3898982999385	268.38797949999525	270.4235332000535	1.474274999927502	1.019436100032408	1.2540678998921067	n/a	1.0	n/a	2	0	100	2	go_reward	1	1	0	1	1	1	1	n/a	n/a	1	0.3156095000449568	1.0	1742.1606559001375	2006.54020170006	2007.550554200076	2009.0248292000035	2010.5486354001328	2011.5680715001652	n/a	n/a	2012.584189100191	2013.838257000083	2019-11-22 19:23:16.908380	10.5708997528008	14.603011664649	11.7202176538856	14.8898387335728	22.2911174066863	11.7202176538856	-10.5708997528008	14.603011664649	11.7202176538856	22.2911174066863	11.7202176538856	14.156081416318802	2.4368526378065614	10.030063119706721	9.140015235603602	7.3706983711429	14.824735942101743	9.140015235603602	13.142346341212496	13.200801907755904	10.763949269949439	6.966424156802469	12.20365419850785	4	missed	0.0
271.69453480001584	6.681221799924742	go_punish	0.2250669000204652	271.70394030003854	273.91451929998607	276.45993270003214	2.210578999947529	272.7124629998582	275.4330017999746	277.46996510005556	1.2020563001278788	1.0269309000575504	0.915196999907721	n/a	1.0	n/a	2	0	101	4	go_punish	0	-1	0	1	1	1	0	n/a	n/a	-1	0.2250669000204652	1.0	1742.1606559001375	2013.864596200176	2014.8731188999957	2016.0751752001236	2017.593657700112	2018.6205886001696	n/a	n/a	2019.630621000193	2020.5458180001008	2019-11-22 19:23:16.908380	5.66835317953736	-1.60910310902903	-10.8264912430439	-7.95598209987205	-5.15813806350657	-10.8264912430439	-5.66835317953736	-1.60910310902903	-10.8264912430439	-5.15813806350657	-10.8264912430439	-9.48169618893407	-2.465693935456879	-6.182051653971309	-13.406693661325898	-15.47512246230195	-12.624519528091128	-13.406693661325898	-10.495431264040375	-14.248453562436966	-11.782759626980061	-9.24569061687556	-10.34305469842165	4	missed	0.0
278.3994586998599	6.151260700076591	go_punish	1.0	278.4088641998826	279.8008929998614	282.3296105000188	1.3920287999787888	279.42056509992085	281.3065442999357	283.33991490001813	0.3803278999405393	1.0230662000831217	1.220209999941062	n/a	1.0	n/a	2	0	102	4	go_punish	1	0	-1	1	0	0	0	n/a	n/a	-1	1.0	1.0	1742.1606559001375	2020.56952010002	2021.5812210000583	2021.961548899999	2023.4672002000732	2024.4902664001563	n/a	n/a	2025.5005708001556	2026.7207808000967	2019-11-22 19:23:16.908380	-1.30959966562976	-5.40727678200112	-10.8264912430439	-9.19894528821291	-9.51689157741417	-10.8264912430439	1.30959966562976	-10.8264912430439	-5.40727678200112	-10.8264912430439	-9.51689157741417	-0.2643080549191996	-9.443646780623999	-9.980225326943398	-13.406693661325898	-16.71808565064281	-16.983273041998725	-13.406693661325898	-1.278043130025505	-19.9168067419743	-10.47315996135033	-18.463078750890432	-4.9238402373788706	4	missed	0.0
284.62951470003463	7.224324499955628	go_reward	0.3448622999712825	284.6389202000573	287.36579329986125	289.913750400068	2.7268730998039246	285.64158879988804	288.901595500065	290.9163605000358	1.7242044999732116	1.0121549000029972	0.9468841999771485	n/a	1.0	n/a	2	0	103	2	go_reward	0	0	1	1	1	1	0	n/a	n/a	0	0.3448622999712825	1.0	1742.1606559001375	2026.7995761001948	2027.8022447000255	2029.5264491999988	2031.0622514002025	2032.0744063002055	n/a	n/a	2033.0770164001733	2034.0239006001505	2019-11-22 19:23:16.908380	19.4310509195373	20.4871803246489	11.7202176538856	20.6295225857837	31.1512685734229	11.7202176538856	-19.4310509195373	20.4871803246489	11.7202176538856	31.1512685734229	11.7202176538856	-20.4871803246489	11.29700380454306	15.914231779706622	9.140015235603602	13.1103822233538	23.684887108838343	9.140015235603602	-21.500915399755204	22.060953074492502	10.763949269949439	12.850592816802369	12.20365419850785	4	missed	0.0
291.90480639995076	6.421996999997873	nogo_punish	1.0	291.91421189997345	293.8969465000555	296.4230477998501	1.9827346000820398	292.92934329994	295.4129160000009	297.4368520998396	0.9676032001154908	1.010131799849205	0.8993568001317271	n/a	1.0	n/a	2	0	104	3	nogo_punish	1	-1	0	0	0	1	0	n/a	n/a	0	1.0	1.0	1742.1606559001375	2034.074867800111	2035.0899992000775	2036.057602400193	2037.5735719001384	2038.5837036999876	n/a	n/a	2039.597507999977	2040.4968648001088	2019-11-22 19:23:16.908380	3.19595258108873	-4.43293204527514	-2.18659421248017	-2.18699009470474	-5.38254679356891	-2.18659421248017	-3.19595258108873	-2.18659421248017	-4.43293204527514	-2.18659421248017	-5.38254679356891	2.18659421248017	-4.938094533905509	-9.00588059021742	-4.766796630762167	-9.70613045713464	-12.848928258153467	-4.766796630762167	1.1728591373738644	-11.276909711410566	-6.3388151775050705	-9.823181720326701	-3.9494955006528905	4	missed	0.0
298.3669485000428	6.288084799889475	go_reward	0.4070574000943452	298.3763540000655	299.86840949999123	302.42727499990724	1.4920554999257547	299.3781860000454	301.39092569984496	303.4305769999046	0.49022349994584147	1.0363493000622839	1.233861800050363	n/a	1.0	n/a	2	0	105	2	go_reward	1	1	0	1	1	1	1	n/a	n/a	1	0.4070574000943452	1.0	1742.1606559001375	2040.537009900203	2041.538841900183	2042.0290654001287	2043.5515815999825	2044.5879309000447	n/a	n/a	2045.591232900042	2046.8250947000924	2019-11-22 19:23:16.908380	6.72311173149622	12.1363800651215	11.7202176538856	12.2039220683293	18.4433293853818	11.7202176538856	-6.72311173149622	12.1363800651215	11.7202176538856	18.4433293853818	11.7202176538856	16.6227130158463	-1.4109353834980185	7.563431520179222	9.140015235603602	4.6847817058994	10.976947920797244	9.140015235603602	15.608977940739996	9.353013886451405	10.763949269949439	4.4997925572749695	12.20365419850785	4	missed	0.0
304.7686880999247	7.085024100029614	nogo_punish	1.0	304.7780935999474	306.8350289999503	309.361937899841	2.056935400002885	305.7844146999994	308.34751709993	310.3790804999876	1.0506142999508938	1.0144207999110222	1.484037199989416	n/a	1.0	n/a	2	0	106	3	nogo_punish	1	-1	0	0	0	1	1	n/a	n/a	0	1.0	1.0	1742.1606559001375	2046.938749500085	2047.945070600137	2048.995684900088	2050.5081730000675	2051.5225937999785	n/a	n/a	2052.539736400125	2054.0237736001145	2019-11-22 19:23:16.908380	3.66726185519137	-4.43293204527514	-1.33119485791832	-1.33150507337713	-4.99845671310969	-1.33119485791832	-3.66726185519137	-1.33119485791832	-4.43293204527514	-1.33119485791832	-4.99845671310969	1.33119485791832	-4.466785259802869	-9.00588059021742	-3.911397276200317	-8.85064543580703	-12.464838177694247	-3.911397276200317	0.3174597828120145	-10.421510356848716	-5.954725097045851	-8.967782365764851	-3.9494955006528905	4	missed	0.0
311.9128103000112	6.320459499955177	go_reward	0.273752799956128	311.9222158000339	313.5928263000678	316.1271677999757	1.6706105000339448	312.93687919992954	315.1154557999689	317.13964139996096	0.6559471001382917	1.0117120000068098	1.1030339000280946	n/a	1.0	n/a	2	0	107	2	go_reward	0	0	1	1	1	1	1	n/a	n/a	0	0.273752799956128	1.0	1742.1606559001375	2054.0828717001714	2055.097535100067	2055.7534822002053	2057.2761117001064	2058.287823700113	n/a	n/a	2059.3002973000985	2060.4033312001266	2019-11-22 19:23:16.908380	17.1501321698269	19.0178726477373	11.7202176538856	19.047201591252	28.8703498237124	11.7202176538856	-17.1501321698269	19.0178726477373	11.7202176538856	28.8703498237124	11.7202176538856	-19.0178726477373	9.016085054832661	14.44492410279502	9.140015235603602	11.528061228822102	21.40396835912784	9.140015235603602	-20.031607722843603	19.780034324782	10.763949269949439	11.381285139890768	12.20365419850785	4	missed	0.0
318.259271199815	6.283896800130606	nogo_reward	1.0	318.26867669983767	319.6227516999934	322.1434446999342	1.3540750001557171	319.2746598999943	321.12970259995154	323.15344109991565	0.34809179999911066	1.0137420999826645	1.399132400052622	n/a	1.0	n/a	2	0	108	1	nogo_reward	1	0	1	0	0	1	0	n/a	n/a	1	1.0	1.0	1742.1606559001375	2060.429332599975	2061.435315800132	2061.783407600131	2063.290358500089	2064.3041006000717	n/a	n/a	2065.314097000053	2066.713229400106	2019-11-22 19:23:16.908380	13.6119630410263	0.0	28.143543850421	28.143543850421	14.5315808093947	28.143543850421	-13.6119630410263	28.143543850421	0.0	28.143543850421	14.5315808093947	0.6155492305468009	5.477915926032061	-4.572948544942278	25.563341432139005	20.624403487991103	7.065199344810144	25.563341432139005	-0.39818584455950456	19.053228351490603	13.57531242545854	20.50695634257447	0.48343654462224994	4	missed	0.0
324.5677816998209	6.803312400123559	go_punish	0.3539114999584853	324.5771871998436	327.00048940000124	329.5565344998613	2.42330220015765	325.5798641999718	328.5313190999441	330.57192469993606	1.4206252000294626	1.025215399917215	0.8085749000310898	n/a	1.0	n/a	2	0	109	4	go_punish	1	0	-1	1	1	1	0	n/a	n/a	0	0.3539114999584853	1.0	1742.1606559001375	2066.737843099981	2067.7405201001093	2069.1611453001387	2070.6919750000816	2071.717190399999	n/a	n/a	2072.7325806000736	2073.5411555001047	2019-11-22 19:23:16.908380	1.06843040015165	-5.40727678200112	-10.9154196523071	-9.93333667537717	-9.84698925215543	-10.9154196523071	-1.06843040015165	-5.40727678200112	-10.9154196523071	-9.84698925215543	-10.9154196523071	5.40727678200112	-7.065616714842589	-9.980225326943398	-13.495622070589098	-17.45247703780707	-17.313370716739986	-13.495622070589098	4.393541706894815	-18.937304751085826	-11.871688036243262	-13.043864289847651	-10.43198310768485	4	missed	0.0
331.40070279990323	5.893504699924961	nogo_reward	1.0	331.4101082999259	332.7737238998525	335.3092534998432	1.3636155999265611	332.41529339994304	334.2899807998915	336.3193605998531	0.35843049990944564	1.0192726999516708	0.9842523999977857	n/a	1.0	n/a	2	0	110	1	nogo_reward	0	1	0	0	0	1	1	n/a	n/a	0	1.0	1.0	1742.1606559001375	2073.5707642000634	2074.5759493000805	2074.93437979999	2076.450636700029	2077.4699093999807	n/a	n/a	2078.4800164999906	2079.4642688999884	2019-11-22 19:23:16.908380	13.7202651269304	0.0	28.3656651373362	28.3656651373362	14.6454000104058	28.3656651373362	-13.7202651269304	28.3656651373362	0.0	28.3656651373362	14.6454000104058	-28.3656651373362	5.586218011936161	-4.572948544942278	25.785462719054205	20.8465247749063	7.1790185458212425	25.785462719054205	-29.379400212442505	19.275349638405807	13.689131626469639	20.72907762948967	0.48343654462224994	4	missed	0.0
337.31775559997186	6.887573099927977	go_punish	0.2976250001229346	337.32716109999456	339.1699802998919	341.71559210005216	1.8428191998973489	338.3276440999475	340.7053036999423	342.72875300003216	0.8423361999443841	1.0102884001098573	1.4859811998903751	n/a	1.0	n/a	2	0	111	4	go_punish	1	0	-1	1	1	1	1	n/a	n/a	0	0.2976250001229346	1.0	1742.1606559001375	2079.487817000132	2080.488300000085	2081.3306362000294	2082.86595960008	2083.8762480001897	n/a	n/a	2084.8894089001697	2086.37539010006	2019-11-22 19:23:16.908380	5.07443054063192	-3.20516142248979	-10.9154196523071	-5.93986211521599	-5.84098911167516	-10.9154196523071	-5.07443054063192	-3.20516142248979	-10.9154196523071	-5.84098911167516	-10.9154196523071	3.20516142248979	-3.0596165743623187	-7.778109967432068	-13.495622070589098	-13.459002477645889	-13.307370576259718	-13.495622070589098	2.1914263473834845	-14.931304610605556	-11.871688036243262	-10.84174893033632	-10.43198310768485	4	missed	0.0
344.3163003998343	6.476821900112554	go_reward	0.7926616000477225	344.325705899857	345.7646045999136	348.3003503999207	1.4388987000565976	345.3279052998405	347.2858229998965	349.3103714999743	0.4366993000730872	1.0145274000242352	1.4921562999952585	n/a	1.0	n/a	2	0	112	2	go_reward	1	1	0	1	1	1	0	n/a	n/a	1	0.7926616000477225	1.0	1742.1606559001375	2086.4863617999945	2087.488561199978	2087.925260500051	2089.446478900034	2090.461006300058	n/a	n/a	2091.471027400112	2092.963183700107	2019-11-22 19:23:16.908380	5.35158802776327	11.248778545582	11.7202176538856	11.2590510214013	17.0718056816488	11.7202176538856	-5.35158802776327	11.248778545582	11.7202176538856	17.0718056816488	11.7202176538856	17.510314535385803	-2.7824590872309685	6.675830000639722	9.140015235603602	3.7399106589714	9.605424217064243	9.140015235603602	16.4965794602795	7.981490182718405	10.763949269949439	3.61219103773547	12.20365419850785	4	missed	0.0
350.8348815999925	5.896380999824032	go_reward	0.5632042998913676	350.8442871000152	352.3168190999427	354.87180950003676	1.4725319999274689	351.84789439989254	353.84819200006314	355.8709914998617	0.4689247000501382	1.023617499973625	0.869676599977538	n/a	1.0	n/a	2	0	113	2	go_reward	1	1	0	1	1	1	0	n/a	n/a	1	0.5632042998913676	1.0	1742.1606559001375	2093.0049430001527	2094.00855030003	2094.47747500008	2096.0088479002006	2097.0324654001743	n/a	n/a	2098.031647399999	2098.9013239999767	2019-11-22 19:23:16.908380	16.313468315191	18.4740268456606	11.7202176538856	18.4752023351077	28.0336859690766	11.7202176538856	-16.313468315191	18.4740268456606	11.7202176538856	28.0336859690766	11.7202176538856	10.285066235307202	8.17942120019676	13.901078300718321	9.140015235603602	10.9560619726778	20.567304504492043	9.140015235603602	9.271331160200896	18.943370470146206	10.763949269949439	10.837439337814068	12.20365419850785	4	missed	0.0
356.7553301998414	6.610619900049642	go_punish	1.0	356.7647356998641	358.8212196000386	361.3407183999666	2.0564839001744986	357.77553720003925	360.3273573999759	362.35089230001904	1.0456823999993503	1.0133609999907094	1.0244632998947054	n/a	1.0	n/a	2	0	114	4	go_punish	1	0	-1	1	0	0	0	n/a	n/a	-1	1.0	1.0	1742.1606559001375	2098.9253916000016	2099.9361931001768	2100.981875500176	2102.4880133001134	2103.501374300104	n/a	n/a	2104.5115482001565	2105.5360115000512	2019-11-22 19:23:16.908380	-7.40832602299165	-1.92450047163516	-10.9154196523071	-3.59873982944493	-3.50709362931543	-10.9154196523071	7.40832602299165	-10.9154196523071	-1.92450047163516	-10.9154196523071	-3.50709362931543	-0.17537964565599928	-15.542373137985889	-6.497449016577438	-13.495622070589098	-11.11788019187483	-10.973475093899987	-13.495622070589098	-1.1891147207623047	-20.005735151237495	-4.46336201325159	-18.552007160153632	-1.44106392701291	4	missed	0.0
363.3930458999239	6.061231900006533	nogo_reward	1.0	363.4024513999466	364.97221420006827	367.5014730999246	1.56976280012168	364.41060519986786	366.477417799877	368.50115989986807	0.5616090002004057	1.0240553000476211	0.9625234000850469	n/a	1.0	n/a	2	0	115	1	nogo_reward	1	0	1	0	0	1	0	n/a	n/a	1	1.0	1.0	1742.1606559001375	2105.563107300084	2106.5712611000054	2107.1328701002058	2108.6380737000145	2109.662129000062	n/a	n/a	2110.6618158000056	2111.6243392000906	2019-11-22 19:23:16.908380	8.12488458793863	0.0	16.7833452533444	16.7833452533444	8.65846066540572	16.7833452533444	-8.12488458793863	16.7833452533444	0.0	16.7833452533444	8.65846066540572	11.975747827623401	-0.009162527055607939	-4.572948544942278	14.203142835062403	9.2642048909145	1.192079200821163	14.203142835062403	10.962012752517095	7.693029754414004	7.702192281469559	9.146757745497869	0.48343654462224994	4	missed	0.0
369.49923900002614	6.09936969983346	nogo_punish	1.0	369.50864450004883	371.30658379988745	373.8352339998819	1.7979392998386174	370.5198053000495	372.80848570005037	374.8492081000004	0.7867784998379648	1.0267482998315245	0.7588060998818946	n/a	1.0	n/a	2	0	116	3	nogo_punish	0	0	-1	0	0	1	0	n/a	n/a	-1	1.0	1.0	1742.1606559001375	2111.6693004001863	2112.680461200187	2113.467239700025	2114.969141600188	2115.9958899000194	n/a	n/a	2117.009864000138	2117.76867010002	2019-11-22 19:23:16.908380	3.94900810921263	-4.43293204527514	-0.820966071597807	-0.821211468454424	-4.76997418081044	-0.820966071597807	-3.94900810921263	-0.820966071597807	-4.43293204527514	-0.820966071597807	-4.76997418081044	-10.269833226365293	-4.185039005781609	-9.00588059021742	-3.401168489879804	-8.340351830884323	-12.236355645394998	-3.401168489879804	-11.283568301471599	-9.911281570528203	-5.726242564746601	-8.457553579444337	-3.9494955006528905	4	missed	0.0
375.62611679988913	7.0424738000147045	nogo_reward	1.0	375.6355222999118	378.1790797000285	380.7029812000692	2.543557400116697	376.63371109985746	379.6850151999388	381.71614629984833	1.5453686001710594	1.0179660001304	0.9618498000781983	n/a	1.0	n/a	2	0	117	1	nogo_reward	1	0	1	0	0	1	1	n/a	n/a	1	1.0	1.0	1742.1606559001375	2117.7961782000493	2118.794366999995	2120.339735600166	2121.8456711000763	2122.8636371002067	n/a	n/a	2123.876802199986	2124.838652000064	2019-11-22 19:23:16.908380	10.5340065792772	0.0	21.7968336049818	21.7968336049818	11.2628270257046	21.7968336049818	-10.5340065792772	21.7968336049818	0.0	21.7968336049818	11.2628270257046	6.962259475986002	2.3999594642829614	-4.572948544942278	19.216631186699804	14.2776932425519	3.796445561120044	19.216631186699804	5.9485244008796965	12.706518106051403	10.30655864176844	14.160246097135268	0.48343654462224994	4	missed	0.0
382.7114170000423	6.591972299851477	nogo_punish	1.0	382.72082250006497	384.46188429999165	386.9788368998561	1.7410617999266833	383.7284208999481	385.95711129996926	387.9912962999665	0.7334634000435472	1.0217255998868495	1.3214984999499393	n/a	1.0	n/a	2	0	118	3	nogo_punish	1	-1	0	0	0	1	1	n/a	n/a	0	1.0	1.0	1742.1606559001375	2124.8814784002025	2125.8890768000856	2126.622540200129	2128.1177672001068	2129.1394927999936	n/a	n/a	2130.151952200104	2131.473450700054	2019-11-22 19:23:16.908380	1.68737758683779	-4.43293204527514	-4.9458366410345	-4.94603252016761	-6.63321422787229	-4.9458366410345	-1.68737758683779	-4.9458366410345	-4.43293204527514	-4.9458366410345	-6.63321422787229	4.9458366410345	-6.446669528156448	-9.00588059021742	-7.526039059316497	-12.46517288259751	-14.099595692456846	-7.526039059316497	3.9321015659281944	-14.036152139964896	-7.58948261180845	-12.582424148881032	-3.9494955006528905	4	missed	0.0
389.3293779999949	6.709182099904865	go_punish	0.5617205000016838	389.3387835000176	391.2034930998925	393.7551611000672	1.8647095998749137	390.33856910001487	392.7351181998383	394.7690975998994	0.8649239998776466	1.020042900228873	1.278868000023067	n/a	1.0	n/a	2	0	119	4	go_punish	1	0	-1	1	1	1	0	n/a	n/a	0	0.5617205000016838	1.0	1742.1606559001375	2131.499439400155	2132.4992250001524	2133.36414900003	2134.895774099976	2135.9158170002047	n/a	n/a	2136.929753500037	2138.20862150006	2019-11-22 19:23:16.908380	6.08788977951068	-1.92450047163516	-10.9727510180782	-6.64213721029111	-4.88486123856753	-10.9727510180782	-6.08788977951068	-1.92450047163516	-10.9727510180782	-4.88486123856753	-10.9727510180782	1.92450047163516	-2.046157335483559	-6.497449016577438	-13.552953436360198	-14.161277572721009	-12.351242703152087	-13.552953436360198	0.9107653965288545	-13.975176737497925	-11.929019402014362	-9.561087979481691	-10.48931447345595	4	missed	0.0
396.0648868000135	6.339691099943593	nogo_reward	1.0	396.0742923000362	397.89095599995926	400.4049112000507	1.8166636999230832	397.0798549000174	399.3903234999161	401.4048552999743	0.8111010999418795	1.014587700134598	1.009128100005455	n/a	1.0	n/a	2	0	120	1	nogo_reward	1	0	1	0	0	1	0	n/a	n/a	1	1.0	1.0	1742.1606559001375	2138.2349482001737	2139.240510800155	2140.0516119000968	2141.5509794000536	2142.565567100188	n/a	n/a	2143.565511200112	2144.5746393001173	2019-11-22 19:23:16.908380	11.9143521666345	0.0	24.6541907855367	24.6541907855367	12.7398386189023	24.6541907855367	-11.9143521666345	24.6541907855367	0.0	24.6541907855367	12.7398386189023	4.104902295431103	3.7803050516402603	-4.572948544942278	22.073988367254703	17.135050423106797	5.273457154317744	22.073988367254703	3.091167220324797	15.563875286606303	11.78357023496614	17.017603277690167	0.48343654462224994	4	missed	0.0
