onset	duration	trial_type	response_time	cueOnset	targetOnset	fbOnset	cueRT	firstfixOnset	secondfixOnset	waitOnset	firstfixdur	secondfixdur	waitdur	nback_fbOnset	nback_response_time	nback_targetOnset	block	wm	trial	cue	cond	is_common	outcome_go	outcome_nogo	key_correct	key_pressed	is_correct	key_correct_nback	key_pressed_nback	is_correct_nback	outcome	rt	rt_nback	time_scan	time_onset	time_isi1	time_circle	time_isi2	time_feedback	time_same	time_correct	time_iti	time_done	timestamp_scan	DV	Qgo	Qnogo	SV	Wgo	Wnogo	mDV	Qchosen	Qunchosen	Wchosen	Wunchosen	PE	DVC	QgoC	QnogoC	SVC	WgoC	WnogoC	PEC	WchosenC	WunchosenC	QchosenC	QunchosenC	run	outcome_nback	nback_targetResp
0.0	7.857313100015745	go_reward	0.4581126000266522	0.1074680001474917	1.5421861000359058	4.166477000107989	1.4347180998884141	1.1195341001730412	3.144643699983135	7.18907510000281	0.4226519998628646	1.0218333001248538	0.7757060001604259	6.193718899972737	1.0	5.185314500005916	1	1	1	2	go_reward	0	0	1	1	1	1	0	n/a	0.0	1	0.4581126000266522	1.0	74.65198630001396	74.75945430016145	75.771520400187	76.19417240004987	77.7966299999971	78.81846330012195	79.83730080001988	80.8457051999867	81.84106140001677	82.6167674001772	2019-11-22 18:55:29.388086	0.0307919189337686	0.0	0.0	0.0	0.0307919189337686	0.0	-0.0307919189337686	0.0	0.0	0.0307919189337686	0.0	0.0	-8.10325519606047	-4.572948544942278	-2.580202418281997	-7.5191403624299	-7.435589545650788	-2.580202418281997	-1.0137350751063054	-9.059523579996627	-0.9562683839361605	-7.636587507846531	0.48343654462224994	1	missed	0.0
7.992742799920961	8.214265499962494	nogo_punish	0.4265228000003844	8.100210800068453	9.675772000104189	12.21843420015648	1.575561200035736	9.110712900059298	11.205382900079712	15.290169000159949	0.5650591000448912	1.0130513000767678	1.0243072998709977	14.282617600169033	0.4974242998287081	13.235789600061253	1	1	2	3	nogo_punish	0	0	-1	0	1	0	0	0.0	1.0	0	0.4265228000003844	0.4974242998287081	74.65198630001396	82.75219710008241	83.76269920007326	84.32775830011815	85.85736920009367	86.87042050017044	87.88777590007521	88.93460390018299	89.94215530017391	90.9664626000449	2019-11-22 18:55:29.388086	0.0307919189337686	0.0	0.0	0.0	0.0307919189337686	0.0	-0.0307919189337686	0.0	0.0	0.0307919189337686	0.0	0.0	-8.10325519606047	-4.572948544942278	-2.580202418281997	-7.5191403624299	-7.435589545650788	-2.580202418281997	-1.0137350751063054	-9.059523579996627	-0.9562683839361605	-7.636587507846531	0.48343654462224994	1	correct	1.0
16.275220799958333	9.369048499967889	go_punish	0.3131307999137789	16.382688800105825	18.753044200129807	21.2971700001508	2.370355400023982	17.393171800067634	20.2841382001061	24.336521500023082	1.359872400062173	1.0130318000447005	1.4152158000506319	23.337754500098526	0.9419731998350472	22.31319859996438	1	1	3	4	go_punish	1	0	-1	1	1	1	0	0.0	1.0	0	0.3131307999137789	0.9419731998350472	74.65198630001396	91.03467510011978	92.0451581000816	93.40503050014377	94.93612450012006	95.94915630016476	96.96518489997834	97.98974080011249	98.98850780003704	100.40372360008767	2019-11-22 18:55:29.388086	0.0307919189337686	0.0	0.0	0.0	0.0307919189337686	0.0	-0.0307919189337686	0.0	0.0	0.0307919189337686	0.0	0.0	-8.10325519606047	-4.572948544942278	-2.580202418281997	-7.5191403624299	-7.435589545650788	-2.580202418281997	-1.0137350751063054	-9.059523579996627	-0.9562683839361605	-7.636587507846531	0.48343654462224994	1	correct	1.0
25.678535499842823	8.67262000008489	go_punish	0.4533090000040829	25.786003499990315	27.643865799997002	30.185515900142477	1.857862300006687	26.791108600096777	29.164446300128475	33.244825900066644	0.8527571999002248	1.0210696000140018	1.2137976000085615	32.23145240009762	0.7133110000286251	31.203797500114874	1	1	4	4	go_punish	1	0	-1	1	1	1	0	0.0	1.0	0	0.4533090000040829	0.7133110000286251	74.65198630001396	100.43798980000427	101.44309490011074	102.29585210001096	103.81643260014243	104.83750220015644	105.85578380012883	106.88343870011158	107.8968122000806	109.11060980008916	2019-11-22 18:55:29.388086	0.0307919189337686	0.0	0.0	0.0	0.0307919189337686	0.0	-0.0307919189337686	0.0	0.0	0.0307919189337686	0.0	0.0	-8.10325519606047	-4.572948544942278	-2.580202418281997	-7.5191403624299	-7.435589545650788	-2.580202418281997	-1.0137350751063054	-9.059523579996627	-0.9562683839361605	-7.636587507846531	0.48343654462224994	1	correct	1.0
34.38706219987942	7.797328799963012	nogo_punish	1.0	34.494530200026915	35.82760520000012	38.366108500165865	1.3330749999732063	35.51012570015156	37.34413220011628	41.406776200048625	0.3174794998485595	1.0219763000495874	0.8850827999413013	40.391342200105996	0.6458248000126332	39.372356400126606	1	1	5	3	nogo_punish	1	-1	0	0	0	1	0	0.0	1.0	0	1.0	0.6458248000126332	74.65198630001396	109.14651650004087	110.16211200016552	110.47959150001408	111.99611850013024	113.01809480017982	114.02434270014056	115.04332850011996	116.05876250006258	116.94384530000389	2019-11-22 18:55:29.388086	-0.0307919189337686	0.0	0.0	0.0	0.0307919189337686	0.0	0.0307919189337686	0.0	0.0	0.0	0.0307919189337686	0.0	-8.164839033928008	-4.572948544942278	-2.580202418281997	-7.5191403624299	-7.435589545650788	-2.580202418281997	-1.0137350751063054	-9.090315498930396	-0.9254764650023919	-7.636587507846531	0.48343654462224994	1	correct	1.0
42.21717239986175	8.725769000127897	nogo_reward	0.3152423999272287	42.324640400009244	44.088946599978954	46.64102130010724	1.7643061999697096	43.31645900011064	45.620198100106805	49.6915564001538	0.7724875998683132	1.0208232000004358	1.3588529999833412	48.687247100053355	0.3449341999366879	47.659701799973845	1	1	6	1	nogo_reward	1	0	1	0	1	0	0	0.0	1.0	0	0.3152423999272287	0.3449341999366879	74.65198630001396	116.9766267000232	117.9684453001246	118.74093289999291	120.27218440012076	121.2930076001212	122.3116880999878	123.33923340006731	124.34354270016776	125.7023957001511	2019-11-22 18:55:29.388086	0.0307919189337686	0.0	0.0	0.0	0.0307919189337686	0.0	-0.0307919189337686	0.0	0.0	0.0307919189337686	0.0	0.0	-8.10325519606047	-4.572948544942278	-2.580202418281997	-7.5191403624299	-7.435589545650788	-2.580202418281997	-1.0137350751063054	-9.059523579996627	-0.9562683839361605	-7.636587507846531	0.48343654462224994	1	correct	1.0
50.98046500002965	8.986664299853146	nogo_punish	1.0	51.087933000177145	53.52028190018609	56.04805260011926	2.4323489000089467	52.100961000192925	55.02627100003883	59.09512590011582	1.419320899993167	1.0217816000804305	0.9794713999144733	58.0928665001411	0.4323805999010801	57.06381710013375	1	1	7	3	nogo_punish	1	-1	0	0	0	1	1	1.0	1.0	0	1.0	0.4323805999010801	74.65198630001396	125.7399193001911	126.75294730020688	128.17226820020005	129.6782573000528	130.70003890013322	131.7158034001477	132.74485280015506	133.74711220012978	134.72658360004425	2019-11-22 18:55:29.388086	-0.0307919189337686	0.0	0.0	0.0	0.0307919189337686	0.0	0.0307919189337686	0.0	0.0	0.0	0.0307919189337686	0.0	-8.164839033928008	-4.572948544942278	-2.580202418281997	-7.5191403624299	-7.435589545650788	-2.580202418281997	-1.0137350751063054	-9.090315498930396	-0.9254764650023919	-7.636587507846531	0.48343654462224994	1	correct	1.0
60.00170969986357	8.298574400134385	go_reward	0.4368527000769973	60.10917770001106	61.594347400125116	64.13313350011595	1.4851697001140565	61.12499270006083	63.12955190008506	67.1631642000284	0.4693547000642866	1.0035816000308841	1.2445879001170397	66.160045000026	0.5697504000272602	65.14739709999412	1	1	8	2	go_reward	1	1	0	1	1	1	0	0.0	1.0	1	0.4368527000769973	0.5697504000272602	74.65198630001396	134.76116400002502	135.7769790000748	136.24633370013908	137.78153820009902	138.7851198001299	139.79938340000808	140.81203130003996	141.81515050004236	143.0597384001594	2019-11-22 18:55:29.388086	6.94276182523394	5.6652542062442	0.0	5.6652542062442	6.94276182523394	0.0	-6.94276182523394	5.6652542062442	0.0	6.94276182523394	0.0	23.093838874723602	-1.191285289760299	1.0923056613019222	-2.580202418281997	-1.8538861561856992	-0.523619639350617	-2.580202418281997	22.080103799617298	-2.1475536736964562	-0.9562683839361605	-1.9713333016023302	0.48343654462224994	1	correct	1.0
68.33366089989431	8.029422800056636	go_punish	1.0	68.4411289000418	69.9983380001504	72.52860109996982	1.5572091001085937	69.44065660005435	71.51446810015477	75.57991860015318	0.5576814000960439	1.0141329998150468	0.8906330999452621	74.56701880018227	0.4237664001993835	73.54536029999144	1	1	9	4	go_punish	1	0	-1	1	0	0	0	0.0	1.0	-1	1.0	0.4237664001993835	74.65198630001396	143.09311520005576	144.0926429000683	144.65032430016436	146.16645440016873	147.18058739998378	148.1973466000054	149.21900510019623	150.23190490016714	151.1225380001124	2019-11-22 18:55:29.388086	-0.0307919189337686	0.0	0.0	0.0	0.0307919189337686	0.0	0.0307919189337686	0.0	0.0	0.0	0.0307919189337686	-11.0907992979631	-8.164839033928008	-4.572948544942278	-2.580202418281997	-7.5191403624299	-7.435589545650788	-2.580202418281997	-12.104534373069406	-9.090315498930396	-0.9254764650023919	-7.636587507846531	0.48343654462224994	1	correct	1.0
76.4071482999716	9.176160899922252	nogo_punish	1.0	76.51461630011909	78.84950840007514	81.3744347000029	2.3348920999560505	77.52103000017814	80.35409280005842	84.4161181000527	1.3284783998969942	1.0203418999444693	1.2746590999886394	83.41068500000983	0.3772207000292837	82.39180930005386	1	1	10	3	nogo_punish	1	-1	0	0	0	1	0	0.0	1.0	0	1.0	0.3772207000292837	74.65198630001396	151.16660260013305	152.1730163001921	153.5014947000891	155.00607910007238	156.02642100001685	157.04379560006782	158.0626713000238	159.06810440006666	160.3427635000553	2019-11-22 18:55:29.388086	-0.0307919189337686	0.0	0.0	0.0	0.0307919189337686	0.0	0.0307919189337686	0.0	0.0	0.0	0.0307919189337686	0.0	-8.164839033928008	-4.572948544942278	-2.580202418281997	-7.5191403624299	-7.435589545650788	-2.580202418281997	-1.0137350751063054	-9.090315498930396	-0.9254764650023919	-7.636587507846531	0.48343654462224994	1	correct	1.0
85.6160650998354	8.608152800006792	go_punish	0.3498947999905795	85.72353309998289	87.51017530006357	90.07461360003799	1.7866422000806779	86.72717930004	89.03987239999697	93.12164669996127	0.7829960000235587	1.0347412000410259	1.2100392000284046	92.10837540007196	0.3980749000329524	91.09657260007225	1	1	11	4	go_punish	1	0	-1	1	1	1	1	1.0	1.0	0	0.3498947999905795	0.3980749000329524	74.65198630001396	160.37551939999685	161.37916560005397	162.16216160007752	163.69185870001093	164.72659990005195	165.7485589000862	166.76036170008592	167.77363299997523	168.98367220000364	2019-11-22 18:55:29.388086	1.7076111969785	0.0	-2.05943418059676	-2.05943418059676	-0.35182298361826	-2.05943418059676	-1.7076111969785	0.0	-2.05943418059676	-0.35182298361826	-2.05943418059676	0.0	-6.426435918015739	-4.572948544942278	-4.639636598878758	-9.57857454302666	-7.818204448202817	-4.639636598878758	-1.0137350751063054	-9.442138482548655	-3.015702564532921	-7.636587507846531	-1.5759976359745103	1	correct	1.0
94.25922199990598	7.937367900041892	go_reward	0.7988744000904262	94.36669000005347	95.77314230008051	98.32781400019303	1.4064523000270412	95.38228360004723	97.3036865000613	101.38853500015102	0.3908587000332773	1.0241275001317263	0.9155228999443352	100.37489249999635	0.6428946999367326	99.34115910017863	1	1	12	2	go_reward	1	1	0	1	1	1	0	0.0	1.0	1	0.7988744000904262	0.6428946999367326	74.65198630001396	169.01867630006743	170.0342699000612	170.42512860009447	171.95567280007526	172.979800300207	173.9931454001926	175.0268788000103	176.04052130016498	176.95604420010932	2019-11-22 18:55:29.388086	12.4143559113723	10.1634906439268	0.0	10.1634906439268	12.4143559113723	0.0	-12.4143559113723	10.1634906439268	0.0	12.4143559113723	0.0	18.595602437041002	4.280308796378062	5.590542098984521	-2.580202418281997	2.6443502814968998	4.947974446787744	-2.580202418281997	17.581867361934698	3.3240404124419047	-0.9562683839361605	2.5269031360802687	0.48343654462224994	1	correct	1.0
102.2451990998816	8.188066100003198	nogo_punish	0.4897851999849081	102.3526671000291	104.00228680018336	106.54667120007801	1.6496197001542612	103.35449269996025	105.52243230002932	109.57842050003816	0.6477941002231091	1.0242389000486867	0.9623126999941292	108.57294620014727	0.5198027000296861	107.56106870016083	1	1	13	3	nogo_punish	1	-1	0	0	1	0	0	0.0	1.0	-1	0.4897851999849081	0.5198027000296861	74.65198630001396	177.00465340004305	178.0064789999742	178.65427310019732	180.17441860004328	181.19865750009197	182.2130550001748	183.22493250016123	184.23040680005212	185.19271950004625	2019-11-22 18:55:29.388086	0.0307919189337686	0.0	0.0	0.0	0.0307919189337686	0.0	-0.0307919189337686	0.0	0.0	0.0307919189337686	0.0	-11.0907992979631	-8.10325519606047	-4.572948544942278	-2.580202418281997	-7.5191403624299	-7.435589545650788	-2.580202418281997	-12.104534373069406	-9.059523579996627	-0.9562683839361605	-7.636587507846531	0.48343654462224994	1	correct	1.0
110.46781709999775	8.849882199894637	nogo_reward	1.0	110.57528510014524	113.01469480013475	115.55018580006436	2.439409699989511	111.59144150000068	114.52534930012189	118.58114080014641	1.4232533001340641	1.0248364999424666	0.8440264998934595	117.56780950003304	0.6655021999031305	116.55442070006393	1	1	14	1	nogo_reward	1	0	1	0	0	1	0	0.0	1.0	1	1.0	0.6655021999031305	74.65198630001396	185.2272714001592	186.24342780001464	187.6666811001487	189.17733560013585	190.20217210007831	191.2064070000779	192.219795800047	193.23312710016037	194.07715360005383	2019-11-22 18:55:29.388086	-0.0307919189337686	0.0	0.0	0.0	0.0307919189337686	0.0	0.0307919189337686	0.0	0.0	0.0	0.0307919189337686	28.7590930809678	-8.164839033928008	-4.572948544942278	-2.580202418281997	-7.5191403624299	-7.435589545650788	-2.580202418281997	27.745358005861497	-9.090315498930396	-0.9254764650023919	-7.636587507846531	0.48343654462224994	1	correct	1.0
119.35150619992055	8.881659199949354	go_punish	0.2975886000785976	119.45897420006804	122.01033970015123	124.53751330007799	2.551365500083193	120.46050270018168	123.52345270011574	127.5802705001552	1.549836999969557	1.0140605999622494	0.7603628998622014	126.56598499999379	0.2880017000716179	125.55390279996209	1	1	15	4	go_punish	1	0	-1	1	1	1	0	0.0	1.0	0	0.2975886000785976	0.2880017000716179	74.65198630001396	194.110960500082	195.11248900019564	196.6623260001652	198.1754390001297	199.18949960009195	200.20588909997605	201.21797130000775	202.23225680016915	202.99261970003136	2019-11-22 18:55:29.388086	1.78917891556419	0.0	-2.05943418059676	-1.65305537098789	-0.270255265032568	-2.05943418059676	-1.78917891556419	0.0	-2.05943418059676	-0.270255265032568	-2.05943418059676	0.0	-6.344868199430049	-4.572948544942278	-4.639636598878758	-9.172195733417789	-7.736636729617125	-4.639636598878758	-1.0137350751063054	-9.360570763962965	-3.015702564532921	-7.636587507846531	-1.5759976359745103	1	correct	1.0
128.2680840999819	8.135449999943432	go_punish	0.5689201999921352	128.3755521001294	129.9444715999998	132.49645640002564	1.5689194998703897	129.38066240004264	131.47615980007683	135.54899849998765	0.5638091999571486	1.0202965999488072	0.9620036000851826	134.53558899997734	0.3199968000408262	133.50885730003935	1	1	16	4	go_punish	1	0	-1	1	1	1	0	0.0	1.0	0	0.5689201999921352	0.3199968000408262	74.65198630001396	203.02753840014336	204.0326487000566	204.59645790001375	206.1281461000908	207.1484427000396	208.1608436000533	209.1875752999913	210.2009848000016	211.1629884000868	2019-11-22 18:55:29.388086	1.85256538431642	0.0	-2.05943418059676	-1.33128325621214	-0.206868796280337	-2.05943418059676	-1.85256538431642	0.0	-2.05943418059676	-0.206868796280337	-2.05943418059676	0.0	-6.281481730677819	-4.572948544942278	-4.639636598878758	-8.85042361864204	-7.673250260864894	-4.639636598878758	-1.0137350751063054	-9.297184295210734	-3.015702564532921	-7.636587507846531	-1.5759976359745103	1	correct	1.0
136.47317669983022	8.477705500088632	nogo_punish	0.3095766000915319	136.5806446999777	138.2733551000711	140.8685236000456	1.6927104000933753	137.5981468001846	139.84119289997034	143.9027381001506	0.6752082998864921	1.0273307000752538	1.1556120999157429	142.89886740013029	0.7563400000799447	141.8793810000643	1	1	17	3	nogo_punish	1	-1	0	0	1	0	0	0.0	1.0	-1	0.3095766000915319	0.7563400000799447	74.65198630001396	211.23263099999167	212.25013310019855	212.92534140008505	214.4931791999843	215.52050990005955	216.53136730007827	217.55085370014424	218.55472440016456	219.7103365000803	2019-11-22 18:55:29.388086	-2.41125716421501	-2.05943418059676	0.0	-2.05943418059676	-2.41125716421501	0.0	2.41125716421501	-2.05943418059676	0.0	-2.41125716421501	0.0	-9.03136511736634	-10.54530427920925	-6.632382725539038	-2.580202418281997	-9.57857454302666	-9.877638628799566	-2.580202418281997	-10.045100192472646	-11.501572663145406	-0.9562683839361605	-9.696021688443292	0.48343654462224994	1	correct	1.0
144.98351169982925	9.533222500002012	go_reward	0.3202915999572724	145.09097969997674	147.8276047999971	150.3797061999794	2.7366251000203476	146.094106100034	149.35363070014864	153.42924440000203	1.7334986999630928	1.0260754998307675	1.19495779997672	152.42081669997424	0.6662894999608397	151.39152090018615	1	1	18	2	go_reward	1	1	0	1	1	1	0	0.0	1.0	1	0.3202915999572724	0.6662894999608397	74.65198630001396	219.7429659999907	220.74609240004796	222.47959110001105	224.0056170001626	225.03169249999337	226.0435072002001	227.0728029999882	228.081230700016	229.2761884999927	2019-11-22 18:55:29.388086	16.7578044013966	13.745001074897	0.0	13.745001074897	16.7578044013966	0.0	-16.7578044013966	13.745001074897	0.0	16.7578044013966	0.0	15.0140920060708	8.623757286402363	9.172052529954723	-2.580202418281997	6.225860712467101	9.291422936812044	-2.580202418281997	14.000356930964495	7.667488902466205	-0.9562683839361605	6.10841356705047	0.48343654462224994	1	correct	1.0
154.54736279998906	8.450278199976282	nogo_reward	1.0	154.65483080013655	156.51866830000654	159.06147850002165	1.8638374998699874	155.65920420014297	158.03298550006005	162.11147520015948	0.8594640998635725	1.0284929999615997	0.9936337999533578	161.09811919997443	0.7595226999837905	160.08320880006067	1	1	19	1	nogo_reward	1	0	1	0	0	1	0	0.0	1.0	1	1.0	0.7595226999837905	74.65198630001396	229.3068171001505	230.31119050015693	231.1706546000205	232.684971800074	233.7134648000356	234.73519510007463	235.7501054999884	236.76346150017343	237.7570953001268	2019-11-22 18:55:29.388086	4.38774658725446	0.0	5.6652542062442	5.6652542062442	1.27750761898974	5.6652542062442	-4.38774658725446	5.6652542062442	0.0	5.6652542062442	1.27750761898974	23.093838874723602	-3.7463005277397787	-4.572948544942278	3.0850517879622035	-1.8538861561856992	-6.1888738455948165	3.0850517879622035	22.080103799617298	-3.4250612926861956	0.32123923505357954	-1.9713333016023302	0.48343654462224994	1	correct	1.0
163.03666039998643	8.393293199827866	nogo_punish	1.0	163.14412840013392	164.5589237001259	167.08537010010332	1.4147952999919653	164.14650960010476	166.06390780000947	170.1461077001877	0.4124141000211239	1.0214623000938445	1.391313899774076	169.13068439997733	0.5784384999424219	168.10134489997293	1	1	20	3	nogo_punish	1	-1	0	0	0	1	0	0.0	1.0	0	1.0	0.5784384999424219	74.65198630001396	237.79611470014788	238.79849590011872	239.21091000013985	240.71589410002343	241.73735640011728	242.7533311999869	243.7826706999913	244.79809400020167	246.18940789997575	2019-11-22 18:55:29.388086	4.36535971916924	-3.71248955158464	0.0	-3.71248955158464	-4.36535971916924	0.0	-4.36535971916924	0.0	-3.71248955158464	0.0	-4.36535971916924	0.0	-3.7686873958249985	-8.285438096526917	-2.580202418281997	-11.23162991401454	-11.831741183753797	-2.580202418281997	-1.0137350751063054	-9.090315498930396	-5.321628103105401	-7.636587507846531	-3.22905300696239	1	correct	1.0
171.4676534999162	9.698692300124065	nogo_punish	0.2547997999936342	171.5751215000637	174.20398540003225	176.74913260014728	2.6288638999685645	172.58798860013485	175.7247466000263	179.79617260000668	1.6159967998974025	1.024386000120984	1.4776412001810684	178.7914958000183	0.517467699944973	177.76338530005887	1	1	21	3	nogo_punish	1	-1	0	0	1	0	0	0.0	1.0	-1	0.2547997999936342	0.517467699944973	74.65198630001396	246.22710780007765	247.2399749001488	248.8559717000462	250.37673290004025	251.40111890016124	252.41537160007283	253.44348210003227	254.44815890002064	255.9258001002017	2019-11-22 18:55:29.388086	-4.22040553183131	-3.71248955158464	0.0	-2.98433862720002	-4.22040553183131	0.0	4.22040553183131	-3.71248955158464	0.0	-4.22040553183131	0.0	-7.37830974637846	-12.35445264682555	-8.285438096526917	-2.580202418281997	-10.503478989629919	-11.686786996415867	-2.580202418281997	-8.392044821484765	-13.310721030761705	-0.9562683839361605	-11.34907705943117	0.48343654462224994	1	correct	1.0
181.20199829991904	9.246163000119935	nogo_punish	1.0	181.30946630006653	183.60805910010822	186.13879450014792	2.298592800041689	182.3213822999969	185.1151170001831	189.17881359998137	1.2866768001113087	1.0236774999648333	1.3768157002050998	188.169796400005	0.6752446999307722	187.15247530001216	1	1	22	3	nogo_punish	0	0	-1	0	0	1	1	0.0	0.0	-1	1.0	0.6752446999307722	74.65198630001396	255.9614526000805	256.9733686000109	258.2600454001222	259.76710330019705	260.7907808001619	261.8044616000261	262.82178270001896	263.8307998999953	265.2076156002004	2019-11-22 18:55:29.388086	5.82148687388452	-5.04377280779678	0.0	-4.46633430806217	-5.82148687388452	0.0	-5.82148687388452	0.0	-5.04377280779678	0.0	-5.82148687388452	-11.0907992979631	-2.3125602411097193	-9.61672135273906	-2.580202418281997	-11.98547467049207	-13.287868338469076	-2.580202418281997	-12.104534373069406	-9.090315498930396	-6.77775525782068	-7.636587507846531	-4.560336263174531	1	wrong	1.0
190.48260720004328	8.900066799949855	go_punish	0.2855469000060111	190.59007520019077	192.65329829999246	195.2040955000557	2.0632230998016894	191.6066390001215	194.1901665001642	198.2408392999787	1.046659299870953	1.0139289998915046	1.249302700161934	197.23256290005526	0.8917067998554558	196.21103810006753	1	1	23	4	go_punish	0	-1	0	1	1	1	0	0.0	1.0	-1	0.2855469000060111	0.8917067998554558	74.65198630001396	265.2420615002047	266.25862530013546	267.3052846000064	268.84215280017816	269.85608180006966	270.8630244000815	271.8845492000692	272.89282559999265	274.1421283001546	2019-11-22 18:55:29.388086	1.90199573227515	0.0	-2.05943418059676	-1.07561687125327	-0.15743844832161	-2.05943418059676	-1.90199573227515	0.0	-2.05943418059676	-0.15743844832161	-2.05943418059676	-11.0907992979631	-6.232051382719089	-4.572948544942278	-4.639636598878758	-8.59475723368317	-7.623819912906167	-4.639636598878758	-12.104534373069406	-9.247753947252006	-3.015702564532921	-7.636587507846531	-1.5759976359745103	1	correct	1.0
199.41525799990632	8.323813100112659	go_reward	0.3694165998604148	199.5227260000538	201.44833300006576	203.99442310002632	1.9256070000119507	200.52683450002223	202.9790311001707	207.04053870006464	0.9214985000435263	1.0153919998556376	0.8060004001018228	206.02740580006503	0.499555799877271	204.99824570002966	1	1	24	2	go_reward	1	1	0	1	1	1	0	0.0	1.0	1	0.3694165998604148	0.499555799877271	74.65198630001396	274.17471230006777	275.1788208000362	276.1003193000797	277.63101740018465	278.6464094000403	279.6502320000436	280.679392100079	281.6925250000786	282.4985254001804	2019-11-22 18:55:29.388086	20.2151256648357	16.6043478807049	0.0	16.6043478807049	20.2151256648357	0.0	-20.2151256648357	16.6043478807049	0.0	20.2151256648357	0.0	12.154745200262902	12.081078549841461	12.031399335762622	-2.580202418281997	9.085207518275	12.748744200251142	-2.580202418281997	11.141010125156596	11.124810165905304	-0.9562683839361605	8.967760372858368	0.48343654462224994	1	correct	1.0
207.77332949987613	8.408888899954036	go_reward	0.3488583001308143	207.88079750002362	209.6826409001369	212.2380858999677	1.8018434001132846	208.89730050018989	211.21329610003158	215.27925300016068	0.7853403999470174	1.0247897999361157	1.010433399816975	214.27169510000385	0.4446894999127835	213.25309300003573	1	1	25	2	go_reward	1	1	0	1	1	1	0	0.0	1.0	1	0.3488583001308143	0.4446894999127835	74.65198630001396	282.5327838000376	283.54928680020384	284.33462720015086	285.86528240004554	286.89007219998166	287.9050793000497	288.9236814000178	289.93123930017464	290.9416726999916	2019-11-22 18:55:29.388086	22.9744792907914	18.8932245064063	0.0	18.8932245064063	22.9744792907914	0.0	-22.9744792907914	18.8932245064063	0.0	22.9744792907914	0.0	9.865868574561503	14.840432175797162	14.32027596146402	-2.580202418281997	11.374084143976399	15.508097826206843	-2.580202418281997	8.852133499455197	13.884163791861004	-0.9562683839361605	11.256636998559767	0.48343654462224994	1	correct	1.0
216.2148467998486	8.288076600059867	nogo_reward	0.4674694999121129	216.3223147999961	218.22324700001627	220.78398690000176	1.9009322000201792	217.32539150002412	219.76013650000095	223.83064180007204	0.8978554999921471	1.0238504000008106	0.7797495999839157	222.82618480012752	0.4205032000318169	221.7971366001293	1	1	26	1	nogo_reward	0	1	0	0	1	0	0	0.0	1.0	1	0.4674694999121129	0.4205032000318169	74.65198630001396	290.97430110001005	291.9773778000381	292.87523330003023	294.4121228000149	295.4359732000157	296.44912290014327	297.4781711001415	298.482628100086	299.2623777000699	2019-11-22 18:55:29.388086	-7.91262537648137	0.0	10.1634906439268	10.1634906439268	2.25086526744545	10.1634906439268	7.91262537648137	0.0	10.1634906439268	2.25086526744545	10.1634906439268	28.7590930809678	-16.046672491475608	-4.572948544942278	7.583288225644802	2.6443502814968998	-5.215516197139107	7.583288225644802	27.745358005861497	-6.839450231484946	9.207222259990639	-7.636587507846531	10.64692718854905	1	correct	1.0
224.53520289994776	9.271264399867505	go_punish	1.0	224.64267090009525	227.4119449001737	229.94141079997644	2.7692740000784397	225.64691200014204	228.92732980009168	232.97543950006366	1.765032900031656	1.0140809998847544	0.9384957998991013	231.97026760014705	0.8104101000353694	230.94823620002717	1	1	27	4	go_punish	1	0	-1	1	0	0	0	0.0	1.0	-1	1.0	0.8104101000353694	74.65198630001396	299.2946572001092	300.298898300156	302.06393120018765	303.57931610010564	304.5933970999904	305.6002225000411	306.622253900161	307.6274258000776	308.5659215999767	2019-11-22 18:55:29.388086	0.501376521623702	-2.05943418059676	-2.05943418059676	-2.93122766826085	-2.56081070222046	-2.05943418059676	-0.501376521623702	-2.05943418059676	-2.05943418059676	-2.05943418059676	-2.56081070222046	-9.03136511736634	-7.632670593370537	-6.632382725539038	-4.639636598878758	-10.45036803069075	-10.027192166805017	-4.639636598878758	-10.045100192472646	-11.149749679527156	-3.5170790861566203	-9.696021688443292	-1.5759976359745103	1	correct	1.0
233.83711289986974	8.330687700072247	nogo_reward	0.4451806000433862	233.94458090001723	235.28333660005592	237.8370847001206	1.3387557000386892	234.93970790016465	236.81417150003836	240.8827582001686	0.3436286998912692	1.0229132000822574	1.392510399920866	239.86897110007703	0.5199971999973059	238.8507587001659	1	1	28	1	nogo_reward	0	1	0	0	1	0	1	0.0	0.0	1	0.4451806000433862	0.5199971999973059	74.65198630001396	308.5965672000312	309.5916942001786	309.9353229000699	311.4661578000523	312.4890710001346	313.50274500017986	314.520957400091	315.53474450018257	316.92725490010343	2019-11-22 18:55:29.388086	-1.48543311118304	5.6652542062442	10.1634906439268	13.745001074897	8.67805753274378	10.1634906439268	1.48543311118304	5.6652542062442	10.1634906439268	8.67805753274378	10.1634906439268	23.093838874723602	-9.619480226177279	1.0923056613019222	7.583288225644802	6.225860712467101	1.2116760681592238	7.583288225644802	22.080103799617298	-0.4122579661866155	9.207222259990639	-1.9713333016023302	10.64692718854905	1	wrong	1.0
242.19996090000495	8.43301979987882	go_punish	0.3944145001005381	242.30742890015244	243.67522269999608	246.22162740002386	1.3677937998436391	243.31089309998788	245.19807160017086	249.25204190006485	0.3643296000082046	1.0235557998529998	1.4884067999664126	248.24864180013537	0.992750900099054	247.22567970003	1	1	29	4	go_punish	0	-1	0	1	1	1	1	0.0	0.0	-1	0.3944145001005381	0.992750900099054	74.65198630001396	316.9594152001664	317.96287940000184	318.32720900001004	319.8500579001848	320.8736137000378	321.877666000044	322.90062810014933	323.9040282000788	325.3924350000452	2019-11-22 18:55:29.388086	0.880992770738963	-2.05943418059676	-3.71248955158464	-4.42126206419582	-2.83149678084568	-3.71248955158464	-0.880992770738963	-2.05943418059676	-3.71248955158464	-2.83149678084568	-3.71248955158464	-9.03136511736634	-7.2530543442552755	-6.632382725539038	-6.292691969866636	-11.94040242662572	-10.297878245430237	-6.292691969866636	-10.045100192472646	-11.921812279776077	-4.668757935520801	-9.696021688443292	-3.22905300696239	1	wrong	1.0
250.6707701999694	9.394031499978155	nogo_punish	1.0	250.7782382001169	253.55646430002525	256.0837930000853	2.778226099908352	251.79148120014003	255.06685090018436	259.1252838000655	1.764983099885228	1.0169420999009162	1.04698590002954	258.11960780015215	0.8150838001165539	257.0975369999651	1	1	30	3	nogo_punish	1	-1	0	0	0	1	0	0.0	1.0	0	1.0	0.8150838001165539	74.65198630001396	325.43022450013086	326.443467500154	328.2084506000392	329.7188372001983	330.73577930009924	331.74952329997905	332.7715941001661	333.7772701000795	334.824256000109	2019-11-22 18:55:29.388086	3.97499270004544	-5.04377280779678	-2.05943418059676	-5.65989991050201	-6.0344268806422	-2.05943418059676	-3.97499270004544	-2.05943418059676	-5.04377280779678	-2.05943418059676	-6.0344268806422	2.05943418059676	-4.159054414948798	-9.61672135273906	-4.639636598878758	-13.17904027293191	-13.500808345226757	-4.639636598878758	1.0456991054904548	-11.149749679527156	-6.990695264578361	-9.696021688443292	-4.560336263174531	1	correct	1.0
260.0989089999348	8.558971100021154	go_punish	1.0	260.2063770000823	262.25824190001003	264.77853430015966	2.0518648999277502	261.2110804000404	263.76288190018386	267.83438570005814	1.0471614999696612	1.0156523999758065	0.9309624000453027	266.82112330012023	0.6352890999987721	265.7933219000697	1	1	31	4	go_punish	1	0	-1	1	0	0	1	0.0	0.0	-1	1.0	0.6352890999987721	74.65198630001396	334.85836330009624	335.86306670005433	336.910228200024	338.4148682001978	339.4305206001736	340.4453082000837	341.4731096001342	342.4863720000721	343.4173344001174	2019-11-22 18:55:29.388086	0.985814932722557	-3.71248955158464	-3.71248955158464	-5.62174720376805	-4.6983044843072	-3.71248955158464	-0.985814932722557	-3.71248955158464	-3.71248955158464	-3.71248955158464	-4.6983044843072	-7.37830974637846	-7.1482321822716814	-8.285438096526917	-6.292691969866636	-13.14088756619795	-12.164685948891757	-6.292691969866636	-8.392044821484765	-12.802805050515037	-5.654572868243361	-11.34907705943117	-3.22905300696239	1	wrong	1.0
268.6910935000051	8.206643200013787	go_punish	0.6115838000550866	268.7985615001526	270.07194470008835	272.6245548001025	1.273383199935779	269.79047400015406	271.6030892999843	275.67809229996055	0.28147069993428886	1.021465500118211	1.327112400205806	274.6644682001788	0.8039094000123441	273.6406956000719	1	1	32	4	go_punish	1	0	-1	1	1	1	0	1.0	0.0	0	0.6115838000550866	0.8039094000123441	74.65198630001396	343.45054780016653	344.442460300168	344.7239310001023	346.25507559999824	347.27654110011645	348.2926819000859	349.3164545001928	350.3300785999745	351.6571910001803	2019-11-22 18:55:29.388086	0.17612269663994	-3.71248955158464	-5.04377280779678	-6.59209714766091	-4.86765011115684	-5.04377280779678	-0.17612269663994	-3.71248955158464	-5.04377280779678	-4.86765011115684	-5.04377280779678	3.71248955158464	-7.957924418354299	-8.285438096526917	-7.623975226078777	-14.11123751009081	-12.334031575741397	-7.623975226078777	2.698754476478334	-13.957965610087236	-6.000041191732941	-11.34907705943117	-4.560336263174531	1	wrong	1.0
276.93719549989333	9.418569100089314	nogo_punish	1.0	277.0446635000408	279.5409060001839	282.0705397001002	2.496242500143069	278.056322199991	281.0509324001614	285.11321069998667	1.4845838001929224	1.019607299938798	1.3500219001434743	284.10768670006655	0.4663815998937934	283.08906330005266	1	1	33	3	nogo_punish	1	-1	0	0	0	1	0	0.0	1.0	0	1.0	0.4663815998937934	74.65198630001396	351.6966498000548	352.70830850000493	354.19289230019785	355.70291870017536	356.72252600011416	357.7410496000666	358.7596730000805	359.7651970000006	361.1152189001441	2019-11-22 18:55:29.388086	4.16737938772534	-5.04377280779678	-1.65305537098789	-4.5649046274753	-5.82043475871322	-1.65305537098789	-4.16737938772534	-1.65305537098789	-5.04377280779678	-1.65305537098789	-5.82043475871322	1.65305537098789	-3.9666677272688986	-9.61672135273906	-4.233257789269887	-12.084044989905198	-13.286816223297777	-4.233257789269887	0.6393202958815845	-10.743370869918285	-6.776703142649381	-9.289642878834421	-4.560336263174531	1	correct	1.0
286.3935665998142	9.129800599999726	nogo_punish	1.0	286.5010345999617	288.98233920009807	291.5069417001214	2.4813046001363546	287.5139037000481	290.48706199997105	294.53775919997133	1.4684355000499636	1.0198797001503408	1.0930759999901056	293.53381850011647	0.3200701000168919	292.5204751000274	1	1	34	3	nogo_punish	1	-1	0	0	0	1	0	0.0	1.0	0	1.0	0.3200701000168919	74.65198630001396	361.1530208999757	362.16589000006206	363.634325500112	365.139048299985	366.15892800013535	367.17246140004136	368.1858048001304	369.1897454999853	370.2828214999754	2019-11-22 18:55:29.388086	4.32206519770854	-5.04377280779678	-1.33128325621214	-3.69364703604786	-5.65334845392068	-1.33128325621214	-4.32206519770854	-1.33128325621214	-5.04377280779678	-1.33128325621214	-5.65334845392068	1.33128325621214	-3.8119819172856992	-9.61672135273906	-3.911485674494137	-11.21278739847776	-13.119729918505236	-3.911485674494137	0.3175481811058345	-10.421598755142536	-6.609616837856841	-8.96787076405867	-4.560336263174531	1	correct	1.0
295.557698499877	8.630565700121224	go_reward	0.3740272000432014	295.6651665000245	297.172432300169	299.7894978001713	1.5072658001445234	296.6721971000079	298.76884350017644	302.8270286000333	0.5002352001611143	1.0206542999948738	1.4687036001124056	301.8223894000984	0.3715164000168443	300.80399300018325	1	1	35	2	go_reward	1	1	0	1	1	1	0	0.0	1.0	1	0.3740272000432014	0.3715164000168443	74.65198630001396	370.31715280003846	371.32418340002187	371.824418600183	373.4208298001904	374.4414841001853	375.4559793001972	376.4743757001124	377.4790149000473	378.9477185001597	2019-11-22 18:55:29.388086	25.1825766942835	20.7302423284904	0.0	20.7302423284904	25.1825766942835	0.0	-25.1825766942835	20.7302423284904	0.0	25.1825766942835	0.0	8.0288507524774	17.048529579289262	16.157293783548123	-2.580202418281997	13.211101966060502	17.716195229698943	-2.580202418281997	7.015115677371094	16.092261195353103	-0.9562683839361605	13.09365482064387	0.48343654462224994	1	correct	1.0
304.2220240999014	8.394917099969348	go_punish	0.630148199852556	304.32949210004887	306.17844240018167	308.7460718001239	1.848950300132799	305.33264770009555	307.72378590004524	311.80449090013286	0.8457947000861168	1.022285900078657	0.919918299885353	310.7903960000258	0.4489875000435859	309.75640820013365	1	1	36	4	go_punish	1	0	-1	1	1	1	0	0.0	1.0	0	0.630148199852556	0.4489875000435859	74.65198630001396	378.9814784000628	379.9846340001095	380.8304287001956	382.3757722000592	383.39805810013786	384.4083945001476	385.44238230003975	386.4564772001468	387.3763955000322	2019-11-22 18:55:29.388086	1.15229621806504	-2.98433862720002	-5.04377280779678	-5.31948314900132	-3.89147658973174	-5.04377280779678	-1.15229621806504	-2.98433862720002	-5.04377280779678	-3.89147658973174	-5.04377280779678	2.98433862720002	-6.981750896929199	-7.557287172142298	-7.623975226078777	-12.83862351143122	-11.357858054316296	-7.623975226078777	1.9706035520937146	-12.981792088662136	-6.000041191732941	-10.62092613504655	-4.560336263174531	1	correct	1.0
312.6525010999757	8.976083299843651	nogo_reward	0.2775485999882221	312.7599691001232	314.74386240006424	317.29406330012716	1.9838932999410304	313.77588730002753	316.2740527000278	320.33640490006655	0.9679751000367105	1.02001060009934	1.3996474999003112	319.33265650016256	0.458442399976775	318.31203979998827	1	1	37	1	nogo_reward	1	0	1	0	1	0	0	0.0	1.0	0	0.2775485999882221	0.458442399976775	74.65198630001396	387.4119554001372	388.4278736000415	389.3958487000782	390.9260390000418	391.9460496001411	392.96402610000223	393.9846428001765	394.9883912000805	396.3880386999808	2019-11-22 18:55:29.388086	3.61077778413077	10.1634906439268	10.1634906439268	16.6043478807049	13.7742684280576	10.1634906439268	-3.61077778413077	10.1634906439268	10.1634906439268	13.7742684280576	10.1634906439268	-10.1634906439268	-4.523269330863469	5.590542098984521	7.583288225644802	9.085207518275	6.307886963473043	7.583288225644802	-11.177225719033105	4.683952929127203	9.207222259990639	2.5269031360802687	10.64692718854905	1	correct	1.0
321.6765870000236	8.980957899941131	nogo_punish	1.0	321.78405500017107	323.7583709000609	326.27952990005724	1.9743158998898593	322.7868109000846	325.2657656001392	329.3271123999729	0.9715599999763072	1.013764299918023	1.4379005001392784	328.32178230001585	0.3228315999731421	327.2926643001847	1	1	38	3	nogo_punish	0	0	-1	0	0	1	0	0.0	1.0	-1	1.0	0.3228315999731421	74.65198630001396	396.436041300185	397.4387972000986	398.4103572000749	399.9177519001532	400.9315162000712	401.94465060019866	402.9737686000298	403.9790986999869	405.41699920012616	2019-11-22 18:55:29.388086	4.44683128231253	-5.04377280779678	-1.07561687125327	-2.99809222349949	-5.5224481535658	-1.07561687125327	-4.44683128231253	-1.07561687125327	-5.04377280779678	-1.07561687125327	-5.5224481535658	-10.01518242670983	-3.6872158326817086	-9.61672135273906	-3.655819289535267	-10.517232585929388	-12.988829618150357	-3.655819289535267	-11.028917501816135	-10.165932370183667	-6.478716537501961	-8.7122043790998	-4.560336263174531	1	correct	1.0
330.69972959998995	8.733140100026503	nogo_punish	1.0	330.80719760013744	332.505009500077	335.00255530001596	1.697811899939552	331.8156171999872	334.00660700001754	338.06268380000256	0.6893923000898212	0.9959482999984175	1.4776539001613855	337.04957989999093	0.6818476999178529	336.0216122001875	1	1	39	3	nogo_punish	1	-1	0	0	0	1	0	0.0	1.0	0	1.0	0.6818476999178529	74.65198630001396	405.4591839001514	406.46760350000113	407.15699580009095	408.6585933000315	409.6545416000299	410.6735985002015	411.7015662000049	412.7146701000165	414.1923240001779	2019-11-22 18:55:29.388086	2.8709514803663	-5.04377280779678	-2.93122766826085	-4.50044181236681	-5.80217914862715	-2.93122766826085	-2.8709514803663	-2.93122766826085	-5.04377280779678	-2.93122766826085	-5.80217914862715	2.93122766826085	-5.263095634627939	-9.61672135273906	-5.5114300865428465	-12.01958217479671	-13.268560613211708	-5.5114300865428465	1.9174925931545446	-12.021543167191247	-6.758447532563311	-10.56781517610738	-4.560336263174531	1	correct	1.0
339.4691542999353	8.329355000052601	go_reward	0.316100399941206	339.5766223000828	341.42633759998716	344.00186010007747	1.8497152999043465	340.58274480002007	342.9860704001039	347.0380753001664	0.843592799967098	1.0157896999735385	0.8679019999690354	346.02383840014227	0.4157926000189036	345.0055919000879	1	1	40	2	go_reward	1	1	0	1	1	1	0	0.0	1.0	1	0.316100399941206	0.4157926000189036	74.65198630001396	414.2286086000968	415.234731100034	416.0783239000011	417.6380567001179	418.6538464000914	419.65757820010185	420.6758247001562	421.69006160018034	422.5579636001494	2019-11-22 18:55:29.388086	26.9541332445206	22.2084047837735	0.0	22.2084047837735	26.9541332445206	0.0	-26.9541332445206	22.2084047837735	0.0	26.9541332445206	0.0	6.550688297194302	18.820086129526363	17.63545623883122	-2.580202418281997	14.6892644213436	19.487751779936044	-2.580202418281997	5.5369532220879965	17.863817745590204	-0.9562683839361605	14.571817275926968	0.48343654462224994	1	correct	1.0
347.83630019985134	9.632700999965948	nogo_reward	0.3126864000223577	347.94376819999883	350.726463700179	353.2956595001742	2.782695500180182	348.96022650017403	352.2721486000809	356.3325837000739	1.76623720000498	1.0235109000932994	1.2438854998908937	355.31922030006535	0.7603123998269439	354.30114820017485	1	1	41	1	nogo_reward	0	1	0	0	1	0	0	0.0	1.0	1	0.3126864000223577	0.7603123998269439	74.65198630001396	422.5957545000128	423.612212800188	425.37845000019297	426.9241349000949	427.9476458001882	428.9531345001888	429.9712066000793	430.98457000008784	432.22845549997874	2019-11-22 18:55:29.388086	0.750795309055212	8.07974686865283	10.1634906439268	13.2279703001621	10.914285952982	10.1634906439268	-0.750795309055212	8.07974686865283	10.1634906439268	10.914285952982	10.1634906439268	20.67934621231497	-7.383251805939027	3.5067983237105516	7.583288225644802	5.708829937732201	3.4479044883974437	7.583288225644802	19.665611137208668	1.8239704540516044	9.207222259990639	0.44315936080629914	10.64692718854905	1	correct	1.0
357.5053499999922	7.892686899984255	go_reward	0.4683670999947935	357.61281800013967	358.9569302001036	361.5474046000745	1.344112199963945	358.62711850018246	360.5232159001752	364.59922360000206	0.32981169992115156	1.0241886998992982	0.9062813001218615	363.59466530010104	0.7972337999381125	362.56605350016616	1	1	42	2	go_reward	1	1	0	1	1	1	1	0.0	0.0	1	0.4683670999947935	0.7972337999381125	74.65198630001396	432.2648043001536	433.2791048001964	433.6089165001176	435.1752022001892	436.1993909000885	437.2180398001801	438.246651600115	439.251209900016	440.1574912001379	2019-11-22 18:55:29.388086	28.3790914317441	23.4008343577541	0.0	23.4008343577541	28.3790914317441	0.0	-28.3790914317441	23.4008343577541	0.0	28.3790914317441	0.0	5.358258723213702	20.245044316749862	18.82788581281182	-2.580202418281997	15.8816939953242	20.912709967159543	-2.580202418281997	4.344523648107396	19.288775932813707	-0.9562683839361605	15.764246849907568	0.48343654462224994	1	wrong	1.0
365.43590599996975	9.589931000024023	go_reward	0.3366497000679374	365.54337400011724	368.38565000006935	370.93661760003306	2.8422759999521077	366.5560958001297	369.90385430003516	373.99188870005315	1.8295541999396505	1.032763299997896	1.1414163000881103	372.98737660003826	0.3747254000045359	371.9594178001862	1	1	43	2	go_reward	0	0	1	1	1	1	0	0.0	1.0	0	0.3366497000679374	0.3747254000045359	74.65198630001396	440.1953603001312	441.20808210014366	443.0376363000833	444.5558406000491	445.588603900047	446.61140410020016	447.6393629000522	448.6438750000671	449.7852913001552	2019-11-22 18:55:29.388086	29.5281584052436	24.3651748060284	0.0	24.3651748060284	29.5281584052436	0.0	-29.5281584052436	24.3651748060284	0.0	29.5281584052436	0.0	-24.3651748060284	21.394111290249363	19.79222626108612	-2.580202418281997	16.846034443598498	22.061776940659044	-2.580202418281997	-25.378909881134703	20.437842906313207	-0.9562683839361605	16.728587298181868	0.48343654462224994	1	correct	1.0
375.06117390003055	8.195766999851912	nogo_reward	0.4008285999298095	375.16864190017805	376.5454543000087	379.1184571001213	1.3768123998306692	376.183684800053	378.09616010007454	382.1675504001323	0.36176949995569885	1.0222970000467626	1.196858499897644	381.15459510008805	0.3713626000098884	380.1249830001033	1	1	44	1	nogo_reward	1	0	1	0	1	0	0	0.0	1.0	0	0.4008285999298095	0.3713626000098884	74.65198630001396	449.820628200192	450.835671100067	451.1974406000227	452.7481464000885	453.77044340013526	454.7769693001173	455.806581400102	456.8195367001463	458.0163952000439	2019-11-22 18:55:29.388086	5.42159751643295	12.1061114430223	10.1634906439268	16.2320058908077	15.5850881603598	10.1634906439268	-5.42159751643295	12.1061114430223	10.1634906439268	15.5850881603598	10.1634906439268	-12.1061114430223	-2.712449598561289	7.533162898080022	7.583288225644802	8.7128655283778	8.118706695775245	7.583288225644802	-13.119846518128606	6.494772661429405	9.207222259990639	4.469523935175769	10.64692718854905	1	correct	1.0
383.2920714998618	8.481236400082707	go_punish	0.3333440001588315	383.39953950000927	384.87593780015595	387.46427800017415	1.476398300146684	384.4054488001857	386.44275090005254	390.49688690016046	0.4704889999702573	1.0215271001216024	1.3838889999315143	389.50255120010115	0.8225746999960393	388.48072220012546	1	1	45	4	go_punish	1	0	-1	1	1	1	0	0.0	1.0	0	0.3333440001588315	0.8225746999960393	74.65198630001396	458.0515258000232	459.05743510019965	459.5279241001699	461.0947372000665	462.1162643001881	463.1327085001394	464.1545375001151	465.1488732001744	466.53276220010594	2019-11-22 18:55:29.388086	1.92347697950291	-2.40690012746541	-5.04377280779678	-4.30640733621499	-3.12029582829387	-5.04377280779678	-1.92347697950291	-2.40690012746541	-5.04377280779678	-3.12029582829387	-5.04377280779678	2.40690012746541	-6.210570135491329	-6.979848672407688	-7.623975226078777	-11.82554769864489	-10.586677292878427	-7.623975226078777	1.3931650523591046	-12.210611327224266	-6.000041191732941	-10.04348763531194	-4.560336263174531	1	correct	1.0
391.8080249999185	8.664655100088453	go_reward	0.4098472998011857	391.91549300006596	393.48049250012264	396.03951000003144	1.5649995000566719	392.93139990000054	395.02469060011214	399.09568320005206	0.5490926001220942	1.014819399919304	1.4844649001023527	398.0826642001048	0.4836288001388311	397.05546670011245	1	1	46	2	go_reward	1	1	0	1	1	1	0	0.0	1.0	1	0.4098472998011857	0.4836288001388311	74.65198630001396	466.5674793000799	467.5833862000145	468.1324788001366	469.6766769001261	470.6914963000454	471.7074530001264	472.73465050011873	473.747669500066	475.2321344001684	2019-11-22 18:55:29.388086	23.5450943620795	19.4817311494704	0.0	19.4817311494704	23.5450943620795	0.0	-23.5450943620795	19.4817311494704	0.0	23.5450943620795	0.0	9.277361931497403	15.41104724708526	14.90878260452812	-2.580202418281997	11.962590787040499	16.078712897494942	-2.580202418281997	8.263626856391097	14.454778863149103	-0.9562683839361605	11.845143641623867	0.48343654462224994	1	correct	1.0
400.5093666999601	9.069541099946946	go_punish	0.3008626999799162	400.6168347001076	402.80738899996504	405.4035714000929	2.1905542998574674	401.6309844001662	404.37117310008034	408.47449310007505	1.1764045997988433	1.0323983000125736	1.2118826999794692	407.4608281000983	0.3408552999608218	406.4263019000645	1	1	47	4	go_punish	1	0	-1	1	1	1	1	1.0	1.0	0	0.3008626999799162	0.3408552999608218	74.65198630001396	475.26882100012153	476.28297070018016	477.459375299979	479.0231594000943	480.0555577001069	481.0782882000785	482.11281440011226	483.126479400089	484.3383621000685	2019-11-22 18:55:29.388086	2.53481574721108	-1.94741035891737	-5.04377280779678	-3.49724507103594	-2.50895706058569	-5.04377280779678	-2.53481574721108	-1.94741035891737	-5.04377280779678	-2.50895706058569	-5.04377280779678	1.94741035891737	-5.599231367783158	-6.520358903859648	-7.623975226078777	-11.016385433465839	-9.975338525170248	-7.623975226078777	0.9336752838110645	-11.599272559516086	-6.000041191732941	-9.5839978667639	-4.560336263174531	1	correct	1.0
409.6166123999283	8.177166600013152	go_punish	0.3240108999889344	409.72408040007576	411.2192957000807	413.7928061999846	1.4952153000049293	410.72719700005837	412.78133620019076	416.84499360015616	0.4920987000223249	1.01146999979386	1.056253399932757	415.83194790012203	0.3107676000799984	414.81346960016526	1	1	48	4	go_punish	1	0	-1	1	1	1	0	0.0	1.0	0	0.3240108999889344	0.3107676000799984	74.65198630001396	484.3760667000897	485.3791833000723	485.87128200009465	487.4333225002047	488.4447924999986	489.4654559001792	490.483934200136	491.4969799001701	492.5532333001029	2019-11-22 18:55:29.388086	3.02106026273058	-1.58056600027527	-5.04377280779678	-2.84886041436912	-2.02271254506619	-5.04377280779678	-3.02106026273058	-1.58056600027527	-5.04377280779678	-2.02271254506619	-5.04377280779678	1.58056600027527	-5.112986852263659	-6.153514545217548	-7.623975226078777	-10.36800077679902	-9.489094009650746	-7.623975226078777	0.5668309251689645	-11.113028043996586	-6.000041191732941	-9.2171535081218	-4.560336263174531	1	correct	1.0
417.8924561999738	9.533912400016561	nogo_punish	1.0	417.9999242001213	420.97850410011597	423.5095397999976	2.9785798999946564	419.01570100011304	422.48799220006913	426.56511009996757	1.9628031000029296	1.0215475999284536	0.9687265001703054	425.55235410016036	0.3758878998924047	424.5183324001264	1	1	49	3	nogo_punish	1	-1	0	0	0	1	0	0.0	1.0	0	1.0	0.3758878998924047	74.65198630001396	492.6519105001353	493.667687300127	495.63049040012993	497.1399785000831	498.16152610001154	499.17031870014034	500.2043404001743	501.21709639998153	502.18582290015183	2019-11-22 18:55:29.388086	3.27766531546566	-5.04377280779678	-2.36182788359907	-3.64647765092857	-5.63949319906473	-2.36182788359907	-3.27766531546566	-2.36182788359907	-5.04377280779678	-2.36182788359907	-5.63949319906473	2.36182788359907	-4.856381799528579	-9.61672135273906	-4.942030301881067	-11.16561801335847	-13.105874663649287	-4.942030301881067	1.3480928084927644	-11.452143382529465	-6.595761583000891	-9.9984153914456	-4.560336263174531	1	correct	1.0
427.467386299977	8.61923189996753	nogo_punish	1.0	427.5748543001245	429.14007119997405	431.66422190004965	1.5652168998495313	428.57417260017246	430.64320300007245	434.6945547000505	0.5658985998015851	1.0210188999772072	1.4995315000415417	433.6899747001007	0.3519874999765306	432.67624250007793	1	1	50	3	nogo_punish	1	-1	0	0	0	1	0	0.0	1.0	0	1.0	0.3519874999765306	74.65198630001396	502.2268406001385	503.2261589001864	503.792057499988	505.2951893000864	506.3162082000636	507.3282288000919	508.3419610001147	509.34654100006446	510.846072500106	2019-11-22 18:55:29.388086	3.60269611071175	-5.04377280779678	-1.90925765218341	-2.96399413280469	-5.51195376289516	-1.90925765218341	-3.60269611071175	-1.90925765218341	-5.04377280779678	-1.90925765218341	-5.51195376289516	1.90925765218341	-4.531351004282489	-9.61672135273906	-4.489460070465407	-10.483134495234589	-12.978335227479716	-4.489460070465407	0.8955225770771045	-10.999573151113806	-6.46822214683132	-9.545845160029941	-4.560336263174531	1	correct	1.0
436.12282329984015	9.554948400007504	go_punish	0.2975492000114172	436.23029129998764	438.7636914001778	441.3306867000647	2.5334001001901356	437.2478834001813	440.30248670000583	444.3703054001089	1.5158079999964684	1.0282000000588596	1.4149342998862267	443.3569855999667	0.3188218001741916	442.34136990015395	1	1	51	4	go_punish	1	0	-1	1	1	1	0	0.0	1.0	0	0.2975492000114172	0.3188218001741916	74.65198630001396	510.8822776000016	511.89986970019527	513.4156777001917	514.9544730000198	515.9826730000786	516.9933562001679	518.0089718999807	519.0222917001229	520.4372260000091	2019-11-22 18:55:29.388086	3.40905985747534	-1.28674690858245	-5.04377280779678	-2.32767341319084	-1.63471295032144	-5.04377280779678	-3.40905985747534	-1.28674690858245	-5.04377280779678	-1.63471295032144	-5.04377280779678	1.28674690858245	-4.724987257518899	-5.859695453524728	-7.623975226078777	-9.84681377562074	-9.101094414905997	-7.623975226078777	0.27301183347614466	-10.725028449251836	-6.000041191732941	-8.92333441642898	-4.560336263174531	1	correct	1.0
445.752480099909	9.548677599988878	nogo_punish	1.0	445.8599481000565	448.57920200005174	451.1103869001381	2.7192538999952376	446.85816249996424	450.08487510005943	454.1571279000491	1.7210395000874996	1.0255118000786752	1.2514977999962866	453.1544145999942	0.3298811002168804	452.1252751001157	1	1	52	3	nogo_punish	0	0	-1	0	0	1	1	1.0	1.0	-1	1.0	0.3298811002168804	74.65198630001396	520.5119344000705	521.5101487999782	523.2311883000657	524.7368614000734	525.7623732001521	526.7772614001296	527.8064009000082	528.809114200063	530.0606120000593	2019-11-22 18:55:29.388086	3.86331166916264	-5.04377280779678	-1.54832433986413	-2.4167588557959	-5.41163600902677	-1.54832433986413	-3.86331166916264	-1.54832433986413	-5.04377280779678	-1.54832433986413	-5.41163600902677	-9.54247495809897	-4.270735445831599	-9.61672135273906	-4.128526758146127	-9.9358992182258	-12.878017473611326	-4.128526758146127	-10.556210033205275	-10.638639838794527	-6.367904392962931	-9.18491184771066	-4.560336263174531	1	correct	1.0
455.3402417998295	8.419480100041255	nogo_punish	1.0	455.447709799977	457.2737698000856	459.8118651001714	1.826060000108555	456.4598058999982	458.7873052000068	462.8427238999866	0.8139639000874013	1.0245599001646042	1.0244660000316799	461.82874820008874	0.3170417998917401	460.8160612001084	1	1	53	3	nogo_punish	0	0	-1	0	0	1	0	0.0	1.0	-1	1.0	0.3170417998917401	74.65198630001396	530.099696099991	531.1117922000121	531.9257561000995	533.4392915000208	534.4638514001854	535.4680475001223	536.4807345001027	537.4947102000006	538.5191762000322	2019-11-22 18:55:29.388086	2.39612936707808	-5.04377280779678	-3.31896183114478	-4.0360004622444	-5.71509119822286	-3.31896183114478	-2.39612936707808	-3.31896183114478	-5.04377280779678	-3.31896183114478	-5.71509119822286	-7.7718374668183206	-5.737917747916159	-9.61672135273906	-5.899164249426777	-11.5551408246743	-13.181472662807415	-5.899164249426777	-8.785572541924626	-12.409277330075176	-6.67135958215902	-10.955549338991311	-4.560336263174531	1	correct	1.0
463.7933200998232	8.06304380018264	go_punish	0.3596450998447835	463.90078809997067	465.33351909997873	467.93011269997805	1.4327310000080615	464.9063941000495	466.9127785000019	470.9956835000776	0.4271249999292195	1.017334199976176	0.9681484000757337	469.97447290015407	0.3155144001357257	468.9456056000199	1	1	54	4	go_punish	1	0	-1	1	1	1	0	0.0	1.0	0	0.3596450998447835	0.3155144001357257	74.65198630001396	538.5527743999846	539.5583804000635	539.9855053999927	541.5647648000158	542.582098999992	543.5975919000339	544.626459200168	545.6476698000915	546.6158182001673	2019-11-22 18:55:29.388086	3.71963991514804	-1.05068186458213	-5.04377280779678	-1.90744750671489	-1.32413289264874	-5.04377280779678	-3.71963991514804	-1.05068186458213	-5.04377280779678	-1.32413289264874	-5.04377280779678	1.05068186458213	-4.414407199846199	-5.6236304095244085	-7.623975226078777	-9.42658786914479	-8.790514357233297	-7.623975226078777	0.03694678947582464	-10.414448391579135	-6.000041191732941	-8.687269372428661	-4.560336263174531	1	correct	1.0
471.89382090000436	8.981961299898103	go_reward	0.2881018999032676	472.00128890015185	474.0209686001763	476.5843089001719	2.019679700024426	473.0190791001078	475.56124559999444	479.6393846999854	1.0018895000685006	1.023063300177455	1.3438655000645667	478.6264429001603	0.4010240000206977	477.59705460001715	1	1	55	2	go_reward	1	1	0	1	1	1	0	0.0	1.0	1	0.2881018999032676	0.4010240000206977	74.65198630001396	546.6532752001658	547.6710654001217	548.6729549001902	550.2132319000084	551.2362952001859	552.2490409000311	553.2784292001743	554.2913709999993	555.6352365000639	2019-11-22 18:55:29.388086	25.7382522064057	21.2841289182348	0.0	21.2841289182348	25.7382522064057	0.0	-25.7382522064057	21.2841289182348	0.0	25.7382522064057	0.0	7.474964162733002	17.604205091411462	16.71118037329252	-2.580202418281997	13.7649885558049	18.271870741821143	-2.580202418281997	6.4612290876266965	16.647936707475303	-0.9562683839361605	13.647541410388268	0.48343654462224994	1	correct	1.0
480.9114402998239	8.593092700000852	go_reward	0.2919558000285178	481.0189082999714	483.2411078000441	485.794157900149	2.2221995000727475	482.0243485001847	484.77826320007443	488.85237560002133	1.2167592998594046	1.0158947000745684	0.7596253999508917	487.84212870011106	0.3707151000853628	486.8132866001688	1	1	56	2	go_reward	1	1	0	1	1	1	0	0.0	1.0	1	0.2919558000285178	0.3707151000853628	74.65198630001396	555.6708945999853	556.6763348001987	557.8930941000581	559.4302495000884	560.446144200163	561.4652729001828	562.494115000125	563.5043619000353	564.2639872999862	2019-11-22 18:55:29.388086	27.4779405638176	22.7184791442433	0.0	22.7184791442433	27.4779405638176	0.0	-27.4779405638176	22.7184791442433	0.0	27.4779405638176	0.0	6.040613936724501	19.343893448823362	18.145530599301022	-2.580202418281997	15.1993387818134	20.011559099233043	-2.580202418281997	5.026878861618195	18.387625064887203	-0.9562683839361605	15.081891636396769	0.48343654462224994	1	correct	1.0
489.5384610998444	8.487834200030193	nogo_reward	0.2878930999431759	489.6459290999919	491.3091482000891	493.8732102001086	1.6632191000971943	490.65312859998085	492.8406799000222	496.9157400999684	0.6560196001082659	1.0325303000863642	1.2180232000537217	495.9032715000212	0.5540995001792908	494.8849581000395	1	1	57	1	nogo_reward	1	0	1	0	1	0	0	0.0	1.0	0	0.2878930999431759	0.5540995001792908	74.65198630001396	564.2979154000059	565.3051148999948	565.9611345001031	567.4926662000362	568.5251965001225	569.5369444000535	570.5552578000352	571.5677263999823	572.7857496000361	2019-11-22 18:55:29.388086	2.22004392690202	9.64645986919184	10.1634906439268	12.9616401465591	12.3835345708288	10.1634906439268	-2.22004392690202	9.64645986919184	10.1634906439268	12.3835345708288	10.1634906439268	-9.64645986919184	-5.914003188092218	5.073511324249562	7.583288225644802	5.4424997841292	4.9171531062442435	7.583288225644802	-10.660194944298146	3.2932190718984042	9.207222259990639	2.0098723613453098	10.64692718854905	1	correct	1.0
498.06007839995436	9.491977900033817	go_punish	0.2611342000309378	498.16754640010186	500.60488440003246	503.1569068999961	2.4373379999306053	499.1698345001787	502.1368480999954	506.19712010002695	1.435049899853766	1.0200588000006974	1.4624042001087219	505.1775706000626	0.2730590999126434	504.16300439997576	1	1	58	4	go_punish	1	0	-1	1	1	1	0	0.0	1.0	0	0.2611342000309378	0.2730590999126434	74.65198630001396	572.8195327001158	573.8218208001927	575.2568707000464	576.7888344000094	577.8088932000101	578.8149906999897	579.8295569000766	580.8491064000409	582.3115106001496	2019-11-22 18:55:29.388086	3.96901202781115	-0.860441631494785	-5.04377280779678	-1.56761201386365	-1.07476077998563	-5.04377280779678	-3.96901202781115	-0.860441631494785	-5.04377280779678	-1.07476077998563	-5.04377280779678	0.860441631494785	-4.165035087183089	-5.433390176437063	-7.623975226078777	-9.08675237629355	-8.541142244570187	-7.623975226078777	-0.15329344361152042	-10.165076278916025	-6.000041191732941	-8.497029139341315	-4.560336263174531	1	correct	1.0
507.58710290002637	9.58480429998599	go_reward	0.2499301999341696	507.69457090017386	510.2950254001189	512.8855523001403	2.6004544999450445	508.7099534000736	511.85592140001245	515.9262304001022	1.5850720000453293	1.0296309001278132	1.3531448000576347	514.9223954000045	0.7255568001419306	513.894326500129	1	1	59	2	go_reward	1	1	0	1	1	1	0	0.0	1.0	1	0.2499301999341696	0.7255568001419306	74.65198630001396	582.3465572001878	583.3619397000875	584.9470117001329	586.5079077000264	587.5375386001542	588.5463128001429	589.5743817000184	590.5782167001162	591.9313615001738	2019-11-22 18:55:29.388086	28.8620731936011	23.8633439796052	0.0	23.8633439796052	28.8620731936011	0.0	-28.8620731936011	23.8633439796052	0.0	28.8620731936011	0.0	4.8957491013626	20.72802607860686	19.290395434662923	-2.580202418281997	16.344203617175303	21.39569172901654	-2.580202418281997	3.8820140262562948	19.771757694670704	-0.9562683839361605	16.22675647175867	0.48343654462224994	1	correct	1.0
517.2140353999566	8.61568049993366	nogo_punish	1.0	517.3215034001041	519.0675233001821	521.6070526000112	1.746019900077954	518.3304143999703	520.5849409999792	524.655637799995	0.7371089002117515	1.0221116000320762	1.2815461000427604	523.6516697001643	0.298303599935025	522.6226646001451	1	1	60	3	nogo_punish	1	-1	0	0	0	1	0	0.0	1.0	0	1.0	0.298303599935025	74.65198630001396	591.9734897001181	592.9824006999843	593.719509600196	595.2369272999931	596.2590389000252	597.274650900159	598.3036560001783	599.307624100009	600.5891702000517	2019-11-22 18:55:29.388086	1.21327597020509	-5.04377280779678	-4.74020327267012	-5.33386622009438	-5.95347924287521	-4.74020327267012	-1.21327597020509	-4.74020327267012	-5.04377280779678	-4.74020327267012	-5.95347924287521	4.74020327267012	-6.920771144789149	-9.61672135273906	-7.320405690952118	-12.85300658252428	-13.419860707459767	-7.320405690952118	3.7264681975638148	-13.830518771600516	-6.909747626811371	-12.37679078051665	-4.560336263174531	1	correct	1.0
