onset	duration	trial_type	response_time	cueOnset	targetOnset	fbOnset	cueRT	firstfixOnset	secondfixOnset	waitOnset	firstfixdur	secondfixdur	waitdur	nback_fbOnset	nback_response_time	nback_targetOnset	block	wm	trial	cue	cond	is_common	outcome_go	outcome_nogo	key_correct	key_pressed	is_correct	key_correct_nback	key_pressed_nback	is_correct_nback	outcome	rt	rt_nback	time_scan	time_onset	time_isi1	time_circle	time_isi2	time_feedback	time_same	time_correct	time_iti	time_done	timestamp_scan	DV	Qgo	Qnogo	SV	Wgo	Wnogo	mDV	Qchosen	Qunchosen	Wchosen	Wunchosen	PE	DVC	QgoC	QnogoC	SVC	WgoC	WnogoC	PEC	WchosenC	WunchosenC	QchosenC	QunchosenC	run	outcome_nback	nback_targetResp
0.0	8.645454799989238	nogo_punish	1.0	0.03007779992185533	1.6152566999662668	4.150291800033301	1.5851789000444114	1.03519789990969	3.119759700028226	7.213781400118023	0.5800588000565767	1.0305321000050753	1.4617511997930706	6.202215600060299	0.8037842002231628	5.171467900043353	1	1	61	3	nogo_punish	1	-1	0	0	0	1	0	0.0	1.0	0	1.0	0.8037842002231628	675.1174574000761	675.147535199998	676.1526552999858	676.7327141000424	678.2372171001043	679.2677492001094	680.2889253001194	681.3196730001364	682.3312388001941	683.7929899999872	2019-11-22 19:05:29.864110	1.93337520304335	-5.04377280779678	-3.82540082670742	-4.31824501735211	-5.75877602975076	-3.82540082670742	-1.93337520304335	-3.82540082670742	-5.04377280779678	-3.82540082670742	-5.75877602975076	3.82540082670742	-6.200671911950889	-9.61672135273906	-6.4056032449894165	-11.83738537978201	-13.225157494335317	-6.4056032449894165	2.8116657516011143	-12.915716325637817	-6.715044413686921	-11.46198833455395	-4.560336263174531	2	correct	1.0
8.735138500109315	9.613349399995059	go_punish	1.0	8.76521630003117	11.383640500018373	13.91988840000704	2.618424199987203	9.77304990007542	12.89888589992188	16.97708430001512	1.6105905999429524	1.0210025000851601	1.4014814000111073	15.972871599951759	0.4833724999334663	14.934878699947149	1	1	62	4	go_punish	1	0	-1	1	0	0	0	0.0	1.0	-1	1.0	0.4833724999334663	675.1174574000761	683.8826737001073	684.8905073001515	686.5010979000945	688.016343299998	689.0373458000831	690.0523361000232	691.0903290000279	692.0945417000912	693.4960231001023	2019-11-22 19:05:29.864110	-4.16983996028917	-0.706675371358229	-5.04377280779678	-1.29198449854318	-0.873932847507606	-5.04377280779678	4.16983996028917	-5.04377280779678	-0.706675371358229	-5.04377280779678	-0.873932847507606	-6.04702649016632	-12.30388707528341	-5.279623916300507	-7.623975226078777	-8.811124860973079	-8.340314312092163	-7.623975226078777	-7.060761565272625	-14.134088306727175	-1.8302012314437666	-12.680360315643311	-0.22323882673597906	2	correct	1.0
18.382062999997288	8.282928600208834	go_punish	0.2655554998200387	18.412140799919143	20.26762649999	22.882250299910083	1.855485700070858	19.414201600011438	21.84219509991817	25.929365100106224	0.8534248999785632	1.0400551999919116	0.7657043000217527	24.91640070010908	0.5768083001021296	23.898265100084245	1	1	63	4	go_punish	1	0	-1	1	1	1	0	0.0	1.0	0	0.2655554998200387	0.5768083001021296	675.1174574000761	693.5295981999952	694.5316590000875	695.3850839000661	696.9596524999943	697.9997076999862	699.0157225001603	700.0338581001852	701.0468225001823	701.8125268002041	2019-11-22 19:05:29.864110	4.90040465176559	-0.706675371358229	-6.11938967905005	-3.12722772788129	-1.21898502728447	-6.11938967905005	-4.90040465176559	-0.706675371358229	-6.11938967905005	-1.21898502728447	-6.11938967905005	0.706675371358229	-3.233642463228649	-5.279623916300507	-8.699592097332047	-10.646368090311189	-8.685366491869027	-8.699592097332047	-0.30705970374807645	-10.309300526214866	-7.075658062986211	-8.34326287920476	-5.6359531344278	2	correct	1.0
26.697748800041154	7.809021699940786	nogo_reward	0.3799479999579489	26.72782659996301	28.200088900048286	30.744284000014886	1.4722623000852764	27.729951800080016	29.729576699901372	33.786992399953306	0.47013709996826947	1.014707300113514	0.7498558999504894	32.77380540012382	0.7323940000496805	31.74474640004337	1	1	64	1	nogo_reward	0	1	0	0	1	0	0	0.0	1.0	1	0.3799479999579489	0.7323940000496805	675.1174574000761	701.8452840000391	702.8474092001561	703.3175463001244	704.8470340999775	705.861741400091	706.8622038001195	707.8912628001999	708.9044498000294	709.6543056999799	2019-11-22 19:05:29.864110	-0.295876497324012	7.70740487875565	10.1634906439268	10.3779969080194	9.86761414660281	10.1634906439268	0.295876497324012	7.70740487875565	10.1634906439268	9.86761414660281	10.1634906439268	21.05168820221215	-8.429923612318252	3.1344563338133717	7.583288225644802	2.8588565455895	2.401232682018253	7.583288225644802	20.037953127105848	0.7772986476724135	9.207222259990639	0.07081737090911933	10.64692718854905	2	correct	1.0
34.541282900143415	9.164953999919817	nogo_reward	0.300451299874112	34.57136070006527	36.62478439998813	39.22917840001173	2.0534236999228597	35.58727620006539	38.20344500010833	42.289802599931136	1.0375081999227405	1.0257333999034017	1.4465121000539511	41.27102659991942	0.4230557000264525	40.24402719992213	1	1	65	1	nogo_reward	1	0	1	0	1	0	0	0.0	1.0	0	0.300451299874112	0.4230557000264525	675.1174574000761	709.6888181001414	710.7047336001415	711.7422418000642	713.3209024001844	714.3466358000878	715.3614845999982	716.3884839999955	717.4072600000072	718.8537721000612	2019-11-22 19:05:29.864110	4.63350153694342	11.8397812894193	10.1634906439268	13.9965513116743	14.7969921808702	10.1634906439268	-4.63350153694342	11.8397812894193	10.1634906439268	14.7969921808702	10.1634906439268	-11.8397812894193	-3.5005455780508186	7.266832744477021	7.583288225644802	6.477410949244401	7.330610716285643	7.583288225644802	-12.853516364525605	5.706676681939804	9.207222259990639	4.203193781572769	10.64692718854905	2	correct	1.0
43.74299590010196	9.00963840004988	go_reward	0.3108784998767078	43.773073700023815	45.94123449991457	48.54070629994385	2.1681607998907566	44.77819980005734	47.514972700038925	51.56910550012253	1.163034699857235	1.0257335999049246	1.213606599951163	50.56686570006423	0.6003596999216825	49.5537807000801	1	1	66	2	go_reward	1	1	0	1	1	1	0	0.0	1.0	1	0.3108784998767078	0.6003596999216825	675.1174574000761	718.8905311000999	719.8956572001334	721.0586918999907	722.632430100115	723.6581637000199	724.6712381001562	725.6843231001403	726.6865629001986	727.9001695001498	2019-11-22 19:05:29.864110	29.9665600372283	24.7798169572818	0.0	24.7798169572818	29.9665600372283	0.0	-29.9665600372283	24.7798169572818	0.0	29.9665600372283	0.0	3.9792761236860024	21.832512922234063	20.20686841233952	-2.580202418281997	17.2606765948519	22.500178572643744	-2.580202418281997	2.9655410485796967	20.876244538297904	-0.9562683839361605	17.143229449435267	0.48343654462224994	2	correct	1.0
52.78748070006259	8.006698700133711	nogo_reward	0.3255235000979155	52.81755849998444	54.21675210003741	56.808296400122344	1.3991936000529677	53.83314860006794	55.790274899918586	59.86145310010761	0.3836034999694675	1.0180215002037585	0.9628041000105441	58.850815600017086	0.5418499999213964	57.81922639999539	1	1	67	1	nogo_reward	1	0	1	0	1	0	1	0.0	0.0	0	0.3255235000979155	0.5418499999213964	675.1174574000761	727.9350159000605	728.950606000144	729.3342095001135	730.9077322999947	731.9257538001984	732.9366838000715	733.9682730000932	734.9789105001837	735.9417146001942	2019-11-22 19:05:29.864110	1.62658556323671	9.45770509264771	10.1634906439268	11.2038560906082	11.7900762071635	10.1634906439268	-1.62658556323671	9.45770509264771	10.1634906439268	11.7900762071635	10.1634906439268	-9.45770509264771	-6.507461551757529	4.884756547705432	7.583288225644802	3.6847157281783005	4.323694742578943	7.583288225644802	-10.471440167754016	2.6997607082331037	9.207222259990639	1.82111758480118	10.64692718854905	2	wrong	1.0
60.829690100159496	9.415041599888355	go_reward	0.2991750000510365	60.85976790008135	63.450965400086716	65.99537539994344	2.5911975000053644	61.8719107999932	64.97239909996279	69.0313901999034	1.5790546000935137	1.0229762999806553	1.2434193000663072	68.01427510008216	1.0	67.00577450008132	1	1	68	2	go_reward	0	0	1	1	1	1	1	n/a	0.0	1	0.2991750000510365	1.0	675.1174574000761	735.9772253001574	736.9893682000693	738.5684228001628	740.0898565000389	741.1128328000195	742.1232319001574	743.1317325001583	744.1488475999795	745.3922669000458	2019-11-22 19:05:29.864110	30.8504440176088	25.5155609576166	0.0	25.5155609576166	30.8504440176088	0.0	-30.8504440176088	25.5155609576166	0.0	30.8504440176088	0.0	-25.5155609576166	22.716396902614562	20.942612412674322	-2.580202418281997	17.9964205951867	23.384062553024243	-2.580202418281997	-26.529296032722904	21.760128518678407	-0.9562683839361605	17.87897344977007	0.48343654462224994	2	missed	0.0
70.27787460014224	9.38022269983776	go_reward	1.0	70.3079524000641	72.73724810010754	75.26309680007398	2.42929570004344	71.31269369996153	74.24350350000896	78.3038733000867	1.4245544001460075	1.0195933000650257	1.3843017998151481	77.29951569996774	0.2871920000761747	76.28174620005302	1	1	69	2	go_reward	1	1	0	1	0	0	0	0.0	1.0	0	1.0	0.2871920000761747	675.1174574000761	745.4254098001402	746.4301511000376	747.8547055001836	749.360960900085	750.3805542001501	751.3992036001291	752.4169731000438	753.4213307001628	754.805632499978	2019-11-22 19:05:29.864110	-31.5597929917106	26.1078766316445	0.0	26.1078766316445	31.5597929917106	0.0	31.5597929917106	0.0	26.1078766316445	0.0	31.5597929917106	0.0	-39.69384010670484	21.534928086702223	-2.580202418281997	18.5887362692146	24.093411527126044	-2.580202418281997	-1.0137350751063054	-9.090315498930396	30.603524607774443	-7.636587507846531	26.591313176266752	2	correct	1.0
79.71231890004128	9.616003500064835	nogo_punish	1.0	79.74239669996314	82.52978240000084	85.05683450005017	2.787385700037703	80.75558699993417	84.03215060010552	88.11502310005017	1.7741954000666738	1.0246838999446481	1.2433770999778062	87.10080150002614	0.5655618999153376	86.06649819994345	1	1	70	3	nogo_punish	0	0	-1	0	0	1	0	0.0	1.0	-1	1.0	0.5655618999153376	675.1174574000761	754.8598541000392	755.8730444000103	757.6472398000769	759.1496080001816	760.1742919001263	761.1839556000195	762.2182589001022	763.2324805001263	764.4758576001041	2019-11-22 19:05:29.864110	2.50912262699391	-5.04377280779678	-3.09722014558799	-3.50745516319715	-5.6063427725819	-3.09722014558799	-2.50912262699391	-3.09722014558799	-5.04377280779678	-3.09722014558799	-5.6063427725819	-7.99357915237511	-5.624924488000328	-9.61672135273906	-5.677422563869987	-11.02659552562705	-13.072724237166458	-5.677422563869987	-9.007314227481416	-12.187535644518386	-6.562611156518061	-10.733807653434521	-4.560336263174531	2	correct	1.0
89.36508110002615	9.27659110003151	nogo_punish	0.3023395999334752	89.395158899948	91.74176819995046	94.31349690002389	2.3466093000024557	90.40956409997307	93.2812618999742	97.35119200008921	1.332204099977389	1.0322350000496954	1.3205579998902977	96.34662399999797	0.6831091998610646	95.31835999991745	1	1	71	3	nogo_punish	1	-1	0	0	1	0	0	0.0	1.0	-1	0.3023395999334752	0.6831091998610646	675.1174574000761	764.5126163000241	765.5270215000492	766.8592256000265	768.3987193000503	769.4309543001	770.4358173999935	771.4640814000741	772.4686494001653	773.7892074000556	2019-11-22 19:05:29.864110	-1.2941472664885	-5.04377280779678	-4.57506357551165	-4.91742973307208	-5.86921084200015	-4.57506357551165	1.2941472664885	-5.04377280779678	-4.57506357551165	-5.86921084200015	-4.57506357551165	-6.04702649016632	-9.428194381482738	-9.61672135273906	-7.1552659937936465	-12.43657009550198	-13.335592306584708	-7.1552659937936465	-7.060761565272625	-14.959526340930546	-5.531331959447811	-12.680360315643311	-4.0916270308894	2	correct	1.0
98.67894200002775	9.129594100173563	go_reward	0.2227912000380456	98.7090197999496	101.2482583001256	103.80911380006	2.5392385001759976	99.7228894000873	102.78441939991899	106.86053670011461	1.525368900038302	1.0246944001410156	0.9780772000085562	105.85029780003242	0.4183358999434858	104.8257256001234	1	1	72	2	go_reward	1	1	0	1	1	1	0	0.0	1.0	1	0.2227912000380456	0.4183358999434858	675.1174574000761	773.8264772000257	774.8403468001634	776.3657157002017	777.9018767999951	778.9265712001361	779.9431830001995	780.9677552001085	781.9779941001907	782.9560713001993	2019-11-22 19:05:29.864110	30.4057778920174	26.1078766316445	0.0	20.9207889286562	30.4057778920174	0.0	-30.4057778920174	26.1078766316445	0.0	30.4057778920174	0.0	2.6512164493233	22.271730777023162	21.534928086702223	-2.580202418281997	13.401648566226301	22.939396427432843	-2.580202418281997	1.6374813742169947	21.315462393087003	-0.9562683839361605	18.47128912379797	0.48343654462224994	2	correct	1.0
107.84245310002007	8.744362100027502	nogo_reward	1.0	107.87253089994192	110.11589689995162	112.65449410001747	2.2433660000097007	108.88905180012807	111.62399760005064	115.70155710005201	1.2268450998235494	1.03049649996683	0.9153358999174088	114.68837919994257	0.4920023998711258	113.67091770004481	1	1	73	1	nogo_reward	1	0	1	0	0	1	0	0.0	1.0	1	1.0	0.4920023998711258	675.1174574000761	782.989988300018	784.0065092002042	785.2333543000277	786.7414550001267	787.7719515000936	788.7883751001209	789.8058366000187	790.8190145001281	791.7343504000455	2019-11-22 19:05:29.864110	0.742630333342195	7.57529827530925	10.1634906439268	8.99248882519825	9.42086031058462	10.1634906439268	-0.742630333342195	10.1634906439268	7.57529827530925	10.1634906439268	9.42086031058462	18.595602437041002	-7.391416781652044	3.002349730366972	7.583288225644802	1.4733484627683513	1.9544788460000637	7.583288225644802	17.581867361934698	1.0731751449964033	8.46459192664846	2.5269031360802687	8.0587348199315	2	correct	1.0
116.62263330002315	8.025171300163493	go_reward	0.5065854999702424	116.65271109994501	118.01616859994829	120.58381290012039	1.3634575000032783	117.65755670005456	119.56541489996016	123.63040410005488	0.3586118998937309	1.0183980001602322	1.0474783000536263	122.61733749997802	0.5203315999824554	121.59753810008988	1	1	74	2	go_reward	1	1	0	1	1	1	1	0.0	0.0	1	0.5065854999702424	0.5203315999824554	675.1174574000761	791.7701685000211	792.7750141001306	793.1336260000244	794.6828723000363	795.7012703001965	796.714995500166	797.7347949000541	798.747861500131	799.7953398001846	2019-11-22 19:05:29.864110	31.2309189976396	26.5860431349004	0.0	22.4748738426821	31.2309189976396	0.0	-31.2309189976396	26.5860431349004	0.0	31.2309189976396	0.0	2.173049946067401	23.09687188264536	22.013094589958122	-2.580202418281997	14.955733480252201	23.76453753305504	-2.580202418281997	1.1593148709610956	22.140603498709204	-0.9562683839361605	18.94945562705387	0.48343654462224994	2	wrong	1.0
124.6821105000563	8.399613999994472	go_punish	0.4241391001269221	124.71218829997815	126.09184650005773	128.64555760007352	1.3796582000795752	125.73186550009996	127.61253400007263	131.71089509990998	0.3599809999577701	1.033023600000888	1.4009072000626475	130.69353910000063	0.600972699932754	129.6639594999142	1	1	75	4	go_punish	1	0	-1	1	1	1	0	0.0	1.0	0	0.4241391001269221	0.600972699932754	675.1174574000761	799.8296457000542	800.849322900176	801.2093039001338	802.7299914001487	803.7630150001496	804.7814168999903	805.8109965000767	806.8283524999861	808.2292597000487	2019-11-22 19:05:29.864110	5.13668435052965	-0.582029012010424	-6.11938967905005	-2.53798370299139	-0.9827053285204	-6.11938967905005	-5.13668435052965	-0.582029012010424	-6.11938967905005	-0.9827053285204	-6.11938967905005	0.582029012010424	-2.9973627644645893	-5.154977556952702	-8.699592097332047	-10.05712406542129	-8.449086793104957	-8.699592097332047	-0.43170606309588144	-10.073020827450796	-7.075658062986211	-8.218616519856955	-5.6359531344278	2	correct	1.0
133.11738750012591	8.41239419998601	go_reward	0.4256570998113602	133.14746530004777	134.59072629990987	137.16635069996119	1.4432609998621047	134.15200600004755	136.15252629993483	140.20712790009566	0.4387202998623252	1.0138244000263512	1.3527315999381244	139.19321800000034	0.743066200055182	138.1806984001305	1	1	76	2	go_reward	1	1	0	1	1	1	1	0.0	0.0	1	0.4256570998113602	0.743066200055182	675.1174574000761	808.2649227001239	809.2694634001236	809.708183699986	811.2699837000109	812.2838081000373	813.2981558002066	814.3106754000764	815.3245853001717	816.6773169001099	2019-11-22 19:05:29.864110	31.8880161048514	26.9731102803647	0.0	23.7057650028935	31.8880161048514	0.0	-31.8880161048514	26.9731102803647	0.0	31.8880161048514	0.0	1.7859828006031009	23.75396898985716	22.400161735422422	-2.580202418281997	16.1866246404636	24.42163464026684	-2.580202418281997	0.7722477254967954	22.797700605921	-0.9562683839361605	19.33652277251817	0.48343654462224994	2	wrong	1.0
141.5662976000458	8.369655100163072	go_punish	0.350265699904412	141.59637539996766	143.38958840002306	145.97279740008526	1.7932130000554025	142.60066329990514	144.94367770012468	149.01447189995088	0.7889251001179218	1.0291196999605745	0.951558600179851	148.0012340999674	0.3713036000262946	146.9734696999658	1	1	77	4	go_punish	1	0	-1	1	1	1	1	1.0	1.0	0	0.350265699904412	0.3713036000262946	675.1174574000761	816.7138328000437	817.7181206999812	818.5070458000991	820.0611351002008	821.0902548001613	822.0909271000419	823.1186915000435	824.131929300027	825.0834879002068	2019-11-22 19:05:29.864110	5.32553122293672	-0.480700353047841	-6.11938967905005	-2.06664340495155	-0.793858456113333	-6.11938967905005	-5.32553122293672	-0.480700353047841	-6.11938967905005	-0.793858456113333	-6.11938967905005	0.480700353047841	-2.8085158920575184	-5.0536488979901195	-8.699592097332047	-9.58578376738145	-8.26023992069789	-8.699592097332047	-0.5330347220584645	-9.884173955043728	-7.075658062986211	-8.117287860894372	-5.6359531344278	2	correct	1.0
150.00463040010072	8.780356999952346	nogo_punish	1.0	150.03470820002258	151.88048380007967	154.40459490008652	1.8457756000570953	151.03803619998507	153.3893685999792	157.46235150005668	0.8424476000946015	1.0152263001073152	1.3527136999182403	156.45762780006044	0.4841537000611424	155.4197011999786	1	1	78	3	nogo_punish	0	0	-1	0	0	1	0	0.0	1.0	-1	1.0	0.4841537000611424	675.1174574000761	825.1521656000987	826.1554936000612	826.9979412001558	828.5068260000553	829.5220523001626	830.5371586000547	831.5750852001365	832.5798089001328	833.932522600051	2019-11-22 19:05:29.864110	2.5764319312678	-6.11938967905005	-4.57506357551165	-6.0485483491835	-7.15149550677946	-4.57506357551165	-2.5764319312678	-4.57506357551165	-6.11938967905005	-4.57506357551165	-7.15149550677946	-6.51573572245145	-5.557615183726439	-10.692338223992328	-7.1552659937936465	-13.5676887116134	-14.617876971364016	-7.1552659937936465	-7.529470797557756	-13.665379074442047	-8.10776389071562	-12.21165108335818	-5.6359531344278	2	correct	1.0
158.82513220002875	8.455033000092953	go_reward	0.4554536000359803	158.8552099999506	160.36227530008182	162.90440619993024	1.5070653001312166	159.86285519995727	161.88937480002642	165.9666146999225	0.49942010012455285	1.015031399903819	1.343628300121054	164.95398569991812	0.4344746000133455	163.91935390001163	1	1	79	2	go_reward	1	1	0	1	1	1	0	0.0	1.0	1	0.4554536000359803	0.4344746000133455	675.1174574000761	833.9726674000267	834.9803126000334	835.4797327001579	837.0068322001025	838.0218636000063	839.0368113000877	840.0714430999942	841.0840720999986	842.4277004001196	2019-11-22 19:05:29.864110	32.4129256908928	27.2872754338637	0.0	24.6835980569775	32.4129256908928	0.0	-32.4129256908928	27.2872754338637	0.0	32.4129256908928	0.0	1.4718176471040998	24.27887857589856	22.714326888921423	-2.580202418281997	17.1644576945476	24.94654422630824	-2.580202418281997	0.45808257199779434	23.322610191962404	-0.9562683839361605	19.65068792601717	0.48343654462224994	2	correct	1.0
167.31262320000678	8.362480400130153	nogo_reward	1.0	167.34270099992864	168.90697839995846	171.4470323000569	1.5642774000298232	168.34514479991049	170.42296470003203	174.48605150007643	0.5618336000479758	1.024067600024864	1.219129899982363	173.48089209990576	0.5938245998695493	172.45178280002438	1	1	80	1	nogo_reward	1	0	1	0	0	1	0	0.0	1.0	1	1.0	0.5938245998695493	675.1174574000761	842.4601584000047	843.4626021999866	844.0244358000346	845.5404221001081	846.564489700133	847.5692402001005	848.5983494999819	849.6035089001525	850.8226388001349	2019-11-22 19:05:29.864110	3.45768422337446	7.57529827530925	13.745001074897	12.9019186847946	10.2873168515226	13.745001074897	-3.45768422337446	13.745001074897	7.57529827530925	13.745001074897	10.2873168515226	15.0140920060708	-4.676362891619779	3.002349730366972	11.164798656615003	5.3827783223647	2.820935386938044	11.164798656615003	14.000356930964495	4.654685575966605	9.33104846758644	6.10841356705047	8.0587348199315	2	correct	1.0
175.70939259999432	9.059568900149316	go_reward	0.2959389998577535	175.73947039991617	178.18792099994607	180.74711379990913	2.4484506000299007	176.74948489991948	179.7249102999922	183.79313830006868	1.4384361000265926	1.022203499916941	1.0059009999968112	182.7783339000307	0.5012222998775542	181.75655449996702	1	1	81	2	go_reward	0	0	1	1	1	1	1	0.0	0.0	0	0.2959389998577535	0.5012222998775542	675.1174574000761	850.8569277999923	851.8669422999956	853.3053784000222	854.8423677000683	855.8645711999852	856.8740119000431	857.8957913001068	858.9105957001448	859.9164967001416	2019-11-22 19:05:29.864110	32.8335248296466	27.5429448627854	0.0	25.4626778109921	32.8335248296466	0.0	-32.8335248296466	27.5429448627854	0.0	32.8335248296466	0.0	-27.5429448627854	24.69947771465236	22.969996317843123	-2.580202418281997	17.943537448562203	25.36714336506204	-2.580202418281997	-28.556679937891705	23.743209330716205	-0.9562683839361605	19.90635735493887	0.48343654462224994	2	wrong	1.0
184.84116990002804	8.257561499951407	nogo_punish	1.0	184.8712476999499	186.6427591999527	189.17908199992962	1.7715115000028163	185.87163359997794	188.1579219000414	192.2136588001158	0.7711255999747664	1.0211600998882204	0.9151503997854888	191.20951929991134	0.4905537001322955	190.19510950008407	1	1	82	3	nogo_punish	1	-1	0	0	0	1	0	0.0	1.0	0	1.0	0.4905537001322955	675.1174574000761	859.988705100026	860.989091000054	861.7602166000288	863.2753793001175	864.2965394000057	865.3125669001602	866.3269766999874	867.3311162001919	868.2462665999774	2019-11-22 19:05:29.864110	1.55244541852788	-6.11938967905005	-5.76208703110875	-6.95904158445955	-7.31453244963663	-5.76208703110875	-1.55244541852788	-5.76208703110875	-6.11938967905005	-5.76208703110875	-7.31453244963663	5.76208703110875	-6.581601696466359	-10.692338223992328	-8.342289449390748	-14.47818194688945	-14.780913914221188	-8.342289449390748	4.748351956002445	-14.852402530039146	-8.27080083357279	-13.39867453895528	-5.6359531344278	2	correct	1.0
193.133260600036	9.216341500170529	nogo_reward	1.0	193.16333839995787	195.45061870012432	197.9782758001238	2.287280300166458	194.17922540009022	196.95560010010377	201.03650130005553	1.2713933000341058	1.022675700020045	1.3431786000728607	200.02307290001772	0.6526513998396695	198.9950300999917	1	1	83	1	nogo_reward	0	1	0	0	0	1	0	1.0	0.0	0	1.0	0.6526513998396695	675.1174574000761	868.280795800034	869.2966828001663	870.5680761002004	872.0730575001799	873.0957332001999	874.1124875000678	875.1405303000938	876.1539587001316	877.4971373002045	2019-11-22 19:05:29.864110	5.64145865204089	7.57529827530925	16.6043478807049	16.0023128229934	10.962889228664	16.6043478807049	-5.64145865204089	16.6043478807049	7.57529827530925	16.6043478807049	10.962889228664	-16.6043478807049	-2.492588462953349	3.002349730366972	14.024145462422902	8.4831724605635	3.4965077640794435	14.024145462422902	-17.618082955811204	7.514032381774504	10.00662084472784	8.967760372858368	8.0587348199315	2	wrong	1.0
202.38272110000253	8.353250600164756	nogo_reward	1.0	202.41279889992438	204.06225920002908	206.58843120001256	1.6494603001046926	203.4055478000082	205.56806090008467	209.6380610000342	0.6567114000208676	1.0203702999278903	1.1279885000549257	208.62484299996868	0.4817492000292986	207.5959791999776	1	1	84	1	nogo_reward	0	1	0	0	0	1	0	0.0	1.0	0	1.0	0.4817492000292986	675.1174574000761	877.5302563000005	878.5230052000843	879.1797166001052	880.6855183001608	881.7058886000887	882.7134366000537	883.7423004000448	884.7555184001103	885.8835069001652	2019-11-22 19:05:29.864110	2.98363712424032	7.57529827530925	13.2279703001621	12.8028133662798	10.2443331759217	13.2279703001621	-2.98363712424032	13.2279703001621	7.57529827530925	13.2279703001621	10.2443331759217	-13.2279703001621	-5.150409990753919	3.002349730366972	10.647767881880103	5.2836730038499	2.777951711337143	10.647767881880103	-14.241705375268406	4.1376548012317045	9.288064791985539	5.59138279231557	8.0587348199315	2	correct	1.0
210.76804300001822	7.995618300046772	nogo_reward	1.0	210.79812079994008	212.21257380000316	214.74066659994423	1.4144530000630766	211.801195200067	213.72835099999793	217.79386049997993	0.41137859993614256	1.0123155999463052	0.9998786000069231	216.78334320010617	0.8085368999745697	215.7590032001026	1	1	85	1	nogo_reward	0	1	0	0	0	1	1	0.0	0.0	0	1.0	0.8085368999745697	675.1174574000761	885.9155782000162	886.9186526001431	887.3300312000792	888.845808400074	889.8581240000203	890.8764606001787	891.9008006001823	892.911317900056	893.9111965000629	2019-11-22 19:05:29.864110	0.881777860457662	7.57529827530925	10.5667516845635	10.2710436655307	9.68497382410587	10.5667516845635	-0.881777860457662	10.5667516845635	7.57529827530925	10.5667516845635	9.68497382410587	-10.5667516845635	-7.252269254536577	3.002349730366972	7.986549266281502	2.7519033031008	2.2185923595213124	7.986549266281502	-11.580486759669805	1.4764361856331032	8.728705440169708	2.9301641767169686	8.0587348199315	2	wrong	1.0
218.7971920000855	8.670254399999976	go_punish	0.2952640999574214	218.82726980000734	220.6644806000404	223.20484000002034	1.8372108000330627	219.81946630007587	222.18505530012771	226.24841260001995	0.8450142999645323	1.0197846998926252	1.2491115999873728	225.24154930002987	0.3365688999183476	224.22220030007884	1	1	86	4	go_punish	1	0	-1	1	1	1	0	0.0	1.0	0	0.2952640999574214	0.3365688999183476	675.1174574000761	893.9447272000834	894.936923700152	895.7819380001165	897.3025127002038	898.3222974000964	899.3396577001549	900.359006700106	901.365870000096	902.6149816000834	2019-11-22 19:05:29.864110	5.476986639128	-0.398097422625324	-6.11938967905005	-1.68831179109377	-0.642403039922056	-6.11938967905005	-5.476986639128	-0.398097422625324	-6.11938967905005	-0.642403039922056	-6.11938967905005	0.398097422625324	-2.6570604758662384	-4.971045967567602	-8.699592097332047	-9.20745215352367	-8.108784504506612	-8.699592097332047	-0.6156376524809815	-9.732718538852453	-7.075658062986211	-8.034684930471855	-5.6359531344278	2	correct	1.0
227.50670250016265	8.686329499818385	go_reward	0.2945604999549687	227.5367803000845	229.22253030003048	231.78888170002028	1.6857499999459833	228.5479047000407	230.76566900010232	234.84309300011955	0.6746255999897812	1.0232126999179627	1.3800167997833341	233.8387356000021	0.3777205001097172	232.8099068000447	1	1	87	2	go_reward	1	1	0	1	1	1	0	0.0	1.0	1	0.2945604999549687	0.3777205001097172	675.1174574000761	902.6542377001606	903.6653621001168	904.3399877001066	905.8831264001784	906.9063391000964	907.9273642001208	908.9561930000782	909.9605504001956	911.340567199979	2019-11-22 19:05:29.864110	26.2595881084152	22.0863002304493	0.0	20.4199341413299	26.2595881084152	0.0	-26.2595881084152	22.0863002304493	0.0	26.2595881084152	0.0	6.672792850518501	18.125540993420962	17.513351685507022	-2.580202418281997	12.9007937789	18.793206643830644	-2.580202418281997	5.659057775412196	17.169272609484807	-0.9562683839361605	14.449712722602769	0.48343654462224994	2	correct	1.0
236.22656560014002	9.18425549985841	nogo_reward	1.0	236.25664340006188	238.67429170012474	241.1908148000947	2.417648300062865	237.2492337001023	240.17759010009468	244.23920170008194	1.4250580000224318	1.0132247000000234	1.2016971998383497	243.2246272000483	0.4029741999693215	242.1946984999813	1	1	88	1	nogo_reward	1	0	1	0	0	1	0	1.0	0.0	1	1.0	0.4029741999693215	675.1174574000761	911.374100800138	912.3666911001784	913.7917491002008	915.2950475001708	916.3082722001708	917.3121559000574	918.3420846001244	919.356659100158	920.5583562999964	2019-11-22 19:05:29.864110	-0.784979556848044	7.57529827530925	8.46340370887646	8.26208251740681	9.2483832657245	8.46340370887646	0.784979556848044	8.46340370887646	7.57529827530925	8.46340370887646	9.2483832657245	20.295689372091342	-8.919026671842282	3.002349730366972	5.883201290594462	0.7429421549769106	1.7820018011399439	5.883201290594462	19.281954296985038	-0.6269117900539367	8.29211488178834	0.8268162010299287	8.0587348199315	2	wrong	1.0
245.44545620004646	9.147594599984586	nogo_reward	1.0	245.47553399996832	247.84255949989893	250.38036249997094	2.3670254999306053	246.49140699999407	249.35669909999706	253.43499949993554	1.351152499904856	1.0236633999738842	1.1881291000173633	252.42077760002576	0.5007885000668466	251.38692319998506	1	1	89	1	nogo_reward	1	0	1	0	0	1	0	0.0	1.0	1	1.0	0.5007885000668466	675.1174574000761	920.5929914000444	921.6088644000702	922.960016899975	924.4741565000731	925.497819900047	926.5043806000612	927.5382350001018	928.5524569000116	929.740586000029	2019-11-22 19:05:29.864110	2.30829123806026	7.57529827530925	12.4617406832934	12.3288952450679	10.1534494452331	12.4617406832934	-2.30829123806026	12.4617406832934	7.57529827530925	12.4617406832934	10.1534494452331	16.297352397674402	-5.825755876933979	3.002349730366972	9.881538265011402	4.809754882638	2.6870679806485436	9.881538265011402	15.283617322568096	3.3714251843630034	9.19718106129694	4.825153175446869	8.0587348199315	2	correct	1.0
254.62805750011466	7.945083800004795	go_reward	0.4399932001251727	254.65813530003652	256.1435503999237	258.71140439994633	1.4854150998871773	255.6735489999411	257.67930840002373	261.75968339992687	0.4700013999826069	1.0320959999226034	0.8435357001144439	260.7463676999323	0.3966083000414073	259.7330287999939	1	1	90	2	go_reward	1	1	0	1	1	1	0	0.0	1.0	1	0.4399932001251727	0.3966083000414073	675.1174574000761	929.7755927001126	930.7910064000172	931.2610077999998	932.7967658000998	933.8288618000224	934.85048620007	935.8638251000084	936.877140800003	937.7206765001174	2019-11-22 19:05:29.864110	27.9724459631316	23.4239697319756	0.0	22.0857644796166	27.9724459631316	0.0	-27.9724459631316	23.4239697319756	0.0	27.9724459631316	0.0	5.335123348992202	19.838398848137363	18.85102118703332	-2.580202418281997	14.5666241171867	20.506064498547044	-2.580202418281997	4.321388273885896	18.882130464201204	-0.9562683839361605	15.787382224129068	0.48343654462224994	2	correct	1.0
262.6082636001521	9.529638799838722	nogo_reward	1.0	262.63834140007395	265.1300578000955	267.6524656000547	2.4917164000215735	263.6538561999331	266.6418850000483	270.7009479000699	1.476201600162426	1.0105806000063922	1.4670322998427991	269.6966268001123	0.3712081999983638	268.67040490009833	1	1	91	1	nogo_reward	0	1	0	0	0	1	1	1.0	1.0	0	1.0	0.3712081999983638	675.1174574000761	937.75579880015	938.7713136000092	940.2475152001716	941.7593424001244	942.7699230001308	943.7878623001744	944.8140842001884	945.818405300146	947.2854375999888	2019-11-22 19:05:29.864110	4.77666426176451	7.57529827530925	15.635440943549	15.5519398268357	10.8587766817845	15.635440943549	-4.77666426176451	15.635440943549	7.57529827530925	15.635440943549	10.8587766817845	-15.635440943549	-3.357382853229729	3.002349730366972	13.055238525267002	8.0327994644058	3.392395217199943	13.055238525267002	-16.649176018655304	6.545125444618604	9.902508297848339	7.998853435702469	8.0587348199315	2	correct	1.0
272.17246989998966	8.588527800049633	go_reward	0.6266335998661816	272.2025476999115	273.9237244001123	276.54743760009296	1.7211767002007718	273.20401780004613	275.52221049997036	279.57828129990946	0.7197066000661607	1.0252271001226063	1.2127942000516896	278.5637125999201	0.6003806001972407	277.5502172999551	1	1	92	2	go_reward	1	1	0	1	1	1	1	0.0	0.0	1	0.6266335998661816	0.6003806001972407	675.1174574000761	947.3200050999876	948.3214752001222	949.0411818001884	950.6396679000464	951.664895000169	952.6676747000312	953.6811699999962	954.6957386999856	955.9085329000372	2019-11-22 19:05:29.864110	29.3208773004063	24.4806529416121	0.0	23.4032969068472	29.3208773004063	0.0	-29.3208773004063	24.4806529416121	0.0	29.3208773004063	0.0	4.278440139355702	21.18683018541206	19.90770439666982	-2.580202418281997	15.8841565444173	21.85449583582174	-2.580202418281997	3.264705064249396	20.2305618014759	-0.9562683839361605	16.844065433765568	0.48343654462224994	2	wrong	1.0
280.82850580010563	9.419137399876377	nogo_punish	0.5353735000826418	280.8585836000275	283.69219160010107	286.2836007999723	2.833608000073582	281.8643183000387	285.2597113000229	289.31425320007827	1.8278733000623788	1.023889499949405	0.9634677998255938	288.30115030007426	0.3187138999346643	287.2878151999321	1	1	93	3	nogo_punish	1	-1	0	0	1	0	0	0.0	1.0	-1	0.5353735000826418	0.3187138999346643	675.1174574000761	955.9760410001036	956.9817757001148	958.8096490001772	960.377168700099	961.4010582000484	962.4052726000082	963.4186077001503	964.4317106001544	965.39517839998	2019-11-22 19:05:29.864110	-2.40164596593475	-6.11938967905005	-4.65931470967704	-5.63492651577096	-7.0609606756118	-4.65931470967704	2.40164596593475	-6.11938967905005	-4.65931470967704	-7.0609606756118	-4.65931470967704	-4.97140961891305	-10.53569308092899	-10.692338223992328	-7.2395171279590365	-13.15406687820086	-14.527342140196357	-7.2395171279590365	-5.985144694019356	-16.151276174542197	-5.615583093613201	-13.75597718689658	-4.17587816505479	2	correct	1.0
290.2838231001515	8.331159999826923	nogo_reward	1.0	290.31390090007335	291.9941191999243	294.5098027999047	1.6802182998509352	291.3283923000563	293.49713269993674	297.5422883001155	0.665726899867991	1.012670099967977	1.102772599784771	296.53825620003033	0.2901253001764416	295.52444620011374	1	1	94	1	nogo_reward	1	0	1	0	0	1	0	0.0	1.0	1	1.0	0.2901253001764416	675.1174574000761	965.4313583001494	966.4458497001324	967.1115766000004	968.6145901000128	969.6272601999808	970.6419036001898	971.6557136001064	972.6597457001916	973.7625182999764	2019-11-22 19:05:29.864110	2.33328629780171	7.57529827530925	12.4964898958771	12.4482288995387	10.1632035980754	12.4964898958771	-2.33328629780171	12.4964898958771	7.57529827530925	12.4964898958771	10.1632035980754	16.262603185090704	-5.800760817192529	3.002349730366972	9.916287477595102	4.9290885371088	2.6968221334908433	9.916287477595102	15.248868109984398	3.406174396946703	9.20693521413924	4.8599023880305685	8.0587348199315	2	correct	1.0
298.65237280004646	8.830602100119222	go_reward	0.3247199000325054	298.6824505999683	301.1557104999665	303.71598340012133	2.4732598999981974	299.69589870003995	302.69176680012606	306.76250390009955	1.4598117999265696	1.0242165999952704	0.7505487999879961	305.7512016999535	0.3216289000120014	304.72886110004026	1	1	95	2	go_reward	1	1	0	1	1	1	0	0.0	1.0	1	0.3247199000325054	0.3216289000120014	675.1174574000761	973.7999080000444	974.813356100116	976.2731679000426	977.8092242002022	978.8334408001974	979.8463185001164	980.8686591000296	981.8799613001756	982.6305101001636	2019-11-22 19:05:29.864110	30.385607554951	25.3178901059901	0.0	24.4484000954358	30.385607554951	0.0	-30.385607554951	25.3178901059901	0.0	30.385607554951	0.0	3.4412029749777027	22.251560439956762	20.74494156104782	-2.580202418281997	16.9292597330059	22.919226090366443	-2.580202418281997	2.427467899871397	21.295292056020607	-0.9562683839361605	17.681302598143567	0.48343654462224994	2	correct	1.0
307.5162616001909	9.617730099940559	nogo_reward	1.0	307.54633940011274	310.0871554000769	312.61466430011194	2.5408159999641384	308.53899220004666	311.6020571000407	315.6638585999607	1.548163200030217	1.0126072000712156	1.5002109000926112	314.6493685999885	0.302161700092256	313.63133369991556	1	1	96	1	nogo_reward	0	1	0	0	0	1	1	0.0	0.0	0	1.0	0.302161700092256	675.1174574000761	982.6637968001888	983.6564496001228	985.204612800153	986.7195145001168	987.732121700188	988.7487910999916	989.7668260000646	990.7813160000368	992.2815269001294	2019-11-22 19:05:29.864110	4.81172107891094	7.57529827530925	15.6800720151662	15.6566766573515	10.8683509362553	15.6800720151662	-4.81172107891094	15.6800720151662	7.57529827530925	15.6800720151662	10.8683509362553	-15.6800720151662	-3.3223260360832985	3.002349730366972	13.099869596884202	8.1375362949216	3.4019694716707436	13.099869596884202	-16.693807090272504	6.589756516235804	9.91208255231914	8.043484507319668	8.0587348199315	2	wrong	1.0
317.1709667001851	8.580796399852147	go_punish	0.292111000046134	317.20104450010695	319.19538559997454	321.7781398000661	1.9943410998675972	318.2115191000047	320.75808560010034	324.81897790008236	0.9838664999698494	1.0200541999657844	0.9628629998767337	323.80960209993634	0.817942599998787	322.7875248999335	1	1	97	4	go_punish	1	0	-1	1	1	1	0	0.0	1.0	0	0.292111000046134	0.817942599998787	675.1174574000761	992.318501900183	993.3289765000808	994.3128430000506	995.8755430001764	996.8955972001422	997.9049823000096	998.9270595000124	999.9364353001585	1000.8992983000352	2019-11-22 19:05:29.864110	5.59885980352384	-0.330575143888134	-6.11938967905005	-1.3836193110986	-0.520529875526211	-6.11938967905005	-5.59885980352384	-0.330575143888134	-6.11938967905005	-0.520529875526211	-6.11938967905005	0.330575143888134	-2.5351873114703984	-4.903523688830412	-8.699592097332047	-8.9027596735285	-7.986911340110768	-8.699592097332047	-0.6831599312181714	-9.610845374456607	-7.075658062986211	-7.9671626517346645	-5.6359531344278	2	correct	1.0
325.7861814000645	8.49163009994652	go_punish	1.0	325.81625919998635	327.79296420002356	330.3272172000725	1.9767050000372137	326.83243710012175	329.3072587000207	333.3751153999475	0.9605270999018103	1.0199585000517573	0.9327738999853636	332.36923600011517	0.4550089999102056	331.34030649997294	1	1	98	4	go_punish	1	0	-1	1	0	0	0	0.0	1.0	-1	1.0	0.4550089999102056	675.1174574000761	1000.9337166000624	1001.9498945001978	1002.9104216000997	1004.4247161000968	1005.4446746001486	1006.457763900049	1007.4866934001913	1008.4925728000236	1009.425346700009	2019-11-22 19:05:29.864110	-5.69724764063151	-0.275231641132974	-6.11938967905005	-1.1374352743772	-0.422142038418541	-6.11938967905005	5.69724764063151	-6.11938967905005	-0.275231641132974	-6.11938967905005	-0.422142038418541	-4.97140961891305	-13.831294755625748	-4.848180186075252	-8.699592097332047	-8.6565756368071	-7.888523503003098	-8.699592097332047	-5.985144694019356	-15.209705177980446	-1.3784104223547016	-13.75597718689658	0.20820490348927595	2	correct	1.0
334.3192010000348	9.647741200169662	go_reward	0.2965364998672157	334.34927879995666	337.3338186999317	339.9268785000313	2.9845398999750614	335.3644252999219	338.9013048000635	342.95646109990776	1.9693934000098352	1.025573699967822	1.0405589002185707	341.95275810011674	0.709679399849847	340.9407999999821	1	1	99	2	go_reward	1	1	0	1	1	1	0	0.0	1.0	1	0.2965364998672157	0.709679399849847	675.1174574000761	1009.4667362000328	1010.481882699998	1012.4512761000078	1014.0187622001396	1015.0443359001074	1016.0582574000582	1017.0702155001928	1018.0739184999838	1019.1144774002024	2019-11-22 19:05:29.864110	31.2287964969885	25.9832107238166	0.0	25.2797747412991	31.2287964969885	0.0	-31.2287964969885	25.9832107238166	0.0	31.2287964969885	0.0	2.7758823571512004	23.094749381994262	21.410262178874323	-2.580202418281997	17.7606343788692	23.762415032403943	-2.580202418281997	1.762147282044895	22.138480998058107	-0.9562683839361605	18.34662321597007	0.48343654462224994	2	correct	1.0
344.00380940013565	8.261312699876726	go_reward	0.4065495000686496	344.0338872000575	345.7269866999703	348.3024343999567	1.6930994999128188	345.03850060002867	347.2880452000535	351.3490184000693	0.688486099941656	1.0143891999032348	0.9461814998649061	350.33533970010467	0.4956974000670016	349.30651909997687	1	1	100	2	go_reward	1	1	0	1	1	1	0	0.0	1.0	1	0.4065495000686496	0.4956974000670016	675.1174574000761	1019.1513446001336	1020.1559580001048	1020.8444441000464	1022.4055026001296	1023.4198918000328	1024.423976500053	1025.4527971001808	1026.4664758001454	1027.4126573000103	2019-11-22 19:05:29.864110	31.8984650869797	26.5134440946025	0.0	25.9429830359745	31.8984650869797	0.0	-31.8984650869797	26.5134440946025	0.0	31.8984650869797	0.0	2.2456489863652997	23.764417971985463	21.940495549660223	-2.580202418281997	18.4238426735446	24.432083622395144	-2.580202418281997	1.2319139112589943	22.808149588049304	-0.9562683839361605	18.87685658675597	0.48343654462224994	2	correct	1.0
352.2999122000765	8.449017700040713	nogo_reward	1.0	352.32998999999836	353.69675530004315	356.2241233000532	1.36676530004479	353.33632469992153	355.1994312000461	359.2856072001159	0.3604306001216173	1.024692100007087	1.4934004999231547	358.27222030004486	0.2999406000599265	357.2384115001187	1	1	101	1	nogo_reward	1	0	1	0	0	1	0	0.0	1.0	1	1.0	0.2999406000599265	675.1174574000761	1027.4474474000745	1028.4537820999976	1028.8142127001192	1030.3168886001222	1031.3415807001293	1032.3558689001948	1033.389677700121	1034.403064600192	1035.8964651001152	2019-11-22 19:05:29.864110	2.37341200532757	7.57529827530925	12.5456150866512	12.5394783316873	10.1722030813237	12.5456150866512	-2.37341200532757	12.5456150866512	7.57529827530925	12.5456150866512	10.1722030813237	16.2134779943166	-5.760635109666669	3.002349730366972	9.965412668369202	5.020337969257401	2.7058216167391427	9.965412668369202	15.199742919210296	3.4552995877208037	9.215934697387539	4.909027578804669	8.0587348199315	2	correct	1.0
360.81881149997935	9.795089000137523	nogo_punish	1.0	360.8488892999012	363.5902815000154	366.1190730000378	2.7413922001142055	361.860797500005	365.1062936000526	369.16614979994483	1.729484000010416	1.0127793999852202	1.4778285000938922	368.1529689000456	0.3162411998491734	367.1342229000293	1	1	102	3	nogo_punish	1	-1	0	0	0	1	0	0.0	1.0	0	1.0	0.3162411998491734	675.1174574000761	1035.9663466999773	1036.978254900081	1038.7077389000915	1040.2237510001287	1041.236530400114	1042.2516803001054	1043.2704263001217	1044.283607200021	1045.7614357001148	2019-11-22 19:05:29.864110	3.45747395789745	-6.99118316671415	-4.65931470967704	-6.63706217502341	-8.11678866757449	-4.65931470967704	-3.45747395789745	-4.65931470967704	-6.99118316671415	-4.65931470967704	-8.11678866757449	4.65931470967704	-4.676573157096788	-11.56413171165643	-7.2395171279590365	-14.15620253745331	-15.583170132159047	-7.2395171279590365	3.6455796345707343	-13.749630208607435	-9.07305705151065	-12.29590221752357	-6.507746622091901	2	correct	1.0
370.6534240001347	7.730639099841937	nogo_punish	1.0	370.68350180005655	372.0235387000721	374.5559233999811	1.3400369000155479	371.69458950008266	373.5275179001037	377.60644840006717	0.32894919998943806	1.0284054998774081	0.8076924998313189	376.6040751999244	0.2761157001368701	375.5712675999382	1	1	103	3	nogo_punish	1	-1	0	0	0	1	0	0.0	1.0	0	1.0	0.2761157001368701	675.1174574000761	1045.8009592001326	1046.8120469001587	1047.1409961001482	1048.6449753001798	1049.6733808000572	1050.6887250000143	1051.7215326000005	1052.7239058001433	1053.5315982999746	2019-11-22 19:05:29.864110	4.099377521251	-6.99118316671415	-3.77980331569637	-5.38359876976762	-7.87918083694737	-3.77980331569637	-4.099377521251	-3.77980331569637	-6.99118316671415	-3.77980331569637	-7.87918083694737	3.77980331569637	-4.034669593743239	-11.56413171165643	-6.360005733978367	-12.902739132197521	-15.345562301531928	-6.360005733978367	2.766068240590065	-12.870118814626766	-8.83544922088353	-11.416390823542901	-6.507746622091901	2	correct	1.0
378.42215280001983	8.412066400051117	nogo_reward	1.0	378.4522305999417	380.513490600046	383.03371630003676	2.061260000104312	379.4658246000763	382.0181360999122	386.0868887999095	1.047665999969695	1.015580200124532	0.7774082000833005	385.0733658000827	0.2802179001737386	384.0460151999723	1	1	104	1	nogo_reward	1	0	1	0	0	1	0	0.0	1.0	1	1.0	0.2802179001737386	675.1174574000761	1053.5696880000178	1054.5832820001524	1055.630948000122	1057.1355934999883	1058.1511737001128	1059.1634726000484	1060.1908232001588	1061.2043461999856	1061.981754400069	2019-11-22 19:05:29.864110	4.85359834872353	7.57529827530925	15.7301750643845	15.735742705631	10.8765767156609	15.7301750643845	-4.85359834872353	15.7301750643845	7.57529827530925	15.7301750643845	10.8765767156609	13.028918016583301	-3.280448766270709	3.002349730366972	13.149972646102503	8.216602343201101	3.4101952510763427	13.149972646102503	12.015182941476995	6.639859565454104	9.920308331724739	8.093587556537969	8.0587348199315	2	correct	1.0
386.8721740001347	8.139202499995008	nogo_reward	1.0	386.90225180005655	388.1898543999996	390.7203842999879	1.2876025999430567	387.9055369000414	389.69465849990956	393.7642930999864	0.2843174999582061	1.0257258000783622	1.2771612000651658	392.75748150004074	0.2689704000949859	391.7280626001302	1	1	105	1	nogo_reward	1	0	1	0	0	1	0	0.0	1.0	1	1.0	0.2689704000949859	675.1174574000761	1062.0197092001326	1063.0229943001175	1063.3073118000757	1064.8121158999857	1065.837841700064	1066.8455200002063	1067.8749389001168	1068.8817505000625	1070.1589117001276	2019-11-22 19:05:29.864110	6.83343150156304	7.57529827530925	18.2597259543705	18.272965349679	11.4262944528075	18.2597259543705	-6.83343150156304	18.2597259543705	7.57529827530925	18.2597259543705	11.4262944528075	10.499367126597303	-1.3006156134311988	3.002349730366972	15.679523536088501	10.753824987249102	3.9599129882229436	15.679523536088501	9.485632051490997	9.169410455440103	10.47002606887134	10.623138446523967	8.0587348199315	2	correct	1.0
395.04534120019525	8.429648799821734	nogo_reward	1.0	395.0754190001171	396.9362218999304	399.47505809995346	1.8608028998132795	396.0931321000678	398.4472411999013	402.51057919999585	0.8430897998625824	1.0278169000521302	0.9944885999429971	401.5075256999114	0.2876558999996632	400.49159409990534	1	1	106	1	nogo_reward	1	0	1	0	0	1	1	1.0	1.0	1	1.0	0.2876558999996632	675.1174574000761	1070.1928764001932	1071.210589500144	1072.0536793000065	1073.5646985999774	1074.5925155000295	1075.6090514999814	1076.6249830999875	1077.628036600072	1078.622525200015	2019-11-22 19:05:29.864110	8.41822528052541	7.57529827530925	20.2746831536454	20.2926879670229	11.85645787312	20.2746831536454	-8.41822528052541	20.2746831536454	7.57529827530925	20.2746831536454	11.85645787312	8.4844099273224	0.2841781655311717	3.002349730366972	17.694480735363406	12.773547604593	4.390076408535443	17.694480735363406	7.470674852216094	11.184367654715006	10.90018948918384	12.63809564579887	8.0587348199315	2	correct	1.0
403.51103559997864	9.137099800165743	go_punish	0.2808044000994414	403.5411133999005	405.55045689991675	408.17180530005135	2.009343500016257	404.5571989999153	407.1555508999154	411.2108768001199	0.9932579000014812	1.0162544001359493	1.4673363999463618	410.2043379000388	0.2848980000708252	409.17636559996754	1	1	107	4	go_punish	1	0	-1	1	1	1	0	0.0	1.0	0	0.2808044000994414	0.2848980000708252	675.1174574000761	1078.6585707999766	1079.6746563999914	1080.6679142999928	1082.2730082999915	1083.2892627001274	1084.2938230000436	1085.321795300115	1086.328334200196	1087.7956706001423	2019-11-22 19:05:29.864110	6.22062499640118	-0.275231641132974	-6.99118316671415	-2.99732958328205	-0.770558170312967	-6.99118316671415	-6.22062499640118	-0.275231641132974	-6.99118316671415	-0.770558170312967	-6.99118316671415	0.275231641132974	-1.9134221185930587	-4.848180186075252	-9.571385584996147	-10.51646994571195	-8.236939634897524	-9.571385584996147	-0.7385034339733314	-9.860873669243363	-7.947451550650311	-7.911819148979505	-6.507746622091901	2	correct	1.0
412.68758110003546	8.598354100017104	go_punish	0.4098364000674337	412.7176588999573	414.2187536000274	416.79640110000037	1.501094700070098	413.7253453999292	415.7856241001284	419.8374224000145	0.49340820009820163	1.0107769998719505	1.4785905999599436	418.8247718000782	0.2960920999757945	417.80407569999807	1	1	108	4	go_punish	1	0	-1	1	1	1	0	0.0	1.0	0	0.4098364000674337	0.2960920999757945	675.1174574000761	1087.8351163000334	1088.8428028000053	1089.3362110001035	1090.9030815002045	1091.9138585000765	1092.9215331000742	1093.9422292001543	1094.9548798000906	1096.4334704000505	2019-11-22 19:05:29.864110	6.37492996061121	-0.229750144495557	-6.99118316671415	-2.42871841492881	-0.616253206102936	-6.99118316671415	-6.37492996061121	-0.229750144495557	-6.99118316671415	-0.616253206102936	-6.99118316671415	0.229750144495557	-1.7591171543830288	-4.802698689437835	-9.571385584996147	-9.947858777358709	-8.082634670687494	-9.571385584996147	-0.7839849306107485	-9.706568705033332	-7.947451550650311	-7.866337652342088	-6.507746622091901	2	correct	1.0
421.32557069999166	8.41435550013557	nogo_punish	1.0	421.3556484999135	422.9066997000484	425.43069899990223	1.551051200134907	422.36777470004745	424.4103107000701	428.47997320001014	0.5389250000009724	1.0203882998321205	1.2900308000389487	427.460851599928	0.4953910999465734	426.4457469999322	1	1	109	3	nogo_punish	0	0	-1	0	0	1	0	0.0	1.0	-1	1.0	0.4953910999465734	675.1174574000761	1096.4731058999896	1097.4852321001235	1098.0241571001245	1099.5277681001462	1100.5481563999783	1101.5632044000083	1102.578309000004	1103.5974306000862	1104.8874614001252	2019-11-22 19:05:29.864110	4.61677668791899	-6.99118316671415	-3.07600397617454	-4.38094862069911	-7.69278066409353	-3.07600397617454	-4.61677668791899	-3.07600397617454	-6.99118316671415	-3.07600397617454	-7.69278066409353	-8.01479532178856	-3.517270427075249	-11.56413171165643	-5.656206394456537	-11.90008898312901	-15.159162128678087	-5.656206394456537	-9.028530396894865	-12.166319475104936	-8.64904904802969	-10.71259148402107	-6.507746622091901	2	correct	1.0
429.7778827000875	8.593754600035027	go_reward	0.3314982000738382	429.80796050000936	431.38354109996	433.94847219996154	1.5755805999506265	430.8205371000804	432.9262904000934	436.9945930999238	0.5630039998795837	1.0221817998681217	1.4071220001205802	435.99078170000575	0.2462113001383841	434.960935299983	1	1	110	2	go_reward	1	1	0	1	1	1	0	0.0	1.0	1	0.3314982000738382	0.2462113001383841	675.1174574000761	1104.9254179000854	1105.9379945001565	1106.500998500036	1108.0437478001695	1109.0659296000376	1110.078392700059	1111.1082391000818	1112.1120505	1113.5191725001205	2019-11-22 19:05:29.864110	32.431828345963	26.9372184029783	0.0	26.4734976655791	32.431828345963	0.0	-32.431828345963	26.9372184029783	0.0	32.431828345963	0.0	1.821874677989502	24.29778123096876	22.36426985803602	-2.580202418281997	18.9543573031492	24.96544688137844	-2.580202418281997	0.8081396028831966	23.341512847032604	-0.9562683839361605	19.300630895131768	0.48343654462224994	2	correct	1.0
438.45015619997866	8.151774200145155	nogo_punish	1.0	438.4802339999005	439.82959600002505	442.36441379995085	1.349362000124529	439.48370820004493	441.34225389990024	445.38853770005517	0.34588779998011887	1.0221599000506103	1.243470499990508	444.384674299974	0.4289134999271482	443.3723029999528	1	1	111	3	nogo_punish	1	-1	0	0	0	1	1	1.0	1.0	0	1.0	0.4289134999271482	675.1174574000761	1113.5976913999766	1114.601165600121	1114.9470534001011	1116.4597112999763	1117.481871200027	1118.489760400029	1119.50213170005	1120.5059951001313	1121.7494656001218	2019-11-22 19:05:29.864110	3.35826114769031	-6.99118316671415	-4.57041865807232	-5.63569859425605	-7.92867980576263	-4.57041865807232	-3.35826114769031	-4.57041865807232	-6.99118316671415	-4.57041865807232	-7.92867980576263	4.57041865807232	-4.7757859673039285	-11.56413171165643	-7.150621076354318	-13.15483895668595	-15.395061270347187	-7.150621076354318	3.5566835829660146	-13.660734157002716	-8.88494818969879	-12.207006165918852	-6.507746622091901	2	correct	1.0
446.63787360000424	8.262815800029784	go_punish	0.2931849998421967	446.6679513999261	448.470863699913	451.01448899996467	1.8029122999869287	447.6724688000977	449.9962921999395	454.0571258000564	0.798394899815321	1.01819680002518	0.8736413998994976	453.05160490004346	0.5062185998540372	452.03194870008156	1	1	112	4	go_punish	1	0	-1	1	1	1	0	1.0	0.0	0	0.2931849998421967	0.5062185998540372	675.1174574000761	1121.7854088000022	1122.7899262001738	1123.5883210999891	1125.1137496000156	1126.1319464000408	1127.1494061001576	1128.1690623001195	1129.1745832001325	1130.048224600032	2019-11-22 19:05:29.864110	6.49757938665459	-0.192275886785895	-6.99118316671415	-1.97464847804386	-0.493603780059557	-6.99118316671415	-6.49757938665459	-0.192275886785895	-6.99118316671415	-0.493603780059557	-6.99118316671415	0.192275886785895	-1.6364677283396487	-4.765224431728173	-9.571385584996147	-9.49378884047376	-7.9599852446441135	-9.571385584996147	-0.8214591883204104	-9.583919278989953	-7.947451550650311	-7.8288633946324255	-6.507746622091901	2	wrong	1.0
454.9416088000871	8.290625100024045	nogo_punish	1.0	454.971686600009	456.54668419994414	459.0723894999828	1.574997599935159	455.9828759999948	458.05068160011433	462.1060486000497	0.5638081999493352	1.0217078998684883	1.1562630999833345	461.0929346999619	0.4110860000364482	460.0809196999762	1	1	113	3	nogo_punish	1	-1	0	0	0	1	1	0.0	0.0	0	1.0	0.4110860000364482	675.1174574000761	1130.089144000085	1131.100333400071	1131.6641416000202	1133.1681390001904	1134.189846900059	1135.1983771000523	1136.210392100038	1137.2235060001258	1138.3797691001091	2019-11-22 19:05:29.864110	4.02225516539113	-6.99118316671415	-3.70900374692032	-4.58143450956445	-7.73125891231145	-3.70900374692032	-4.02225516539113	-3.70900374692032	-6.99118316671415	-3.70900374692032	-7.73125891231145	3.70900374692032	-4.111791949603109	-11.56413171165643	-6.289206165202317	-12.10057487199435	-15.197640376896008	-6.289206165202317	2.6952686718140146	-12.799319245850716	-8.68752729624761	-11.34559125476685	-6.507746622091901	2	wrong	1.0
463.2672433000989	9.539746399968635	nogo_reward	1.0	463.2973211000208	466.06737200007774	468.595435400028	2.770050900056958	464.3032750999555	467.58199129998684	471.6356506999582	1.7640969001222402	1.0134441000411698	1.201416800031211	470.62238799990155	0.3039814999792725	469.6090575000271	1	1	114	1	nogo_reward	1	0	1	0	0	1	0	0.0	1.0	1	1.0	0.3039814999792725	675.1174574000761	1138.4147785000969	1139.4207325000316	1141.1848294001538	1142.699448700063	1143.712892800104	1144.7265149001032	1145.7398453999776	1146.7531081000343	1147.9545249000655	2019-11-22 19:05:29.864110	9.69024045926747	7.57529827530925	21.8841852367581	21.9048812349607	12.1939447774906	21.8841852367581	-9.69024045926747	21.8841852367581	7.57529827530925	21.8841852367581	12.1939447774906	6.874907844209702	1.5561933442732307	3.002349730366972	19.303982818476104	14.385740872530802	4.727563312906043	19.303982818476104	5.861172769103396	12.793869737827704	11.23767639355444	14.247597728911568	8.0587348199315	2	correct	1.0
472.84242810006253	9.207843400072306	go_reward	0.2884215998928994	472.8725058999844	475.59859449998476	478.1493540999945	2.7260886000003666	473.88860530010425	477.1451650999952	481.2061314000748	1.7099891998805106	1.0041889999993145	0.8742178999818861	480.1931825999636	0.4552494999952614	479.1647695999127	1	1	115	2	go_reward	1	1	0	1	1	1	0	0.0	1.0	1	0.2884215998928994	0.4552494999952614	675.1174574000761	1147.9899633000605	1149.0060627001803	1150.7160519000608	1152.2626225000713	1153.2668115000706	1154.2822269999888	1155.3106400000397	1156.323588800151	1157.1978067001328	2019-11-22 19:05:29.864110	32.8578145775253	27.2768547661776	0.0	26.8990177690096	32.8578145775253	0.0	-32.8578145775253	27.2768547661776	0.0	32.8578145775253	0.0	1.4822383147902016	24.723767462531065	22.70390622123532	-2.580202418281997	19.379877406579702	25.391433112940746	-2.580202418281997	0.4685032396838962	23.76749907859491	-0.9562683839361605	19.64026725833107	0.48343654462224994	2	correct	1.0
482.08488460001536	7.921652400167659	nogo_reward	1.0	482.1149623999372	483.4491250999272	485.9696343000978	1.3341626999899745	483.1215983000584	484.9536480999086	489.01090750005096	0.3275267998687923	1.015986200189218	1.0257073000539094	487.99703820003197	0.3122088999953121	486.97684930008836	1	1	116	1	nogo_reward	1	0	1	0	0	1	1	0.0	0.0	1	1.0	0.3122088999953121	675.1174574000761	1157.2324198000133	1158.2390557001345	1158.5665825000033	1160.0711054999847	1161.087091700174	1162.0943067001645	1163.114495600108	1164.128364900127	1165.154072200181	2019-11-22 19:05:29.864110	10.7139228336777	7.57529827530925	23.1733198831178	23.1952459254791	12.4593970494401	23.1733198831178	-10.7139228336777	23.1733198831178	7.57529827530925	23.1733198831178	12.4593970494401	5.585773197850003	2.5798757186834607	3.002349730366972	20.593117464835803	15.6761055630492	4.993015584855542	20.593117464835803	4.572038122743697	14.083004384187403	11.503128665503938	15.536732375271267	8.0587348199315	2	wrong	1.0
490.04170870012604	8.24860839988105	nogo_reward	1.0	490.0717865000479	491.8565549000632	494.38178319996223	1.7847684000153095	491.0763395000249	493.36251139990054	497.41426669992507	0.780215400038287	1.0192718000616878	0.9061282000038773	496.39683689991944	1.0	495.38850479992107	1	1	117	1	nogo_reward	1	0	1	0	0	1	0	n/a	0.0	1	1.0	1.0	675.1174574000761	1165.189243900124	1166.193796900101	1166.9740123001393	1168.4799687999766	1169.4992406000383	1170.5059621999972	1171.5142942999955	1172.5317241000012	1173.437852300005	2019-11-22 19:05:29.864110	11.5399069502028	7.57529827530925	24.2086195980159	24.2307646429507	12.6687126478131	24.2086195980159	-11.5399069502028	24.2086195980159	7.57529827530925	24.2086195980159	12.6687126478131	4.550473482951901	3.4058598352085614	3.002349730366972	21.628417179733905	16.7116242805208	5.2023311832285435	21.628417179733905	3.5367384078455952	15.118304099085504	11.71244426387694	16.57203209016937	8.0587348199315	2	missed	0.0
498.32499980018474	8.939739899942424	go_punish	0.2872963000554591	498.3550776001066	500.2867531001102	502.8401506000664	1.931675500003621	499.36599899991415	501.81858019996434	505.89549880009145	0.9207541001960635	1.021570400102064	1.3993186999575755	504.88116710004397	0.4617492998950183	503.863088699989	1	1	118	4	go_punish	1	0	-1	1	1	1	0	0.0	1.0	0	0.2872963000554591	0.4617492998950183	675.1174574000761	1173.4725350001827	1174.4834563999902	1175.4042105001863	1176.9360376000404	1177.9576080001425	1178.980546100065	1179.99862450012	1181.0129562001675	1182.412274900125	2019-11-22 19:05:29.864110	6.59543621104132	-0.161319947716312	-6.99118316671415	-1.61077710444377	-0.395746955672828	-6.99118316671415	-6.59543621104132	-0.161319947716312	-6.99118316671415	-0.395746955672828	-6.99118316671415	0.161319947716312	-1.538610903952919	-4.7342684926585905	-9.571385584996147	-9.12991746687367	-7.862128420257385	-9.571385584996147	-0.8524151273899935	-9.486062454603225	-7.947451550650311	-7.797907455562843	-6.507746622091901	2	correct	1.0
507.29904070007615	9.315718400059268	go_punish	0.3006956002209335	507.329118499998	510.1021829000674	512.6672062000725	2.7730644000694156	508.33606439991854	511.6324410000816	515.745303099975	1.7661185001488775	1.034765199990943	0.8995338000822812	514.7262790999375	0.3129073001910001	513.6910866999533	1	1	119	4	go_punish	1	0	-1	1	1	1	0	0.0	1.0	0	0.3006956002209335	0.3129073001910001	675.1174574000761	1182.446575900074	1183.4535217999946	1185.2196403001435	1186.7498984001577	1187.7846636001486	1188.8085441000294	1189.8437365000136	1190.862760500051	1191.7622943001334	2019-11-22 19:05:29.864110	6.67379861647051	-0.135683920048641	-6.99118316671415	-1.31819821619581	-0.317384550243634	-6.99118316671415	-6.67379861647051	-0.135683920048641	-6.99118316671415	-0.317384550243634	-6.99118316671415	0.135683920048641	-1.460248498523729	-4.708632464990919	-9.571385584996147	-8.83733857862571	-7.783766014828191	-9.571385584996147	-0.8780511550576644	-9.40770004917403	-7.947451550650311	-7.772271427895172	-6.507746622091901	2	correct	1.0
516.6474479001481	8.89906600001268	nogo_reward	1.0	516.67752570007	518.5768707001116	521.1151777000632	1.8993450000416487	517.6797529000323	520.0937819001265	524.1704828999934	0.8971178000792861	1.0213957999367267	1.4061088000892141	523.155912199989	0.2997914999723434	522.1321090001147	1	1	120	1	nogo_reward	0	1	0	0	0	1	0	0.0	1.0	0	1.0	0.2997914999723434	675.1174574000761	1191.794983100146	1192.7972103001084	1193.6943281001877	1195.2112393002026	1196.2326351001393	1197.2495664001908	1198.273369600065	1199.2879403000695	1200.6940491001587	2019-11-22 19:05:29.864110	12.2080871753171	7.57529827530925	25.0422566553959	25.0639385370134	12.8341694800788	25.0422566553959	-12.2080871753171	25.0422566553959	7.57529827530925	25.0422566553959	12.8341694800788	-25.0422566553959	4.0740400603228615	3.002349730366972	22.462054237113904	17.544798174583498	5.367788015494244	22.462054237113904	-26.055991730502203	15.951941156465503	11.87790109614264	17.405669147549368	8.0587348199315	2	correct	1.0
