onset	duration	trial_type	response_time	cueOnset	targetOnset	fbOnset	cueRT	firstfixOnset	secondfixOnset	waitOnset	firstfixdur	secondfixdur	waitdur	nback_fbOnset	nback_response_time	nback_targetOnset	block	wm	trial	cue	cond	is_common	outcome_go	outcome_nogo	key_correct	key_pressed	is_correct	key_correct_nback	key_pressed_nback	is_correct_nback	outcome	rt	rt_nback	time_scan	time_onset	time_isi1	time_circle	time_isi2	time_feedback	time_same	time_correct	time_iti	time_done	timestamp_scan	DV	Qgo	Qnogo	SV	Wgo	Wnogo	mDV	Qchosen	Qunchosen	Wchosen	Wunchosen	PE	DVC	QgoC	QnogoC	SVC	WgoC	WnogoC	PEC	WchosenC	WunchosenC	QchosenC	QunchosenC	run	outcome_nback	nback_targetResp
0.0	8.816715999972075	go_reward	0.3552680000429973	0.08636690001003444	2.532062199956272	5.091363999992609	2.4456952999462374	1.0936215999536216	4.065155299962498	8.134899299999233	1.4384406000026502	1.0262087000301108	0.7681835999828763	7.126423000008799	1.0	6.117253199976403	1	1	1	2	go_reward	1	1	0	1	1	1	0	n/a	0.0	0	0.3552680000429973	1.0	514.5390917000477	514.6254586000578	515.6327133000013	517.071153900004	518.6042470000102	519.6304557000403	520.6563449000241	521.6655147000565	522.673991000047	523.4421746000298	2020-05-12 13:16:38.151175	0.316155762821525	0.0	0.0	0.0	0.316155762821525	0.0	-0.316155762821525	0.0	0.0	0.316155762821525	0.0	12.3982156393478	-3.167295257101676	-1.5801227355107885	-0.6546936972155126	-2.740936661314255	-1.608558323348551	-0.6546936972155126	11.880341144927563	-2.7152736388328726	0.4520216182688079	-2.7737950841310495	0.5389786514047473	1	missed	0.0
8.881273499981035	8.429254599963315	go_punish	0.5450989000382833	8.967640399991069	10.320102699974086	12.850939799973276	1.3524622999830171	9.976231699984055	11.83778619999066	15.90340459998697	0.3438709999900311	1.0131535999826156	1.4934903999674134	14.89973879995523	0.6429906999692321	13.867333300004248	1	1	2	4	go_punish	1	0	-1	1	1	1	0	0.0	1.0	0	0.5450989000382833	0.6429906999692321	514.5390917000477	523.5067321000388	524.5153234000318	524.8591944000218	526.3768779000384	527.390031500021	528.406425000052	529.438830500003	530.4424963000347	531.9359867000021	2020-05-12 13:16:38.151175	0.316155762821525	0.0	0.0	0.0	0.316155762821525	0.0	-0.316155762821525	0.0	0.0	0.316155762821525	0.0	0.0	-3.167295257101676	-1.5801227355107885	-0.6546936972155126	-2.740936661314255	-1.608558323348551	-0.6546936972155126	-0.5178744944202365	-2.7152736388328726	0.4520216182688079	-2.7737950841310495	0.5389786514047473	1	correct	1.0
17.376691999961622	9.1307652000105	nogo_reward	0.2388800000189803	17.463058899971657	19.51846629998181	22.072393799957354	2.0554074000101537	18.47264069999801	21.053289900009986	25.109834300004877	1.0458255999838002	1.0191038999473676	1.4839897999772802	24.111834199982695	0.9295418999972752	23.090176999976393	1	1	3	1	nogo_reward	1	0	1	0	1	0	0	0.0	1.0	0	0.2388800000189803	0.9295418999972752	514.5390917000477	532.0021506000194	533.0117324000457	534.0575580000295	535.5923816000577	536.6114855000051	537.6292687000241	538.6509259000304	539.6489260000526	541.1329158000299	2020-05-12 13:16:38.151175	0.316155762821525	0.0	0.0	0.0	0.316155762821525	0.0	-0.316155762821525	0.0	0.0	0.316155762821525	0.0	0.0	-3.167295257101676	-1.5801227355107885	-0.6546936972155126	-2.740936661314255	-1.608558323348551	-0.6546936972155126	-0.5178744944202365	-2.7152736388328726	0.4520216182688079	-2.7737950841310495	0.5389786514047473	1	correct	1.0
26.573829899949487	8.499203000043053	go_reward	1.0	26.66019679995952	28.226663399953395	30.75048240000615	1.5664665999938734	27.666050600004382	29.73626289999811	33.80687809997471	0.5606127999490127	1.0142195000080392	1.3525217000278644	32.80002189998049	0.4577932999818586	31.768515400006436	1	1	4	2	go_reward	1	1	0	1	0	0	0	1.0	0.0	0	1.0	0.4577932999818586	514.5390917000477	541.1992885000072	542.2051423000521	542.7657551000011	544.2753546000458	545.2895741000539	546.3076071000542	547.3391136000282	548.3459698000224	549.6984915000503	2020-05-12 13:16:38.151175	-0.316155762821525	0.0	0.0	0.0	0.316155762821525	0.0	0.316155762821525	0.0	0.0	0.0	0.316155762821525	0.0	-3.7996067827447266	-1.5801227355107885	-0.6546936972155126	-2.740936661314255	-1.608558323348551	-0.6546936972155126	-0.5178744944202365	-3.0314294016543974	0.768177381090333	-2.7737950841310495	0.5389786514047473	1	wrong	1.0
35.10799859999679	9.459113599965349	nogo_reward	0.2966039000311866	35.194365500006825	37.6255520999548	40.176570699957665	2.431186599947978	36.204643599980045	39.15705759997945	43.207346999959555	1.4209084999747574	1.0195130999782123	1.446132100012619	42.20543999999063	0.3719940999872051	41.187221899977885	1	1	5	1	nogo_reward	1	0	1	0	1	0	1	1.0	1.0	0	0.2966039000311866	0.3719940999872051	514.5390917000477	549.7334572000545	550.7437353000278	552.1646438000025	553.6961493000272	554.7156624000054	555.7263136000256	556.7445317000384	557.7464387000073	559.1925708000199	2020-05-12 13:16:38.151175	0.316155762821525	0.0	0.0	0.0	0.316155762821525	0.0	-0.316155762821525	0.0	0.0	0.316155762821525	0.0	0.0	-3.167295257101676	-1.5801227355107885	-0.6546936972155126	-2.740936661314255	-1.608558323348551	-0.6546936972155126	-0.5178744944202365	-2.7152736388328726	0.4520216182688079	-2.7737950841310495	0.5389786514047473	1	correct	1.0
44.63790879998123	9.442371700017247	nogo_punish	0.2657294999808073	44.72427569999127	47.55957869999111	50.11285430000862	2.83530299999984	45.72470369999064	49.09289999998873	53.15637409995543	1.8348750000004657	1.01995430001989	1.0102733000530861	52.15336459997343	0.4757667999947443	51.12345929996809	1	1	6	3	nogo_punish	1	-1	0	0	1	0	0	0.0	1.0	-1	0.2657294999808073	0.4757667999947443	514.5390917000477	559.263367400039	560.2637954000384	562.0986704000388	563.6319917000365	564.6519460000563	565.6625510000158	566.6924563000211	567.6954658000031	568.7057391000562	2020-05-12 13:16:38.151175	0.316155762821525	0.0	0.0	0.0	0.316155762821525	0.0	-0.316155762821525	0.0	0.0	0.316155762821525	0.0	-5.26273157378244	-3.167295257101676	-1.5801227355107885	-0.6546936972155126	-2.740936661314255	-1.608558323348551	-0.6546936972155126	-5.780606068202676	-2.7152736388328726	0.4520216182688079	-2.7737950841310495	0.5389786514047473	1	correct	1.0
54.11650269996608	8.586842400021851	go_reward	1.0	54.20286959997611	56.42482929996913	58.95895289996406	2.221959699993022	55.21340309997322	57.9352808999829	62.028585199965164	1.2114261999959126	1.0236719999811612	0.7611268000327982	61.027095399971586	0.3778341999859549	59.97229949996108	1	1	7	2	go_reward	0	0	1	1	0	0	0	1.0	0.0	1	1.0	0.3778341999859549	514.5390917000477	568.7419613000238	569.7524948000209	570.9639210000169	572.4743726000306	573.4980446000118	574.5113912000088	575.5661871000193	576.5676769000129	577.3288037000457	2020-05-12 13:16:38.151175	-0.316155762821525	0.0	0.0	0.0	0.316155762821525	0.0	0.316155762821525	0.0	0.0	0.0	0.316155762821525	12.3982156393478	-3.7996067827447266	-1.5801227355107885	-0.6546936972155126	-2.740936661314255	-1.608558323348551	-0.6546936972155126	11.880341144927563	-3.0314294016543974	0.768177381090333	-2.7737950841310495	0.5389786514047473	1	wrong	1.0
62.74313809996238	8.183608699997421	go_punish	1.0	62.829504999972414	64.20385799999349	66.73759759997483	1.374353000021074	63.845767399994656	65.72030399995856	69.76536339998711	0.35809059999883175	1.0172936000162736	1.2477502999827266	68.76408769999398	0.6343275000108406	67.75117129995488	1	1	8	4	go_punish	1	0	-1	1	0	0	0	0.0	1.0	-1	1.0	0.6343275000108406	514.5390917000477	577.3685967000201	578.3848591000424	578.7429497000412	580.2593957000063	581.2766893000226	582.2902630000026	583.3031794000417	584.3044551000348	585.5522054000176	2020-05-12 13:16:38.151175	-0.316155762821525	0.0	0.0	0.0	0.316155762821525	0.0	0.316155762821525	0.0	0.0	0.0	0.316155762821525	-5.26273157378244	-3.7996067827447266	-1.5801227355107885	-0.6546936972155126	-2.740936661314255	-1.608558323348551	-0.6546936972155126	-5.780606068202676	-3.0314294016543974	0.768177381090333	-2.7737950841310495	0.5389786514047473	1	correct	1.0
70.96320919995196	9.555675700015854	go_reward	0.3157008999842219	71.049576099962	73.64154069998767	76.18200809997506	2.591964600025676	72.06410580000374	75.16645409999182	79.22189449996222	1.5774348999839276	1.01555399998324	1.383357300015632	78.21271880000131	0.3972610000055283	77.19901759998174	1	1	9	2	go_reward	0	0	1	1	1	1	1	1.0	1.0	0	0.3157008999842219	0.3972610000055283	514.5390917000477	585.5886678000097	586.6031975000515	588.1806324000354	589.7055458000395	590.7210998000228	591.7381093000295	592.751810500049	593.7609862000099	595.1443435000256	2020-05-12 13:16:38.151175	-1.58184397010758	0.0	2.4283746766373	2.4283746766373	0.846530706529723	2.4283746766373	1.58184397010758	0.0	2.4283746766373	0.846530706529723	2.4283746766373	0.0	-5.0652949900307815	-1.5801227355107885	1.7736809794217872	-0.3125619846769552	-1.078183379640353	1.7736809794217872	-0.5178744944202365	-2.1848986951246747	2.8803962949061077	-2.7737950841310495	2.967353328042047	1	correct	1.0
80.55557979998412	9.42040940001607	go_punish	0.3756790999905206	80.64194669999415	83.00658889999613	85.5586345999618	2.364642200001981	81.648982899962	84.53913170000305	88.60272349999286	1.3576060000341386	1.019502899958752	1.4596326000173576	87.60019739996642	0.6354203000082634	86.57079149998026	1	1	10	4	go_punish	1	0	-1	1	1	1	1	0.0	0.0	0	0.3756790999905206	0.6354203000082634	514.5390917000477	595.1810384000419	596.1880746000097	597.5456806000439	599.0782234000508	600.0977263000095	601.109883200028	602.1392891000141	603.1418152000406	604.6014478000579	2020-05-12 13:16:38.151175	1.09739755927999	0.0	-1.00723572075808	-1.00723572075808	0.090161838521915	-1.00723572075808	-1.09739755927999	0.0	-1.00723572075808	0.090161838521915	-1.00723572075808	0.0	-2.386053460643211	-1.5801227355107885	-1.6619294179735926	-3.748172382072335	-1.834552247648161	-1.6619294179735926	-0.5178744944202365	-2.9412675631324823	-0.555214102489272	-2.7737950841310495	-0.46825706935333267	1	wrong	1.0
90.01305249996949	8.174725399992894	go_punish	0.6794938999810256	90.09941939997952	91.77842280000914	94.33464479999384	1.6790034000296146	91.1070056000026	93.31103169999551	97.37288899999112	0.6714172000065446	1.0236130999983288	0.9012557999812998	96.36914389999583	0.6693367999978364	95.34836209996138	1	1	11	4	go_punish	0	-1	0	1	1	1	0	1.0	0.0	-1	0.6794938999810256	0.6693367999978364	514.5390917000477	604.6385111000272	605.6460973000503	606.3175145000569	607.8501234000432	608.8737365000416	609.8874538000091	610.9082356000436	611.9119807000388	612.8132365000201	2020-05-12 13:16:38.151175	1.14528162920638	0.0	-1.00723572075808	-0.799836339197177	0.138045908448306	-1.00723572075808	-1.14528162920638	0.0	-1.00723572075808	0.138045908448306	-1.00723572075808	-5.26273157378244	-2.3381693907168213	-1.5801227355107885	-1.6619294179735926	-3.540773000511432	-1.78666817772177	-1.6619294179735926	-5.780606068202676	-2.8933834932060916	-0.555214102489272	-2.7737950841310495	-0.46825706935333267	1	wrong	1.0
98.22197649994632	8.024515500001144	nogo_reward	0.491039999993518	98.30834339995636	99.60514259996125	102.1368053999613	1.296799200004898	99.32521829998586	101.11469059996307	105.17370220000157	0.2799242999753915	1.022114799998235	1.159156699955929	104.16594340000302	0.5992407000157982	103.15278209996177	1	1	12	1	nogo_reward	1	0	1	0	1	0	0	0.0	1.0	0	0.491039999993518	0.5992407000157982	514.5390917000477	612.8474351000041	613.8643100000336	614.144234300009	615.6537823000108	616.675897100009	617.6918738000095	618.7050351000507	619.7127939000493	620.8719506000052	2020-05-12 13:16:38.151175	0.316155762821525	0.0	0.0	0.0	0.316155762821525	0.0	-0.316155762821525	0.0	0.0	0.316155762821525	0.0	0.0	-3.167295257101676	-1.5801227355107885	-0.6546936972155126	-2.740936661314255	-1.608558323348551	-0.6546936972155126	-0.5178744944202365	-2.7152736388328726	0.4520216182688079	-2.7737950841310495	0.5389786514047473	1	correct	1.0
106.28302649996476	7.941624400031287	go_reward	1.0	106.3693933999748	107.8764485999709	110.40099549997831	1.5070551999961026	107.37805199995637	109.39278369996464	113.44730719999643	0.4983966000145301	1.0082118000136688	0.8637106000096537	112.4440449999529	0.6652471999987029	111.41498179995688	1	1	13	2	go_reward	1	1	0	1	0	0	0	1.0	0.0	0	1.0	0.6652471999987029	514.5390917000477	620.9084851000225	621.9171437000041	622.4155403000186	623.9318754000124	624.940087200026	625.9540735000046	626.9831367000006	627.9863989000442	628.8501095000538	2020-05-12 13:16:38.151175	1.69598215358317	0.0	2.4283746766373	1.92185700257325	0.732392523054133	2.4283746766373	-1.69598215358317	2.4283746766373	0.0	2.4283746766373	0.732392523054133	-2.4283746766373	-1.7874688663400313	-1.5801227355107885	1.7736809794217872	-0.819079658741005	-1.192321563115943	1.7736809794217872	-2.946249171057536	-0.6030547250170977	1.184414141322941	-0.3454204074937497	0.5389786514047473	1	wrong	1.0
114.26642379997065	8.698061999981292	nogo_punish	0.3558316999697126	114.35279069998069	116.01138129999163	118.55264389998047	1.658590600010939	115.35875749995466	117.52809799998067	121.5838117999956	0.6526238000369631	1.0245458999997936	1.4670408999663778	120.58218689996284	0.5894798000226729	119.55356699996628	1	1	14	3	nogo_punish	1	-1	0	0	1	0	0	0.0	1.0	-1	0.3558316999697126	0.5894798000226729	514.5390917000477	628.8918824000284	629.8978492000024	630.5504730000393	632.0671897000284	633.0917356000282	634.092658700014	635.1212786000106	636.1229035000433	637.5899444000097	2020-05-12 13:16:38.151175	-0.917073882236161	-1.00723572075808	0.0	-1.00723572075808	-0.917073882236161	0.0	0.917073882236161	-1.00723572075808	0.0	-0.917073882236161	0.0	-4.25549585302436	-4.400524902159362	-2.5873584562688685	-0.6546936972155126	-3.748172382072335	-2.841787968406237	-0.6546936972155126	-4.7733703474445965	-3.9485032838905587	0.4520216182688079	-3.7810308048891295	0.5389786514047473	1	correct	1.0
123.00401079998119	8.724535599991214	nogo_punish	1.0	123.09037769999122	125.25726340000983	127.78185149998171	2.166885700018611	124.09443569998257	126.76649849995738	130.8431049999781	1.1628277000272647	1.0153530000243336	0.9718083000043407	129.82700069999555	0.3765140000032261	128.7985214999644	1	1	15	3	nogo_punish	1	-1	0	0	0	1	0	0.0	1.0	0	1.0	0.3765140000032261	514.5390917000477	637.6294694000389	638.6335274000303	639.7963551000576	641.3055902000051	642.3209432000294	643.3376132000121	644.3660924000433	645.3821967000258	646.3540050000302	2020-05-12 13:16:38.151175	1.89502007580656	-1.80707205995525	0.0	-1.80707205995525	-1.89502007580656	0.0	-1.89502007580656	0.0	-1.80707205995525	0.0	-1.89502007580656	0.0	-1.5884309441166413	-3.387194795466039	-0.6546936972155126	-4.548008721269505	-3.819734161976636	-0.6546936972155126	-0.5178744944202365	-3.0314294016543974	-1.4429984575377521	-2.7737950841310495	-1.2680934085505027	1	correct	1.0
131.7656236999901	9.483761599985883	nogo_reward	0.4307590000098571	131.85199060000014	134.47350339998957	137.01792849996127	2.621512799989432	132.86586759996135	135.9984589999658	140.06364349997602	1.6076358000282198	1.0194694999954663	1.2721087000099942	139.04767249996075	0.6835648000123911	138.01864859997295	1	1	16	1	nogo_reward	0	1	0	0	1	0	0	0.0	1.0	1	0.4307590000098571	0.6835648000123911	514.5390917000477	646.3910823000479	647.4049593000091	649.0125951000373	650.5375507000135	651.557020200009	652.5577403000207	653.5867642000085	654.6027352000237	655.8748439000337	2020-05-12 13:16:38.151175	0.316155762821525	0.0	0.0	0.0	0.316155762821525	0.0	-0.316155762821525	0.0	0.0	0.316155762821525	0.0	12.3982156393478	-3.167295257101676	-1.5801227355107885	-0.6546936972155126	-2.740936661314255	-1.608558323348551	-0.6546936972155126	11.880341144927563	-2.7152736388328726	0.4520216182688079	-2.7737950841310495	0.5389786514047473	1	correct	1.0
141.28564619994722	7.766334900050424	go_reward	1.0	141.37201309995726	142.7599285999895	145.2956472999649	1.3879155000322498	142.37113059998956	144.27205579995643	148.33257669996237	0.38879799999995157	1.0235915000084788	0.8057713000453077	147.33107929996913	0.4045876000309363	146.30867389997002	1	1	17	2	go_reward	0	0	1	1	0	0	0	0.0	1.0	1	1.0	0.4045876000309363	514.5390917000477	655.911104800005	656.9102223000373	657.2990203000372	658.8111475000042	659.8347390000126	660.8477656000177	661.8701710000169	662.8716684000101	663.6774397000554	2020-05-12 13:16:38.151175	1.27774557980006	0.0	1.92185700257325	1.52689086296392	0.644111422773188	1.92185700257325	-1.27774557980006	1.92185700257325	0.0	1.92185700257325	0.644111422773188	10.47635863677455	-2.2057054401231415	-1.5801227355107885	1.2671633053577374	-1.214045798350335	-1.280602663396888	1.2671633053577374	9.958484142354314	-1.1095723990811475	1.0961330410419958	-0.8519380815577995	0.5389786514047473	1	correct	1.0
149.089919799997	8.297718299960252	go_reward	0.561326100025326	149.17628670000704	150.74189529998694	153.3001718999585	1.565608599979896	150.18108189996565	152.27682299999287	156.35282289999304	0.5608134000212885	1.0233488999656402	1.1211820999742486	155.34335159999318	0.3731407000450417	154.31400690000737	1	1	18	2	go_reward	1	1	0	1	1	1	0	1.0	0.0	1	0.561326100025326	0.3731407000450417	514.5390917000477	663.7153784000548	664.7201736000134	665.2809870000347	666.8159147000406	667.8392636000062	668.8530986000551	669.8824433000409	670.8919146000408	672.013096700015	2020-05-12 13:16:38.151175	-2.84933672722311	0.0	3.95526553960122	3.64606216679156	1.10592881237812	3.95526553960122	2.84933672722311	0.0	3.95526553960122	1.10592881237812	3.95526553960122	12.3982156393478	-6.332787747146311	-1.5801227355107885	3.3005718423857076	0.9051255054773049	-0.8187852737919561	3.3005718423857076	11.880341144927563	-1.9255005892762775	4.4072871578700274	-2.7737950841310495	4.494244191005968	1	wrong	1.0
157.42492469999706	9.060268000001088	go_reward	0.3193259000545367	157.5112916000071	159.77791199996136	162.31970779999392	2.266620399954263	158.51380089996383	161.30230549996486	165.35415819997434	1.2641110999975353	1.0174023000290617	1.2174014000338502	164.34135669999523	0.3805186999961734	163.3276385999634	1	1	19	2	go_reward	1	1	0	1	1	1	1	0.0	0.0	1	0.3193259000545367	0.3805186999961734	514.5390917000477	672.0503833000548	673.0528926000115	674.3170037000091	675.8413972000126	676.8587995000416	677.8667303000111	678.880448400043	679.893249900022	681.1106513000559	2020-05-12 13:16:38.151175	-0.0581751377942879	2.4283746766373	3.95526553960122	5.32492155511478	3.89709040180693	3.95526553960122	0.0581751377942879	2.4283746766373	3.95526553960122	3.89709040180693	3.95526553960122	9.9698409627105	-3.5416261577174892	0.8482519411265113	3.3005718423857076	2.5839848938005248	1.972376315636854	3.3005718423857076	9.451966468290262	0.8656610001525324	4.4072871578700274	-0.3454204074937497	4.494244191005968	1	wrong	1.0
166.52089979994344	7.832351400051266	go_punish	1.0	166.60726669995347	167.983245899959	170.52185419999296	1.3759792000055313	167.6256113999989	169.5003254999756	173.55155749997357	0.3576344999601133	1.0215287000173703	0.8880606000311673	172.55047329998342	0.5709227999905124	171.53526139998576	1	1	20	4	go_punish	1	0	-1	1	0	0	0	0.0	1.0	-1	1.0	0.5709227999905124	514.5390917000477	681.1463584000012	682.1647031000466	682.5223376000067	684.0394172000233	685.0609459000407	686.0743531000335	687.0895650000311	688.0906492000213	688.9787098000525	2020-05-12 13:16:38.151175	0.0508241633327363	-1.00723572075808	-1.00723572075808	-1.64506769366292	-1.05805988409081	-1.00723572075808	-0.0508241633327363	-1.00723572075808	-1.00723572075808	-1.00723572075808	-1.05805988409081	-4.25549585302436	-3.432626856590465	-2.5873584562688685	-1.6619294179735926	-4.386004354977175	-2.9827739702608858	-1.6619294179735926	-4.7733703474445965	-4.038665122412477	-0.606038265822002	-3.7810308048891295	-0.46825706935333267	1	correct	1.0
174.38866109994706	8.326478500035591	go_punish	1.0	174.4750279999571	176.26511779997963	178.7989437999786	1.7900898000225425	175.48461089999182	177.7752617999795	181.83859569998458	0.7805068999878131	1.0236819999990985	0.9629108000081033	180.82198199996492	0.7740953000029549	179.80905989999883	1	1	21	4	go_punish	1	0	-1	1	0	0	0	0.0	1.0	-1	1.0	0.7740953000029549	514.5390917000477	689.0141197000048	690.0237026000395	690.8042095000274	692.3143535000272	693.3380355000263	694.3481516000465	695.3610737000126	696.3776874000323	697.3405982000404	2020-05-12 13:16:38.151175	-0.599811944118969	-1.00723572075808	-1.80707205995525	-2.31781079333944	-1.20726011583628	-1.80707205995525	0.599811944118969	-1.80707205995525	-1.00723572075808	-1.80707205995525	-1.20726011583628	-3.4556595138271895	-4.08326296404217	-2.5873584562688685	-2.4617657571707627	-5.058747454653695	-3.131974202006356	-2.4617657571707627	-3.9735340082474258	-4.838501461609647	-0.755238497567472	-4.5808671440863	-0.46825706935333267	1	correct	1.0
182.75168469996424	8.156034499988891	go_reward	0.5609694000449963	182.83805159997428	184.16415599995526	186.7143200999708	1.3261043999809772	183.8409088999615	185.70061800000258	189.7504845999647	0.32324709999375045	1.0137020999682136	1.2436014999984764	188.74741909996374	0.6017210999852978	187.7334802999976	1	1	22	2	go_reward	0	0	1	1	1	1	0	0.0	1.0	0	0.5609694000449963	0.6017210999852978	514.5390917000477	697.377143300022	698.3800006000092	698.703247700003	700.2397097000503	701.2534118000185	702.2725720000453	703.2865108000115	704.2895763000124	705.5331778000109	2020-05-12 13:16:38.151175	2.14980660747059	4.35023167921055	3.95526553960122	6.66012642057623	6.10507214707182	3.95526553960122	-2.14980660747059	4.35023167921055	3.95526553960122	6.10507214707182	3.95526553960122	-4.35023167921055	-1.3336444124526112	2.7701089436997615	3.3005718423857076	3.919189759261975	4.180358060901744	3.3005718423857076	-4.868106173630786	3.073642745417423	4.4072871578700274	1.5764365950795005	4.494244191005968	1	correct	1.0
190.9441859999788	8.414410199970007	go_punish	0.3011315999901853	191.03055289998883	192.60108519997448	195.1397527999943	1.5705322999856435	192.03998929995578	194.11883880000096	198.19187799998326	0.5610959000186995	1.020913999993354	1.2530850999755785	197.18373019999126	0.3101059999899007	196.15811199997552	1	1	23	4	go_punish	1	0	-1	1	1	1	1	1.0	1.0	0	0.3011315999901853	0.3101059999899007	514.5390917000477	705.5696446000366	706.5790810000035	707.1401769000222	708.6579305000487	709.678844500042	710.6972037000232	711.722821900039	712.730969700031	713.9840548000066	2020-05-12 13:16:38.151175	1.11926793892762	-1.00723572075808	-2.4449040328601	-2.85551870506293	-1.32563609393248	-2.4449040328601	-1.11926793892762	-1.00723572075808	-2.4449040328601	-1.32563609393248	-2.4449040328601	1.00723572075808	-2.3641830809955815	-2.5873584562688685	-3.0995977300756126	-5.596455366377185	-3.250350180102556	-3.0995977300756126	0.4893612263378435	-4.357065495586878	-1.9928824145912922	-3.7810308048891295	-1.905925381455353	1	correct	1.0
199.3942559999996	9.731968499952927	nogo_reward	0.2791143000358715	199.48062290000962	202.2120719999657	204.74994429998333	2.7314490999560803	200.4847904999624	203.73650699999416	207.79747150000185	1.7272815000033006	1.0134372999891639	1.4151198999607004	206.79057469998952	0.4312752999830991	205.75995169999078	1	1	24	1	nogo_reward	1	0	1	0	1	0	0	0.0	1.0	0	0.2791143000358715	0.4312752999830991	514.5390917000477	714.0197146000573	715.0238822000101	716.7511637000134	718.2755987000419	719.289036000031	720.2990434000385	721.3296664000372	722.3365632000496	723.7516831000103	2020-05-12 13:16:38.151175	3.27490538316702	2.4283746766373	0.0	2.4283746766373	3.27490538316702	0.0	-3.27490538316702	2.4283746766373	0.0	3.27490538316702	0.0	-2.4283746766373	-0.20854563675618154	0.8482519411265113	-0.6546936972155126	-0.3125619846769552	1.3501912969969438	-0.6546936972155126	-2.946249171057536	0.2434759815126224	0.4520216182688079	-0.3454204074937497	0.5389786514047473	1	correct	1.0
209.1616058999789	9.776261499966495	go_punish	0.4006882999674417	209.24797279998893	211.9795569999842	214.5254558000015	2.731584199995268	210.26373389997752	213.51293520000763	217.54972700000508	1.7158231000066735	1.0125205999938771	1.4745072999503464	216.54547049995745	0.4152438000310212	215.5329567999579	1	1	25	4	go_punish	1	0	-1	1	1	1	1	0.0	0.0	0	0.4006882999674417	0.4152438000310212	514.5390917000477	723.7870645000366	724.8028256000252	726.5186487000319	728.0520269000554	729.0645475000492	730.0720485000056	731.0845622000052	732.0888187000528	733.5633260000031	2020-05-12 13:16:38.151175	1.45834211681228	-0.799836339197177	-2.4449040328601	-2.27982215426768	-0.986561916047815	-2.4449040328601	-1.45834211681228	-0.799836339197177	-2.4449040328601	-0.986561916047815	-2.4449040328601	0.799836339197177	-2.0251089031109215	-2.3799590747079655	-3.0995977300756126	-5.020758815581935	-2.9112760022178907	-3.0995977300756126	0.28196184477694053	-4.017991317702212	-1.9928824145912922	-3.5736314233282265	-1.905925381455353	1	wrong	1.0
218.9730031999643	8.370774500013795	nogo_reward	0.4797343999962322	219.05937009997433	220.5114287000033	223.05576239997754	1.4520586000289768	220.0751992999576	222.0310535999597	226.08778909995453	0.4362294000457041	1.0247088000178337	1.342355500033591	225.08205769996857	0.3060516000259667	224.06909429997904	1	1	26	1	nogo_reward	0	1	0	0	1	0	1	0.0	0.0	1	0.4797343999962322	0.3060516000259667	514.5390917000477	733.598461800022	734.6142910000053	735.050520400051	736.5701453000074	737.5948541000253	738.6081860000268	739.6211494000163	740.6268808000023	741.9692363000358	2020-05-12 13:16:38.151175	2.65424952562738	1.92185700257325	0.0	1.92185700257325	2.65424952562738	0.0	-2.65424952562738	1.92185700257325	0.0	2.65424952562738	0.0	10.47635863677455	-0.8292014942958215	0.34173426706246146	-0.6546936972155126	-0.819079658741005	0.7295354394573039	-0.6546936972155126	9.958484142354314	-0.3771798760270175	0.4520216182688079	-0.8519380815577995	0.5389786514047473	1	wrong	1.0
227.37984199996572	8.373523399990518	go_punish	0.3968686999869533	227.46620889997575	229.0372981999535	231.57936079998035	1.571089299977757	228.48157080000965	230.56950919999508	234.62786879995838	0.5557273999438621	1.009851599985268	1.211863500007894	233.62620379996952	0.4374989999923855	232.58767569996417	1	1	27	4	go_punish	1	0	-1	1	1	1	1	1.0	1.0	0	0.3968686999869533	0.4374989999923855	514.5390917000477	742.0053006000235	743.0206625000574	743.5763899000012	745.1086009000428	746.1184525000281	747.1267674000119	748.1652955000172	749.1669605000061	750.378824000014	2020-05-12 13:16:38.151175	1.72299288393551	-0.637831972904843	-2.4449040328601	-1.82770387088081	-0.721911148924581	-2.4449040328601	-1.72299288393551	-0.637831972904843	-2.4449040328601	-0.721911148924581	-2.4449040328601	0.637831972904843	-1.7604581359876914	-2.2179547084156317	-3.0995977300756126	-4.568640532195065	-2.646625235094657	-3.0995977300756126	0.11995747848460647	-3.7533405505789785	-1.9928824145912922	-3.4116270570358926	-1.905925381455353	1	correct	1.0
235.7909560999833	8.23523779999232	go_reward	0.4745479000266641	235.87732299999334	237.21062629995868	239.75195710000116	1.333303299965337	236.89094959996874	238.73323029995663	242.79049469996244	0.31967669998994097	1.0187268000445329	1.3220661000232212	241.7827277999604	0.2932514999993145	240.75794869998936	1	1	28	2	go_reward	1	1	0	1	1	1	0	0.0	1.0	1	0.4745479000266641	0.2932514999993145	514.5390917000477	750.4164147000411	751.4300413000165	751.7497180000064	753.2723220000044	754.2910488000489	755.2970404000371	756.3218195000081	757.3295864000102	758.6516525000334	2020-05-12 13:16:38.151175	0.944485973458021	3.44874786553717	3.95526553960122	5.29767511963564	4.89975151305924	3.95526553960122	-0.944485973458021	3.44874786553717	3.95526553960122	4.89975151305924	3.95526553960122	8.94946777381063	-2.5389650464651803	1.8686251300263814	3.3005718423857076	2.556738458321385	2.9750374268891635	3.3005718423857076	8.431593279390393	1.8683221114048423	4.4072871578700274	0.6749527814061205	4.494244191005968	1	correct	1.0
244.06780819996493	8.72089270001743	nogo_punish	0.2928167000063695	244.15417509997496	246.06833639997058	248.6276275999844	1.9141612999956124	245.16356849996373	247.6088067999808	251.6849799999618	0.9047679000068456	1.0188208000035957	1.1900878000305966	250.67306080000708	0.3902232000255026	249.6439287000103	1	1	29	3	nogo_punish	1	-1	0	0	1	0	0	0.0	1.0	-1	0.2928167000063695	0.3902232000255026	514.5390917000477	758.6932668000227	759.7026602000115	760.6074281000183	762.1478985000285	763.1667193000321	764.183020400058	765.2121525000548	766.2240717000095	767.4141595000401	2020-05-12 13:16:38.151175	-1.8100121533616	-1.80707205995525	0.0	-1.43766831210202	-1.8100121533616	0.0	1.8100121533616	-1.80707205995525	0.0	-1.8100121533616	0.0	-3.4556595138271895	-5.293463173284802	-3.387194795466039	-0.6546936972155126	-4.178604973416275	-3.734726239531676	-0.6546936972155126	-3.9735340082474258	-4.841441555015997	0.4520216182688079	-4.5808671440863	0.5389786514047473	1	correct	1.0
252.82747639995068	9.000334700045642	nogo_punish	1.0	252.91384329996072	255.37662860000273	257.91151929995976	2.4627853000420146	253.91722740000114	256.89324159995886	260.9516310999752	1.4594012000015937	1.0182777000009082	0.9625469000311568	259.9491042000009	0.7340477000107057	258.9199876000057	1	1	30	3	nogo_punish	0	0	-1	0	0	1	0	0.0	1.0	-1	1.0	0.7340477000107057	514.5390917000477	767.4529350000084	768.4563191000489	769.9157203000505	771.4323333000066	772.4506110000075	773.4590793000534	774.4881959000486	775.4907228000229	776.4532697000541	2020-05-12 13:16:38.151175	2.60780457541974	-2.4449040328601	0.0	-2.1558064270471	-2.60780457541974	0.0	-2.60780457541974	0.0	-2.4449040328601	0.0	-2.60780457541974	-5.26273157378244	-0.8756464445034613	-4.025026768370889	-0.6546936972155126	-4.8967430883613545	-4.532518661589816	-0.6546936972155126	-5.780606068202676	-3.0314294016543974	-2.155782957150932	-2.7737950841310495	-1.905925381455353	1	correct	1.0
261.86807499994757	7.988186200032942	nogo_punish	0.4922818999621086	261.9544418999576	263.49784470000304	266.05602009996073	1.5434028000454418	262.9565897999564	265.03057539998554	269.1058251999784	0.5412549000466242	1.0254446999751963	0.8368029000121169	268.0856613999931	0.5397585000027902	267.0603667999967	1	1	31	3	nogo_punish	1	-1	0	0	1	0	1	0.0	0.0	-1	0.4922818999621086	0.5397585000027902	514.5390917000477	776.4935336000053	777.4956815000041	778.0369364000508	779.5696671000333	780.5951118000085	781.5994585000444	782.6247531000408	783.6449169000261	784.4817198000383	2020-05-12 13:16:38.151175	-1.72715906264868	-2.4449040328601	-1.00723572075808	-2.72842546554227	-2.73439478340675	-1.00723572075808	1.72715906264868	-2.4449040328601	-1.00723572075808	-2.73439478340675	-1.00723572075808	-2.8178275409223397	-5.210610082571881	-4.025026768370889	-1.6619294179735926	-5.469362126856526	-4.659108869576826	-1.6619294179735926	-3.3357020353425764	-5.765824185061147	-0.555214102489272	-5.21869911699115	-0.46825706935333267	1	wrong	1.0
269.8935513999895	8.590051899955142	go_punish	0.4116726999636739	269.97991829999955	271.7754850999918	274.3218041000073	1.7955667999922298	270.99416949995793	273.30149029998574	277.35894379997626	0.7813156000338495	1.0203138000215404	1.2110263999784365	276.35156649997225	0.3526527000358328	275.3384531000047	1	1	32	4	go_punish	1	0	-1	1	1	1	0	0.0	1.0	0	0.4116726999636739	0.3526527000358328	514.5390917000477	784.5190100000473	785.5332612000057	786.3145768000395	787.8405820000335	788.860895800055	789.8775448000524	790.89065820002	791.898035500024	793.1090619000024	2020-05-12 13:16:38.151175	1.93044924017936	-0.510738733384186	-2.4449040328601	-1.47114436804052	-0.514454792680737	-2.4449040328601	-1.93044924017936	-0.510738733384186	-2.4449040328601	-0.514454792680737	-2.4449040328601	0.510738733384186	-1.5530017797438413	-2.0908614688949747	-3.0995977300756126	-4.212081029354775	-2.439168878850813	-3.0995977300756126	-0.007135761036050514	-3.5458841943351347	-1.9928824145912922	-3.2845338175152357	-1.905925381455353	1	correct	1.0
278.5209179999656	8.51012350001838	go_punish	1.0	278.60728489997564	280.62263820000226	283.1589098999975	2.015353300026618	279.6171685999725	282.1407925999956	286.21588079998037	1.0054696000297554	1.0181173000019044	0.901527600013651	285.2021661999752	0.6421139999874867	284.1730029999744	1	1	33	4	go_punish	1	0	-1	1	0	0	0	0.0	1.0	-1	1.0	0.6421139999874867	514.5390917000477	793.1463766000234	794.1562603000202	795.16172990005	796.6798843000433	797.6980016000452	798.7120947000221	799.7412579000229	800.7549725000281	801.6565001000417	2020-05-12 13:16:38.151175	-2.09375459800329	-0.410614672202831	-2.4449040328601	-1.18879859618544	-0.351149434856805	-2.4449040328601	2.09375459800329	-2.4449040328601	-0.410614672202831	-2.4449040328601	-0.351149434856805	-2.8178275409223397	-5.5772056179264915	-1.9907374077136195	-3.0995977300756126	-3.929735257499695	-2.275863521026881	-3.0995977300756126	-3.3357020353425764	-5.476333434514498	0.10087218341200288	-5.21869911699115	0.12836397920191633	1	correct	1.0
287.0722304999945	8.744556299992837	nogo_punish	1.0	287.1585974000045	289.2062099999748	291.74026319995755	2.047612599970307	288.15981619997183	290.72436289995676	294.7979238999542	1.0463938000029884	1.0159003000007942	1.105229800043162	293.78450829995563	0.6703946000197902	292.74876679998124	1	1	34	3	nogo_punish	1	-1	0	0	0	1	0	0.0	1.0	0	1.0	0.6703946000197902	514.5390917000477	801.6976891000522	802.6989079000195	803.7453017000225	805.2634546000045	806.2793549000053	807.287858500029	808.3236000000034	809.3370156000019	810.4422454000451	2020-05-12 13:16:38.151175	2.338516522878	-2.95564276624428	-1.00723572075808	-3.1869338138444	-3.34575224363607	-1.00723572075808	-2.338516522878	-1.00723572075808	-2.95564276624428	-1.00723572075808	-3.34575224363607	1.00723572075808	-1.1449344970452016	-4.535765501755069	-1.6619294179735926	-5.927870475158655	-5.270466329806146	-1.6619294179735926	0.4893612263378435	-4.038665122412477	-2.893730625367262	-3.7810308048891295	-2.416664114839533	1	correct	1.0
295.8523735999479	9.19400380004663	nogo_reward	0.2755269999615848	295.93874049995793	298.2913722000085	300.8442345999647	2.3526317000505514	296.95428399997763	299.82468610000797	303.8874793999712	1.3370882000308484	1.019548499956727	1.2452649000333622	302.8848279999802	0.4152400000020861	301.8628804999753	1	1	35	1	nogo_reward	1	0	1	0	1	0	0	0.0	1.0	0	0.2755269999615848	0.4152400000020861	514.5390917000477	810.4778322000057	811.4933757000254	812.8304639000562	814.3637778000557	815.3833263000124	816.401972200023	817.4239197000279	818.4265711000189	819.6718360000523	2020-05-12 13:16:38.151175	5.12975190608261	3.95526553960122	0.0	3.95526553960122	5.12975190608261	0.0	-5.12975190608261	3.95526553960122	0.0	5.12975190608261	0.0	-3.95526553960122	1.6463008861594082	2.3751428040904314	-0.6546936972155126	1.214328878286965	3.2050378199125333	-0.6546936972155126	-4.473140034021457	2.098322504428212	0.4520216182688079	1.1814704554701705	0.5389786514047473	1	correct	1.0
305.0837059999467	9.513536800048314	go_reward	0.293654199980665	305.1700728999567	307.69824110000627	310.24342019995674	2.5281682000495493	306.183680099959	309.22301059996244	313.2829357999726	1.5145610000472516	1.0204095999943092	1.400673900032416	312.2734966999851	0.5097874000202864	311.26031589997	1	1	36	2	go_reward	0	0	1	1	1	1	0	0.0	1.0	0	0.293654199980665	0.5097874000202864	514.5390917000477	819.7091646000044	820.7227718000067	822.237332800054	823.7621023000102	824.7825119000045	825.7994076000177	826.8125884000328	827.8220275000203	829.2227014000528	2020-05-12 13:16:38.151175	2.96287050802162	5.17295302975548	3.95526553960122	6.65829575432765	6.91813604762284	3.95526553960122	-2.96287050802162	5.17295302975548	3.95526553960122	6.91813604762284	3.95526553960122	-5.17295302975548	-0.5205805119015814	3.592830294244692	3.3005718423857076	3.917359093013395	4.993421961452764	3.3005718423857076	-5.690827524175717	3.886706645968443	4.4072871578700274	2.399157945624431	4.494244191005968	1	correct	1.0
314.63363539997954	8.44630790001247	go_punish	0.7225500000058673	314.7200022999896	316.5635267999605	319.0965987999807	1.843524499970954	315.7214086999884	318.0880672999774	322.1437418999849	0.84211809997214	1.0085315000033006	1.0225683000171557	321.1315007999656	0.800000999995973	320.1091320999549	1	1	37	4	go_punish	1	0	-1	1	1	1	0	1.0	0.0	0	0.7225500000058673	0.800000999995973	514.5390917000477	829.2590940000373	830.2605004000361	831.1026185000082	832.6271590000251	833.6356905000284	834.6482238000026	835.6705925000133	836.6828336000326	837.7054019000498	2020-05-12 13:16:38.151175	2.4283752617186	-0.410614672202831	-2.95564276624428	-1.97156781046963	-0.527267504525681	-2.95564276624428	-2.4283752617186	-0.410614672202831	-2.95564276624428	-0.527267504525681	-2.95564276624428	0.410614672202831	-1.0550757582046013	-1.9907374077136195	-3.6103364634597925	-4.712504471783885	-2.451981590695757	-3.6103364634597925	-0.10725982221740549	-3.5586969061800784	-2.503621147975472	-3.1844097563338805	-2.416664114839533	1	wrong	1.0
323.12198669998907	7.97352979995776	nogo_punish	1.0	323.2083535999991	324.68389240000397	327.2197072999552	1.4755388000048697	324.21648629999254	326.2004210999585	330.27403500000946	0.4674061000114307	1.0192861999967135	0.9078483999473974	329.26182439998956	0.5148794999695383	328.2320867999806	1	1	38	3	nogo_punish	1	-1	0	0	0	1	0	0.0	1.0	0	1.0	0.5148794999695383	514.5390917000477	837.7474453000468	838.7555780000403	839.2229841000517	840.7395128000062	841.7587990000029	842.7711785000283	843.8009161000373	844.8131267000572	845.7209751000046	2020-05-12 13:16:38.151175	2.400238206189	-2.95564276624428	-0.799836339197177	-2.54834064665663	-3.20007454538618	-0.799836339197177	-2.400238206189	-0.799836339197177	-2.95564276624428	-0.799836339197177	-3.20007454538618	0.799836339197177	-1.0832128137342014	-4.535765501755069	-1.4545300364126896	-5.289277307970885	-5.124788631556256	-1.4545300364126896	0.28196184477694053	-3.8312657408515745	-2.748052927117372	-3.5736314233282265	-2.416664114839533	1	correct	1.0
331.1355722999433	8.289318200026173	go_punish	1.0	331.22193919995334	332.7371164999786	335.2690663000103	1.5151773000252433	332.2395822999533	334.24993029999314	338.3147232999909	0.4975342000252567	1.0191360000171699	1.1965340999886394	337.3072314999881	0.3419594000442885	336.2852038999554	1	1	39	4	go_punish	0	-1	0	1	0	0	1	1.0	1.0	0	1.0	0.3419594000442885	514.5390917000477	845.7610309000011	846.778674000001	847.2762082000263	848.7890220000409	849.808158000058	850.8242956000031	851.8463232000358	852.8538150000386	854.0503491000272	2020-05-12 13:16:38.151175	-2.5949880606259	-0.331415108781478	-2.95564276624428	-1.58502623643366	-0.360654705618384	-2.95564276624428	2.5949880606259	-2.95564276624428	-0.331415108781478	-2.95564276624428	-0.360654705618384	2.95564276624428	-6.078439080549101	-1.9115378442922666	-3.6103364634597925	-4.325962897747915	-2.2853687917884598	-3.6103364634597925	2.4377682718240434	-5.987072167898678	0.0913669126504239	-5.72943785037533	0.20756354262326931	1	correct	1.0
339.4653916999814	8.885184400016442	nogo_reward	0.5395718000363559	339.55175859999144	341.4934207999613	344.0408781999722	1.941662199969869	340.56894209998427	343.01861420000205	347.0829398999922	0.924478699977044	1.0222639999701641	1.3540031000156887	346.07644189998973	0.7305449999985285	345.047557999962	1	1	40	1	nogo_reward	1	0	1	0	1	0	0	0.0	1.0	0	0.5395718000363559	0.7305449999985285	514.5390917000477	854.0908503000392	855.108033800032	856.032512500009	857.5577059000498	858.5799699000199	859.5866497000097	860.6155336000375	861.6220316000399	862.9760347000556	2020-05-12 13:16:38.151175	4.13133512163004	3.13954449272751	0.0	3.13954449272751	4.13133512163004	0.0	-4.13133512163004	3.13954449272751	0.0	4.13133512163004	0.0	-3.13954449272751	0.6478841017068389	1.5594217572167213	-0.6546936972155126	0.39860783141325484	2.206621035459964	-0.6546936972155126	-3.6574189871477465	1.0999057199756428	0.4520216182688079	0.3657494085964603	0.5389786514047473	1	correct	1.0
348.38746809994336	7.987358700018376	go_reward	0.6915659999940544	348.4738349999534	349.83551099995384	352.38102109998	1.3616760000004433	349.478536599956	351.35949409997556	355.4174977999646	0.35697439999785274	1.0215270000044256	1.043695900007151	354.40797369997017	0.7304654000326991	353.390391599969	1	1	41	2	go_reward	1	1	0	1	1	1	0	0.0	1.0	1	0.6915659999940544	0.7304654000326991	514.5390917000477	863.0129267000011	864.0176283000037	864.3746027000016	865.8985858000233	866.9201128000277	867.9294833000167	868.9470654000179	869.9565895000123	871.0002854000195	2020-05-12 13:16:38.151175	1.60567718236519	4.11423436863174	3.95526553960122	5.31174141065993	5.56094272196641	3.95526553960122	-1.60567718236519	4.11423436863174	3.95526553960122	5.56094272196641	3.95526553960122	8.28398127071606	-1.8777738375580113	2.5341116331209514	3.3005718423857076	2.5708047493456747	3.636228635796334	3.3005718423857076	7.766106776295824	2.5295133203120126	4.4072871578700274	1.3404392845006905	4.494244191005968	1	correct	1.0
356.41479119996075	9.470963500032667	nogo_punish	1.0	356.5011580999708	359.47093319997657	362.00353669998003	2.9697751000057906	357.5068365999614	360.98428350000177	365.05623529996956	1.964096600015182	1.019253199978266	0.9158863000338897	364.0426889999653	0.5324625000357628	363.02158229995985	1	1	42	3	nogo_punish	1	-1	0	0	0	1	0	0.0	1.0	0	1.0	0.5324625000357628	514.5390917000477	871.0402498000185	872.0459283000091	874.0100249000243	875.5233752000495	876.5426284000278	877.5606740000076	878.581780700013	879.5953270000173	880.5112133000512	2020-05-12 13:16:38.151175	2.44850995256451	-2.95564276624428	-0.637831972904843	-2.04607972455284	-3.08634192546935	-0.637831972904843	-2.44850995256451	-0.637831972904843	-2.95564276624428	-0.637831972904843	-3.08634192546935	0.637831972904843	-1.0349410673586914	-4.535765501755069	-1.2925256701203556	-4.787016385867095	-5.011056011639426	-1.2925256701203556	0.11995747848460647	-3.66926137455924	-2.634320307200542	-3.4116270570358926	-2.416664114839533	1	correct	1.0
365.92552939994493	8.397734900005162	nogo_punish	1.0	366.01189629995497	367.8652308000019	370.39247029996477	1.8533345000469126	367.02288780000526	369.3830990999704	373.4458764999872	0.8423429999966174	1.009371199994348	0.9637546999729238	372.4391172999749	0.4392366000101901	371.41088779998245	1	1	43	3	nogo_punish	1	-1	0	0	0	1	0	0.0	1.0	0	1.0	0.4392366000101901	514.5390917000477	880.5509880000027	881.561979500053	882.4043225000496	883.9221908000181	884.9315620000125	885.9499795000302	886.9782090000226	887.9849682000349	888.9487229000079	2020-05-12 13:16:38.151175	2.48642895565505	-2.95564276624428	-0.510738733384186	-1.6493946908527	-2.99716768903924	-0.510738733384186	-2.48642895565505	-0.510738733384186	-2.95564276624428	-0.510738733384186	-2.99716768903924	0.510738733384186	-0.9970220642681515	-4.535765501755069	-1.1654324305996986	-4.390331352166955	-4.921881775209316	-1.1654324305996986	-0.007135761036050514	-3.542168135038583	-2.545146070770432	-3.2845338175152357	-2.416664114839533	1	correct	1.0
374.3624983999762	9.045414599997457	nogo_punish	1.0	374.4488652999862	376.4322987999767	378.96753639995586	1.9834334999904968	375.460958199983	377.94909049995476	382.0188887999975	0.9713405999937095	1.0184459000010975	1.4753910999861546	381.0073243000079	0.535193599993363	379.9808961999952	1	1	44	3	nogo_punish	0	0	-1	0	0	1	1	1.0	1.0	-1	1.0	0.535193599993363	514.5390917000477	888.9879570000339	890.0000499000307	890.9713905000244	892.4881822000025	893.5066281000036	894.5199879000429	895.5464160000556	896.5579805000452	898.0333716000314	2020-05-12 13:16:38.151175	2.51634223782621	-2.95564276624428	-0.410614672202831	-1.33482123105454	-2.92695691002904	-0.410614672202831	-2.51634223782621	-0.410614672202831	-2.95564276624428	-0.410614672202831	-2.92695691002904	-4.852116901579609	-0.9671087820969912	-4.535765501755069	-1.0653083694183436	-4.075757892368795	-4.851670996199116	-1.0653083694183436	-5.369991395999845	-3.4420440738572284	-2.474935291760232	-3.1844097563338805	-2.416664114839533	1	correct	1.0
383.4480715999962	7.770534199953659	nogo_punish	1.0	383.5344385000062	384.9591755999718	387.49941739998746	1.4247370999655686	384.5389339000103	386.47710149997147	390.53054279997025	0.42024169996147975	1.0223159000159967	0.7744298999896273	389.5282013999531	0.6472409999696538	388.5127251999803	1	1	45	3	nogo_punish	1	-1	0	0	0	1	1	1.0	1.0	0	1.0	0.6472409999696538	514.5390917000477	898.0735302000539	899.078025600058	899.4982673000195	901.0161932000192	902.0385091000352	903.051816900028	904.0672931000008	905.069634500018	905.8440644000076	2020-05-12 13:16:38.151175	1.75879522531779	-2.95564276624428	-1.33865082953955	-2.09161303883296	-3.09744605485735	-1.33865082953955	-1.75879522531779	-1.33865082953955	-2.95564276624428	-1.33865082953955	-3.09744605485735	1.33865082953955	-1.7246557946054113	-4.535765501755069	-1.9933445267550627	-4.832549700147215	-5.022160141027426	-1.9933445267550627	0.8207763351193136	-4.370080231193947	-2.645424436588542	-4.1124459136706	-2.416664114839533	1	correct	1.0
391.25514489994384	9.035131300042849	go_punish	0.297899299999699	391.3415117999539	393.89556929998787	396.4367127000005	2.5540575000339913	392.3561564999983	395.41710630001023	399.4530670999667	1.5394127999895773	1.0196063999902663	0.9235760000300388	398.45751340000425	0.4775536999804899	397.44427310000185	1	1	46	4	go_punish	1	0	-1	1	1	1	0	0.0	1.0	0	0.297899299999699	0.4775536999804899	514.5390917000477	905.8806035000016	906.895248200046	908.4346610000356	909.956198000058	910.9758044000482	911.9833648000496	912.996605100052	913.9921588000144	914.9157348000444	2020-05-12 13:16:38.151175	2.06694150530297	-0.331415108781478	-2.35902171768904	-1.27951308858617	-0.292080212386068	-2.35902171768904	-2.06694150530297	-0.331415108781478	-2.35902171768904	-0.292080212386068	-2.35902171768904	0.331415108781478	-1.4165095146202313	-1.9115378442922666	-3.013715414904553	-4.0204497499004255	-2.216794298556144	-3.013715414904553	-0.18645938563875847	-3.3235096140404656	-1.907000099420232	-3.1052101929125273	-1.8200430662842928	1	correct	1.0
400.3310061999946	8.306181399966476	nogo_punish	1.0	400.4173731000046	402.19504869997024	404.73391199996706	1.7776755999656189	401.4297016999917	403.71309829998063	407.7842013000045	0.765346999978533	1.0208136999864337	0.9393531999666038	406.78233059996273	0.5410824000136927	405.7538852999569	1	1	47	3	nogo_punish	1	-1	0	0	0	1	1	0.0	0.0	0	1.0	0.5410824000136927	514.5390917000477	914.9564648000523	915.9687934000394	916.734140400018	918.2521900000283	919.2730037000148	920.2929770000046	921.3214223000105	922.3232930000522	923.2626462000188	2020-05-12 13:16:38.151175	1.937154168232	-2.95564276624428	-1.06835483158613	-1.68405854076168	-3.00550899981813	-1.06835483158613	-1.937154168232	-1.06835483158613	-2.95564276624428	-1.06835483158613	-3.00550899981813	1.06835483158613	-1.5462968516912015	-4.535765501755069	-1.7230485288016426	-4.424995202075935	-4.930223085988206	-1.7230485288016426	0.5504803371658935	-4.099784233240527	-2.553487381549322	-3.8421499157171795	-2.416664114839533	1	wrong	1.0
408.6744234999643	8.34080900001561	go_reward	0.5932073999429122	408.7607903999743	410.2338298999821	412.7758215999929	1.4730395000077579	409.76648309995664	411.76343809999526	415.8219393999899	0.4673468000254388	1.012383499997668	1.2796600000000353	414.8140947999783	0.4629474999965168	413.79898109997146	1	1	48	2	go_reward	1	1	0	1	1	1	0	0.0	1.0	1	0.5932073999429122	0.4629474999965168	514.5390917000477	923.299882100022	924.3055748000044	924.7729216000298	926.302529800043	927.3149133000406	928.3380728000192	929.353186500026	930.3610311000376	931.6406911000377	2020-05-12 13:16:38.151175	3.50208009274087	5.7129592939072	3.95526553960122	6.68177531382279	7.4573456323421	3.95526553960122	-3.50208009274087	5.7129592939072	3.95526553960122	7.4573456323421	3.95526553960122	6.6852563454406	0.018629072817668568	4.132836558396411	3.3005718423857076	3.940838652508535	5.5326315461720235	3.3005718423857076	6.167381851020364	4.425916230687703	4.4072871578700274	2.93916420977615	4.494244191005968	1	correct	1.0
417.05135239998344	8.572273299971243	nogo_reward	0.2936680000275373	417.1377192999935	419.11738919996424	421.6548361000023	1.9796698999707587	418.1477486999938	420.6422365999897	424.6834804999527	0.96964049997041	1.012599500012584	1.0265121000120416	423.6867383999635	0.4461641000234522	422.67372809996584	1	1	49	1	nogo_reward	1	0	1	0	1	0	0	0.0	1.0	0	0.2936680000275373	0.4461641000234522	514.5390917000477	931.6768110000412	932.6868404000415	933.656480900012	935.1813283000374	936.19392780005	937.2128198000136	938.2258301000112	939.2225722000004	940.2490843000124	2020-05-12 13:16:38.151175	3.35164042004864	2.50158073886815	0.0	2.50158073886815	3.35164042004864	0.0	-3.35164042004864	2.50158073886815	0.0	3.35164042004864	0.0	-2.50158073886815	-0.13181059987456134	0.9214580033573614	-0.6546936972155126	-0.23935592244610504	1.426926333878564	-0.6546936972155126	-3.0194552332883866	0.3202110183942426	0.4520216182688079	-0.27221434526289956	0.5389786514047473	1	correct	1.0
425.66462619998504	8.51256050000643	go_reward	0.3117449000128545	425.75099309999507	427.61220219999086	430.16964509995887	1.86120909999579	426.7545797000057	429.1537323999801	433.20417549996625	0.8576224999851547	1.0159126999787986	1.0593781000352465	432.1907233999809	0.3674941000062972	431.1775232999935	1	1	50	2	go_reward	1	1	0	1	1	1	1	1.0	1.0	1	0.3117449000128545	0.3674941000062972	514.5390917000477	940.2900848000428	941.2936714000534	942.1512939000386	943.6928241000278	944.7087368000066	945.7166150000412	946.7298151000286	947.743267200014	948.8026453000492	2020-05-12 13:16:38.151175	5.00539859689936	6.98216281171077	3.95526553960122	7.76863873493626	8.96066413650058	3.95526553960122	-5.00539859689936	6.98216281171077	3.95526553960122	8.96066413650058	3.95526553960122	5.41605282763703	1.5219475769761583	5.402040076199982	3.3005718423857076	5.027702073622004	7.035950050330503	3.3005718423857076	4.898178333216793	5.929234734846181	4.4072871578700274	4.208367727579721	4.494244191005968	1	correct	1.0
434.21445169998344	9.752669200010018	go_reward	0.2617505999514833	434.3008185999935	437.06028489995504	439.61827420000907	2.7594662999615593	435.3076816999819	438.5997032999875	442.6613551999907	1.752603199973123	1.0185709000215866	1.3921326000128147	441.65599399997143	0.6282109000021592	440.6316681999597	1	1	51	2	go_reward	1	1	0	1	1	1	0	0.0	1.0	1	0.2617505999514833	0.6282109000021592	514.5390917000477	948.8399103000412	949.8467734000296	951.5993766000028	953.1387950000352	954.1573659000568	955.1707599000074	956.1950857000191	957.2004469000384	958.5925795000512	2020-05-12 13:16:38.151175	6.20181670910624	7.99370503069085	3.95526553960122	8.63429644166119	10.1570822487075	3.95526553960122	-6.20181670910624	7.99370503069085	3.95526553960122	10.1570822487075	3.95526553960122	4.40451060865695	2.718365689183039	6.413582295180062	3.3005718423857076	5.893359780346936	8.232368162537425	3.3005718423857076	3.8866361142367136	7.125652847053102	4.4072871578700274	5.219909946559801	4.494244191005968	1	correct	1.0
444.0093694999814	9.41828370001167	go_reward	0.2607687000418082	444.09573639999144	446.5152453999617	449.07227639999473	2.419508999970276	445.09564759995544	448.04839049995644	452.11288809997507	1.4195978000062723	1.0238859000382945	1.401132000028042	451.1085175999907	0.4765620999969542	450.08650219999265	1	1	52	2	go_reward	1	1	0	1	1	1	1	0.0	0.0	1	0.2607687000418082	0.4765620999969542	514.5390917000477	958.6348281000392	959.6347393000032	961.0543371000094	962.5874822000042	963.6113681000425	964.6255939000404	965.6476093000384	966.6519798000228	968.0531118000508	2020-05-12 13:16:38.151175	7.15765609028253	8.80296992302486	3.95526553960122	9.32645042529432	11.1129216298838	3.95526553960122	-7.15765609028253	8.80296992302486	3.95526553960122	11.1129216298838	3.95526553960122	3.5952457163229408	3.6742050703593288	7.222847187514071	3.3005718423857076	6.585513763980066	9.188207543713725	3.3005718423857076	3.0773712219027045	8.081492228229402	4.4072871578700274	6.02917483889381	4.494244191005968	1	wrong	1.0
453.46353809995344	8.350588600034826	go_punish	0.4389653999824077	453.5499049999635	455.292002299975	457.8399733999977	1.742097300011551	454.55975899996713	456.82495829998504	460.8919323000009	0.7322433000078945	1.015015100012647	1.0085612999973819	459.87762879999343	0.3010087999864481	458.85681269998906	1	1	53	4	go_punish	1	0	-1	1	1	1	0	0.0	1.0	0	0.4389653999824077	0.3010087999864481	514.5390917000477	968.0889967000112	969.0988507000149	969.8310940000227	971.3640500000328	972.3790651000454	973.3959044000368	974.4167205000412	975.4310240000486	976.439585300046	2020-05-12 13:16:38.151175	2.18386592806367	-0.26851849238895	-2.35902171768904	-1.03703354264791	-0.175155789625369	-2.35902171768904	-2.18386592806367	-0.26851849238895	-2.35902171768904	-0.175155789625369	-2.35902171768904	0.26851849238895	-1.2995850918595315	-1.8486412278997384	-3.013715414904553	-3.777970203962165	-2.099869875795445	-3.013715414904553	-0.2493560020312865	-3.2065851912797663	-1.907000099420232	-3.0423135765199993	-1.8200430662842928	1	correct	1.0
461.8557411999791	9.701063100015745	nogo_punish	1.0	461.9421080999891	464.70811669999966	467.2365063999895	2.7660086000105366	462.9491866999887	466.21438429999387	470.2869903999963	1.7589300000109915	1.022122099995613	1.3561808000085875	469.27223090000905	0.5574056999757886	468.2506783999851	1	1	54	3	nogo_punish	0	0	-1	0	0	1	0	0.0	1.0	-1	1.0	0.5574056999757886	514.5390917000477	976.4811998000368	977.4882784000364	979.2472084000474	980.7534760000416	981.7755981000372	982.7897701000328	983.8113226000568	984.826082100044	986.1822629000526	2020-05-12 13:16:38.151175	2.07707802318364	-2.95564276624428	-0.85620782657687	-1.36148971180529	-2.93328584976051	-0.85620782657687	-2.07707802318364	-0.85620782657687	-2.95564276624428	-0.85620782657687	-2.93328584976051	-4.40652374720557	-1.4063729967395613	-4.535765501755069	-1.5109015237923826	-4.102426373119545	-4.857999935930586	-1.5109015237923826	-4.9243982416258065	-3.8876372282312674	-2.481264231491702	-3.6300029107079195	-2.416664114839533	1	correct	1.0
471.59560409997346	8.934964000014816	nogo_reward	0.4760635999846272	471.6819709999835	473.53841779998027	476.07889249996504	1.8564467999967746	472.69947549997585	475.0584022999975	479.11557759996504	0.8389423000044189	1.0204901999675258	1.501357400033271	478.1146760999691	0.3157201000140048	477.08533139998326	1	1	55	1	nogo_reward	1	0	1	0	1	0	0	0.0	1.0	0	0.4760635999846272	0.3157201000140048	514.5390917000477	986.2210627000312	987.2385672000236	988.077509500028	989.5974940000452	990.6179842000128	991.624423100031	992.6537678000168	993.6546693000128	995.156026700046	2020-05-12 13:16:38.151175	2.7403625783732	2.00069136855601	0.0	2.00069136855601	2.7403625783732	0.0	-2.7403625783732	2.00069136855601	0.0	2.7403625783732	0.0	-2.00069136855601	-0.7430884415500012	0.4205686330452214	-0.6546936972155126	-0.740245292758245	0.8156484922031242	-0.6546936972155126	-2.5185658629762466	-0.29106682328119726	0.4520216182688079	-0.7731037155750395	0.5389786514047473	1	correct	1.0
480.57266599999264	8.233209599973634	nogo_punish	1.0	480.65903290000267	482.3290170999827	484.8588062999771	1.6699841999800356	481.661191299965	483.83897889999207	487.91427939996345	0.6678258000176811	1.0198273999850471	0.9779631000128575	486.9057227000011	0.337873300013598	485.87690069997905	1	1	56	3	nogo_punish	1	-1	0	0	0	1	1	1.0	1.0	0	1.0	0.337873300013598	514.5390917000477	995.1981246000504	996.2002830000127	996.8681088000304	998.3780706000398	999.3978980000248	1000.4159924000268	1001.4448144000488	1002.4533711000112	1003.431334200024	2020-05-12 13:16:38.151175	1.40607407140731	-2.95564276624428	-1.69622477695444	-2.11235553641465	-3.10229884836175	-1.69622477695444	-1.40607407140731	-1.69622477695444	-2.95564276624428	-1.69622477695444	-3.10229884836175	1.69622477695444	-2.0773769485158913	-4.535765501755069	-2.3509184741699527	-4.853292197728905	-5.027012934531826	-2.3509184741699527	1.1783502825342036	-4.727654178608837	-2.650277230092942	-4.47001986108549	-2.416664114839533	1	correct	1.0
488.84669329994347	8.811532400024817	nogo_punish	1.0	488.9330601999535	490.7611373999971	493.3025229999911	1.8280772000435945	489.95056759996805	492.27873510000063	496.3541260999626	0.8105698000290431	1.0237878999904524	1.390466500015691	495.3392658999654	0.6998779000132345	494.30945309996605	1	1	57	3	nogo_punish	0	0	-1	0	0	1	0	0.0	1.0	-1	1.0	0.6998779000132345	514.5390917000477	1003.4721519000012	1004.4896593000158	1005.3002291000448	1006.8178268000484	1007.8416147000388	1008.8485448000138	1009.8783576000131	1010.8932178000103	1012.283684300026	2020-05-12 13:16:38.151175	1.65279735228036	-2.95564276624428	-1.35647364626911	-1.70037387181896	-3.00927099854947	-1.35647364626911	-1.65279735228036	-1.35647364626911	-2.95564276624428	-1.35647364626911	-3.00927099854947	-3.90625792751333	-1.8306536676428413	-4.535765501755069	-2.0111673434846224	-4.441310533133215	-4.933985084719546	-2.0111673434846224	-4.4241324219335665	-4.3879030479235075	-2.557249380280662	-4.130268730400159	-2.416664114839533	1	correct	1.0
497.69422929995926	9.77342400001362	go_punish	0.2769638000172563	497.7805961999693	500.5640000999555	503.12166409997747	2.783403899986183	498.79542189999484	502.0924733999999	506.1728915999993	1.7685781999606434	1.029190699977562	1.38112859998364	505.16224559996044	0.3504555000108666	504.1345079999883	1	1	58	4	go_punish	1	0	-1	1	1	1	0	0.0	1.0	0	0.2769638000172563	0.3504555000108666	514.5390917000477	1012.319687900017	1013.3345136000426	1015.1030918000032	1016.6315651000476	1017.6607558000252	1018.673599700036	1019.7013373000082	1020.711983300047	1022.0931119000306	2020-05-12 13:16:38.151175	2.2767539366307	-0.218375853672027	-2.35902171768904	-0.843801112771938	-0.082267781058334	-2.35902171768904	-2.2767539366307	-0.218375853672027	-2.35902171768904	-0.082267781058334	-2.35902171768904	0.218375853672027	-1.2066970832925015	-1.7984985891828156	-3.013715414904553	-3.584737774086193	-2.00698186722841	-3.013715414904553	-0.2994986407482095	-3.1136971827127313	-1.907000099420232	-2.9921709378030763	-1.8200430662842928	1	correct	1.0
507.5086734999786	8.471617800008744	nogo_punish	1.0	507.59504039998865	509.29936710000027	511.81330039998284	1.7043267000116202	508.6050493000075	510.8013918999932	514.8441135999747	0.6943177999927457	1.0119084999896586	1.2225446000227294	513.8412024999852	0.3012353999656625	512.8315407999908	1	1	59	3	nogo_punish	1	-1	0	0	0	1	1	1.0	1.0	0	1.0	0.3012353999656625	514.5390917000477	1022.1341321000364	1023.1441410000552	1023.838458800048	1025.340483600041	1026.3523921000306	1027.3706325000385	1028.380294200033	1029.3832053000224	1030.605749900045	2020-05-12 13:16:38.151175	1.06570147430309	-2.95564276624428	-2.09652803080773	-2.38170572473596	-3.16222950511082	-2.09652803080773	-1.06570147430309	-2.09652803080773	-2.95564276624428	-2.09652803080773	-3.16222950511082	2.09652803080773	-2.4177495456201115	-4.535765501755069	-2.7512217280232427	-5.122642386050215	-5.086943591280896	-2.7512217280232427	1.5786535363874934	-5.127957432462127	-2.710207886842012	-4.870323114938779	-2.416664114839533	1	correct	1.0
516.015929199988	8.813009199977387	nogo_reward	0.2535580000258051	516.1022960999981	518.5754757999675	521.1286277999752	2.473179699969478	517.1069081999594	520.1077327000094	524.1617130999803	1.4685676000081003	1.0208950999658555	0.7535921999951825	523.1581969999825	0.487097300007008	522.1338894999935	1	1	60	1	nogo_reward	1	0	1	0	1	0	0	0.0	1.0	0	0.2535580000258051	0.487097300007008	514.5390917000477	1030.6413878000458	1031.6459999000072	1033.1145675000153	1034.646824400057	1035.667719500023	1036.6729812000412	1037.6972887000302	1038.700804800028	1039.4543970000232	2020-05-12 13:16:38.151175	2.25929101974514	1.60592963984843	0.0	1.60592963984843	2.25929101974514	0.0	-2.25929101974514	1.60592963984843	0.0	2.25929101974514	0.0	-1.60592963984843	-1.2241600001780615	0.025806904337641434	-0.6546936972155126	-1.135007021465825	0.3345769335750639	-0.6546936972155126	-2.123804134268666	-0.7721383819092575	0.4520216182688079	-1.1678654442826195	0.5389786514047473	1	correct	1.0
