onset	duration	trial_type	response_time	cueOnset	targetOnset	fbOnset	cueRT	firstfixOnset	secondfixOnset	waitOnset	firstfixdur	secondfixdur	waitdur	nback_fbOnset	nback_response_time	nback_targetOnset	block	wm	trial	cue	cond	is_common	outcome_go	outcome_nogo	key_correct	key_pressed	is_correct	key_correct_nback	key_pressed_nback	is_correct_nback	outcome	rt	rt_nback	time_scan	time_onset	time_isi1	time_circle	time_isi2	time_feedback	time_same	time_correct	time_iti	time_done	timestamp_scan	DV	Qgo	Qnogo	SV	Wgo	Wnogo	mDV	Qchosen	Qunchosen	Wchosen	Wunchosen	PE	DVC	QgoC	QnogoC	SVC	WgoC	WnogoC	PEC	WchosenC	WunchosenC	QchosenC	QunchosenC	run	outcome_nback	nback_targetResp
0.0	7.996850499999709	go_reward	0.9361275999690406	0.023115299991331995	1.412986300012335	3.970158700016327	1.389871000021003	1.0232151999953203	2.944318399997428	7.024010900000349	0.38977110001701476	1.0258403000188991	0.9959548999906929	6.013176099979319	0.5973796999896877	4.986896899994463	1	1	61	2	go_reward	1	1	0	1	1	1	0	0.0	1.0	1	0.9361275999690406	0.5973796999896877	1102.2546287000296	1102.277744000021	1103.277843900025	1103.667615000042	1105.198947100027	1106.224787400046	1107.241525600024	1108.267804800009	1109.27863960003	1110.2745945000206	2020-05-12 13:26:25.877640	7.92416610775926	9.45281909177499	3.95526553960122	9.881977032743	11.8794316473605	3.95526553960122	-7.92416610775926	9.45281909177499	3.95526553960122	11.8794316473605	3.95526553960122	2.9453965475728108	4.440715087836058	7.872696356264201	3.3005718423857076	7.141040371428746	9.954717561190424	3.3005718423857076	2.4275220531525745	8.848002245706102	4.4072871578700274	6.67902400764394	4.494244191005968	2	correct	1.0
8.032910400012042	9.463755299977493	nogo_reward	0.2960044000064954	8.056025700003374	10.485228099976666	13.027366099995561	2.429202399973292	9.070620200014673	12.013547600014135	16.060448899981566	1.414607899961993	1.0138184999814257	1.4593320999993011	15.051871399977244	0.5546506000100635	14.03571040002862	1	1	62	1	nogo_reward	0	1	0	0	1	0	1	0.0	0.0	1	0.2960044000064954	0.5546506000100635	1102.2546287000296	1110.310654400033	1111.3252489000442	1112.7398568000062	1114.2681763000437	1115.2819948000251	1116.2903391000582	1117.3065001000068	1118.3150776000111	1119.7744097000104	2020-05-12 13:26:25.877640	1.87928011816876	1.29365672706969	0.0	1.29365672706969	1.87928011816876	0.0	-1.87928011816876	1.29365672706969	0.0	1.87928011816876	0.0	11.10455891227811	-1.6041709017544414	-0.2864660084410986	-0.6546936972155126	-1.447279934244565	-0.04543396800131605	-0.6546936972155126	10.586684417857873	-1.1521492834856375	0.4520216182688079	-1.4801383570613595	0.5389786514047473	2	wrong	1.0
17.532912200025976	8.724638699961133	go_reward	0.338852200016845	17.556027500017308	19.23538440000266	21.778656299982913	1.6793568999853505	18.57060959999194	20.7545941999997	24.834928199998103	0.6647748000107185	1.0240620999832117	1.445737999980338	23.819385199982207	0.4114274999592453	22.79297960002441	1	1	63	2	go_reward	1	1	0	1	1	1	1	0.0	0.0	1	0.338852200016845	0.4114274999592453	1102.2546287000296	1119.8106562000469	1120.8252383000215	1121.4900131000322	1123.0092229000293	1124.0332850000125	1125.047608300054	1126.0740139000118	1127.0895569000277	1128.535294900008	2020-05-12 13:26:25.877640	8.54110921696176	9.97655596583159	3.95526553960122	10.3294999742576	12.496374756563	3.95526553960122	-8.54110921696176	9.97655596583159	3.95526553960122	12.496374756563	3.95526553960122	2.42165967351621	5.057658197038558	8.396433230320802	3.3005718423857076	7.588563312943345	10.571660670392925	3.3005718423857076	1.9037851790959734	9.464945354908602	4.4072871578700274	7.202760881700541	4.494244191005968	2	wrong	1.0
26.303633200004697	8.400222700031009	nogo_punish	0.261300400015898	26.32674849999603	28.248491499980446	30.792999299999792	1.921742999984417	27.333921600016765	29.776097199996002	33.83333910000533	0.9145698999636807	1.01690210000379	0.8936321000217049	32.83182189997751	0.3819073000340722	31.807373800023925	1	1	64	3	nogo_punish	1	-1	0	0	1	0	0	0.0	1.0	-1	0.261300400015898	0.3819073000340722	1102.2546287000296	1128.5813772000256	1129.5885503000463	1130.50312020001	1132.0307259000256	1133.0476280000294	1134.0620025000535	1135.086450600007	1136.087967800035	1136.9815999000566	2020-05-12 13:26:25.877640	-1.37862886832293	-2.95564276624428	-1.67812586929833	-1.91540214205802	-3.05675473762126	-1.67812586929833	1.37862886832293	-2.95564276624428	-1.67812586929833	-3.05675473762126	-1.67812586929833	-2.3070888075381597	-4.862079888246131	-4.535765501755069	-2.3328195665138427	-4.656338803372275	-4.981468823791336	-2.3328195665138427	-2.8249633019583964	-6.088184139275658	-1.2261042510295221	-5.72943785037533	-1.1391472178935826	2	correct	1.0
34.74236249999399	9.426162699993938	go_punish	0.3392048999667167	34.76547779998532	37.12108960002661	39.67341659998033	2.355611800041288	35.76832839997951	38.65691469999729	42.71460100001423	1.352761200047098	1.0165018999830409	1.4770394999650307	41.701692099974025	0.3043249000329524	40.69101359997876	1	1	65	4	go_punish	1	0	-1	1	1	1	0	0.0	1.0	0	0.3392048999667167	0.3043249000329524	1102.2546287000296	1137.020106500015	1138.022957100009	1139.3757183000562	1140.9115434000269	1141.92804530001	1142.9456423000083	1143.9563208000036	1144.9692297000438	1146.4462692000088	2020-05-12 13:26:25.877640	2.35083652999654	-0.17825032281218	-2.35902171768904	-0.689205684541795	-0.008185187692499	-2.35902171768904	-2.35083652999654	-0.17825032281218	-2.35902171768904	-0.008185187692499	-2.35902171768904	0.17825032281218	-1.1326144899266612	-1.7583730583229684	-3.013715414904553	-3.43014234585605	-1.932899273862575	-3.013715414904553	-0.33962417160805647	-3.0396145893468964	-1.907000099420232	-2.9520454069432294	-1.8200430662842928	2	correct	1.0
44.205155799980275	9.01225740002701	go_reward	0.2985467999824323	44.22827109997161	46.82182700000703	49.39061170001514	2.593555900035426	45.24399009998888	48.36370619997592	52.42362010001693	1.5778369000181556	1.02690550003922	0.8169083999816849	51.41666480002459	0.4553690999746322	50.40290119999554	1	1	66	2	go_reward	1	1	0	1	1	1	0	1.0	0.0	1	0.2985467999824323	0.4553690999746322	1102.2546287000296	1146.4828998000012	1147.4986188000184	1149.0764557000366	1150.6183349000055	1151.6452404000447	1152.657529900025	1153.6712935000542	1154.6782488000465	1155.4951572000282	2020-05-12 13:26:25.877640	9.03945676360989	10.4001580361068	3.95526553960122	10.6913252128921	12.9947223032111	3.95526553960122	-9.03945676360989	10.4001580361068	3.95526553960122	12.9947223032111	3.95526553960122	1.9980576032409996	5.556005743686688	8.820035300596011	3.3005718423857076	7.950388551577845	11.070008217041025	3.3005718423857076	1.480183108820763	9.963292901556702	4.4072871578700274	7.626362951975751	4.494244191005968	2	wrong	1.0
53.25226209999528	7.985556600033533	nogo_reward	0.4313592999824323	53.27537739998661	54.63797139999224	57.186622500011936	1.362594000005629	54.279644900001585	56.16793970001163	60.23744280001847	0.35832649999065325	1.018682800000306	1.023491200001672	59.21771419997094	0.4520794000127353	58.206058599986136	1	1	67	1	nogo_reward	1	0	1	0	1	0	0	0.0	1.0	0	0.4313592999824323	0.4520794000127353	1102.2546287000296	1155.5300061000162	1156.5342736000312	1156.8926001000218	1158.4225684000412	1159.4412512000415	1160.4606873000157	1161.4723429000005	1162.492071500048	1163.5155627000497	2020-05-12 13:26:25.877640	4.53675779428312	3.47411760420794	0.0	3.47411760420794	4.53675779428312	0.0	-4.53675779428312	3.47411760420794	0.0	4.53675779428312	0.0	-3.47411760420794	1.0533067743599185	1.8939948686971513	-0.6546936972155126	0.7331809428936849	2.6120437081130436	-0.6546936972155126	-3.9919920986281765	1.5053283926287224	0.4520216182688079	0.7003225200768903	0.5389786514047473	2	correct	1.0
61.275057499995455	9.256133300019428	go_reward	0.2784075999516062	61.29817279998679	63.91294980002567	66.46686480002245	2.6147770000388846	62.30611429997953	65.44375380000565	69.51161149999825	1.6068355000461452	1.0231110000167973	1.0426946000079624	68.49848589999601	0.2616607000236399	67.48153749998892	1	1	68	2	go_reward	1	1	0	1	1	1	1	1.0	1.0	1	0.2784075999516062	0.2616607000236399	1102.2546287000296	1163.5528015000164	1164.560743000009	1166.1675785000552	1167.6983825000352	1168.721493500052	1169.7361662000185	1170.7531146000256	1171.7662402000278	1172.8089348000358	2020-05-12 13:26:25.877640	9.44342477712477	10.7439651488602	3.95526553960122	10.9849023902623	13.398690316726	3.95526553960122	-9.44342477712477	10.7439651488602	3.95526553960122	13.398690316726	3.95526553960122	1.6542504904876	5.959973757201569	9.16384241334941	3.3005718423857076	8.243965728948046	11.473976230555925	3.3005718423857076	1.1363759960673636	10.367260915071602	4.4072871578700274	7.9701700647291505	4.494244191005968	2	correct	1.0
70.56894880003529	8.387643999943975	nogo_reward	1.0	70.59206410002662	72.16644689999521	74.70477579999715	1.574382799968589	71.60590490000322	73.68171550001716	77.77162349998252	0.5605419999919832	1.0230602999799885	1.2080845999880694	76.76234580000164	0.3090253999689594	75.72827000002144	1	1	69	1	nogo_reward	1	0	1	0	0	1	1	1.0	1.0	1	1.0	0.3090253999689594	1102.2546287000296	1172.8466928000562	1173.8605336000328	1174.4210756000248	1175.9363442000467	1176.9594045000267	1177.982898700051	1179.0169745000312	1180.026252200012	1181.2343368000002	2020-05-12 13:26:25.877640	-3.67640593112804	2.77008610721258	0.0	2.77008610721258	3.67640593112804	0.0	3.67640593112804	0.0	2.77008610721258	0.0	3.67640593112804	12.3982156393478	-7.159856951051241	1.1899633717017917	-0.6546936972155126	0.029149445898325244	1.751691844957964	-0.6546936972155126	11.880341144927563	-3.0314294016543974	4.128427549396847	-2.7737950841310495	3.3090647586173274	2	correct	1.0
78.99640870001167	7.831399800023064	go_reward	0.4496346999658271	79.019524000003	80.45869310002331	83.02170350000961	1.4391691000203082	80.02640540001448	81.99842050002212	86.07276299997466	0.4322877000088283	1.0232829999874866	0.7781608000514098	85.05840939999325	0.4504118000040762	84.03588799998397	1	1	70	2	go_reward	1	1	0	1	1	1	1	1.0	1.0	1	0.4496346999658271	0.4504118000040762	1102.2546287000296	1181.2741527000326	1182.281034100044	1182.7133218000529	1184.2530492000517	1185.2763322000392	1186.2905167000135	1187.3130381000228	1188.3273917000042	1189.1055525000556	2020-05-12 13:26:25.877640	9.77201784400797	11.0239617501394	3.95526553960122	11.2239333437466	13.7272833836092	3.95526553960122	-9.77201784400797	11.0239617501394	3.95526553960122	13.7272833836092	3.95526553960122	1.3742538892084006	6.288566824084768	9.443839014628612	3.3005718423857076	8.482996682432345	11.802569297439124	3.3005718423857076	0.8563793947881642	10.695853981954802	4.4072871578700274	8.25016666600835	4.494244191005968	2	correct	1.0
86.86529990000417	8.55758090002928	go_punish	1.0	86.8884151999955	88.94674839999061	91.47840080002811	2.0583331999951042	87.9021479000221	90.46577990002675	94.51696859998651	1.0446004999685101	1.012620900001366	0.9290275000382735	93.51598690001993	0.3237926999572664	92.49253260000842	1	1	71	4	go_punish	1	0	-1	1	0	0	0	0.0	1.0	-1	1.0	0.3237926999572664	1102.2546287000296	1189.143043900025	1190.1567766000517	1191.2013771000202	1192.7204086000563	1193.7330295000577	1194.747161300038	1195.7706156000495	1196.771597300016	1197.7006248000544	2020-05-12 13:26:25.877640	-2.41014721828823	-0.146022634869099	-2.35902171768904	-0.565046039475997	0.0511255005991914	-2.35902171768904	2.41014721828823	-2.35902171768904	-0.146022634869099	-2.35902171768904	0.0511255005991914	-2.9037098560934	-5.893598238211432	-1.7261453703798875	-3.013715414904553	-3.305982700790252	-1.8735885855708847	-3.013715414904553	-3.421584350513636	-5.390451119343437	0.5031471188679992	-5.1328168018200895	0.3929560165356483	2	correct	1.0
95.46013120003022	8.962634600000683	go_punish	0.254584300040733	95.48324650002155	97.93472199997632	100.47070720000193	2.4514754999547677	96.48937560000923	99.45628370001214	103.53062279999722	1.445346399967093	1.014423499989789	0.9152583000250161	102.51714820001507	0.527729699970223	101.48795219999738	1	1	72	4	go_punish	1	0	-1	1	1	1	0	0.0	1.0	0	0.254584300040733	0.527729699970223	1102.2546287000296	1197.7378752000511	1198.7440043000388	1200.189350700006	1201.7109124000417	1202.7253359000315	1203.742580900027	1204.7717769000446	1205.7852515000268	1206.7005098000518	2020-05-12 13:26:25.877640	2.74465226419501	-0.146022634869099	-2.89783620803141	-1.47219192050839	-0.153183943836406	-2.89783620803141	-2.74465226419501	-0.146022634869099	-2.89783620803141	-0.153183943836406	-2.89783620803141	0.146022634869099	-0.7387987557281912	-1.7261453703798875	-3.5525299052469226	-4.2131285818226445	-2.077898030006482	-3.5525299052469226	-0.3718518595511375	-3.1846133454908037	-2.4458145897626022	-2.9198177190001484	-2.358857556626663	2	correct	1.0
104.45959330000915	9.07629509997787	go_punish	0.2761651999899186	104.48270860000048	107.00507419998758	109.55948180000996	2.522365599987097	105.49184019997483	108.53923310001846	112.59104259999003	1.5132340000127442	1.0202486999914981	0.9679610999883153	111.57837399997516	0.3169390000402927	110.5653940999764	1	1	73	4	go_punish	1	0	-1	1	1	1	1	0.0	0.0	0	0.2761651999899186	0.3169390000402927	1102.2546287000296	1206.73733730003	1207.7464689000044	1209.2597029000171	1210.793861800048	1211.8141105000395	1212.820022800006	1213.8330027000047	1214.8456713000196	1215.813632400008	2020-05-12 13:26:25.877640	2.83594183798585	-0.12004522836333	-2.89783620803141	-1.18381090566009	-0.0618943700455659	-2.89783620803141	-2.83594183798585	-0.12004522836333	-2.89783620803141	-0.0618943700455659	-2.89783620803141	0.12004522836333	-0.6475091819373513	-1.7001679638741185	-3.5525299052469226	-3.924747566974345	-1.9866084562156419	-3.5525299052469226	-0.3978292660569065	-3.0933237716999633	-2.4458145897626022	-2.8938403124943797	-2.358857556626663	2	wrong	1.0
113.57312650000677	9.053178199974354	go_reward	0.2626875999849289	113.5962417999981	115.57051940000383	118.12658859998919	1.9742776000057347	114.60987109999405	117.10367260000203	121.16856070002541	0.9606483000097796	1.0229159999871626	1.480859299947042	120.16987629997334	0.4042507999693043	119.14203360001557	1	1	74	2	go_reward	1	1	0	1	1	1	0	0.0	1.0	1	0.2626875999849289	0.4042507999693043	1102.2546287000296	1215.8508705000277	1216.8644998000236	1217.8251481000334	1219.3583013000316	1220.3812173000188	1221.3966623000451	1222.424505000003	1223.423189400055	1224.904048700002	2020-05-12 13:26:25.877640	10.0402047231518	11.2527546936812	3.95526553960122	11.4192164062197	13.995470262753	3.95526553960122	-10.0402047231518	11.2527546936812	3.95526553960122	13.995470262753	3.95526553960122	1.1454609456665992	6.556753703228599	9.672631958170413	3.3005718423857076	8.678279744905446	12.070756176582925	3.3005718423857076	0.6275864512463627	10.964040861098603	4.4072871578700274	8.478959609550152	4.494244191005968	2	correct	1.0
122.6628967000288	8.449196000001393	nogo_reward	0.2501180999679491	122.68601200002013	124.683161700028	127.23021730000619	1.997149700007867	123.70083039999008	126.20563739998033	130.2954471000121	0.982331300037913	1.0245799000258557	0.8397609000094235	129.27290649997303	0.2789963000104762	128.24428250000346	1	1	75	1	nogo_reward	0	1	0	0	1	0	0	0.0	1.0	1	0.2501180999679491	0.2789963000104762	1102.2546287000296	1224.9406407000497	1225.9554591000197	1226.9377904000576	1228.46026610001	1229.4848460000358	1230.498911200033	1231.5275352000026	1232.5500758000417	1233.389836700051	2020-05-12 13:26:25.877640	1.65666068716789	2.77008610721258	2.4283746766373	4.64559177778521	4.08503536380519	2.4283746766373	-1.65666068716789	2.77008610721258	2.4283746766373	4.08503536380519	2.4283746766373	9.628129532135219	-1.8267903327553114	1.1899633717017917	1.7736809794217872	1.904655116470955	2.1603212776351137	1.7736809794217872	9.110255037714982	1.0536059621507925	2.8803962949061077	-0.0037089769184692756	2.967353328042047	2	correct	1.0
131.1530105000129	8.96817349997582	nogo_punish	1.0	131.17612580000423	133.17582280002534	135.6951917000115	1.999697000021115	132.1865694000153	134.68089459999464	138.75665509997634	0.9892534000100568	1.0142971000168473	1.387644200003706	137.7461812000256	0.3108372999704443	136.7173513000016	1	1	76	3	nogo_punish	1	-1	0	0	0	1	0	0.0	1.0	0	1.0	0.3108372999704443	1102.2546287000296	1233.4307545000338	1234.4411981000449	1235.430451500055	1236.9355233000242	1237.949820400041	1238.9719800000312	1240.0008099000552	1241.011283800006	1242.3989280000096	2020-05-12 13:26:25.877640	1.93250816311227	-3.36625743844711	-1.67812586929833	-2.55410776987705	-3.6106340324106	-1.67812586929833	-1.93250816311227	-1.67812586929833	-3.36625743844711	-1.67812586929833	-3.6106340324106	1.67812586929833	-1.5509428568109314	-4.946380173957898	-2.3328195665138427	-5.295044431191305	-5.535348118580676	-2.3328195665138427	1.1602513748780936	-4.709555270952728	-3.158612414141792	-4.451920953429379	-2.8272787870423626	2	correct	1.0
140.15885870001512	8.356381599965971	go_punish	0.5208168000099249	140.18197400000645	141.53745639999397	144.07885029999306	1.3554823999875225	141.18035260000033	143.0649864000152	147.12434029998235	0.35710379999363795	1.0138638999778777	1.4140152999900693	146.10981190000894	0.3151679000002332	145.09209749999013	1	1	77	4	go_punish	0	-1	0	1	1	1	0	0.0	1.0	-1	0.5208168000099249	0.3151679000002332	1102.2546287000296	1242.436602700036	1243.43498130003	1243.7920851000235	1245.3196151000448	1246.3334790000226	1247.3467262000197	1248.3644406000385	1249.378969000012	1250.792984300002	2020-05-12 13:26:25.877640	2.90813797959783	-0.0990323043280206	-2.89783620803141	-0.956050772000323	0.0103017715664182	-2.89783620803141	-2.90813797959783	-0.0990323043280206	-2.89783620803141	0.0103017715664182	-2.89783620803141	-5.163699269454419	-0.5753130403253714	-1.679155039838809	-3.5525299052469226	-3.696987433314578	-1.9144123146036578	-3.5525299052469226	-5.681573763874655	-3.0211276300879795	-2.4458145897626022	-2.8728273884590703	-2.358857556626663	2	correct	1.0
148.557128900022	9.354821699962258	nogo_punish	1.0	148.58024420001334	151.06701100000646	153.59507939999435	2.48676679999312	149.58712989999913	152.57482869998785	156.6450285000028	1.4798811000073329	1.0202507000064998	1.290037399972789	155.6315943999798	0.2867039000266231	154.6075620999909	1	1	78	3	nogo_punish	1	-1	0	0	0	1	1	0.0	0.0	0	1.0	0.2867039000266231	1102.2546287000296	1250.834872900043	1251.8417586000287	1253.321639700036	1254.8294574000174	1255.849708100024	1256.8621908000205	1257.8862231000094	1258.8996572000324	1260.1896946000052	2020-05-12 13:26:25.877640	2.14877697389371	-3.36625743844711	-1.34879912199882	-2.05421111567038	-3.49757609589253	-1.34879912199882	-2.14877697389371	-1.34879912199882	-3.36625743844711	-1.34879912199882	-3.49757609589253	1.34879912199882	-1.3346740460294915	-4.946380173957898	-2.0034928192143324	-4.795147776984635	-5.422290182062606	-2.0034928192143324	0.8309246275785835	-4.3802285236532175	-3.045554477623722	-4.12259420612987	-2.8272787870423626	2	wrong	1.0
157.94874540000478	8.557739300012827	nogo_reward	0.4328182999743148	157.9718606999961	159.54643370001554	162.08704309997847	1.5745730000194271	158.9852182000177	161.07180410000728	165.13575309998123	0.5612154999978429	1.0152389999711886	1.393846900027711	164.12230049999198	0.3081700999755412	163.09311369998613	1	1	79	1	nogo_reward	1	0	1	0	1	0	0	0.0	1.0	0	0.4328182999743148	0.3081700999755412	1102.2546287000296	1260.2264894000257	1261.2398469000473	1261.801062400045	1263.3264328000369	1264.341671800008	1265.3477424000157	1266.3769292000216	1267.3903818000108	1268.7842287000385	2020-05-12 13:26:25.877640	3.85320574970928	4.64559177778521	2.4283746766373	6.13158367268011	6.28158042634658	2.4283746766373	-3.85320574970928	4.64559177778521	2.4283746766373	6.28158042634658	2.4283746766373	-4.64559177778521	0.3697547297860786	3.0654690422744215	1.7736809794217872	3.390647011365855	4.356866340176504	1.7736809794217872	-5.163466272205446	3.2501510246921828	2.8803962949061077	1.8717966936541606	2.967353328042047	2	correct	1.0
166.54694109997945	10.042980100028217	nogo_reward	0.2365875000250525	166.57005639997078	169.55368289997568	172.09893999999622	2.9836265000049025	167.58751440001652	171.0867467999924	175.1516183000058	1.966168499959167	1.0121932000038214	1.4614181999932043	174.1366678000195	0.4514132000040263	173.11684759997274	1	1	80	1	nogo_reward	1	0	1	0	1	0	0	1.0	0.0	0	0.2365875000250525	0.4514132000040263	1102.2546287000296	1268.8246851000004	1269.842143100046	1271.8083116000053	1273.341375500022	1274.3535687000258	1275.3714763000023	1276.391296500049	1277.4062470000354	1278.8676652000286	2020-05-12 13:26:25.877640	2.6336752334626	3.7032089960428	2.4283746766373	4.88516506229702	5.0620499100999	2.4283746766373	-2.6336752334626	3.7032089960428	2.4283746766373	5.0620499100999	2.4283746766373	-3.7032089960428	-0.8497757864606013	2.1230862605320113	1.7736809794217872	2.144228400982765	3.137335823929824	1.7736809794217872	-4.2210834904630365	2.030620508445503	2.8803962949061077	0.9294139119117504	2.967353328042047	2	wrong	1.0
176.63101750001078	9.62827250000555	nogo_punish	1.0	176.65413280000212	179.48515700001735	182.01829269999894	2.8310242000152357	177.65669440000784	181.00182140001561	185.07298679999076	1.8284626000095159	1.0164712999833228	1.209418500016909	184.0554699000204	0.3674907999811694	183.03576900000917	1	1	81	3	nogo_punish	1	-1	0	0	0	1	0	0.0	1.0	0	1.0	0.3674907999811694	1102.2546287000296	1278.9087615000317	1279.9113231000374	1281.739785700047	1283.2564501000452	1284.2729214000285	1285.2903977000387	1286.31009860005	1287.3276155000203	1288.5370340000372	2020-05-12 13:26:25.877640	2.32039875123196	-3.36625743844711	-1.0884904379865	-1.65909551182393	-3.40888918921846	-1.0884904379865	-2.32039875123196	-1.0884904379865	-3.36625743844711	-1.0884904379865	-3.40888918921846	1.0884904379865	-1.1630522686912412	-4.946380173957898	-1.7431841352020125	-4.400032173138185	-5.333603275388536	-1.7431841352020125	0.5706159435662634	-4.119919839640898	-2.956867570949652	-3.862285522117549	-2.8272787870423626	2	correct	1.0
186.297175200016	9.408259599993016	go_reward	0.2770590999862179	186.32029050000733	188.75193480000598	191.30867629998852	2.431644299998652	187.33237449999433	190.28527589997952	194.37351940001827	1.4195603000116535	1.0234004000089953	1.3550306999820805	193.35988930001622	0.4243132999981753	192.33193799998844	1	1	82	2	go_reward	1	1	0	1	1	1	0	0.0	1.0	1	0.2770590999862179	0.4243132999981753	1102.2546287000296	1288.574919200037	1289.587003200024	1291.0065635000356	1292.539904600009	1293.563305000018	1294.586566700018	1295.6145180000458	1296.6281481000478	1297.98317880003	2020-05-12 13:26:25.877640	10.2598171009464	11.4403218312696	3.95526553960122	11.5792920401723	14.2150826405477	3.95526553960122	-10.2598171009464	11.4403218312696	3.95526553960122	14.2150826405477	3.95526553960122	0.9578938080782002	6.776366081023198	9.860199095758812	3.3005718423857076	8.838355378858045	12.290368554377626	3.3005718423857076	0.44001931365796376	11.183653238893303	4.4072871578700274	8.666526747138551	4.494244191005968	2	correct	1.0
195.7417113999834	9.263687800034177	nogo_reward	0.2507100000511855	195.76482669997472	198.24061689997325	200.79081699997187	2.475790199998528	196.7737944999826	199.77049129997613	203.8409625000204	1.4668223999906331	1.0203256999957375	1.1875519999885	202.8227210000041	0.3047281999606639	201.80951270001242	1	1	83	1	nogo_reward	1	0	1	0	1	0	0	1.0	0.0	0	0.2507100000511855	0.3047281999606639	1102.2546287000296	1298.0194554000043	1299.0284232000122	1300.4952456000028	1302.0251200000057	1303.0454457000014	1304.064141400042	1305.0773497000337	1306.09559120005	1307.2831432000385	2020-05-12 13:26:25.877640	1.67805211718056	2.96330805972377	2.4283746766373	3.90700534527431	4.10642679381786	2.4283746766373	-1.67805211718056	2.96330805972377	2.4283746766373	4.10642679381786	2.4283746766373	-2.96330805972377	-1.8053989027426414	1.3831853242129815	1.7736809794217872	1.166068683960055	2.181712707647784	1.7736809794217872	-3.4811825541440067	1.0749973921634628	2.8803962949061077	0.1895129755927205	2.967353328042047	2	wrong	1.0
205.04245660000015	8.352752100036014	go_reward	0.0268666999763809	205.06557189999148	206.4384741000249	208.99061739997705	1.3729022000334226	206.08156229997985	207.97437800001353	212.02591440000106	0.3569118000450544	1.0162393999635242	1.3924096000264399	211.0181054000277	0.3165938999736681	210.00451100000646	1	1	84	2	go_reward	1	1	0	1	1	1	1	1.0	1.0	1	0.0268666999763809	0.3165938999736681	1102.2546287000296	1307.320200600021	1308.3361910000094	1308.6931028000545	1310.229006700043	1311.2452461000066	1312.259139700036	1313.2727341000573	1314.2805431000306	1315.672952700057	2020-05-12 13:26:25.877640	10.4402393393624	11.5945873126354	3.95526553960122	11.7109384730666	14.3955048789636	3.95526553960122	-10.4402393393624	11.5945873126354	3.95526553960122	14.3955048789636	3.95526553960122	0.8036283267123991	6.956788319439198	10.014464577124613	3.3005718423857076	8.970001811752345	12.470790792793524	3.3005718423857076	0.28575383229216267	11.364075477309202	4.4072871578700274	8.820792228504352	4.494244191005968	2	correct	1.0
213.4311469999957	8.273035200021695	nogo_reward	0.5538981999852695	213.45426229998702	215.02931960002752	217.5619202000089	1.5750573000404984	214.46933709998848	216.5401778999949	220.61500200000592	0.559982500039041	1.0217423000140116	1.1122955000028014	219.5962487999932	0.5922686000121757	218.57374800002435	1	1	85	1	nogo_reward	1	0	1	0	1	0	1	1.0	1.0	0	0.5538981999852695	0.5922686000121757	1102.2546287000296	1315.7088910000166	1316.723965800018	1317.283948300057	1318.7948066000245	1319.8165489000385	1320.828376700054	1321.8508775000228	1322.8696307000355	1323.9819262000383	2020-05-12 13:26:25.877640	0.926280829128374	2.38011448231039	2.4283746766373	3.1363771373829	3.35465550576568	2.4283746766373	-0.926280829128374	2.38011448231039	2.4283746766373	3.35465550576568	2.4283746766373	-2.38011448231039	-2.557170190794827	0.7999917467996016	1.7736809794217872	0.3954404760686452	1.4299414195956042	1.7736809794217872	-2.897988976730627	0.3232261041112827	2.8803962949061077	-0.39368060182065934	2.967353328042047	2	correct	1.0
221.742558600032	9.262836499954346	go_reward	0.2859907000092789	221.76567390002333	224.54118439997546	227.07760979997693	2.7755104999521336	222.77931920002447	226.06065190001414	230.12577849999093	1.7618651999509893	1.0169578999627902	0.9027318999867475	229.12089850002667	0.2958041000529192	228.09140610002214	1	1	86	2	go_reward	1	1	0	1	1	1	1	1.0	1.0	1	0.2859907000092789	0.2958041000529192	1102.2546287000296	1324.020302600053	1325.033947900054	1326.795813100005	1328.3152806000437	1329.3322385000065	1330.3460348000517	1331.3755272000562	1332.3804072000205	1333.2831391000072	2020-05-12 13:26:25.877640	10.588939808154	11.721865355643	3.95526553960122	11.8195536217956	14.5442053477552	3.95526553960122	-10.588939808154	11.721865355643	3.95526553960122	14.5442053477552	3.95526553960122	0.6763502837047994	7.105488788230799	10.141742620132213	3.3005718423857076	9.078616960481346	12.619491261585125	3.3005718423857076	0.15847578928456296	11.512775946100803	4.4072871578700274	8.948070271511952	4.494244191005968	2	correct	1.0
231.0430228000041	9.722268600016832	go_reward	0.3058904000208713	231.06613809999544	233.8291573000024	236.3822587999748	2.7630192000069655	232.07304940000154	235.35918710002443	239.43291189998854	1.7561079000008704	1.0230716999503784	1.3554948000237346	238.41967360000126	0.3347833000007085	237.38943989999825	1	1	87	2	go_reward	1	1	0	1	1	1	0	0.0	1.0	1	0.3058904000208713	0.3347833000007085	1102.2546287000296	1333.320766800025	1334.327678100031	1336.083786000032	1337.613815800054	1338.6368875000044	1339.6440686000278	1340.6743023000308	1341.687540600018	1343.0430354000418	2020-05-12 13:26:25.877640	10.7118816793581	11.8272037985182	3.95526553960122	11.9094504775375	14.6671472189594	3.95526553960122	-10.7118816793581	11.8272037985182	3.95526553960122	14.6671472189594	3.95526553960122	0.5710118408296001	7.228430659434899	10.24708106300741	3.3005718423857076	9.168513816223246	12.742433132789325	3.3005718423857076	0.05313734640936363	11.635717817305002	4.4072871578700274	9.05340871438715	4.494244191005968	2	correct	1.0
240.80184090003604	8.3286100999685	nogo_reward	1.0	240.82495620002737	242.65264019998722	245.18292940000538	1.827683999959845	241.83181589999003	244.17015199997672	248.2368011000217	0.8208242999971844	1.0127774000286536	0.9167651999741793	247.22905259998515	0.401298799959477	246.1998462000049	1	1	88	1	nogo_reward	1	0	1	0	0	1	0	1.0	0.0	1	1.0	0.401298799959477	1102.2546287000296	1343.079584900057	1344.0864446000196	1344.9072689000168	1346.4247807000063	1347.437558100035	1348.4544749000345	1349.4836813000147	1350.4914298000513	1351.4081950000254	2020-05-12 13:26:25.877640	-0.332609838781654	1.91868964722864	2.4283746766373	2.52694439987159	2.76098451541896	2.4283746766373	0.332609838781654	2.4283746766373	1.91868964722864	2.4283746766373	2.76098451541896	9.9698409627105	-3.8160608587048555	0.3385669117178516	1.7736809794217872	-0.21399226144266503	0.8362704292488841	1.7736809794217872	9.451966468290262	-0.6030547250170977	3.213006133687768	-0.3454204074937497	2.4576682986333873	2	wrong	1.0
249.16815260000294	8.515051700000186	go_punish	0.4587137000053189	249.19126789999427	250.93642879999243	253.4784905000124	1.7451608999981545	250.20434469997394	252.45799229998352	256.536908900016	0.7320841000184828	1.0204982000288965	1.1694106999784708	255.5236838000128	0.2879337000194937	254.49525269999867	1	1	89	4	go_punish	1	0	-1	1	1	1	0	0.0	1.0	0	0.4587137000053189	0.2879337000194937	1102.2546287000296	1351.4458966000238	1352.4589734000035	1353.191057500022	1354.712621000013	1355.733119200042	1356.7498814000282	1357.7783125000424	1358.7915376000456	1359.960948300024	2020-05-12 13:26:25.877640	1.73225684940274	-1.0892123439772	-2.89783620803141	-1.78261383853031	-1.16557935862867	-2.89783620803141	-1.73225684940274	-1.0892123439772	-2.89783620803141	-1.16557935862867	-2.89783620803141	1.0892123439772	-1.7511941705204614	-2.6693350794879884	-3.5525299052469226	-4.523550499844565	-3.0902934447987462	-3.5525299052469226	0.5713378495569634	-4.197008760283067	-2.4458145897626022	-3.8630074281082494	-2.358857556626663	2	correct	1.0
257.7197177000344	7.840898599999491	go_punish	1.0	257.7428330000257	259.0311115999941	261.5709315999993	1.2882785999684074	258.7521876000101	260.5483874999918	264.6218168999769	0.2789239999840447	1.022544100007508	0.9619147000482826	263.60790740000084	0.6822147000348195	262.5799416999798	1	1	90	4	go_punish	1	0	-1	1	0	0	0	0.0	1.0	-1	1.0	0.6822147000348195	1102.2546287000296	1359.9974617000553	1361.0068163000396	1361.2857403000237	1362.8030162000214	1363.8255603000289	1364.8345704000094	1365.8625361000304	1366.8764456000065	1367.8383603000548	2020-05-12 13:26:25.877640	-2.03329017171838	-0.867922612205835	-2.89783620803141	-1.43128305236835	-0.864546036313037	-2.89783620803141	2.03329017171838	-2.89783620803141	-0.867922612205835	-2.89783620803141	-0.864546036313037	-2.3648953657510297	-5.516741191641581	-2.4480453477166235	-3.5525299052469226	-4.172219713682605	-2.789260122483113	-3.5525299052469226	-2.8827698601712664	-5.929265609685808	-0.41252441804422907	-5.671631292162459	-0.3289439608010877	2	correct	1.0
265.5969699000125	8.401485699985642	nogo_reward	1.0	265.6200852000038	267.1266935999738	269.66282099997625	1.5066083999699913	266.63465349999024	268.64309209998464	272.6954913000229	0.49204009998356923	1.0197288999916054	1.3260795999665334	271.6867022999795	0.4740224000415765	270.67308719997527	1	1	91	1	nogo_reward	0	1	0	0	0	1	0	0.0	1.0	0	1.0	0.4740224000415765	1102.2546287000296	1367.8747139000334	1368.8892822000198	1369.3813223000034	1370.8977208000142	1371.9174497000058	1372.9277159000048	1373.941331000009	1374.9501200000525	1376.276199600019	2020-05-12 13:26:25.877640	1.1630085659756	1.91868964722864	4.35023167921055	4.47157961868341	3.18722311323496	4.35023167921055	-1.1630085659756	4.35023167921055	1.91868964722864	4.35023167921055	3.18722311323496	-4.35023167921055	-2.320442453947601	0.3385669117178516	3.695537981995037	1.7306429573691546	1.262509027064884	3.695537981995037	-4.868106173630786	1.3188022775561525	3.639244731503768	1.5764365950795005	2.4576682986333873	2	correct	1.0
274.035582099983	8.789272100024391	nogo_reward	0.9556043000193312	274.05869739997433	275.98140190000413	278.5383574999869	1.9227045000297949	275.0735348999733	277.5146401000093	281.57898509997153	0.9078670000308193	1.0237173999776132	1.2689844000271933	280.5742326999898	0.8253412999911234	279.551833799982	1	1	92	1	nogo_reward	0	1	0	0	1	0	0	1.0	0.0	1	0.9556043000193312	0.8253412999911234	1102.2546287000296	1376.313326100004	1377.3281636000029	1378.2360306000337	1379.7692688000388	1380.7929862000165	1381.8064625000115	1382.8288614000194	1383.833613800001	1385.1025982000283	2020-05-12 13:26:25.877640	-0.457966693519255	1.91868964722864	3.44874786553717	3.57970463416902	2.99078117201792	3.44874786553717	0.457966693519255	1.91868964722864	3.44874786553717	2.99078117201792	3.44874786553717	10.47952599211916	-3.9414177134424566	0.3385669117178516	2.794054168321657	0.838767972854765	1.066067085847844	2.794054168321657	9.961651497698924	-0.040648229636477407	3.900769483805978	-0.8551054369024094	3.987726516941917	2	wrong	1.0
282.86117150000064	8.878255699994043	go_punish	0.6035536999697797	282.88428679999197	285.1715027000173	287.71982539998135	2.2872159000253305	283.8993070999861	286.70566109998595	290.7544301999733	1.272195600031182	1.0141642999954001	1.0081123000127263	289.75618209998356	0.5143338000052609	288.736824600026	1	1	93	4	go_punish	1	0	-1	1	1	1	0	1.0	0.0	0	0.6035536999697797	0.5143338000052609	1102.2546287000296	1385.1389155000215	1386.1539358000157	1387.4261314000469	1388.9602898000155	1389.974454100011	1390.9914533000556	1392.0108108000131	1393.0090589000029	1394.0171712000156	2020-05-12 13:26:25.877640	2.30024241948099	-0.867922612205835	-3.3283590667127	-2.16137711822939	-1.0281166472317	-3.3283590667127	-2.30024241948099	-0.867922612205835	-3.3283590667127	-1.0281166472317	-3.3283590667127	0.867922612205835	-1.1832086004422115	-2.4480453477166235	-3.983052763928213	-4.902313779543645	-2.9528307334017763	-3.983052763928213	0.3500481177855985	-4.059546048886098	-2.876337448443892	-3.6417176963368845	-2.789380415307953	2	wrong	1.0
291.77477240003645	8.129968799999915	nogo_reward	1.0	291.7978877000278	293.27743229997554	295.82033439999213	1.4795445999477579	292.8108800000043	294.7948813000112	298.86908570001833	0.4665522999712266	1.0254530999809504	1.0587708000093699	297.8550767999841	0.4959125000168569	296.8340684999712	1	1	94	1	nogo_reward	1	0	1	0	0	1	1	0.0	0.0	1	1.0	0.4959125000168569	1102.2546287000296	1394.0525164000574	1395.065508700034	1395.5320610000051	1397.0495100000408	1398.0749631000217	1399.0886972000008	1400.1097055000137	1401.123714400048	1402.1824852000573	2020-05-12 13:26:25.877640	-1.98078382461911	3.98062920060466	3.44874786553717	5.30504578349599	5.42953169015628	3.44874786553717	1.98078382461911	3.44874786553717	3.98062920060466	3.44874786553717	5.42953169015628	8.94946777381063	-5.464234844542311	2.4005064650938714	2.794054168321657	2.5641091221817347	3.5048176039862033	2.794054168321657	8.431593279390393	0.4173184638827725	5.8815533084250875	0.6749527814061205	4.519607852009408	2	wrong	1.0
299.94319940003334	8.035280699958093	go_punish	0.8500020999927074	299.96631470002467	301.4491360000102	304.01360820001014	1.4828212999855168	300.9792821999872	302.9902146999957	307.0470888999989	0.4698538000229746	1.0233935000144356	0.954506499983836	306.0410066000186	0.2896427999949083	305.0275585000054	1	1	95	4	go_punish	0	-1	0	1	1	1	1	1.0	1.0	-1	0.8500020999927074	0.2896427999949083	1102.2546287000296	1402.2209434000542	1403.2339109000168	1403.7037647000398	1405.2448434000253	1406.2682369000397	1407.282187200035	1408.2956353000482	1409.3017176000285	1410.2562241000123	2020-05-12 13:26:25.877640	2.57056459552127	-0.694568392754689	-3.3283590667127	-1.73440908397826	-0.757794471191428	-3.3283590667127	-2.57056459552127	-0.694568392754689	-3.3283590667127	-0.757794471191428	-3.3283590667127	-4.568163181027751	-0.9128864244019312	-2.2746911282654776	-3.983052763928213	-4.475345745292515	-2.682508557361504	-3.983052763928213	-5.0860376754479875	-3.7892238728458256	-2.876337448443892	-3.4683634768857385	-2.789380415307953	2	correct	1.0
308.01615969999693	7.776883499987662	go_punish	1.0	308.03927499998827	309.3555327000213	311.89619709999533	1.3162577000330202	309.0523973000236	310.872977800027	314.93198110000253	0.3031353999977	1.023219299968332	0.884177399973396	313.91741130000446	0.3027260000235401	312.9044072999968	1	1	96	4	go_punish	1	0	-1	1	0	0	0	0.0	1.0	-1	1.0	0.3027260000235401	1102.2546287000296	1410.2939037000178	1411.3070260000532	1411.6101614000509	1413.1276065000566	1414.150825800025	1415.1590360000264	1416.172040000034	1417.186609800032	1418.0707872000055	2020-05-12 13:26:25.877640	-1.54961925267328	-1.56540680067351	-3.3283590667127	-2.40495013573562	-1.77873981403942	-3.3283590667127	1.54961925267328	-3.3283590667127	-1.56540680067351	-3.3283590667127	-1.77873981403942	-1.9343725070697397	-5.033070272596481	-3.1455295361842985	-3.983052763928213	-5.145886797049875	-3.703453900209496	-3.983052763928213	-2.452247001489976	-6.359788468367098	-1.326718195770612	-6.10215415084375	-1.0264281492687628	2	correct	1.0
315.8303506000084	8.843665899999905	go_reward	0.3290865000453777	315.8534658999997	317.62306339998054	320.17846460000146	1.7695974999808186	316.86502879997715	319.1532707000151	323.19921499997145	0.7580346000033842	1.0251938999863341	1.4979168000281788	322.19309910002653	0.5048661999753676	321.1811776999966	1	1	97	2	go_reward	1	1	0	1	1	1	0	0.0	1.0	1	0.3290865000453777	0.5048661999753676	1102.2546287000296	1418.1080946000293	1419.1196575000067	1419.87769210001	1421.4078994000447	1422.433093300031	1423.4358064000262	1424.447727800056	1425.453843700001	1426.9517605000292	2020-05-12 13:26:25.877640	10.8138416586894	11.9146510054908	3.95526553960122	11.9840863789115	14.7691071982906	3.95526553960122	-10.8138416586894	11.9146510054908	3.95526553960122	14.7691071982906	3.95526553960122	0.4835646338570001	7.330390638766199	10.334528269980012	3.3005718423857076	9.243149717597246	12.844393112120525	3.3005718423857076	-0.03430986056323637	11.737677796636202	4.4072871578700274	9.140855921359751	4.494244191005968	2	correct	1.0
324.7156699000043	8.991353199991863	nogo_punish	1.0	324.7387851999956	326.92038199998206	329.45108839997556	2.181596799986437	325.7479649999875	328.4300444999826	332.4927996000042	1.1724169999945389	1.0210438999929465	1.237338799983263	331.4866091000149	0.296590699988883	330.4585589999915	1	1	98	3	nogo_punish	1	-1	0	0	0	1	0	0.0	1.0	0	1.0	0.296590699988883	1102.2546287000296	1426.9934139000252	1428.002593700017	1429.1750107000116	1430.6846732000122	1431.7057171000051	1432.713187700021	1433.7412378000445	1434.7474283000338	1435.984767100017	2020-05-12 13:26:25.877640	2.45712290402397	-3.36625743844711	-0.881892219310726	-1.3454722147598	-3.3390151233347	-0.881892219310726	-2.45712290402397	-0.881892219310726	-3.36625743844711	-0.881892219310726	-3.3390151233347	0.881892219310726	-1.0263281158992315	-4.946380173957898	-1.5365859165262385	-4.086408876074055	-5.263729209504776	-1.5365859165262385	0.36401772489048956	-3.9133216209651236	-2.886993505065892	-3.6556873034417756	-2.8272787870423626	2	correct	1.0
333.7483780999901	8.257815400022082	nogo_punish	1.0	333.7714933999814	335.109129199991	337.63881269999547	1.3376358000095934	334.7835014999728	336.6265555000282	340.67571699997643	0.3256277000182308	1.01225719996728	1.3535918000270613	339.6709572999973	0.3332749999826774	338.64886620000493	1	1	99	3	nogo_punish	1	-1	0	0	0	1	0	0.0	1.0	0	1.0	0.3332749999826774	1102.2546287000296	1436.026122100011	1437.0381302000023	1437.3637579000206	1438.8811842000578	1439.893441400025	1440.9034949000345	1441.925586000027	1442.930345700006	1444.283937500033	2020-05-12 13:26:25.877640	2.56646009528873	-3.36625743844711	-0.717268537348084	-1.09550607360075	-3.28372863263681	-0.717268537348084	-2.56646009528873	-0.717268537348084	-3.36625743844711	-0.717268537348084	-3.28372863263681	0.717268537348084	-0.9169909246344714	-4.946380173957898	-1.3719622345635967	-3.836442734915005	-5.208442718806886	-1.3719622345635967	0.19939404292784757	-3.7486979390024815	-2.831707014368002	-3.4910636214791335	-2.8272787870423626	2	correct	1.0
342.04468839999754	8.328478200011887	go_reward	0.2989923999994062	342.0678036999889	343.93411440000637	346.4768113999744	1.8663107000174932	343.0770528999856	345.45372099999804	349.53474909998477	0.8570615000207908	1.023090399976354	0.8615328000159934	348.52146090002475	0.5441791000193916	347.4988264000276	1	1	100	2	go_reward	1	1	0	1	1	1	0	0.0	1.0	1	0.2989923999994062	0.5441791000193916	1102.2546287000296	1444.3224324000184	1445.3316816000151	1446.188743100036	1447.7083497000276	1448.731440100004	1449.7534551000572	1450.7760896000543	1451.7893778000143	1452.6509106000303	2020-05-12 13:26:25.877640	10.8986581434056	11.9874639393664	3.95526553960122	12.0462415922132	14.8539236830068	3.95526553960122	-10.8986581434056	11.9874639393664	3.95526553960122	14.8539236830068	3.95526553960122	0.41075169998140026	7.415207123482398	10.407341203855612	3.3005718423857076	9.305304930898945	12.929209596836724	3.3005718423857076	-0.10712279443883621	11.822494281352402	4.4072871578700274	9.213668855235351	4.494244191005968	2	correct	1.0
350.4155472000132	9.375806599971611	nogo_punish	1.0	350.4386625000045	352.9859164999798	355.5110354999779	2.5472539999752826	351.44701220002025	354.4978989000085	358.5674770000039	1.5389042999595404	1.0131365999693571	1.2469920999722035	357.5620681999717	0.3413110999972559	356.5317338000168	1	1	101	3	nogo_punish	1	-1	0	0	0	1	1	1.0	1.0	0	1.0	0.3413110999972559	1102.2546287000296	1452.693291200034	1453.7016409000498	1455.2405452000094	1456.752527600038	1457.7656642000074	1458.7863625000464	1459.8166969000013	1460.8221057000335	1462.0690978000057	2020-05-12 13:26:25.877640	2.65422049857249	-3.36625743844711	-0.585582149529815	-0.895476081496387	-3.23980264810231	-0.585582149529815	-2.65422049857249	-0.585582149529815	-3.36625743844711	-0.585582149529815	-3.23980264810231	0.585582149529815	-0.8292305213507114	-4.946380173957898	-1.2402758467453276	-3.636412742810642	-5.164516734272386	-1.2402758467453276	0.06770765510957855	-3.6170115511842127	-2.787781029833502	-3.3593772336608643	-2.8272787870423626	2	correct	1.0
359.8271804000251	8.617418400011957	nogo_reward	1.0	359.85029570001643	361.42649679997703	363.9492608999717	1.576201099960599	360.8662949000136	362.93698090000544	367.0071910999832	0.5602018999634311	1.0122799999662675	1.4605230000452138	365.9888096000068	0.3255780999897979	364.9675371000194	1	1	102	1	nogo_reward	0	1	0	0	0	1	0	0.0	1.0	0	1.0	0.3255780999897979	1102.2546287000296	1462.104924400046	1463.1209236000432	1463.6811255000066	1465.191609600035	1466.2038896000013	1467.222165800049	1468.2434383000364	1469.2618198000127	1470.722342800058	2020-05-12 13:26:25.877640	-0.55229323866387	3.98062920060466	5.17295302975548	6.6705705027427	5.72524626841935	5.17295302975548	0.55229323866387	5.17295302975548	3.98062920060466	5.17295302975548	5.72524626841935	-5.17295302975548	-4.035744258587071	2.4005064650938714	4.518259332539968	3.9296338414284446	3.800532182249274	4.518259332539968	-5.690827524175717	2.141523628101083	6.177267886688158	2.399157945624431	4.519607852009408	2	correct	1.0
368.4872160999803	8.479104100028053	nogo_punish	1.0	368.5103313999716	370.00648530002195	372.5364532999811	1.4961539000503308	369.5081105999998	371.5237928000279	375.5895002000034	0.4983747000221683	1.0126604999531992	1.3999352999962866	374.5764701999724	0.3689189000288024	373.54718509997474	1	1	103	3	nogo_punish	1	-1	0	0	0	1	1	1.0	1.0	0	1.0	0.3689189000288024	1102.2546287000296	1470.7649601000012	1471.7627393000294	1472.2611140000515	1473.7784215000574	1474.7910820000106	1475.8018138000043	1476.831098900002	1477.844128900033	1479.2440642000292	2020-05-12 13:26:25.877640	2.72491701317971	-3.36625743844711	-0.479844316021228	-0.734779803926075	-3.20476132920094	-0.479844316021228	-2.72491701317971	-0.479844316021228	-3.36625743844711	-0.479844316021228	-3.20476132920094	0.479844316021228	-0.7585340067434916	-4.946380173957898	-1.1345380132367406	-3.47571646524033	-5.129475415371016	-1.1345380132367406	-0.03803017839900846	-3.5112737176756257	-2.752739710932132	-3.2536394001522773	-2.8272787870423626	2	correct	1.0
377.0036423000274	8.697698500007164	go_punish	0.2688264999887906	377.02675760001875	379.36611320002703	381.9113321999905	2.3393556000082754	378.0330719000194	380.8919963000226	384.94978680001805	1.3330413000076078	1.0193358999679276	0.7746693000078722	383.93624249997083	0.4899636999471113	382.92212270002346	1	1	104	4	go_punish	1	0	-1	1	1	1	0	0.0	1.0	0	0.2688264999887906	0.4899636999471113	1102.2546287000296	1479.2813863000483	1480.287700600049	1481.6207419000566	1483.1466250000522	1484.16596090002	1485.176751400053	1486.1908712000004	1487.2044155000476	1487.9790848000555	2020-05-12 13:26:25.877640	1.77663054661938	-1.56540680067351	-3.67382815990538	-2.93813735872025	-1.89719761328601	-3.67382815990538	-1.77663054661938	-1.56540680067351	-3.67382815990538	-1.89719761328601	-3.67382815990538	1.56540680067351	-1.7068204733038215	-3.1455295361842985	-4.328521857120893	-5.679074020034506	-3.821911699456086	-4.328521857120893	1.0475323062532735	-4.928627014940408	-3.221806541636572	-4.3392018848045595	-3.1348495085006327	2	correct	1.0
385.7444401999819	7.866857500048354	nogo_punish	1.0	385.76755549997324	387.11688159999903	389.64416419999907	1.3493261000257917	386.7753720000037	388.624794000003	392.67734539997764	0.3415095999953337	1.0193701999960467	0.9570676000439562	391.6635514000079	0.3493084000074304	390.6498075000129	1	1	105	3	nogo_punish	1	-1	0	0	0	1	1	0.0	0.0	0	1.0	0.3493084000074304	1102.2546287000296	1488.0221842000028	1489.0300007000333	1489.3715103000286	1490.8794227000326	1491.8987929000286	1492.9044362000425	1493.9181801000375	1494.9319741000072	1495.8890417000512	2020-05-12 13:26:25.877640	2.78206869578926	-3.36625743844711	-0.394628192028789	-0.605189648171601	-3.17669688781805	-0.394628192028789	-2.78206869578926	-0.394628192028789	-3.36625743844711	-0.394628192028789	-3.17669688781805	0.394628192028789	-0.7013823241339412	-4.946380173957898	-1.0493218892443017	-3.346126309485856	-5.101410973988126	-1.0493218892443017	-0.12324630239144746	-3.4260575936831863	-2.724675269549242	-3.1684232761598383	-2.8272787870423626	2	wrong	1.0
393.65073669998674	9.217164400033653	nogo_punish	1.0	393.67385199997807	395.9059297000058	398.43725929997163	2.2320777000277303	394.6896801000112	397.4234757000231	401.4917249000282	1.216249599994626	1.0137835999485105	1.3992914999835193	400.4778799000196	0.360343299980741	399.45573260000674	1	1	106	3	nogo_punish	1	-1	0	0	0	1	0	0.0	1.0	0	1.0	0.360343299980741	1102.2546287000296	1495.9284807000076	1496.9443088000407	1498.1605584000354	1499.6781044000527	1500.6918880000012	1501.7103613000363	1502.7325086000492	1503.7463536000578	1505.1456451000413	2020-05-12 13:26:25.877640	2.82843010815584	-3.36625743844711	-0.325702934278791	-0.500294561341452	-3.15413304243463	-0.325702934278791	-2.82843010815584	-0.325702934278791	-3.36625743844711	-0.325702934278791	-3.15413304243463	0.325702934278791	-0.6550209117673615	-4.946380173957898	-0.9803966314943036	-3.241231222655707	-5.078847128604706	-0.9803966314943036	-0.19217156014144549	-3.3571323359331884	-2.702111424165822	-3.0994980184098404	-2.8272787870423626	2	correct	1.0
402.9090193000154	8.68367980001517	nogo_punish	1.0	402.93213460000675	404.7922907000175	407.32757149997633	1.8601561000107267	403.94039220002014	406.3082242999808	410.37275699997554	0.8518984999973327	1.0193471999955364	1.243057400046382	409.3582845000201	0.273751100001391	408.3383326000185	1	1	107	3	nogo_punish	1	-1	0	0	0	1	1	1.0	1.0	0	1.0	0.273751100001391	1102.2546287000296	1505.1867633000363	1506.1950209000497	1507.046919400047	1508.5628530000104	1509.582200200006	1510.592961300048	1511.6129132000497	1512.627385700005	1513.8704431000515	2020-05-12 13:26:25.877640	2.86616540771483	-3.36625743844711	-0.269757332647752	-0.415078961300596	-3.13592274036259	-0.269757332647752	-2.86616540771483	-0.269757332647752	-3.36625743844711	-0.269757332647752	-3.13592274036259	0.269757332647752	-0.6172856122083714	-4.946380173957898	-0.9244510298632647	-3.156015622614851	-5.060636826532666	-0.9244510298632647	-0.2481171617724845	-3.3011867343021493	-2.6839011220937823	-3.0435524167788013	-2.8272787870423626	2	correct	1.0
411.6306254999945	8.628254100040294	nogo_reward	1.0	411.6537407999858	413.5046852999949	416.0251312999753	1.8509445000090636	412.66726750001544	415.0111993000028	419.0702713999781	0.8374177999794483	1.0139319999725558	1.2117235000480377	418.0577971999883	0.3629399999626912	417.02911880001193	1	1	108	1	nogo_reward	1	0	1	0	0	1	0	0.0	1.0	1	1.0	0.3629399999626912	1102.2546287000296	1513.9083695000154	1514.921896200045	1515.7593140000245	1517.2658280000323	1518.279760000005	1519.2837475000415	1520.3124259000178	1521.3249001000077	1522.5366236000557	2020-05-12 13:26:25.877640	-1.31363647466141	3.98062920060466	4.11423436863174	5.32717542822587	5.42787084329315	4.11423436863174	1.31363647466141	4.11423436863174	3.98062920060466	4.11423436863174	5.42787084329315	8.28398127071606	-4.797087494584611	2.4005064650938714	3.459540671416227	2.5862387669116154	3.503156757123074	3.459540671416227	7.766106776295824	1.0828049669773425	5.879892461561958	1.3404392845006905	4.519607852009408	2	correct	1.0
420.29698590002954	8.377990399952978	go_punish	0.3817104999907315	420.3201012000209	422.10738419997506	424.6577190000098	1.7872829999541864	421.32731760002207	423.6336497999728	427.710464600008	0.7800665999529883	1.0240692000370473	0.9876269999658689	426.69708150002407	0.3443175000138581	425.6663327999995	1	1	109	4	go_punish	0	-1	0	1	1	1	0	0.0	1.0	-1	0.3817104999907315	0.3443175000138581	1102.2546287000296	1522.5747299000504	1523.5819463000516	1524.3620129000046	1525.8882785000023	1526.9123477000394	1527.920961500029	1528.9517102000536	1529.9650933000376	1530.9527203000034	2020-05-12 13:26:25.877640	2.22390557443032	-1.25023204140067	-3.67382815990538	-2.35667534969414	-1.44992258547506	-3.67382815990538	-2.22390557443032	-1.25023204140067	-3.67382815990538	-1.44992258547506	-3.67382815990538	-4.01249953238177	-1.2595454454928814	-2.8303547769114585	-4.328521857120893	-5.097612011008395	-3.3746366716451357	-4.328521857120893	-4.530374026802006	-4.481351987129457	-3.221806541636572	-4.0240271255317195	-3.1348495085006327	2	correct	1.0
428.71284059999743	8.28332849999424	go_punish	1.0	428.73595589998877	430.5280035000178	433.0707018999965	1.7920476000290364	429.7489215999958	432.0480312000145	436.09506939997664	0.7790819000219926	1.0226706999819726	0.9242150000063702	435.08839809999336	0.4129756999900564	434.07398029998876	1	1	110	4	go_punish	1	0	-1	1	0	0	0	0.0	1.0	-1	1.0	0.4129756999900564	1102.2546287000296	1530.9905846000183	1532.0035503000254	1532.7826322000474	1534.302659900044	1535.325330600026	1536.3286090000183	1537.343026800023	1538.3496981000062	1539.2739131000126	2020-05-12 13:26:25.877640	-1.34155830240799	-2.00995200670538	-3.67382815990538	-2.90548368193558	-2.33226985749739	-3.67382815990538	1.34155830240799	-3.67382815990538	-2.00995200670538	-3.67382815990538	-2.33226985749739	-1.58890341387706	-4.825009322331192	-3.5900747422161685	-4.328521857120893	-5.646420343249835	-4.256983943667466	-4.328521857120893	-2.106777908297296	-6.705257561559778	-1.8802482392285822	-6.447623244036429	-1.4709733553006328	2	correct	1.0
437.0395547000228	8.87662840000121	nogo_punish	1.0	437.0626700000141	439.1252942000285	441.64896100002807	2.0626242000143975	438.07970210001804	440.62852550001116	444.7089776999783	1.0455921000104809	1.0204355000169016	1.2303207000370548	443.69425160001265	0.3476866999990307	442.67038339999294	1	1	111	3	nogo_punish	1	-1	0	0	0	1	0	0.0	1.0	0	1.0	0.3476866999990307	1102.2546287000296	1539.3172987000437	1540.3343308000476	1541.379922900058	1542.8831542000407	1543.9035897000576	1544.9250121000225	1545.9488803000422	1546.9636064000078	1548.193927100045	2020-05-12 13:26:25.877640	2.89698103976509	-3.36625743844711	-0.224190152565788	-0.345603734118463	-3.12117119233088	-0.224190152565788	-2.89698103976509	-0.224190152565788	-3.36625743844711	-0.224190152565788	-3.12117119233088	0.224190152565788	-0.5864699801581112	-4.946380173957898	-0.8788838497813006	-3.086540395432718	-5.045885278500956	-0.8788838497813006	-0.29368434185444847	-3.2556195542201856	-2.669149574062072	-2.9979852366968376	-2.8272787870423626	2	correct	1.0
445.9534647000255	8.482820799981482	nogo_reward	1.0	445.97658000001684	447.6450277999975	450.1720052000019	1.6684477999806404	446.9895313999732	449.1547530000098	453.22272359998874	0.6554964000242762	1.0172521999920718	1.2366772000095807	452.2058286999818	0.3244436000240966	451.18602979998104	1	1	112	1	nogo_reward	1	0	1	0	0	1	0	0.0	1.0	1	1.0	0.3244436000240966	1102.2546287000296	1548.2312087000464	1549.2441601000028	1549.899656500027	1551.4093817000394	1552.4266339000314	1553.4406585000106	1554.4604574000114	1555.4773523000183	1556.714029500028	2020-05-12 13:26:25.877640	-0.0133518574502405	3.98062920060466	5.7129592939072	6.69906041448162	5.72631115135744	5.7129592939072	0.0133518574502405	5.7129592939072	3.98062920060466	5.7129592939072	5.72631115135744	6.6852563454406	-3.496802877373442	2.4005064650938714	5.058265596691687	3.958123753167365	3.801597065187364	5.058265596691687	6.167381851020364	2.681529892252802	6.178332769626248	2.93916420977615	4.519607852009408	2	correct	1.0
454.4738757000305	7.74647019995632	go_punish	1.0	454.4969910000218	455.92436050000833	458.4498207999861	1.4273694999865256	455.5045843999833	457.4351022000192	461.48449270002334	0.4197761000250466	1.0147185999669546	0.7589684999547899	460.4794752000016	0.372086199990008	459.4599313000217	1	1	113	4	go_punish	0	-1	0	1	0	0	0	1.0	0.0	0	1.0	0.372086199990008	1102.2546287000296	1556.7516197000514	1557.7592131000129	1558.178989200038	1559.6897309000487	1560.7044495000157	1561.7145600000513	1562.7341039000312	1563.739121400053	1564.4980899000077	2020-05-12 13:26:25.877640	-1.52306014318415	-2.00995200670538	-3.95220254389892	-3.34235578514853	-2.42914240071477	-3.95220254389892	1.52306014318415	-3.95220254389892	-2.00995200670538	-3.95220254389892	-2.42914240071477	3.95220254389892	-5.006511163107351	-3.5900747422161685	-4.606896241114432	-6.083292446462785	-4.353856486884846	-4.606896241114432	3.434328049478683	-6.983631945553317	-1.977120782445962	-6.725997628029969	-1.4709733553006328	2	wrong	1.0
462.25624600000447	8.46225969999773	nogo_reward	1.0	462.2793612999958	464.12969879998127	466.6706155000138	1.8503374999854714	463.29426559997955	465.64732210000534	469.720634999976	0.8354332000017166	1.0232934000084697	1.0209860000175013	468.70528990001185	0.6550314000342041	467.68579929997213	1	1	114	1	nogo_reward	1	0	1	0	0	1	1	0.0	0.0	1	1.0	0.6550314000342041	1102.2546287000296	1564.5339900000254	1565.5488943000091	1566.3843275000108	1567.901950800035	1568.9252442000434	1569.9404280000017	1570.9599186000414	1571.9752637000056	1572.996249700023	2020-05-12 13:26:25.877640	1.02123103328533	3.98062920060466	6.98216281171077	7.78681123695181	5.96093177842544	6.98216281171077	-1.02123103328533	6.98216281171077	3.98062920060466	6.98216281171077	5.96093177842544	5.41605282763703	-2.462219986637871	2.4005064650938714	6.3274691144952575	5.045874575637555	4.036217692255364	6.3274691144952575	4.898178333216793	3.950733410056373	6.412953396694248	4.208367727579721	4.519607852009408	2	wrong	1.0
470.75035739998566	8.041295600007516	nogo_reward	1.0	470.773472699977	472.4646613000077	475.0019999999786	1.6911886000307277	471.77843180001946	473.97857199999294	478.046739900019	0.6862294999882579	1.0234279999856426	0.7680283999654876	477.04511740000453	0.2919810999883339	476.01600240002153	1	1	115	1	nogo_reward	1	0	1	0	0	1	0	0.0	1.0	1	1.0	0.2919810999883339	1102.2546287000296	1573.0281014000066	1574.033060500049	1574.7192900000373	1576.2332007000225	1577.2566287000082	1578.270631100051	1579.299746100034	1580.3013686000486	1581.069397000014	2020-05-12 13:26:25.877640	1.84758453074981	3.98062920060466	7.99370503069085	8.65266071796001	6.14612049994104	7.99370503069085	-1.84758453074981	7.99370503069085	3.98062920060466	7.99370503069085	6.14612049994104	4.40451060865695	-1.6358664891733914	2.4005064650938714	7.339011333475337	5.911724056645756	4.221406413770964	7.339011333475337	3.8866361142367136	4.962275629036453	6.598142118209848	5.219909946559801	4.519607852009408	2	correct	1.0
478.83035459998064	9.740723700029548	go_reward	0.3064377999980934	478.85346989997197	481.58654049999313	484.12560089997714	2.733070600021165	479.8517796000233	483.11719979997724	487.1837585999749	1.7347608999698423	1.008401099999901	1.4104350000266095	486.17475060000993	0.4024749000091105	485.1455498000141	1	1	116	2	go_reward	0	0	1	1	1	1	0	0.0	1.0	0	0.3064377999980934	0.4024749000091105	1102.2546287000296	1581.1080986000015	1582.1064083000529	1583.8411692000227	1585.3718285000068	1586.3802296000067	1587.4001785000437	1588.4293793000395	1589.4383873000045	1590.848822300031	2020-05-12 13:26:25.877640	10.9694250864875	12.0482709140744	3.95526553960122	12.0981588813361	14.9246906260887	3.95526553960122	-10.9694250864875	12.0482709140744	3.95526553960122	14.9246906260887	3.95526553960122	-12.0482709140744	7.485974066564298	10.468148178563613	3.3005718423857076	9.357222220021846	12.999976539918624	3.3005718423857076	-12.566145408494638	11.893261224434301	4.4072871578700274	9.274475829943352	4.494244191005968	2	correct	1.0
488.6084501000005	9.566016400000308	nogo_reward	1.0	488.6315653999918	491.3996717000264	493.93056449998403	2.7681063000345603	489.63802329998	492.91579840000486	496.98852180002723	1.761648400046397	1.0147660999791697	1.209059999964893	495.9744474000181	0.3609484999906271	494.94584040000336	1	1	117	1	nogo_reward	1	0	1	0	0	1	1	1.0	1.0	1	1.0	0.3609484999906271	1102.2546287000296	1590.8861941000214	1591.8926520000095	1593.654300400056	1595.1704271000344	1596.1851932000136	1597.200469100033	1598.2290761000477	1599.2431505000568	1600.4522105000217	2020-05-12 13:26:25.877640	2.51010477725689	3.98062920060466	8.80296992302486	9.34451685463906	6.29286514576798	8.80296992302486	-2.51010477725689	8.80296992302486	3.98062920060466	8.80296992302486	6.29286514576798	3.5952457163229408	-0.9733462426663113	2.4005064650938714	8.148276225809347	6.603580193324806	4.368151059597904	8.148276225809347	3.0773712219027045	5.771540521370461	6.744886764036788	6.02917483889381	4.519607852009408	2	correct	1.0
498.21834419999504	9.787428900017403	nogo_punish	1.0	498.2414594999864	500.95164310000837	503.48039460001746	2.710183600021992	499.24219489999814	502.46902770001907	506.53544050001074	1.709448200010229	1.011366899998393	1.4934478999930434	505.5222217999981	0.2869852000148967	504.49504289997276	1	1	118	3	nogo_punish	1	-1	0	0	0	1	0	0.0	1.0	0	1.0	0.2869852000148967	1102.2546287000296	1600.496088200016	1601.4968236000277	1603.206271800038	1604.7236564000486	1605.735023300047	1606.7496716000023	1607.7768505000276	1608.7900692000403	1610.2835171000334	2020-05-12 13:26:25.877640	2.92222728041175	-3.36625743844711	-0.186950415718738	-0.288763504262505	-3.10917769613049	-0.186950415718738	-2.92222728041175	-0.186950415718738	-3.36625743844711	-0.186950415718738	-3.10917769613049	0.186950415718738	-0.5612237395114512	-4.946380173957898	-0.8416441129342507	-3.02970016557676	-5.033891782300566	-0.8416441129342507	-0.3309240787014985	-3.2183798173731355	-2.657156077861682	-2.9607454998497875	-2.8272787870423626	2	correct	1.0
508.04440399998566	8.276775900041685	go_reward	0.429472700052429	508.067519299977	509.6182854999788	512.1732814999996	1.5507662000018172	509.0700173000225	511.1493690999923	515.2162263999926	0.5482681999562828	1.023912400007248	1.1280688000260852	514.2015558999847	0.3176463000127114	513.180276900006	1	1	119	2	go_reward	1	1	0	1	1	1	0	1.0	0.0	1	0.429472700052429	0.3176463000127114	1102.2546287000296	1610.3221480000066	1611.324646000052	1611.8729142000084	1613.403997800022	1614.4279102000291	1615.4349056000356	1616.4561846000142	1617.4708551000222	1618.5989239000482	2020-05-12 13:26:25.877640	8.06989432559373	9.67082463902403	3.95526553960122	9.71327827551946	12.025159865195	3.95526553960122	-8.06989432559373	9.67082463902403	3.95526553960122	12.025159865195	3.95526553960122	2.7273910003237702	4.586443305670528	8.090701903513242	3.3005718423857076	6.972341614205206	10.100445779024925	3.3005718423857076	2.209516505903534	8.993730463540603	4.4072871578700274	6.89702955489298	4.494244191005968	2	wrong	1.0
516.3585715999943	8.593798000016477	nogo_reward	1.0	516.3816868999857	518.0649945000187	520.5840120000066	1.6833076000330038	517.3952270000009	519.5624872000187	523.6289356999914	0.6697675000177696	1.0215247999879011	1.3465492000107133	522.6147370000253	0.2899830999667756	521.6010514000079	1	1	120	1	nogo_reward	0	1	0	0	0	1	0	0.0	1.0	0	1.0	0.2899830999667756	1102.2546287000296	1618.6363156000152	1619.6498557000305	1620.3196232000482	1621.8171159000483	1622.8386407000362	1623.8556801000375	1624.869365700055	1625.883564400021	1627.2301136000317	2020-05-12 13:26:25.877640	3.04322670865044	3.98062920060466	9.45281909177499	9.89941246857893	6.40959238312454	9.45281909177499	-3.04322670865044	9.45281909177499	3.98062920060466	9.45281909177499	6.40959238312454	-9.45281909177499	-0.4402243112727615	2.4005064650938714	8.798125394559477	7.158475807264676	4.484878296954464	8.798125394559477	-9.970693586195226	6.421389690120591	6.861614001393348	6.67902400764394	4.519607852009408	2	correct	1.0
