onset	duration	trial_type	response_time	cueOnset	targetOnset	fbOnset	cueRT	firstfixOnset	secondfixOnset	waitOnset	firstfixdur	secondfixdur	waitdur	nback_fbOnset	nback_response_time	nback_targetOnset	block	wm	trial	cue	cond	is_common	outcome_go	outcome_nogo	key_correct	key_pressed	is_correct	key_correct_nback	key_pressed_nback	is_correct_nback	outcome	rt	rt_nback	time_scan	time_onset	time_isi1	time_circle	time_isi2	time_feedback	time_same	time_correct	time_iti	time_done	timestamp_scan	DV	Qgo	Qnogo	SV	Wgo	Wnogo	mDV	Qchosen	Qunchosen	Wchosen	Wunchosen	PE	DVC	QgoC	QnogoC	SVC	WgoC	WnogoC	PEC	WchosenC	WunchosenC	QchosenC	QunchosenC	run	outcome_nback	nback_targetResp
0.0	6.474899300024845	go_punish	1.0	0.0245975999860093	2.031539299990982	4.569987799972296	2.0069417000049725	1.0227596999611706	3.5451409999514	5.578918599989265	1.0087796000298113	1.024846800020896	0.9205783000215888	n/a	1.0	n/a	1	0	61	1	go_punish	1	0	-1	1	0	0	0	n/a	n/a	-1	1.0	1.0	578.9168486000272	578.9414462000132	579.9396082999883	580.9483879000181	582.4619895999786	583.4868363999994	n/a	n/a	584.4957672000164	585.416345500038	2019-12-27 17:02:45.529034	-2.15636766526835	-0.500467234471398	-3.17355582697913	-1.44032144550341	-1.01718816171079	-3.17355582697913	2.15636766526835	-3.17355582697913	-0.500467234471398	-3.17355582697913	-1.01718816171079	-1.8301868813348898	-4.917781949611847	-1.6294839456706276	-4.267620891082554	-3.918876133269875	-1.969526056218227	-4.267620891082554	-2.553055023915588	-5.577464448456311	-0.6596824988444707	-5.63360683583633	-0.2634980009168498	2	missed	0.0
6.507634300040081	7.615141400019638	go_punish	0.3507071000058204	6.53223190002609	9.358661100035533	11.90111540001817	2.826429200009443	7.531042400049046	10.889713900047354	12.903999999980442	1.8276186999864876	1.011401499970816	1.2433733000652865	n/a	1.0	n/a	1	0	62	1	go_punish	1	0	-1	1	1	1	0	n/a	n/a	0	0.3507071000058204	1.0	578.9168486000272	585.4490805000532	586.4478910000762	588.2755097000627	589.8065625000745	590.8179640000453	n/a	n/a	591.8208486000076	593.0642219000729	2019-12-27 17:02:45.529034	2.46233108219906	-0.500467234471398	-3.55813104572673	-2.27029066456494	-1.09579996352767	-3.55813104572673	-2.46233108219906	-0.500467234471398	-3.55813104572673	-1.09579996352767	-3.55813104572673	0.500467234471398	-0.2990832021444363	-1.6294839456706276	-4.652196109830154	-4.748845352331406	-2.048137858035107	-4.652196109830154	-0.22240090810930013	-3.4997085850048513	-3.2006253828604105	-2.960518243328598	-3.3211618121721815	2	missed	0.0
14.15569060004782	6.709408800001256	go_punish	0.3856616000412032	14.180288200033829	15.960661499993876	18.476768899941817	1.780373299960047	15.17954899999313	17.480144800036214	19.489844399970025	0.7811125000007451	0.9966240999056026	1.39985260006506	n/a	1.0	n/a	1	0	63	1	go_punish	1	0	-1	1	1	1	1	n/a	n/a	0	0.3856616000412032	1.0	578.9168486000272	593.097136800061	594.0963976000203	594.877510100021	596.3969934000634	597.393617499969	n/a	n/a	598.4066929999972	599.8065456000622	2019-12-27 17:02:45.529034	2.62841739295488	-0.384575218747596	-3.55813104572673	-1.7397375279045	-0.929713652771856	-3.55813104572673	-2.62841739295488	-0.384575218747596	-3.55813104572673	-0.929713652771856	-3.55813104572673	0.384575218747596	-0.13299689138861615	-1.5135919299468255	-4.652196109830154	-4.2182922156709655	-1.8820515472792931	-4.652196109830154	-0.3382929238331021	-3.3336222742490373	-3.2006253828604105	-2.844626227604796	-3.3211618121721815	2	missed	0.0
20.898970099980943	6.279254900058731	nogo_reward	1.0	20.923567699966952	22.410120300017297	24.95021519996226	1.486552600050345	21.930597999948077	23.926714499946684	25.95944150001742	0.47952230006922036	1.0235007000155747	1.2433811000082642	n/a	1.0	n/a	1	0	64	4	nogo_reward	1	0	1	0	0	1	0	n/a	n/a	1	1.0	1.0	578.9168486000272	599.8404162999941	600.8474465999752	601.3269689000444	602.8435630999738	603.8670637999894	n/a	n/a	604.8762901000446	606.1196712000528	2019-12-27 17:02:45.529034	10.9495903271062	0.0	11.2999362955109	11.2999362955109	0.350345968404676	11.2999362955109	-10.9495903271062	11.2999362955109	0.0	11.2999362955109	0.350345968404676	1.8209340446345994	8.188176042762704	-1.1290167111992295	10.205871231407475	8.821381607744435	-0.6019919261027611	10.205871231407475	1.0980659020539014	8.896027674033718	0.7078516312709953	8.8398852866537	0.2369692335545482	2	missed	0.0
27.21865080005955	5.96162919991184	go_reward	0.3290820999536663	27.24324840004556	28.821364099974744	31.367421200033277	1.5781156999291852	28.25922150001861	30.352433299995027	32.376710599986836	0.5621425999561325	1.0149879000382498	0.8281669999705628	n/a	1.0	n/a	1	0	65	3	go_reward	1	1	0	1	1	1	0	n/a	n/a	1	0.3290820999536663	1.0	578.9168486000272	606.1600970000727	607.1760701000458	607.7382127000019	609.2692819000222	610.2842698000604	n/a	n/a	611.293559200014	612.1217261999846	2019-12-27 17:02:45.529034	5.92603475046346	8.12266148069108	2.32058279187798	8.17080028471961	8.24661754234143	2.32058279187798	-5.92603475046346	8.12266148069108	2.32058279187798	8.24661754234143	2.32058279187798	4.998208859454419	3.1646204661199637	6.993644769491851	1.2265177277745556	5.6922455969531445	7.294279647833992	1.2265177277745556	4.27534071687372	5.842708920864248	2.6780884547442994	5.66261047183388	2.5575520254325284	2	missed	0.0
33.21299649996217	6.265524800051935	go_punish	0.599881700007245	33.23759409994818	34.59932719997596	37.15524100000039	1.3617331000277773	34.239819500013255	36.12984129996039	38.160071499994956	0.3595076999627054	1.0253997000399977	1.3430474000051618	n/a	1.0	n/a	1	0	66	1	go_punish	1	0	-1	1	1	1	0	n/a	n/a	0	0.599881700007245	1.0	578.9168486000272	612.1544426999753	613.1566681000404	613.5161758000031	615.0466898999875	616.0720896000275	n/a	n/a	617.0769201000221	618.4199675000273	2019-12-27 17:02:45.529034	2.75136652796792	-0.297449245974198	-3.55813104572673	-1.34267552219809	-0.806764517758807	-3.55813104572673	-2.75136652796792	-0.297449245974198	-3.55813104572673	-0.806764517758807	-3.55813104572673	0.297449245974198	-0.010047756375576089	-1.4264659571734275	-4.652196109830154	-3.8212302099645554	-1.7591024122662442	-4.652196109830154	-0.4254188966065001	-3.210673139235988	-3.2006253828604105	-2.757500254831398	-3.3211618121721815	2	missed	0.0
39.512139300000854	6.244975000037812	nogo_reward	1.0	39.53673689998686	41.20497770002112	43.73095969995484	1.6682408000342548	40.5441637999611	42.711376299965195	44.75054519996047	0.6608139000600204	1.0195833999896422	1.0311667000642046	n/a	1.0	n/a	1	0	67	4	nogo_reward	0	1	0	0	0	1	0	n/a	n/a	0	1.0	1.0	578.9168486000272	618.453585500014	619.4610123999882	620.1218263000483	621.6282248999923	622.647808299982	n/a	n/a	623.6673937999876	624.6985605000518	2019-12-27 17:02:45.529034	11.3265709000299	0.0	11.7044629583672	11.7044629583672	0.377892058337257	11.7044629583672	-11.3265709000299	11.7044629583672	0.0	11.7044629583672	0.377892058337257	-11.7044629583672	8.565156615686403	-1.1290167111992295	10.610397894263777	9.225908270600735	-0.5744458361701801	10.610397894263777	-12.427331100947898	9.30055433689002	0.7353977212035763	9.244411949509999	0.2369692335545482	2	missed	0.0
45.79282440000679	6.916434600017965	go_punish	0.3366122998995706	45.8174219999928	48.17281150002964	50.72954430000391	2.3553895000368357	46.823302699951455	49.70973330002744	51.73405940004159	1.3495088000781834	1.019810999976471	0.9997971999691799	n/a	1.0	n/a	1	0	68	1	go_punish	1	0	-1	1	1	1	1	n/a	n/a	0	0.3366122998995706	1.0	578.9168486000272	624.73427060002	625.7401512999786	627.0896601000568	628.6265819000546	629.6463929000311	n/a	n/a	630.6509080000687	631.6507052000379	2019-12-27 17:02:45.529034	2.84312517844741	-0.23147951804411	-3.55813104572673	-1.0431582132241	-0.715005867279321	-3.55813104572673	-2.84312517844741	-0.23147951804411	-3.55813104572673	-0.715005867279321	-3.55813104572673	0.23147951804411	0.08171089410391374	-1.3604962292433396	-4.652196109830154	-3.5217129009905657	-1.6673437617867581	-4.652196109830154	-0.4913886245365881	-3.118914488756502	-3.2006253828604105	-2.6915305269013103	-3.3211618121721815	2	missed	0.0
52.7420364000136	7.181593899964355	go_punish	0.3085246999980882	52.76663399999961	54.94088420004118	57.47196460003033	2.1742502000415698	53.769141099997796	56.46274450002238	58.48584390000906	1.1717431000433862	1.0092201000079513	1.462383999954909	n/a	1.0	n/a	1	0	69	1	go_punish	1	0	-1	1	1	1	0	n/a	n/a	0	0.3085246999980882	1.0	578.9168486000272	631.6834826000268	632.685989700025	633.8577328000683	635.3795931000495	636.3888132000575	n/a	n/a	637.4026925000362	638.8650764999911	2019-12-27 17:02:45.529034	2.91213089222813	-0.181190422993728	-3.55813104572673	-0.815540457495472	-0.646000153498605	-3.55813104572673	-2.91213089222813	-0.181190422993728	-3.55813104572673	-0.646000153498605	-3.55813104572673	0.181190422993728	0.1507166078846338	-1.3102071341929575	-4.652196109830154	-3.2940951452619376	-1.598338048006042	-4.652196109830154	-0.5416777195869701	-3.049908774975786	-3.2006253828604105	-2.6412414318509283	-3.3211618121721815	2	missed	0.0
59.96427650004625	6.231094499933533	go_reward	0.3453796999529004	59.98887410003226	61.68579559994396	64.23282969999127	1.6969214999116957	60.99849659996107	63.20915260002948	65.24195719999261	0.687298999982886	1.0236770999617875	0.9780113999731839	n/a	1.0	n/a	1	0	70	3	go_reward	1	1	0	1	1	1	0	n/a	n/a	1	0.3453796999529004	1.0	578.9168486000272	638.9057227000594	639.9153451999882	640.6026441999711	642.1260012000566	643.1496783000184	n/a	n/a	644.1588058000198	645.136817199993	2019-12-27 17:02:45.529034	7.20538716361176	9.30857526377022	2.32058279187798	9.34786413051009	9.52596995548974	2.32058279187798	-7.20538716361176	9.30857526377022	2.32058279187798	9.52596995548974	2.32058279187798	3.81229507637528	4.443972879268264	8.17955855257099	1.2265177277745556	6.869309442743624	8.573632060982304	1.2265177277745556	3.089426933794582	7.122061334012559	2.6780884547442994	6.848524254913019	2.5575520254325284	2	missed	0.0
66.23556970001664	6.179801799939014	go_reward	0.3366712999995798	66.26016730000265	67.82283219997771	70.3859695000574	1.5626648999750614	67.27026519994251	69.36173180001788	71.38618879998103	0.5525670000351965	1.0242377000395209	1.0537802999606356	n/a	1.0	n/a	1	0	71	3	go_reward	1	1	0	1	1	1	0	n/a	n/a	1	0.3366712999995798	1.0	578.9168486000272	645.1770159000298	646.1871137999697	646.7396808000049	648.278580400045	649.3028181000846	n/a	n/a	650.3030374000082	651.3568176999688	2019-12-27 17:02:45.529034	8.15350180091215	10.1912394193696	2.32058279187798	10.2234161740267	10.4740845927901	2.32058279187798	-8.15350180091215	10.1912394193696	2.32058279187798	10.4740845927901	2.32058279187798	2.9296309207758995	5.392087516568653	9.06222270817037	1.2265177277745556	7.744861486260236	9.521746698282662	1.2265177277745556	2.2067627781952015	8.070175971312917	2.6780884547442994	7.7311884105124	2.5575520254325284	2	missed	0.0
72.44952859997284	6.369231200078502	go_punish	0.3619527000701055	72.47412619995885	73.8244754000334	76.37504590000026	1.350349200074561	73.4807583000511	75.35173460002989	77.38424929999746	0.3437170999823138	1.0233112999703735	1.4591081000398844	n/a	1.0	n/a	1	0	72	1	go_punish	0	-1	0	1	1	1	0	n/a	n/a	-1	0.3619527000701055	1.0	578.9168486000272	651.390974799986	652.3976069000782	652.7413240000606	654.268583200057	655.2918945000274	n/a	n/a	656.3010979000246	657.7602060000645	2019-12-27 17:02:45.529034	2.96439994008456	-0.142609051246574	-3.55813104572673	-0.641353022901067	-0.59373110564217	-3.55813104572673	-2.96439994008456	-0.142609051246574	-3.55813104572673	-0.59373110564217	-3.55813104572673	-4.8611336570674455	0.20298565574106409	-1.2716257624458036	-4.652196109830154	-3.1199077106675324	-1.5460690001496071	-4.652196109830154	-5.584001799648144	-2.9976397271193513	-3.2006253828604105	-2.602660060103774	-3.3211618121721815	2	missed	0.0
78.8519435999915	7.2613973000552505	nogo_reward	1.0	78.87654119997751	81.19880719995126	83.72504409996327	2.3222659999737516	79.86873610003386	82.7052533000242	84.73806150001474	1.3300710999174044	1.0197907999390736	1.399877000018023	n/a	1.0	n/a	1	0	73	4	nogo_reward	0	1	0	0	0	1	0	n/a	n/a	0	1.0	1.0	578.9168486000272	657.7933898000047	658.785584700061	660.1156557999784	661.6221019000513	662.6418926999904	n/a	n/a	663.6549101000419	665.0547871000599	2019-12-27 17:02:45.529034	8.7428940200044	0.0	8.89474649227337	8.89474649227337	0.151852472268973	8.89474649227337	-8.7428940200044	8.89474649227337	0.0	8.89474649227337	0.151852472268973	-8.89474649227337	5.981479735660903	-1.1290167111992295	7.800681428169946	6.416191804506905	-0.8004854222384641	7.800681428169946	-9.617614634854068	6.490837870796189	0.5093581351352923	6.43469548341617	0.2369692335545482	2	missed	0.0
86.1500755000161	6.129627499962226	nogo_reward	1.0	86.17467310000211	87.52147280005738	90.06156719999854	1.3467997000552714	87.18853150005452	89.03787720005494	91.07040029997006	0.33294130000285804	1.023689999943599	1.233900299994275	n/a	1.0	n/a	1	0	74	4	nogo_reward	1	0	1	0	0	1	0	n/a	n/a	1	1.0	1.0	578.9168486000272	665.0915217000293	666.1053801000817	666.4383214000845	667.9547258000821	668.9784158000257	n/a	n/a	669.9872488999972	671.2211491999915	2019-12-27 17:02:45.529034	6.81546405975556	0.0	6.80898836871742	6.80898836871742	-0.0064756910381429	6.80898836871742	-6.81546405975556	6.80898836871742	0.0	6.80898836871742	-0.0064756910381429	6.311881971428079	4.054049775412064	-1.1290167111992295	5.714923304613996	4.330433680950955	-0.95881358554558	5.714923304613996	5.5890138288473805	4.405079747240239	0.3510299718281764	4.34893735986022	0.2369692335545482	2	missed	0.0
92.31285740004387	6.855502799968235	nogo_reward	1.0	92.33745500002988	94.39661809999961	96.91804320004303	2.0591630999697372	93.34501659998205	95.90304260002449	97.91815649997443	1.0516015000175685	1.0150006000185385	1.2748013000236824	n/a	1.0	n/a	1	0	75	4	nogo_reward	1	0	1	0	0	1	1	n/a	n/a	1	1.0	1.0	578.9168486000272	671.254303600057	672.2618652000092	673.3134667000268	674.8198912000516	675.8348918000702	n/a	n/a	676.8350051000016	678.1098064000253	2019-12-27 17:02:45.529034	8.23764466995145	0.0	8.36499720789283	8.36499720789283	0.127352537941381	8.36499720789283	-8.23764466995145	8.36499720789283	0.0	8.36499720789283	0.127352537941381	4.755873132252669	5.476230385607954	-1.1290167111992295	7.270932143789406	5.886442520126366	-0.8249853565660561	7.270932143789406	4.03300498967197	5.9610885864156495	0.48485820080770026	5.9049461990356304	0.2369692335545482	2	missed	0.0
99.20281010004692	6.576953299925663	nogo_reward	1.0	99.22740770003293	100.89202929998282	103.41097680001985	1.6646215999498963	100.2359385000309	102.39713029994164	104.42014790000394	0.6560907999519259	1.0138465000782162	1.3842130999546498	n/a	1.0	n/a	1	0	76	4	nogo_reward	1	0	1	0	0	1	1	n/a	n/a	1	1.0	1.0	578.9168486000272	678.1442563000601	679.152787100058	679.80887790001	681.3139788999688	682.327825400047	n/a	n/a	683.3369965000311	684.7212095999857	2019-12-27 17:02:45.529034	9.28869425527053	0.0	9.50886147958891	9.50886147958891	0.220167224318377	9.50886147958891	-9.28869425527053	9.50886147958891	0.0	9.50886147958891	0.220167224318377	3.612008860556589	6.527279970927033	-1.1290167111992295	8.414796415485487	7.030306791822445	-0.7321706701890601	8.414796415485487	2.889140717975891	7.104952858111729	0.5776728871846963	7.04881047073171	0.2369692335545482	2	missed	0.0
105.81489130004775	6.893634399981238	go_punish	0.3139016000786796	105.83948890003376	107.76733339997008	110.31528530002106	1.9278444999363273	106.85520450002514	109.29151320003439	111.32062550005503	0.9121288999449462	1.0237720999866724	1.412497799959965	n/a	1.0	n/a	1	0	77	1	go_punish	0	-1	0	1	1	1	0	n/a	n/a	-1	0.3139016000786796	1.0	578.9168486000272	684.7563375000609	685.7720531000523	686.6841819999972	688.2083618000615	689.2321339000482	n/a	n/a	690.2374741000822	691.6499719000421	2019-12-27 17:02:45.529034	1.74642945590414	-1.26446672560284	-3.55813104572673	-1.65881311819584	-1.81170158982259	-3.55813104572673	-1.74642945590414	-1.26446672560284	-3.55813104572673	-1.81170158982259	-3.55813104572673	-3.73927598271118	-1.0149848284393561	-2.3934834368020694	-4.652196109830154	-4.137367805962306	-2.764039484330027	-4.652196109830154	-4.4621441252918785	-4.215610211299771	-3.2006253828604105	-3.72451773446004	-3.3211618121721815	2	missed	0.0
112.74679450003896	6.124922799994238	go_reward	0.979861699976027	112.77139210002497	114.13462749996688	116.68075910001062	1.3632353999419138	113.77581739996094	115.66800459998194	117.68296959996223	0.3588101000059396	1.0127545000286773	1.2133453000569716	n/a	1.0	n/a	1	0	78	3	go_reward	0	0	1	1	1	1	0	n/a	n/a	0	0.979861699976027	1.0	578.9168486000272	691.6882407000521	692.6926659999881	693.051476099994	694.5848532000091	695.5976077000378	n/a	n/a	696.5998181999894	697.8131635000464	2019-12-27 17:02:45.529034	8.86204891248553	10.8535767181643	2.32058279187798	10.8800162938062	11.1826317043635	2.32058279187798	-8.86204891248553	10.8535767181643	2.32058279187798	11.1826317043635	2.32058279187798	-10.8535767181643	6.100634628142034	9.72456000696507	1.2265177277745556	8.401461606039735	10.230293809856063	1.2265177277745556	-11.576444860744997	8.77872308288632	2.6780884547442994	8.393525709307099	2.5575520254325284	2	missed	0.0
118.90611089998856	6.56272769998759	go_punish	0.3684649000642821	118.93070849997457	120.99009239999577	123.51820549997501	2.059383900021203	119.95031890005339	122.50805429997854	124.5311923000263	1.0397734999423847	1.0101511999964714	0.9622438999358565	n/a	1.0	n/a	1	0	79	1	go_punish	1	0	-1	1	1	1	1	n/a	n/a	0	0.3684649000642821	1.0	578.9168486000272	697.8475571000017	698.8671675000805	699.9069410000229	701.4249029000057	702.4350541000022	n/a	n/a	703.4480409000535	704.4102847999893	2019-12-27 17:02:45.529034	0.835297494166133	-2.10700645627636	-3.55813104572673	-2.42047240539644	-2.7228335515606	-3.55813104572673	-0.835297494166133	-2.10700645627636	-3.55813104572673	-2.7228335515606	-3.55813104572673	2.10700645627636	-1.926116790177363	-3.2360231674755893	-4.652196109830154	-4.899027093162905	-3.675171446068037	-4.652196109830154	1.384138313695662	-5.126742173037782	-3.2006253828604105	-4.56705746513356	-3.3211618121721815	2	missed	0.0
125.50819710001815	6.515690300031565	go_punish	0.2471942000556737	125.53279470000416	127.4801548999967	130.03563950001262	1.947360199992545	126.55176479998045	129.0160563000245	131.04882899997756	0.9283901000162587	1.0195831999881193	0.9996560000581667	n/a	1.0	n/a	1	0	80	1	go_punish	1	0	-1	1	1	1	0	n/a	n/a	0	0.2471942000556737	1.0	578.9168486000272	704.4496433000313	705.4686134000076	706.3970035000239	707.9329049000517	708.9524881000398	n/a	n/a	709.9656776000047	710.9653336000629	2019-12-27 17:02:45.529034	1.40600616171569	-1.59312018127785	-3.55813104572673	-1.84355090230761	-2.15212488401104	-3.55813104572673	-1.40600616171569	-1.59312018127785	-3.55813104572673	-2.15212488401104	-3.55813104572673	1.59312018127785	-1.355408122627806	-2.7221368924770797	-4.652196109830154	-4.3221055900740755	-3.104462778518477	-4.652196109830154	0.8702520386971518	-4.556033505488221	-3.2006253828604105	-4.05317119013505	-3.3211618121721815	2	missed	0.0
132.0592944000382	6.189134799991734	nogo_punish	1.0	132.0838920000242	133.93647069996223	136.46338329999708	1.8525786999380216	133.0927530999761	135.44382679997943	137.47651950002182	0.8437175999861211	1.019556500017643	0.7965072999941185	n/a	1.0	n/a	1	0	81	2	nogo_punish	1	-1	0	0	0	1	0	n/a	n/a	0	1.0	1.0	578.9168486000272	711.0007406000514	712.0096017000033	712.8533192999894	714.3606754000066	715.3802319000242	n/a	n/a	716.393368100049	717.1898754000431	2019-12-27 17:02:45.529034	2.77603533585494	-3.55813104572673	-1.3219006985161	-1.6701488929156	-4.09793603437105	-1.3219006985161	-2.77603533585494	-1.3219006985161	-3.55813104572673	-1.3219006985161	-4.09793603437105	1.3219006985161	0.014621051511443994	-4.68714775692596	-2.4159657626195243	-4.148703580682065	-5.050273928878487	-2.4159657626195243	0.5990325559354018	-3.725809319993281	-3.7404303715047305	-3.7819517073733	-3.3211618121721815	2	missed	0.0
138.28193699999247	6.185399000067264	nogo_reward	1.0	138.30653459997848	139.80757649999578	142.33550919999834	1.5010419000172988	139.3082141999621	141.31079789996147	143.33552409999538	0.4993623000336811	1.02471130003687	1.1564095000503585	n/a	1.0	n/a	1	0	82	4	nogo_reward	1	0	1	0	0	1	0	n/a	n/a	1	1.0	1.0	578.9168486000272	717.2233832000056	718.2250627999892	718.7244251000229	720.2276464999886	721.2523578000255	n/a	n/a	722.2523727000225	723.4087822000729	2019-12-27 17:02:45.529034	10.0719036929088	0.0	10.3569827066869	10.3569827066869	0.285079013778046	10.3569827066869	-10.0719036929088	10.3569827066869	0.0	10.3569827066869	0.285079013778046	2.7638876334586	7.310489408565303	-1.1290167111992295	9.262917642583474	7.8784280189204345	-0.6672588807293911	9.262917642583474	2.041019490877902	7.953074085209718	0.6425846766443652	7.896931697829699	0.2369692335545482	2	missed	0.0
144.50884649995714	6.056943400064483	go_reward	0.3841038000537082	144.53344409994315	145.82338610000443	148.36554499994963	1.2899420000612736	145.54216479999013	147.35463219997473	149.37855949997902	0.2812213000142947	1.0109127999749035	1.2118280000286177	n/a	1.0	n/a	1	0	83	3	go_reward	0	0	1	1	1	1	0	n/a	n/a	0	0.3841038000537082	1.0	578.9168486000272	723.4502926999703	724.4590134000173	724.7402347000316	726.2714808000019	727.2823935999768	n/a	n/a	728.2954081000062	729.5072361000348	2019-12-27 17:02:45.529034	6.03339272713673	8.23767245318292	2.32058279187798	8.25946715012828	8.3539755190147	2.32058279187798	-6.03339272713673	8.23767245318292	2.32058279187798	8.3539755190147	2.32058279187798	-8.23767245318292	3.2719784427932335	7.108655741983691	1.2265177277745556	5.780912462361815	7.401637624507263	1.2265177277745556	-8.960540595763618	5.950066897537519	2.6780884547442994	5.77762144432572	2.5575520254325284	2	missed	0.0
150.60198130004574	7.077735699946061	nogo_reward	1.0	150.62657890003175	153.24236160004511	155.78135559998918	2.6157827000133693	151.6236893000314	154.75804270000663	156.78435560001526	1.6186723000137135	1.0233128999825567	0.9199589999625459	n/a	1.0	n/a	1	0	84	4	nogo_reward	1	0	1	0	0	1	1	n/a	n/a	1	1.0	1.0	578.9168486000272	729.5434275000589	730.5405379000586	732.1592102000723	733.6748913000338	734.6982042000163	n/a	n/a	735.7012042000424	736.621163200005	2019-12-27 17:02:45.529034	10.6601047190883	0.0	10.9909408063942	10.9909408063942	0.330836087305896	10.9909408063942	-10.6601047190883	10.9909408063942	0.0	10.9909408063942	0.330836087305896	2.1299295337513	7.898690434744804	-1.1290167111992295	9.896875742290774	8.512386118627735	-0.6215018072015411	9.896875742290774	1.4070613911706018	8.587032184917017	0.6883417501722153	8.530889797537	0.2369692335545482	2	missed	0.0
157.7170248000184	7.3399346000514925	nogo_punish	1.0	157.74162240000442	160.52780249994248	163.04749250004534	2.786180099938065	158.7561158000026	162.03345139999874	164.0568276999984	1.7716866999398917	1.0140411000465974	1.0247293000575155	n/a	1.0	n/a	1	0	85	2	nogo_punish	0	0	-1	0	0	1	0	n/a	n/a	-1	1.0	1.0	578.9168486000272	736.6584710000316	737.6729644000297	739.4446510999696	740.9503000000259	741.9643411000725	n/a	n/a	742.9736763000255	743.9984056000831	2019-12-27 17:02:45.529034	3.05265002136336	-3.55813104572673	-1.01075456332808	-1.28892923963383	-4.06340458469144	-1.01075456332808	-3.05265002136336	-1.01075456332808	-3.55813104572673	-1.01075456332808	-4.06340458469144	-3.99298814498594	0.2912357370198637	-4.68714775692596	-2.104819627431504	-3.7674839274002956	-5.015742479198877	-2.104819627431504	-4.7158562875666385	-3.414663184805261	-3.705898921825121	-3.47080557218528	-3.3211618121721815	2	missed	0.0
165.0936602000147	6.397133499966003	go_punish	0.2396986000239849	165.11825780000072	166.98474640003406	169.53693179995753	1.8664886000333354	166.1261277999729	168.52196699997876	170.54628889996093	0.8586186000611633	1.0149647999787703	0.9691024000057951	n/a	1.0	n/a	1	0	86	1	go_punish	0	-1	0	1	1	1	0	n/a	n/a	-1	0.2396986000239849	1.0	578.9168486000272	744.0351064000279	745.0429764	745.9015950000612	747.4388156000059	748.4537803999847	n/a	n/a	749.4631374999881	750.4322398999939	2019-12-27 17:02:45.529034	1.82559751266768	-1.21377255182528	-3.55813104572673	-1.41479865605333	-1.73253353305905	-3.55813104572673	-1.82559751266768	-1.21377255182528	-3.55813104572673	-1.73253353305905	-3.55813104572673	-3.7899701564887396	-0.9358167716758161	-2.3427892630245095	-4.652196109830154	-3.8933533438197956	-2.684871427566487	-4.652196109830154	-4.512838299069438	-4.1364421545362315	-3.2006253828604105	-3.6738235606824805	-3.3211618121721815	2	missed	0.0
171.5265153000364	7.477017999975942	go_punish	0.369769399985671	171.55111290002242	174.0258042999776	176.57921650004573	2.4746913999551907	172.56600620003883	175.56739229999948	177.59126120002475	1.45979809993878	1.0118242000462487	1.436869699973613	n/a	1.0	n/a	1	0	87	1	go_punish	1	0	-1	1	1	1	0	n/a	n/a	0	0.369769399985671	1.0	578.9168486000272	750.4679615000496	751.482854800066	752.9426529000048	754.4842409000266	755.4960651000729	n/a	n/a	756.5081098000519	757.9449795000255	2019-12-27 17:02:45.529034	0.878908725311566	-2.08302644512259	-3.55813104572673	-2.24512426615247	-2.67922232041516	-3.55813104572673	-0.878908725311566	-2.08302644512259	-3.55813104572673	-2.67922232041516	-3.55813104572673	2.08302644512259	-1.8825055590319302	-3.21204315632182	-4.652196109830154	-4.723678953918935	-3.631560214922597	-4.652196109830154	1.3601583025418922	-5.083130941892341	-3.2006253828604105	-4.543077453979791	-3.3211618121721815	2	missed	0.0
179.0398933000397	5.889810099964961	nogo_punish	1.0	179.0644909000257	180.5167295000283	183.04143490002025	1.4522386000026017	180.07902710000053	182.0216707000509	184.05473960004747	0.4377024000277743	1.0197641999693587	0.8995613999431953	n/a	1.0	n/a	1	0	88	2	nogo_punish	1	-1	0	0	0	1	0	n/a	n/a	0	1.0	1.0	578.9168486000272	757.9813395000529	758.9958757000277	759.4335781000555	760.938519300078	761.9582835000474	n/a	n/a	762.9715882000746	763.8711496000178	2019-12-27 17:02:45.529034	2.21484873107774	-3.55813104572673	-1.9299307444191	-2.15316775735519	-4.14477947549684	-1.9299307444191	-2.21484873107774	-1.9299307444191	-3.55813104572673	-1.9299307444191	-4.14477947549684	1.9299307444191	-0.5465655532657561	-4.68714775692596	-3.0239958085225247	-4.631722445121655	-5.097117370004277	-3.0239958085225247	1.2070626018384019	-4.3338393658962815	-3.7872738126305205	-4.389981753276301	-3.3211618121721815	2	missed	0.0
184.96626859996468	7.020389400073327	nogo_reward	1.0	184.9908661999507	187.28556650003884	189.81489329994656	2.2947003000881523	186.0051196999848	188.7911321000429	190.82401320000645	1.280446800054051	1.0237611999036744	1.187242400017567	n/a	1.0	n/a	1	0	89	4	nogo_reward	1	0	1	0	0	1	0	n/a	n/a	1	1.0	1.0	578.9168486000272	763.9077147999778	764.9219683000119	766.202415100066	767.70798070007	768.7317418999737	n/a	n/a	769.7408618000336	770.9281042000512	2019-12-27 17:02:45.529034	11.1051326332646	0.0	11.4684638347469	11.4684638347469	0.363331201482307	11.4684638347469	-11.1051326332646	11.4684638347469	0.0	11.4684638347469	0.363331201482307	1.6524065053985986	8.343718348921103	-1.1290167111992295	10.374398770643477	8.989909146980436	-0.5890066930251301	10.374398770643477	0.9295383628179005	9.06455521326972	0.7208368643486263	9.0084128258897	0.2369692335545482	2	missed	0.0
192.0206412000116	7.123412900022231	go_punish	0.3676873000804335	192.0452387999976	194.26975570002105	196.81348899996374	2.2245169000234455	193.05937989999074	195.79222299996763	197.8146306000417	1.210375800030306	1.0212659999961033	1.3540210999781266	n/a	1.0	n/a	1	0	90	1	go_punish	1	0	-1	1	1	1	0	n/a	n/a	0	0.3676873000804335	1.0	578.9168486000272	770.9620874000248	771.9762285000179	773.1866043000482	774.7090715999948	775.7303375999909	n/a	n/a	776.7314792000689	778.085500300047	2019-12-27 17:02:45.529034	1.4276040255946	-1.58518496863791	-3.55813104572673	-1.71645404624847	-2.13052702013213	-3.55813104572673	-1.4276040255946	-1.58518496863791	-3.55813104572673	-2.13052702013213	-3.55813104572673	1.58518496863791	-1.333810258748896	-2.7142016798371396	-4.652196109830154	-4.195008734014936	-3.082864914639567	-4.652196109830154	0.8623168260572119	-4.534435641609312	-3.2006253828604105	-4.0452359774951105	-3.3211618121721815	2	missed	0.0
199.17769140005112	7.992436799919233	nogo_reward	1.0	199.20228900003713	202.16345150000416	204.69192260003183	2.961162499967031	200.20376489998307	203.66792230005376	205.7013358999975	1.9596866000210866	1.02400029997807	1.4933898999588564	n/a	1.0	n/a	1	0	91	4	nogo_reward	1	0	1	0	0	1	1	n/a	n/a	1	1.0	1.0	578.9168486000272	778.1191376000643	779.1206135000102	781.0803001000313	782.5847709000809	783.608771200059	n/a	n/a	784.6181845000247	786.1115743999835	2019-12-27 17:02:45.529034	11.4442073796888	0.0	11.8307770236645	11.8307770236645	0.386569643975684	11.8307770236645	-11.4442073796888	11.8307770236645	0.0	11.8307770236645	0.386569643975684	1.2900933164810002	8.682793095345303	-1.1290167111992295	10.736711959561074	9.352222335898034	-0.5657682505317532	10.736711959561074	0.5672251739003021	9.426868402187317	0.7440753068420033	9.3707260148073	0.2369692335545482	2	missed	0.0
207.2085333999712	7.594544799998403	nogo_reward	1.0	207.2331309999572	209.94521709997207	212.4751847999869	2.712086100014858	208.2362164000515	211.4502349999966	213.47475749999285	1.7090006999205798	1.0249497999902815	1.3529182999627665	n/a	1.0	n/a	1	0	92	4	nogo_reward	1	0	1	0	0	1	0	n/a	n/a	1	1.0	1.0	578.9168486000272	786.1499795999844	787.1530650000786	788.8620656999992	790.3670836000238	791.392033400014	n/a	n/a	792.39160610002	793.7445243999828	2019-12-27 17:02:45.529034	11.7042803487246	0.0	12.1075776357328	12.1075776357328	0.403297287008232	12.1075776357328	-11.7042803487246	12.1075776357328	0.0	12.1075776357328	0.403297287008232	1.0132927044126987	8.942866064381104	-1.1290167111992295	11.013512571629377	9.629022947966336	-0.5490406074992051	11.013512571629377	0.2904245618320006	9.70366901425562	0.7608029498745512	9.6475266268756	0.2369692335545482	2	missed	0.0
214.84328290005215	6.370736200013198	go_reward	0.3467203000327572	214.86788050003815	216.44078679999802	218.98334899998736	1.5729062999598682	215.87853660003748	217.96088619995862	219.9950564999599	0.5622501999605447	1.022462800028734	1.2435602000914514	n/a	1.0	n/a	1	0	93	3	go_reward	0	0	1	1	1	1	0	n/a	n/a	0	0.3467203000327572	1.0	578.9168486000272	793.7847291000653	794.7953852000646	795.3576354000252	796.8777347999858	797.9001976000145	n/a	n/a	798.911905099987	800.1554653000785	2019-12-27 17:02:45.529034	3.94551721681516	6.29860038287834	2.32058279187798	6.3166214001051	6.26610000869314	2.32058279187798	-3.94551721681516	6.29860038287834	2.32058279187798	6.26610000869314	2.32058279187798	-6.29860038287834	1.184102932471664	5.169583671679111	1.2265177277745556	3.8380667123386343	5.313762114185703	1.2265177277745556	-7.0214685254590385	3.862191387215959	2.6780884547442994	3.83854937402114	2.5575520254325284	2	missed	0.0
221.25244850001764	5.853452499955893	go_reward	0.4170597998891026	221.27704610000364	222.62638669996522	225.17783910001162	1.3493405999615788	222.29477120004594	224.1592586999759	226.19350940000731	0.3316154999192804	1.0185804000357166	0.9369891999522224	n/a	1.0	n/a	1	0	94	3	go_reward	1	1	0	1	1	1	0	n/a	n/a	1	0.4170597998891026	1.0	578.9168486000272	800.1938947000308	801.2116198000731	801.5432352999924	803.0761073000031	804.0946877000388	n/a	n/a	805.1103580000345	806.0473471999867	2019-12-27 17:02:45.529034	2.39157911027019	4.84958322874206	2.32058279187798	4.8645280611489	4.71216190214816	2.32058279187798	-2.39157911027019	4.84958322874206	2.32058279187798	4.71216190214816	2.32058279187798	8.271287111403439	-0.3698351740733061	3.7205665175428306	1.2265177277745556	2.3859733733824346	3.7598240076407228	1.2265177277745556	7.54841896882274	2.3082532806709786	2.6780884547442994	2.3895322198848596	2.5575520254325284	2	missed	0.0
227.14665879996028	6.2862789001083	nogo_punish	1.0	227.1712563999463	229.1529489000095	231.67965910001658	1.9816925000632182	228.17197519994806	230.6684565000469	232.69336050003767	0.9809737000614405	1.0112025999696925	0.7641748000169173	n/a	1.0	n/a	1	0	95	2	nogo_punish	1	-1	0	0	0	1	0	n/a	n/a	0	1.0	1.0	578.9168486000272	806.0881049999734	807.0888237999752	808.0697975000367	809.585305100074	810.5965077000437	n/a	n/a	811.6102091000648	812.3743839000817	2019-12-27 17:02:45.529034	2.62773937414621	-3.55813104572673	-1.46892614565744	-1.64886887834733	-4.09666551980365	-1.46892614565744	-2.62773937414621	-1.46892614565744	-3.55813104572673	-1.46892614565744	-4.09666551980365	1.46892614565744	-0.13367491019728606	-4.68714775692596	-2.5629912097608645	-4.127423566113795	-5.049003414311087	-2.5629912097608645	0.746058003076742	-3.8728347671346213	-3.7391598569373303	-3.9289771545146404	-3.3211618121721815	2	missed	0.0
233.4717823000392	7.0885194999864325	nogo_punish	1.0	233.4963799000252	236.020838299999	238.53204419999383	2.5244583999738097	234.5094973000232	237.53870799997821	239.5348837999627	1.5113409999758005	0.9933362000156194	1.050015600048937	n/a	1.0	n/a	1	0	96	2	nogo_punish	1	-1	0	0	0	1	0	n/a	n/a	0	1.0	1.0	578.9168486000272	812.4132285000524	813.4263459000504	814.9376869000262	816.4555566000054	817.448892800021	n/a	n/a	818.4517323999899	819.5017480000388	2019-12-27 17:02:45.529034	2.93609235126489	-3.55813104572673	-1.12631837077288	-1.27197454102704	-4.06241072203778	-1.12631837077288	-2.93609235126489	-1.12631837077288	-3.55813104572673	-1.12631837077288	-4.06241072203778	1.12631837077288	0.17467806692139387	-4.68714775692596	-2.2203834348763047	-3.7505292287935053	-5.014748616545217	-2.2203834348763047	0.403450228192182	-3.5302269922500615	-3.7049050591714603	-3.5863693796300806	-3.3211618121721815	2	missed	0.0
240.59643160004634	6.090886399964802	nogo_punish	1.0	240.62102920003235	241.98551859997679	244.51063090004027	1.364489399944432	241.6253445999464	243.49089070002083	245.51522780000232	0.36017400003038347	1.0197402000194415	1.1966877999948338	n/a	1.0	n/a	1	0	97	2	nogo_punish	1	-1	0	0	0	1	1	n/a	n/a	0	1.0	1.0	578.9168486000272	819.5378778000595	820.5421931999736	820.9023672000039	822.407739300048	823.4274795000674	n/a	n/a	824.4320764000295	825.6287642000243	2019-12-27 17:02:45.529034	3.16818927091561	-3.55813104572673	-0.869617176088154	-0.987993157529742	-4.03780644700377	-0.869617176088154	-3.16818927091561	-0.869617176088154	-3.55813104572673	-0.869617176088154	-4.03780644700377	0.869617176088154	0.40677498657211375	-4.68714775692596	-1.9636822401915786	-3.4665478452962075	-4.990144341511207	-1.9636822401915786	0.14674903350745594	-3.2735257975653353	-3.6803007841374504	-3.3296681849453544	-3.3211618121721815	2	missed	0.0
246.72487589996308	6.19626260001678	nogo_punish	1.0	246.7494734999491	248.3056218000129	250.83323210000526	1.5561483000637963	247.75320409995038	249.82141400000546	251.83732799999416	0.5524177000625059	1.0118180999998003	1.1084080999717116	n/a	1.0	n/a	1	0	98	2	nogo_punish	1	-1	0	0	0	1	1	n/a	n/a	0	1.0	1.0	578.9168486000272	825.6663220999762	826.6700526999775	827.22247040004	828.7382626000326	829.7500807000324	n/a	n/a	830.7541766000213	831.862584699993	2019-12-27 17:02:45.529034	3.34418219487219	-3.55813104572673	-0.675804522431653	-0.772378072737241	-4.01998671730384	-0.675804522431653	-3.34418219487219	-0.675804522431653	-3.55813104572673	-0.675804522431653	-4.01998671730384	0.675804522431653	0.5827679105286938	-4.68714775692596	-1.7698695865350773	-3.2509327605037064	-4.972324611811277	-1.7698695865350773	-0.04706362014904508	-3.079713143908834	-3.6624810544375204	-3.135855531288853	-3.3211618121721815	2	missed	0.0
252.9576459999662	6.278127900091931	nogo_punish	1.0	252.9822435999522	254.78931290004402	257.32564910000656	1.8070693000918254	253.9975164999487	256.30530630005524	258.3293708000565	0.7917964000953361	1.0203427999513224	0.931000699987635	n/a	1.0	n/a	1	0	99	2	nogo_punish	1	-1	0	0	0	1	1	n/a	n/a	0	1.0	1.0	578.9168486000272	831.8990921999793	832.9143650999758	833.7061615000712	835.2221549000824	836.2424977000337	n/a	n/a	837.2462194000836	838.1772201000713	2019-12-27 17:02:45.529034	3.47856384391119	-3.55813104572673	-0.528415996876939	-0.607490787401826	-4.00697984078813	-0.528415996876939	-3.47856384391119	-0.528415996876939	-3.55813104572673	-0.528415996876939	-4.00697984078813	0.528415996876939	0.717149559567694	-4.68714775692596	-1.6224810609803635	-3.0860454751682918	-4.959317735295567	-1.6224810609803635	-0.19445214570375913	-2.9323246183541203	-3.6494741779218107	-2.9884670057341394	-3.3211618121721815	2	missed	0.0
259.27213779999875	7.565432199975476	go_punish	0.2838270000647753	259.29673539998475	261.8487330999924	264.39481389999855	2.5519977000076324	260.3112203000346	263.3855664000148	265.4089554999955	1.5375127999577671	1.0092474999837577	1.4532120999647304	n/a	1.0	n/a	1	0	100	1	go_punish	1	0	-1	1	1	1	0	n/a	n/a	0	0.2838270000647753	1.0	578.9168486000272	838.2135840000119	839.2280689000618	840.7655817000195	842.302415000042	843.3116625000257	n/a	n/a	844.3258041000227	845.7790161999874	2019-12-27 17:02:45.529034	1.83377505596994	-1.21518883757042	-3.55813104572673	-1.32192620599443	-1.72435598975679	-3.55813104572673	-1.83377505596994	-1.21518883757042	-3.55813104572673	-1.72435598975679	-3.55813104572673	1.21518883757042	-0.9276392283735562	-2.34420554876965	-4.652196109830154	-3.8004808937608954	-2.676693884264227	-4.652196109830154	0.492320694989722	-4.128264611233972	-3.2006253828604105	-3.6752398464276204	-3.3211618121721815	2	missed	0.0
266.87930639996193	6.248417300055735	go_punish	0.6563145000254735	266.90390399994794	268.7162268999964	271.261521599954	1.812322900048457	267.91298220003955	270.2376621000003	272.26175820000935	0.8032446999568492	1.0238594999536872	0.8905630999943241	n/a	1.0	n/a	1	0	101	1	go_punish	0	-1	0	1	1	1	0	n/a	n/a	-1	0.6563145000254735	1.0	578.9168486000272	845.8207525999751	846.8298308000667	847.6330755000236	849.1545107000275	850.1783701999811	n/a	n/a	851.1786068000365	852.0691699000308	2019-12-27 17:02:45.529034	2.13694608637037	-0.937977608098829	-3.55813104572673	-1.02510495519699	-1.42118495935636	-3.55813104572673	-2.13694608637037	-0.937977608098829	-3.55813104572673	-1.42118495935636	-3.55813104572673	-4.065765100215191	-0.6244681979731261	-2.0669943192980584	-4.652196109830154	-3.5036596429634557	-2.373522853863797	-4.652196109830154	-4.788633242795889	-3.825093580833541	-3.2006253828604105	-3.3980286169560294	-3.3211618121721815	2	missed	0.0
273.16714050003793	7.571039699949324	go_reward	0.2166229999857023	273.19173810002394	275.91795649996493	278.4630068000406	2.72621839994099	274.2027291000122	277.44843290001154	279.4726692000404	1.7152273999527097	1.0145739000290632	1.2901085999328643	n/a	1.0	n/a	1	0	102	3	go_reward	1	1	0	1	1	1	0	n/a	n/a	1	0.2166229999857023	1.0	578.9168486000272	852.1085867000511	853.1195777000394	854.8348050999921	856.3652815000387	857.3798554000678	n/a	n/a	858.3895178000676	859.6796264000004	2019-12-27 17:02:45.529034	4.58831784967784	6.87524538300905	2.32058279187798	6.88767449787772	6.90890064155582	2.32058279187798	-4.58831784967784	6.87524538300905	2.32058279187798	6.90890064155582	2.32058279187798	6.2456249571364495	1.826903565334344	5.7462286718098206	1.2265177277745556	4.409119810111255	5.956562747048383	1.2265177277745556	5.522756814555751	4.504992020078639	2.6780884547442994	4.41519437415185	2.5575520254325284	2	missed	0.0
280.7728390999837	6.777767300023697	nogo_punish	1.0	280.7974366999697	282.5389151000418	285.06274490000214	1.7414784000720829	281.80450680002104	284.0429433999816	286.0818219999783	0.734408300020732	1.0198015000205487	1.4933820000151172	n/a	1.0	n/a	1	0	103	2	nogo_punish	1	-1	0	0	0	1	0	n/a	n/a	0	1.0	1.0	578.9168486000272	859.7142852999968	860.7213554000482	861.4557637000689	862.9597920000087	863.9795935000293	n/a	n/a	864.9986706000054	866.4920526000205	2019-12-27 17:02:45.529034	3.58184801547755	-3.55813104572673	-0.415568226648515	-0.480541330489466	-3.99741624212607	-0.415568226648515	-3.58184801547755	-0.415568226648515	-3.55813104572673	-0.415568226648515	-3.99741624212607	0.415568226648515	0.8204337311340537	-4.68714775692596	-1.5096332907519394	-2.9590960182559316	-4.949754136633508	-1.5096332907519394	-0.3072999159321831	-2.819476848125696	-3.639910579259751	-2.8756192355057153	-3.3211618121721815	2	missed	0.0
287.5886332000373	6.842190800001845	nogo_punish	1.0	287.6132308000233	290.0301177999936	292.55222640000284	2.416886999970302	288.6164105000207	291.5409425999969	293.55615950003266	1.4137072999728844	1.0112838000059128	0.8992620999924839	n/a	1.0	n/a	1	0	104	2	nogo_punish	1	-1	0	0	0	1	0	n/a	n/a	0	1.0	1.0	578.9168486000272	866.5300794000505	867.5332591000479	868.9469664000208	870.4577912000241	871.46907500003	n/a	n/a	872.4730081000598	873.3722702000523	2019-12-27 17:02:45.529034	3.66172483292065	-3.55813104572673	-0.328611064638219	-0.38217593424374	-3.99033589755887	-0.328611064638219	-3.66172483292065	-0.328611064638219	-3.55813104572673	-0.328611064638219	-3.99033589755887	0.328611064638219	0.9003105485771541	-4.68714775692596	-1.4226761287416434	-2.8607306220102053	-4.942673792066307	-1.4226761287416434	-0.3942570779424791	-2.7325196861154	-3.6328302346925505	-2.788662073495419	-3.3211618121721815	2	missed	0.0
294.4637842000229	6.763926599989645	go_punish	0.3066394999623298	294.48838180000894	296.9228450000519	299.48039459995925	2.4344632000429556	295.5011687000515	298.4603298000293	300.49275550001767	1.4216763000003994	1.020064799929969	0.7595528999809176	n/a	1.0	n/a	1	0	105	1	go_punish	1	0	-1	1	1	1	0	n/a	n/a	0	0.3066394999623298	1.0	578.9168486000272	873.4052304000361	874.4180173000786	875.839693600079	877.3771784000564	878.3972431999864	n/a	n/a	879.4096041000448	880.1691570000257	2019-12-27 17:02:45.529034	1.10717470519356	-1.88033774302006	-3.55813104572673	-1.95172123908079	-2.45095634053317	-3.55813104572673	-1.10717470519356	-1.88033774302006	-3.55813104572673	-2.45095634053317	-3.55813104572673	1.88033774302006	-1.654239579149936	-3.00935445421929	-4.652196109830154	-4.430275926847256	-3.403294235040607	-4.652196109830154	1.157469600439362	-4.8548649620103514	-3.2006253828604105	-4.34038875187726	-3.3211618121721815	2	missed	0.0
301.2619548999937	7.2466351999901235	nogo_punish	1.0	301.28655249997973	303.7711349000456	306.310152900056	2.4845824000658467	302.29671729996335	305.2865334999515	307.31024559994694	1.4744176000822335	1.0236194001045078	1.2229421000229195	n/a	1.0	n/a	1	0	106	2	nogo_punish	0	0	-1	0	0	1	1	n/a	n/a	-1	1.0	1.0	578.9168486000272	880.2034011000069	881.2135658999905	882.6879835000727	884.2033820999786	885.2270015000831	n/a	n/a	886.2270941999741	887.450036299997	2019-12-27 17:02:45.529034	3.72386287135155	-3.55813104572673	-0.26119717793472	-0.305498517004292	-3.98506004928627	-0.26119717793472	-3.72386287135155	-0.26119717793472	-3.55813104572673	-0.26119717793472	-3.98506004928627	-4.742545530379299	0.9624485870080539	-4.68714775692596	-1.3552622420381444	-2.7840532047707574	-4.937397943793707	-1.3552622420381444	-5.465413672959998	-2.665105799411901	-3.6275543864199506	-2.7212481867919203	-3.3211618121721815	2	missed	0.0
308.54610390006565	7.634797899983823	go_punish	0.303379200049676	308.57070150005165	311.3541325000115	313.8748846000526	2.783430999959819	309.5888008000329	312.86525879998226	314.8825411000289	1.7653316999785602	1.0096258000703529	1.3229583000065759	n/a	1.0	n/a	1	0	107	1	go_punish	1	0	-1	1	1	1	1	n/a	n/a	0	0.303379200049676	1.0	578.9168486000272	887.4875501000788	888.5056494000601	890.2709811000386	891.7821074000094	892.7917332000798	n/a	n/a	893.799389700056	895.1223480000626	2019-12-27 17:02:45.529034	1.59610056292214	-1.4352348208487	-3.55813104572673	-1.49392609332373	-1.96203048280459	-3.55813104572673	-1.59610056292214	-1.4352348208487	-3.55813104572673	-1.96203048280459	-3.55813104572673	1.4352348208487	-1.165313721421356	-2.5642515320479298	-4.652196109830154	-3.972480781090195	-2.914368377312027	-4.652196109830154	0.7123666782680019	-4.365939104281772	-3.2006253828604105	-3.8952858297059003	-3.3211618121721815	2	missed	0.0
316.2144962999737	6.180265300092401	go_punish	0.5297696000197902	316.2390938999597	318.0887842000229	320.64183940005023	1.84969030006323	317.2407429999439	319.62084470002446	321.64350580004975	0.8480412000790238	1.020994700025767	0.7758534000023474	n/a	1.0	n/a	1	0	108	1	go_punish	1	0	-1	1	1	1	0	n/a	n/a	0	0.5297696000197902	1.0	578.9168486000272	895.1559424999868	896.157591599971	897.0056328000501	898.5376933000516	899.5586880000774	n/a	n/a	900.5603544000769	901.3362078000793	2019-12-27 17:02:45.529034	1.95894793080275	-1.10356487759127	-3.55813104572673	-1.1519836611744	-1.59918311492399	-3.55813104572673	-1.95894793080275	-1.10356487759127	-3.55813104572673	-1.59918311492399	-3.55813104572673	1.10356487759127	-0.8024663535407461	-2.2325815887904996	-4.652196109830154	-3.6305383489408656	-2.551521009431427	-4.652196109830154	0.380696735010572	-4.003091736401171	-3.2006253828604105	-3.5636158864484706	-3.3211618121721815	2	missed	0.0
322.43410119996406	6.719330699997954	go_reward	0.3558302000164985	322.45869879995007	324.2237404000481	326.7786870000418	1.7650416000980158	323.46518389997084	325.7546041000169	327.7875028999988	0.7585565000772476	1.0240829000249505	1.3905265999492258	n/a	1.0	n/a	1	0	109	3	go_reward	1	1	0	1	1	1	0	n/a	n/a	1	0.3558302000164985	1.0	578.9168486000272	901.3755473999772	902.382032499998	903.1405890000752	904.671452700044	905.695535600069	n/a	n/a	906.704351500026	908.0948780999752	2019-12-27 17:02:45.529034	6.20038795683276	8.36831085267916	2.32058279187798	8.37867619499326	8.52097074871074	2.32058279187798	-6.20038795683276	8.36831085267916	2.32058279187798	8.52097074871074	2.32058279187798	4.752559487466339	3.4389736724892637	7.239294141479931	1.2265177277745556	5.900121507226794	7.568632854203303	1.2265177277745556	4.029691344885641	6.117062127233559	2.6780884547442994	5.90825984382196	2.5575520254325284	2	missed	0.0
329.19193520001124	6.361834999988787	nogo_reward	1.0	329.21653279999725	330.6973854999525	333.2150318999775	1.4808526999552214	330.22894399997324	332.2025407999753	334.22539739997603	0.46844149997923523	1.0124911000021939	1.3529704000100082	n/a	1.0	n/a	1	0	110	4	nogo_reward	1	0	1	0	0	1	0	n/a	n/a	1	1.0	1.0	578.9168486000272	908.1333814000244	909.1457926000004	909.6142340999796	911.1193894000024	912.1318805000046	n/a	n/a	913.1422460000032	914.4952164000132	2019-12-27 17:02:45.529034	11.9050242086129	0.0	12.3204362830409	12.3204362830409	0.415412074428044	12.3204362830409	-11.9050242086129	12.3204362830409	0.0	12.3204362830409	0.415412074428044	0.8004340571045994	9.143609924269404	-1.1290167111992295	11.226371218937476	9.841881595274435	-0.5369258200793932	11.226371218937476	0.07756591452390127	9.91652766156372	0.7729177372943633	9.860385274183699	0.2369692335545482	2	missed	0.0
335.5883630999597	5.857443000073545	nogo_punish	1.0	335.6129606999457	337.05144189996645	339.584307000041	1.4384812000207603	336.6289329000284	338.56364479998604	340.60224489995744	0.4225089999380316	1.0206622000549714	0.8681588000617921	n/a	1.0	n/a	1	0	111	2	nogo_punish	1	-1	0	0	0	1	0	n/a	n/a	0	1.0	1.0	578.9168486000272	914.5298092999728	915.5457815000556	915.9682904999936	917.4804934000132	918.5011556000682	n/a	n/a	919.5190934999846	920.3872523000464	2019-12-27 17:02:45.529034	2.72702923409354	-3.55813104572673	-1.360270269372	-1.39702282125383	-4.08729950346554	-1.360270269372	-2.72702923409354	-1.360270269372	-3.55813104572673	-1.360270269372	-4.08729950346554	1.360270269372	-0.034385050249956084	-4.68714775692596	-2.4543353334754245	-3.8755775090202955	-5.039637397972977	-2.4543353334754245	0.6374021267913018	-3.7641788908491813	-3.729793840599221	-3.8203212782292004	-3.3211618121721815	2	missed	0.0
341.4797421999974	7.249393600039184	nogo_reward	1.0	341.5043397999834	344.0703319000312	346.6095502000535	2.5659921000477652	342.50099540001247	345.5856813000282	347.61842980002984	1.5693365000187214	1.0238689000252634	1.135303599992767	n/a	1.0	n/a	1	0	112	4	nogo_reward	1	0	1	0	0	1	1	n/a	n/a	1	1.0	1.0	578.9168486000272	920.4211884000106	921.4178440000396	922.9871805000583	924.5025299000554	925.5263988000806	n/a	n/a	926.535278400057	927.6705820000498	2019-12-27 17:02:45.529034	12.0609084787059	0.0	12.4851446172866	12.4851446172866	0.424236138580708	12.4851446172866	-12.0609084787059	12.4851446172866	0.0	12.4851446172866	0.424236138580708	0.6357257228588988	9.299494194362403	-1.1290167111992295	11.391079553183175	10.006589929520135	-0.5281017559267291	11.391079553183175	-0.08714241972179926	10.081235995809418	0.7817418014470273	10.025093608429401	0.2369692335545482	2	missed	0.0
348.77219210006285	5.907163999974841	go_reward	0.6138431000290439	348.79678970004886	350.196755400044	352.7415559999645	1.399965699995164	349.8057102999883	351.71661070000846	353.7414340999677	0.39104510005574866	1.0249452999560162	0.9625196000559981	n/a	1.0	n/a	1	0	113	3	go_reward	1	1	0	1	1	1	0	n/a	n/a	1	0.6138431000290439	1.0	578.9168486000272	927.713638300076	928.7225589000154	929.1136040000712	930.6334593000356	931.6584045999916	n/a	n/a	932.6582826999949	933.6208023000509	2019-12-27 17:02:45.529034	7.39359264724763	9.47804773992746	2.32058279187798	9.4867149807782	9.7141754391256	2.32058279187798	-7.39359264724763	9.47804773992746	2.32058279187798	9.7141754391256	2.32058279187798	3.6428226002180395	4.632178362904133	8.34903102872823	1.2265177277745556	7.008160293011734	8.761837544618164	1.2265177277745556	2.9199544576373415	7.31026681764842	2.6780884547442994	7.01799673107026	2.5575520254325284	2	missed	0.0
354.7147953000384	6.523633199976871	nogo_reward	0.4970201000105589	354.7393929000244	356.29147890000604	358.8346531999996	1.552085999981614	355.7559300999857	357.82401079998806	359.84748560003925	0.535548800020365	1.010642400011534	1.4155404999620487	n/a	1.0	n/a	1	0	114	4	nogo_reward	1	0	1	0	1	0	1	n/a	n/a	0	0.4970201000105589	1.0	578.9168486000272	933.6562415000516	934.6727787000128	935.2083275000332	936.7408594000152	937.7515018000267	n/a	n/a	938.7643342000664	940.1798747000284	2019-12-27 17:02:45.529034	-12.1826531946241	0.0	12.613350557715	12.613350557715	0.430697363090876	12.613350557715	12.1826531946241	0.0	12.613350557715	0.430697363090876	12.613350557715	0.0	-14.944067478967597	-1.1290167111992295	11.519285493611576	10.134795869948535	-0.5216405314165611	11.519285493611576	-0.7228681425806981	-1.9732112583863053	12.97085622058132	-2.4600510088572003	12.850319791269548	2	missed	0.0
361.2727852000388	6.508594500017466	go_punish	0.2647974999854341	361.2973828000248	363.27878060005605	365.8314339000499	1.9813978000312318	362.30548290000286	364.8106472999789	366.8437867000466	0.9732977000531946	1.0207866000710055	0.9621905999956653	n/a	1.0	n/a	1	0	115	1	go_punish	1	0	-1	1	1	1	0	n/a	n/a	0	0.2647974999854341	1.0	578.9168486000272	940.214231400052	941.22233150003	942.1956292000832	943.727495900006	944.748282500077	n/a	n/a	945.7606353000738	946.7228259000694	2019-12-27 17:02:45.529034	2.23049231311198	-0.854399365215709	-3.55813104572673	-0.89447273421443	-1.32763873261475	-3.55813104572673	-2.23049231311198	-0.854399365215709	-3.55813104572673	-1.32763873261475	-3.55813104572673	0.854399365215709	-0.5309219712315163	-1.9834160764149384	-4.652196109830154	-3.3730274219808956	-2.279976627122187	-4.652196109830154	0.13153122263501094	-3.7315473540919313	-3.2006253828604105	-3.3144503740729094	-3.3211618121721815	2	missed	0.0
367.82559560006484	7.357342699892001	go_reward	0.3493757999967783	367.85019320005085	370.2841868000105	372.8097076000413	2.433993599959649	368.84703499998443	371.7977935000089	373.820627799956	1.4371518000260721	1.0119141000324134	1.3869080999868402	n/a	1.0	n/a	1	0	116	3	go_reward	0	0	1	1	1	1	0	n/a	n/a	0	0.3493757999967783	1.0	578.9168486000272	946.767041800078	947.7638836000116	949.2010354000377	950.714642100036	951.7265562000684	n/a	n/a	952.7374763999832	954.12438449997	2019-12-27 17:02:45.529034	8.28395669219191	10.309412274109	2.32058279187798	10.3166782464264	10.6045394840699	2.32058279187798	-8.28395669219191	10.309412274109	2.32058279187798	10.6045394840699	2.32058279187798	-10.309412274109	5.522542407848414	9.180395562909771	1.2265177277745556	7.838123558659936	9.652201589562463	1.2265177277745556	-11.032280416689698	8.200630862592718	2.6780884547442994	7.8493612652518	2.5575520254325284	2	missed	0.0
375.2229166000617	6.498104800004398	go_reward	0.4103782000020146	375.2475142000477	376.7242328999564	379.25324089999765	1.4767186999087016	376.25528180005483	378.2279994999989	380.26221379998606	0.4689510999015738	1.0252413999987766	1.483405200066045	n/a	1.0	n/a	1	0	117	3	go_reward	1	1	0	1	1	1	0	n/a	n/a	1	0.4103782000020146	1.0	578.9168486000272	954.1643628000749	955.172130400082	955.6410814999836	957.144848100026	958.1700895000248	n/a	n/a	959.1790624000132	960.6624676000793	2019-12-27 17:02:45.529034	5.59108120115359	7.82014735491826	2.32058279187798	7.82625377134153	7.91166399303156	2.32058279187798	-5.59108120115359	7.82014735491826	2.32058279187798	7.91166399303156	2.32058279187798	5.30072298522724	2.8296669168100936	6.69113064371903	1.2265177277745556	5.347699083575064	6.959326098524123	1.2265177277745556	4.577854842646541	5.507755371554379	2.6780884547442994	5.360096346061059	2.5575520254325284	2	missed	0.0
381.75801180000406	6.437937699956819	nogo_punish	1.0	381.78260939999006	383.44348859996524	385.97933999996167	1.6608791999751702	382.7975803000153	384.9599331000354	386.9928331000265	0.6459082999499515	1.0194068999262527	1.227713999920411	n/a	1.0	n/a	1	0	118	2	nogo_punish	1	-1	0	0	0	1	0	n/a	n/a	0	1.0	1.0	578.9168486000272	960.6994580000172	961.7144289000424	962.3603371999924	963.8767817000626	964.8961885999888	n/a	n/a	965.9096817000536	967.137395699974	2019-12-27 17:02:45.529034	3.02110863579327	-3.55813104572673	-1.03308238577991	-1.06366250386959	-4.05419102157318	-1.03308238577991	-3.02110863579327	-1.03308238577991	-3.55813104572673	-1.03308238577991	-4.05419102157318	1.03308238577991	0.2596943514497738	-4.68714775692596	-2.1271474498833345	-3.5422171916360554	-5.006528916080617	-2.1271474498833345	0.310214243199212	-3.4369910072570913	-3.6966853587068607	-3.4931333946371104	-3.3211618121721815	2	missed	0.0
388.2321098999819	7.101823000004515	go_punish	0.3224449000554159	388.2567074999679	391.0222446999978	393.57554380001966	2.7655372000299394	389.26893519994326	392.5594074999681	394.58374699996784	1.75330950005457	1.0161363000515848	0.7747835000045598	n/a	1.0	n/a	1	0	119	1	go_punish	0	-1	0	1	1	1	0	n/a	n/a	-1	0.3224449000554159	1.0	578.9168486000272	967.173556099995	968.1857837999704	969.939093300025	971.4762560999952	972.4923924000468	n/a	n/a	973.500595599995	974.2753790999996	2019-12-27 17:02:45.529034	2.4353097932816	-0.665779664989354	-3.55813104572673	-0.699048746648959	-1.12282125244513	-3.55813104572673	-2.4353097932816	-0.665779664989354	-3.55813104572673	-1.12282125244513	-3.55813104572673	-4.337963043324666	-0.326104491061896	-1.7947963761885837	-4.652196109830154	-3.1776034344154245	-2.075159146952567	-4.652196109830154	-5.060831185905364	-3.526729873922311	-3.2006253828604105	-3.125830673846554	-3.3211618121721815	2	missed	0.0
395.3727247000206	6.859085600008257	nogo_reward	1.0	395.39732230000664	397.25312969996605	399.7781155999983	1.8558073999594171	396.4156234000112	398.7637056000531	400.78742860001523	0.837506299954839	1.014409999945201	1.4689792999996598	n/a	1.0	n/a	1	0	120	4	nogo_reward	1	0	1	0	0	1	0	n/a	n/a	1	1.0	1.0	578.9168486000272	974.3141709000338	975.3324720000384	976.1699782999932	977.6805542000802	978.6949642000254	n/a	n/a	979.7042772000424	981.173256500042	2019-12-27 17:02:45.529034	12.4235195573345	0.0	12.613350557715	9.59695031599849	0.189831000380472	12.613350557715	-12.4235195573345	12.613350557715	0.0	12.613350557715	0.189831000380472	0.5075197824304993	9.662105272991003	-1.1290167111992295	11.519285493611576	7.118395628232024	-0.7625068941269652	11.519285493611576	-0.21534836015019876	10.20944193623782	0.5473366632467913	10.153299548857799	0.2369692335545482	2	missed	0.0
