onset	duration	trial_type	response_time	cueOnset	targetOnset	fbOnset	cueRT	firstfixOnset	secondfixOnset	waitOnset	firstfixdur	secondfixdur	waitdur	nback_fbOnset	nback_response_time	nback_targetOnset	block	wm	trial	cue	cond	is_common	outcome_go	outcome_nogo	key_correct	key_pressed	is_correct	key_correct_nback	key_pressed_nback	is_correct_nback	outcome	rt	rt_nback	time_scan	time_onset	time_isi1	time_circle	time_isi2	time_feedback	time_same	time_correct	time_iti	time_done	timestamp_scan	DV	Qgo	Qnogo	SV	Wgo	Wnogo	mDV	Qchosen	Qunchosen	Wchosen	Wunchosen	PE	DVC	QgoC	QnogoC	SVC	WgoC	WnogoC	PEC	WchosenC	WunchosenC	QchosenC	QunchosenC	run	outcome_nback	nback_targetResp
0.0	8.206645800033584	nogo_reward	0.8106030999915674	0.027841100003570318	1.724266100092791	4.265239200089127	1.6964250000892207	1.0323879000497982	3.2540688000156024	7.319152500014752	0.6918782000429928	1.0111704000735244	0.9153344000224024	6.299935200018808	1.0	5.291340900003206	2	1	1	4	nogo_reward	1	0	1	0	1	0	0	n/a	0.0	1	0.8106030999915674	1.0	1052.414196799975	1052.4420378999785	1053.4465847000247	1054.1384629000677	1055.6682655999905	1056.679436000064	1057.705537699978	1058.7141319999937	1059.7333492999896	1060.648683700012	2019-12-27 17:10:39.032206	-0.410087871524932	0.0	0.0	0.0	-0.410087871524932	0.0	0.410087871524932	0.0	0.0	-0.410087871524932	0.0	0.0	-3.171502155868428	-1.1290167111992295	-1.0940650641034244	-2.4785546877664655	-1.362425766032369	-1.0940650641034244	-0.7228681425806981	-2.8139964930021133	0.3575056628663193	-2.4600510088572003	0.2369692335545482	3	missed	0.0
8.239906800095923	8.39004249998834	go_punish	0.6019919000100344	8.267747900099494	9.825329400016926	12.376107100048102	1.5575814999174327	9.262016499997117	11.35647360002622	15.406579100061208	0.5633129000198096	1.0196335000218824	1.2512113000266254	14.401932500069961	1.0	13.393565300037153	2	1	2	1	go_punish	1	0	-1	1	1	1	0	n/a	0.0	-1	0.6019919000100344	1.0	1052.414196799975	1060.6819447000744	1061.676213299972	1062.2395261999918	1063.770670400001	1064.790303900023	1065.807762100012	1066.8161293000448	1067.820775900036	1069.0719872000627	2019-12-27 17:10:39.032206	-0.410087871524932	0.0	0.0	0.0	-0.410087871524932	0.0	0.410087871524932	0.0	0.0	-0.410087871524932	0.0	0.0	-3.171502155868428	-1.1290167111992295	-1.0940650641034244	-2.4785546877664655	-1.362425766032369	-1.0940650641034244	-0.7228681425806981	-2.8139964930021133	0.3575056628663193	-2.4600510088572003	0.2369692335545482	3	missed	0.0
16.680221300106496	9.710586099885404	go_reward	0.2920390000799671	16.708062400110066	19.409192600054666	21.957545900018886	2.7011301999446005	17.711523100035265	20.941041100071743	25.018877200083807	1.6976695000194013	1.0165047999471426	1.399771299911663	24.01059400010854	0.9181672000559048	22.971191200078465	2	1	3	3	go_reward	1	1	0	1	1	1	0	1.0	0.0	1	0.2920390000799671	0.9181672000559048	1052.414196799975	1069.122259200085	1070.1257199000102	1071.8233894000296	1073.3552379000466	1074.3717426999938	1075.3853880000534	1076.4247908000834	1077.4330740000587	1078.8328452999704	2019-12-27 17:10:39.032206	-0.410087871524932	0.0	0.0	0.0	-0.410087871524932	0.0	0.410087871524932	0.0	0.0	-0.410087871524932	0.0	13.1208703401455	-3.171502155868428	-1.1290167111992295	-1.0940650641034244	-2.4785546877664655	-1.362425766032369	-1.0940650641034244	12.398002197564802	-2.8139964930021133	0.3575056628663193	-2.4600510088572003	0.2369692335545482	3	wrong	1.0
26.432012800010853	9.34942940005567	go_reward	0.7029360000742599	26.459853900014423	28.750545200076886	31.31681720004417	2.2906913000624627	27.46179580001626	30.2929830000503	34.34709230007161	1.2887494000606239	1.0238341999938712	1.4621909999984837	33.34047320007812	1.0	32.33202329999767	2	1	4	3	go_reward	1	1	0	1	1	1	0	n/a	0.0	0	0.7029360000742599	1.0	1052.414196799975	1078.8740506999893	1079.8759925999912	1081.1647420000518	1082.7071798000252	1083.731014000019	1084.7462200999726	1085.754670000053	1086.7612891000465	1088.223480100045	2019-12-27 17:10:39.032206	1.83186358120384	1.90566054474144	0.0	1.90566054474144	1.83186358120384	0.0	-1.83186358120384	1.90566054474144	0.0	1.83186358120384	0.0	11.215209795404059	-0.9295507031396562	0.7766438335422106	-1.0940650641034244	-0.5728941430250254	0.8795256866964029	-1.0940650641034244	10.492341652823361	-0.5720450402733412	0.3575056628663193	-0.5543904641157602	0.2369692335545482	3	missed	0.0
35.83216059999563	8.056678200023953	nogo_punish	0.4891216000542044	35.8600016999992	37.51919750007801	40.054861600045115	1.6591958000788054	36.86380700010341	39.04091160011012	43.11067630001344	0.655390499974601	1.0139499999349937	0.806003600009717	42.10075430001598	0.5791183999972418	41.07022100000199	2	1	5	2	nogo_punish	1	-1	0	0	1	0	0	0.0	1.0	-1	0.4891216000542044	0.5791183999972418	1052.414196799975	1088.274198499974	1089.2780038000783	1089.933394300053	1091.455108400085	1092.46905840002	1093.4844177999769	1094.5149510999909	1095.5248730999883	1096.330876699998	2019-12-27 17:10:39.032206	-0.410087871524932	0.0	0.0	0.0	-0.410087871524932	0.0	0.410087871524932	0.0	0.0	-0.410087871524932	0.0	-5.00374270831402	-3.171502155868428	-1.1290167111992295	-1.0940650641034244	-2.4785546877664655	-1.362425766032369	-1.0940650641034244	-5.726610850894718	-2.8139964930021133	0.3575056628663193	-2.4600510088572003	0.2369692335545482	3	correct	1.0
43.91603240009863	7.837919099954888	go_punish	1.0	43.9438735001022	45.31621830002405	47.845256600063294	1.3723447999218479	44.95747260004282	46.82174530008342	50.8664330000754	0.3587456999812275	1.023511299979873	0.9153595999816844	49.860051100025885	1.0	48.851335400017206	2	1	6	1	go_punish	1	0	-1	1	0	0	0	n/a	0.0	-1	1.0	1.0	1052.414196799975	1096.358070300077	1097.3716694000177	1097.730415099999	1099.2359421000583	1100.2594534000382	1101.265532199992	1102.2742479000008	1103.2806298000503	1104.195989400032	2019-12-27 17:10:39.032206	1.28464429109105	-0.727428410412943	0.0	-0.727428410412943	-1.28464429109105	0.0	-1.28464429109105	0.0	-0.727428410412943	0.0	-1.28464429109105	-5.00374270831402	-1.476769993252446	-1.8564451216121727	-1.0940650641034244	-3.2059830981794084	-2.236982185598487	-1.0940650641034244	-5.726610850894718	-2.403908621477181	-0.9271386282247307	-2.4600510088572003	-0.49045917685839485	3	missed	0.0
51.79536560003203	9.703528100042377	go_reward	0.2917469999520108	51.8232067000356	54.5565664001042	57.12022850010544	2.733359700068604	52.83219600003213	56.09918440005276	60.17462320008781	1.7243704000720754	1.021044100052677	1.3521115999901667	59.16014030005317	0.8954469000454992	58.137885000091046	2	1	7	3	go_reward	0	0	1	1	1	1	0	0.0	1.0	0	0.2917469999520108	0.8954469000454992	1052.414196799975	1104.2374035000105	1105.246392800007	1106.970763200079	1108.5133812000277	1109.5344253000803	1110.552081800066	1111.574337100028	1112.5888200000627	1113.9409316000529	2019-12-27 17:10:39.032206	1.47732702809114	1.60686665078932	0.0	1.60686665078932	1.47732702809114	0.0	-1.47732702809114	1.60686665078932	0.0	1.47732702809114	0.0	-1.60686665078932	-1.2840872562523562	0.47784993959009037	-1.0940650641034244	-0.8716880369771456	0.5249891335837028	-1.0940650641034244	-2.329734793370018	-0.9265815933860413	0.3575056628663193	-0.8531843580678804	0.2369692335545482	3	correct	1.0
61.521820300025865	7.928626500070095	nogo_reward	0.6434579000342637	61.549661400029436	62.883814200060215	65.42591310001421	1.334152800030779	62.55472570005804	64.4059374000642	68.46084040007554	0.3290885000021717	1.0199756999500096	1.0174475000239909	67.44709920010064	0.550336099928245	66.43201340001542	2	1	8	4	nogo_reward	1	0	1	0	1	0	0	0.0	1.0	0	0.6434579000342637	0.550336099928245	1052.414196799975	1113.9638582000043	1114.968922500033	1115.298011000035	1116.820134200039	1117.840109899989	1118.8462101999903	1119.8612960000755	1120.8750372000504	1121.8924847000744	2019-12-27 17:10:39.032206	1.83186358120384	1.90566054474144	0.0	1.90566054474144	1.83186358120384	0.0	-1.83186358120384	1.90566054474144	0.0	1.83186358120384	0.0	-1.90566054474144	-0.9295507031396562	0.7766438335422106	-1.0940650641034244	-0.5728941430250254	0.8795256866964029	-1.0940650641034244	-2.628528687322138	-0.5720450402733412	0.3575056628663193	-0.5543904641157602	0.2369692335545482	3	correct	1.0
69.47214830003213	8.79239720001351	nogo_reward	1.0	69.4999894000357	71.23858010000549	73.7753252000548	1.7385906999697909	70.5048990000505	72.75017430004664	76.81467310001608	0.7336810999549925	1.025150900008157	1.4777135000331327	75.80186660005711	0.9530684999190272	74.78044020000402	2	1	9	4	nogo_reward	1	0	1	0	0	1	0	1.0	0.0	1	1.0	0.9530684999190272	1052.414196799975	1121.9141862000106	1122.9190958000254	1123.6527768999804	1125.1643711000215	1126.1895220000297	1127.194636999979	1128.216063400032	1129.228869899991	1130.706583400024	2019-12-27 17:10:39.032206	-1.47732702809114	1.60686665078932	0.0	1.60686665078932	1.47732702809114	0.0	1.47732702809114	0.0	1.60686665078932	0.0	1.47732702809114	13.1208703401455	-4.238741312434636	0.47784993959009037	-1.0940650641034244	-0.8716880369771456	0.5249891335837028	-1.0940650641034244	12.398002197564802	-2.403908621477181	1.8348326909574593	-2.4600510088572003	1.843835884343868	3	wrong	1.0
78.290829100064	8.12593949993584	go_punish	0.4146982000675052	78.31867020006757	79.61169500008691	82.16204080008902	1.2930248000193387	79.32892570004333	81.14812700008042	85.22518720000517	0.2827693000435829	1.013913800008595	1.2194224999982453	84.20700130006321	0.6738999000517651	83.17850300006103	2	1	10	1	go_punish	1	0	-1	1	1	1	0	0.0	1.0	0	0.4146982000675052	0.6738999000517651	1052.414196799975	1130.7328670000425	1131.7431225000182	1132.0258918000618	1133.5623238000553	1134.576237600064	1135.592699800036	1136.621198100038	1137.63938399998	1138.8588064999783	2019-12-27 17:10:39.032206	-0.680219037127811	-0.727428410412943	-0.727428410412943	-1.34025601744674	-1.40764744754075	-0.727428410412943	0.680219037127811	-0.727428410412943	-0.727428410412943	-1.40764744754075	-0.727428410412943	0.727428410412943	-3.441633321471307	-1.8564451216121727	-1.8214934745163673	-3.818810705213205	-2.359985342048187	-1.8214934745163673	0.004560267832244946	-3.8115560690179313	-0.36992274754662374	-3.187479419270143	-0.49045917685839485	3	correct	1.0
86.45872039999813	7.962206099997502	nogo_punish	1.0	86.4865615000017	87.9329505000494	90.4482367000312	1.4463890000477022	87.49530650000088	89.42703590006568	93.49749900004826	0.4376440000485218	1.021200799965527	0.9512685999509358	92.4843160000164	0.7854693999979645	91.46692510007415	2	1	11	2	nogo_punish	1	-1	0	0	0	1	0	0.0	1.0	0	1.0	0.7854693999979645	1052.414196799975	1138.9007582999766	1139.9095032999758	1140.3471473000243	1141.8412327000406	1142.862433500006	1143.881121900049	1144.8985127999913	1145.9116958000232	1146.862964399974	2019-12-27 17:10:39.032206	1.28464429109105	-0.727428410412943	0.0	-0.727428410412943	-1.28464429109105	0.0	-1.28464429109105	0.0	-0.727428410412943	0.0	-1.28464429109105	0.0	-1.476769993252446	-1.8564451216121727	-1.0940650641034244	-3.2059830981794084	-2.236982185598487	-1.0940650641034244	-0.7228681425806981	-2.403908621477181	-0.9271386282247307	-2.4600510088572003	-0.49045917685839485	3	correct	1.0
94.46178690006491	9.149828399997205	nogo_punish	1.0	94.48962800006848	97.03866830002517	99.55799090000801	2.549040299956687	95.49151920003351	98.55340430000797	102.5991235000547	1.5471490999916568	1.0045866000000387	1.0403329000109807	101.5858498000307	0.4308807000052184	100.57343240000773	2	1	12	2	nogo_punish	1	-1	0	0	0	1	0	0.0	1.0	0	1.0	0.4308807000052184	1052.414196799975	1146.9038248000434	1147.9057160000084	1149.4528651	1150.9676010999829	1151.972187699983	1152.9876291999826	1154.0000466000056	1155.0133203000296	1156.0536532000406	2019-12-27 17:10:39.032206	1.26051943838758	-0.727428410412943	0.0	-0.612827607033794	-1.26051943838758	0.0	-1.26051943838758	0.0	-0.727428410412943	0.0	-1.26051943838758	0.0	-1.5008948459559162	-1.8564451216121727	-1.0940650641034244	-3.0913822948002596	-2.212857332895017	-1.0940650641034244	-0.7228681425806981	-2.403908621477181	-0.9030137755212606	-2.4600510088572003	-0.49045917685839485	3	correct	1.0
103.65408020000905	8.495897200074978	go_reward	0.8473653000546619	103.68192130001262	105.54005490010604	108.09161790006328	1.8581336000934243	104.68115910002962	107.0710222000489	111.13126829999942	0.8588958000764251	1.0205957000143826	1.046550200088177	110.12502610008232	0.8186438999837264	109.10250490007479	2	1	13	3	go_reward	0	0	1	1	1	1	0	0.0	1.0	0	0.8473653000546619	0.8186438999837264	1052.414196799975	1156.0961180999875	1157.0953559000045	1157.954251700081	1159.4852190000238	1160.5058147000382	1161.5167017000497	1162.5392229000572	1163.5454650999743	1164.5920153000625	2019-12-27 17:10:39.032206	1.1825770595024	1.35805599829253	0.0	1.35805599829253	1.1825770595024	0.0	-1.1825770595024	1.35805599829253	0.0	1.1825770595024	0.0	-1.35805599829253	-1.578837224841096	0.22903928709330046	-1.0940650641034244	-1.1204986894739355	0.230239164994963	-1.0940650641034244	-2.080924140873228	-1.221331561974781	0.3575056628663193	-1.1019950105646703	0.2369692335545482	3	correct	1.0
112.17260570009239	9.04526119993534	nogo_reward	0.3829063000157475	112.20044680009596	114.1615529000992	116.71609690005425	1.961106100003235	113.20318750001024	115.69241760007571	119.76777850009967	0.958365400088951	1.0236792999785393	1.4779294999316335	118.76014280004892	0.9961496000178158	117.73131470009662	2	1	14	4	nogo_reward	0	1	0	0	1	0	0	0.0	1.0	1	0.3829063000157475	0.9961496000178158	1052.414196799975	1164.6146436000708	1165.6173842999851	1166.575749700074	1168.1066144000506	1169.1302937000291	1170.1455115000715	1171.1743396000238	1172.1819753000746	1173.6599048000062	2019-12-27 17:10:39.032206	-0.137981924754917	1.60686665078932	1.90566054474144	3.26371654303397	1.76767861998652	1.90566054474144	0.137981924754917	1.60686665078932	1.90566054474144	1.76767861998652	1.90566054474144	11.51400368935618	-2.899396209098413	0.47784993959009037	0.8115954806380157	0.7851618552675044	0.8153407254790829	0.8115954806380157	10.791135546775482	-0.6362300014906612	2.2631662076077594	-0.8531843580678804	2.1426297782959884	3	correct	1.0
121.24237980006706	8.410253299982514	nogo_reward	0.704490999924019	121.27022090007063	122.62388980004471	125.16640420001931	1.3536688999740818	122.28057340008672	124.15548560000025	128.2122093000214	0.3433163999579847	1.0109186000190675	1.468264900031727	127.20880420005415	0.5761519999941811	126.18022040009942	2	1	15	4	nogo_reward	1	0	1	0	1	0	0	0.0	1.0	0	0.704490999924019	0.5761519999941811	1052.414196799975	1173.6844177000455	1174.6947702000616	1175.0380866000196	1176.5696823999751	1177.5806009999942	1178.5944172000743	1179.623001000029	1180.6264060999963	1182.094671000028	2019-12-27 17:10:39.032206	1.7614642269879	3.26371654303397	1.90566054474144	4.66290851464183	3.66712477172934	1.90566054474144	-1.7614642269879	3.26371654303397	1.90566054474144	3.66712477172934	1.90566054474144	-3.26371654303397	-0.9999500573555962	2.13469983183474	0.8115954806380157	2.184353826875365	2.714786877221903	0.8115954806380157	-3.986584685614668	1.2632161502521586	2.2631662076077594	0.8036655341767696	2.1426297782959884	3	correct	1.0
129.67985980003164	8.437143399961997	go_punish	1.0	129.7077009000352	131.08002450002823	133.61260940006468	1.372323599993024	130.70407560002081	132.58831900008954	136.65161250007804	0.37594890000741543	1.0242903999751434	1.4932317999191582	135.6378662000643	0.7238890000153333	134.61752760002855	2	1	16	1	go_punish	1	0	-1	1	0	0	0	0.0	1.0	-1	1.0	0.7238890000153333	1052.414196799975	1182.12189770001	1183.1182723999957	1183.4942213000031	1185.0025158000644	1186.0268062000396	1187.0317244000034	1188.0520630000392	1189.065809300053	1190.559041099972	2019-12-27 17:10:39.032206	0.521590886896237	-0.612827607033794	-0.727428410412943	-1.13036653653006	-1.24901929730918	-0.727428410412943	-0.521590886896237	-0.727428410412943	-0.612827607033794	-0.727428410412943	-1.24901929730918	-4.276314297901076	-2.239823397447259	-1.7418443182330234	-1.8214934745163673	-3.6089212242965254	-2.201357191816617	-1.8214934745163673	-4.999182440481775	-3.131337031890124	-0.8915136344428607	-3.187479419270143	-0.37585837347924583	3	correct	1.0
138.15897980006412	9.488076000008732	nogo_punish	1.0	138.1868209000677	140.6923335000174	143.22002640005667	2.505512599949725	139.1864633000223	142.19915830006357	146.27540190005675	1.5058701999951154	1.0208680999930948	1.3994950000196695	145.258808100014	0.83119880000595	144.23717130010482	2	1	17	2	nogo_punish	1	-1	0	0	0	1	0	0.0	1.0	0	1.0	0.83119880000595	1052.414196799975	1190.6010177000426	1191.6006600999972	1193.1065302999923	1194.6133551000385	1195.6342232000316	1196.6513681000797	1197.6730048999889	1198.6895987000316	1200.0890937000513	2019-12-27 17:10:39.032206	1.24061694423862	-0.727428410412943	0.0	-0.517538929496269	-1.24061694423862	0.0	-1.24061694423862	0.0	-0.727428410412943	0.0	-1.24061694423862	0.0	-1.5207973401048762	-1.8564451216121727	-1.0940650641034244	-2.9960936172627344	-2.192954838746057	-1.0940650641034244	-0.7228681425806981	-2.403908621477181	-0.8831112813723005	-2.4600510088572003	-0.49045917685839485	3	correct	1.0
147.68916140007786	8.223318599979166	go_reward	1.0	147.71700250008143	149.13797740009613	151.6622607000172	1.4209749000146985	148.72529279999435	150.64255270001013	154.71244680008385	0.41268460010178387	1.0197080000070855	1.2278742999767474	153.70882830000482	0.7055213999701664	152.67972510005347	2	1	18	3	go_reward	1	1	0	1	0	0	0	0.0	1.0	0	1.0	0.7055213999701664	1052.414196799975	1200.1311993000563	1201.1394895999692	1201.552174200071	1203.056749499985	1204.076457499992	1205.0939219000284	1206.1230250999797	1207.1266436000587	1208.3545179000355	2019-12-27 17:10:39.032206	-0.936950390992353	1.15038131911107	0.0	1.15038131911107	0.936950390992353	0.0	0.936950390992353	0.0	1.15038131911107	0.0	0.936950390992353	0.0	-3.6983646753358492	0.021364607911840583	-1.0940650641034244	-1.3281733686553954	-0.015387503515084111	-1.0940650641034244	-0.7228681425806981	-2.403908621477181	1.2944560538586722	-2.4600510088572003	1.3873505526656182	3	correct	1.0
155.9372428000206	8.317981300060637	go_punish	0.5915121999569237	155.96508390002418	157.3338294000132	159.8745711001102	1.3687454999890178	156.97523920005187	158.86300560005475	162.93053810007405	0.358590199961327	1.0115655000554398	1.352527100010775	161.9111830000768	0.7050012999679893	160.88230990001466	2	1	19	1	go_punish	1	0	-1	1	1	1	0	0.0	1.0	0	0.5915121999569237	0.7050012999679893	1052.414196799975	1208.379280699999	1209.3894360000268	1209.748026199988	1211.2772024000296	1212.288767900085	1213.2965066999895	1214.3253798000517	1215.344734900049	1216.6972620000597	2019-12-27 17:10:39.032206	-0.0195267337966698	-0.612827607033794	-1.34025601744674	-1.68307890980652	-1.35978275124341	-1.34025601744674	0.0195267337966698	-0.612827607033794	-1.34025601744674	-1.35978275124341	-1.34025601744674	0.612827607033794	-2.7809410181401657	-1.7418443182330234	-2.4343210815501646	-4.161633597572985	-2.312120645750847	-2.4343210815501646	-0.11004053554690407	-3.763691372720591	-0.9827503545804206	-3.0728786158909944	-1.1032867838921918	3	correct	1.0
164.27974380005617	8.980421800049953	go_punish	1.0	164.30758490005974	166.74985170003492	169.27928320004162	2.4422667999751866	165.32413150009234	168.26504250010476	172.3261773000704	1.4257201999425888	1.0142406999368632	0.961829400039278	171.32094190001953	0.840725899906829	170.29962960002013	2	1	20	1	go_punish	1	0	-1	1	0	0	0	0.0	1.0	-1	1.0	0.840725899906829	1052.414196799975	1216.7217817000346	1217.7383283000672	1219.1640485000098	1220.6792393000796	1221.6934800000165	1222.713826399995	1223.7351386999944	1224.7403741000453	1225.7022035000846	2019-12-27 17:10:39.032206	-0.130000133225977	-0.517538929496269	-1.34025601744674	-1.42268362379128	-1.21025588422076	-1.34025601744674	0.130000133225977	-1.34025601744674	-0.517538929496269	-1.34025601744674	-1.21025588422076	-3.6634866908672796	-2.891414417569473	-1.6465556406954986	-2.4343210815501646	-3.9012383115577456	-2.1625937787281972	-2.4343210815501646	-4.386354833447978	-3.7441646389239214	-0.8527502213544407	-3.8003070263039405	-0.2805696959417208	3	correct	1.0
173.28504170000065	9.679721800028574	go_punish	1.0	173.31288280000422	176.27549120003823	178.80458620004356	2.9626084000340143	174.32310450007208	177.78043360006995	181.85888960002922	1.952386699966155	1.024152599973604	1.1337150000035763	180.8430978000397	0.6905110999941826	179.81594050000422	2	1	21	1	go_punish	1	0	-1	1	0	0	1	0.0	0.0	-1	1.0	0.6905110999941826	1052.414196799975	1225.727079599979	1226.737301300047	1228.6896880000131	1230.1946304000448	1231.2187830000184	1232.230137299979	1233.2572946000146	1234.273086400004	1235.4068014000077	2019-12-27 17:10:39.032206	-0.545313729351093	-0.517538929496269	-1.85779494694301	-1.93286969030544	-1.31248121759191	-1.85779494694301	0.545313729351093	-1.85779494694301	-0.517538929496269	-1.85779494694301	-1.31248121759191	-3.14594776137101	-3.306728013694589	-1.6465556406954986	-2.9518600110464344	-4.411424378071906	-2.2648191120993473	-2.9518600110464344	-3.868815903951708	-4.261703568420192	-0.9549755547255907	-4.317845955800211	-0.2805696959417208	3	wrong	1.0
183.0067080000881	8.800949799944647	nogo_punish	0.9309236999833956	183.03454910009168	185.20643810008187	187.75721170008183	2.1718889999901876	184.04337070009205	186.73653620004188	190.8107572000008	1.1630673999898136	1.0206755000399426	1.02474170003552	189.79595950001385	0.8989951000548899	188.77344340004493	2	1	22	2	nogo_punish	0	0	-1	0	1	0	0	0.0	1.0	0	0.9309236999833956	0.8989951000548899	1052.414196799975	1235.4487459000666	1236.457567500067	1237.6206349000568	1239.1507330000168	1240.1714085000567	1241.1876402000198	1242.2101562999887	1243.2249539999757	1244.2496957000112	2019-12-27 17:10:39.032206	-1.22415488316863	-0.727428410412943	0.0	-0.438111569897313	-1.22415488316863	0.0	1.22415488316863	-0.727428410412943	0.0	-1.22415488316863	0.0	0.727428410412943	-3.985569167512126	-1.8564451216121727	-1.0940650641034244	-2.9166662576637785	-2.176492777676067	-1.0940650641034244	0.004560267832244946	-3.6280635046458114	0.3575056628663193	-3.187479419270143	0.2369692335545482	3	correct	1.0
191.8312111000996	8.64840589999244	nogo_reward	0.3452745000831783	191.85905220010318	193.51612320006825	196.05858220008668	1.6570709999650717	192.8705029000996	195.0388408000581	199.09947400004603	0.6456202999686411	1.019741400028579	1.407984100049589	198.0948697000274	0.6061543000396341	197.06729460007023	2	1	23	4	nogo_reward	1	0	1	0	1	0	0	0.0	1.0	0	0.3452745000831783	0.6061543000396341	1052.414196799975	1244.273249000078	1245.2846997000745	1245.9303200000431	1247.453037600033	1248.4727790000616	1249.4814914000451	1250.5090665000023	1251.513670800021	1252.9216549000705	2019-12-27 17:10:39.032206	1.12188549212453	2.75724796990039	1.90566054474144	3.94156489212423	3.02754603686596	1.90566054474144	-1.12188549212453	2.75724796990039	1.90566054474144	3.02754603686596	1.90566054474144	-2.75724796990039	-1.639528792218966	1.6282312587011603	0.8115954806380157	1.4630102043577646	2.075208142358523	0.8115954806380157	-3.4801161124810878	0.6236374153887789	2.2631662076077594	0.2971969610431895	2.1426297782959884	3	correct	1.0
200.50446399999805	8.464087700005393	nogo_reward	0.2891586000332609	200.53230510000162	202.4582439000951	205.00065750000067	1.9259388000934905	201.53689340001438	203.98974740004633	208.06014590000268	0.9213505000807345	1.0109100999543443	0.9362469000043347	207.04697710007895	0.7615267999935895	206.01785530010238	2	1	24	4	nogo_reward	1	0	1	0	1	0	0	0.0	1.0	0	0.2891586000332609	0.7615267999935895	1052.414196799975	1252.9465018999765	1253.9510901999893	1254.87244070007	1256.4039442000212	1257.4148542999756	1258.4320521000773	1259.4611739000538	1260.4743426999776	1261.410589599982	2019-12-27 17:10:39.032206	0.589357631309455	2.33469824133491	1.90566054474144	3.33940169167094	2.49501817605089	1.90566054474144	-0.589357631309455	2.33469824133491	1.90566054474144	2.49501817605089	1.90566054474144	-2.33469824133491	-2.172056653034041	1.2056815301356807	0.8115954806380157	0.8608470039044747	1.5426802815434528	0.8115954806380157	-3.057566383915608	0.09110955457370862	2.2631662076077594	-0.12535276752229008	2.1426297782959884	3	correct	1.0
208.9926615000004	8.552671300014254	go_punish	0.6950791999697685	209.02050260000397	210.57344730000477	213.12479140004143	1.5529447000008076	210.02722780010663	212.1046147000743	216.1733945000451	0.5462194998981431	1.0201766999671236	1.399779399973113	215.16384330007713	0.942202000063844	214.14315580006223	2	1	25	1	go_punish	1	0	-1	1	1	1	0	0.0	1.0	0	0.6950791999697685	0.942202000063844	1052.414196799975	1261.4346993999789	1262.4414246000815	1262.9876440999797	1264.5188115000492	1265.5389882000163	1266.5573526000371	1267.578040100052	1268.58759130002	1269.987370699993	2019-12-27 17:10:39.032206	0.897691271976811	-0.517538929496269	-2.29590651684032	-2.36401737543414	-1.39821524486351	-2.29590651684032	-0.897691271976811	-0.517538929496269	-2.29590651684032	-1.39821524486351	-2.29590651684032	0.517538929496269	-1.8637230123666852	-1.6465556406954986	-3.3899715809437443	-4.842572063200605	-2.350553139370947	-3.3899715809437443	-0.20532921308442909	-3.802123866340691	-1.9384008539740005	-2.977589938353469	-2.0589372832857715	3	correct	1.0
217.58970730006695	9.290873799938481	go_reward	1.0	217.61754840007052	220.0588588000976	222.59351030003745	2.4413104000270778	218.62396110000554	221.57380540005397	225.64275450003333	1.4348977000920513	1.0197048999834806	1.2656676999756655	224.6342963000061	0.8908108999021351	223.61161140003242	2	1	26	3	go_reward	1	1	0	1	0	0	0	0.0	1.0	0	1.0	0.8908108999021351	1052.414196799975	1270.0317452000454	1271.0381578999804	1272.4730556000725	1273.9880022000289	1275.0077071000123	1276.0258082000073	1277.048493099981	1278.0569513000082	1279.322618999984	2019-12-27 17:10:39.032206	-0.905522204515094	1.15038131911107	0.0	0.976642243042378	0.905522204515094	0.0	0.905522204515094	0.0	1.15038131911107	0.0	0.905522204515094	0.0	-3.6669364888585902	0.021364607911840583	-1.0940650641034244	-1.5019124447240875	-0.04681568999234309	-1.0940650641034244	-0.7228681425806981	-2.403908621477181	1.2630278673814133	-2.4600510088572003	1.3873505526656182	3	correct	1.0
226.9033386000665	8.735385500011034	nogo_reward	0.3060728999553248	226.93117970007006	228.8394355000928	231.39462770009413	1.9082558000227436	227.93436410010327	230.3749123000307	234.43870950001292	0.9050713999895379	1.0197154000634328	1.2278557000681758	233.43384690000676	0.9229424999793991	232.41347250004742	2	1	27	4	nogo_reward	1	0	1	0	1	0	0	0.0	1.0	0	0.3060728999553248	0.9229424999793991	1052.414196799975	1279.345376500045	1280.3485609000782	1281.2536323000677	1282.7891091000056	1283.808824500069	1284.8276693000223	1285.8480436999816	1286.8529062999878	1288.080762000056	2019-12-27 17:10:39.032206	0.144921721765832	1.9813456933784	1.90566054474144	2.83556717180566	2.05058226650727	1.90566054474144	-0.144921721765832	1.9813456933784	1.90566054474144	2.05058226650727	1.90566054474144	-1.9813456933784	-2.616492562577664	0.8523289821791704	0.8115954806380157	0.3570124840391946	1.098244371999833	0.8115954806380157	-2.704213835959098	-0.35332635496991127	2.2631662076077594	-0.47870531547880035	2.1426297782959884	3	correct	1.0
235.68235800007824	7.863332499982789	go_reward	1.0	235.7101991000818	237.04538170003798	239.5750416000376	1.3351825999561697	236.71721770009026	238.560278100078	242.6098436000757	0.3281639999477193	1.0147634999595994	0.9636879999889061	241.61362130008638	0.7000525000039488	240.5953368000919	2	1	28	3	go_reward	0	0	1	1	0	0	1	0.0	0.0	1	1.0	0.7000525000039488	1052.414196799975	1288.1243959000567	1289.1314145000651	1289.4595785000129	1290.9744749000529	1291.9892384000125	1293.0095336000668	1294.0278181000613	1295.0240404000506	1295.9877284000395	2019-12-27 17:10:39.032206	-0.879435377686042	1.15038131911107	0.0	0.830964374267329	0.879435377686042	0.0	0.879435377686042	0.0	1.15038131911107	0.0	0.879435377686042	13.1208703401455	-3.640849662029538	0.021364607911840583	-1.0940650641034244	-1.6475903134991365	-0.07290251682139515	-1.0940650641034244	12.398002197564802	-2.403908621477181	1.2369410405523613	-2.4600510088572003	1.3873505526656182	3	wrong	1.0
243.58488800004125	9.229695399990305	nogo_punish	0.3593335000332445	243.61272910004482	246.3900879001012	248.9411589000374	2.7773588000563905	244.62038229999598	247.92444510001224	251.9738728000084	1.769705600105226	1.0167138000251725	0.8685517000267282	250.95766790001653	1.0	249.94884040008742	2	1	29	2	nogo_punish	1	-1	0	0	1	0	0	n/a	0.0	0	0.3593335000332445	1.0	1052.414196799975	1296.0269259000197	1297.0345790999709	1298.804284700076	1300.3386418999871	1301.3553557000123	1302.3630372000623	1303.3718646999914	1304.3880695999833	1305.25662130001	2019-12-27 17:10:39.032206	-1.09590280407782	-0.612827607033794	0.0	-0.371744446860173	-1.09590280407782	0.0	1.09590280407782	-0.612827607033794	0.0	-1.09590280407782	0.0	-4.390915101280226	-3.857317088421316	-1.7418443182330234	-1.0940650641034244	-2.8502991346266384	-2.048240698585257	-1.0940650641034244	-5.113783243860924	-3.4998114255550012	0.3575056628663193	-3.0728786158909944	0.2369692335545482	3	missed	0.0
252.85393930005375	8.188161300029606	nogo_punish	1.0	252.88178040005732	254.7162241000915	257.25510300009023	1.8344437000341713	253.88167250005063	256.23417280009016	260.295492400066	0.8345516000408679	1.0209302000000662	0.7744493000209332	259.2911179000512	0.7305562000256032	258.27398820000235	2	1	30	2	nogo_punish	1	-1	0	0	0	1	0	0.0	1.0	0	1.0	0.7305562000256032	1052.414196799975	1305.2959772000322	1306.2958693000255	1307.1304209000664	1308.648369600065	1309.6692998000651	1310.6881849999772	1311.705314700026	1312.7096892000409	1313.4841385000618	2019-12-27 17:10:39.032206	0.989265220618891	-0.517538929496269	0.0	-0.31615790353606	-0.989265220618891	0.0	-0.989265220618891	0.0	-0.517538929496269	0.0	-0.989265220618891	0.0	-1.7721490637246051	-1.6465556406954986	-1.0940650641034244	-2.7947125913025257	-1.9416031151263282	-1.0940650641034244	-0.7228681425806981	-2.403908621477181	-0.6317595577525716	-2.4600510088572003	-0.2805696959417208	3	correct	1.0
261.06774369999744	9.160279000061792	go_punish	0.7021022000117227	261.095584800001	263.43132490001153	265.9905275000492	2.3357401000105256	262.1039986000394	264.9672577000456	269.03594580001663	1.3273262999721283	1.023269800003618	1.2199180000461638	268.017427400104	0.7262374999700114	267.004263900104	2	1	31	1	go_punish	0	-1	0	1	1	1	0	0.0	1.0	-1	0.7021022000117227	0.7262374999700114	1052.414196799975	1313.509781599976	1314.5181954000143	1315.8455216999864	1317.3814545000205	1318.404724300024	1319.4184607000789	1320.4316242000789	1321.4501425999915	1322.6700606000377	2019-12-27 17:10:39.032206	1.05215697196401	-0.438111569897313	-2.29590651684032	-2.0018277639717	-1.2437495448763	-2.29590651684032	-1.05215697196401	-0.438111569897313	-2.29590651684032	-1.2437495448763	-2.29590651684032	-4.565631138416707	-1.709257312379486	-1.5671282810965426	-3.3899715809437443	-4.480382451738166	-2.1960874393837373	-3.3899715809437443	-5.288499280997406	-3.647658166353481	-1.9384008539740005	-2.8981625787545133	-2.0589372832857715	3	correct	1.0
270.2512753000483	8.523319700034335	nogo_reward	0.455198899959214	270.27911640005186	271.75921650009695	274.31178109999746	1.4801001000450924	271.2914675000354	273.2911868999945	277.351612700033	0.46774900006153075	1.0205942000029609	1.4508234000531957	276.3468728000298	0.8075669000390917	275.3248912000563	2	1	32	4	nogo_reward	1	0	1	0	1	0	0	0.0	1.0	0	0.455198899959214	0.8075669000390917	1052.414196799975	1322.6933132000268	1323.7056643000103	1324.1734133000718	1325.7053836999694	1326.7259778999723	1327.7390880000312	1328.7610696000047	1329.765809500008	1331.216632900061	2019-12-27 17:10:39.032206	-0.226850267238823	1.68518585269458	1.90566054474144	2.41304851400654	1.67881027750261	1.90566054474144	0.226850267238823	1.68518585269458	1.90566054474144	1.67881027750261	1.90566054474144	-1.68518585269458	-2.988264551582319	0.5561691414953505	0.8115954806380157	-0.06550617375992562	0.7264723829951728	0.8115954806380157	-2.408053995275278	-0.7250983439745713	2.2631662076077594	-0.7748651561626203	2.1426297782959884	3	correct	1.0
278.8194217000855	8.883214199915528	nogo_punish	1.0	278.8472628000891	281.313138000085	283.8502314001089	2.465875199995935	279.8493829000506	282.8291198000079	286.8926698000869	1.4637551000344047	1.021111600100994	0.8378071999177337	285.88647440006025	0.5447794999927282	284.8557314000791	2	1	33	2	nogo_punish	1	-1	0	0	0	1	0	0.0	1.0	0	1.0	0.5447794999927282	1052.414196799975	1331.261459600064	1332.2635797000255	1333.72733480006	1335.2433165999828	1336.2644282000838	1337.269928200054	1338.3006712000351	1339.3068666000618	1340.1446737999795	2019-12-27 17:10:39.032206	0.979807058432183	-0.517538929496269	0.0	-0.26949188455403	-0.979807058432183	0.0	-0.979807058432183	0.0	-0.517538929496269	0.0	-0.979807058432183	0.0	-1.7816072259113132	-1.6465556406954986	-1.0940650641034244	-2.7480465723204954	-1.9321449529396202	-1.0940650641034244	-0.7228681425806981	-2.403908621477181	-0.6223013955658636	-2.4600510088572003	-0.2805696959417208	3	correct	1.0
287.7426387000596	9.048642799956724	nogo_punish	1.0	287.7704798000632	289.9906838000752	292.5169083001092	2.220204000012018	288.7755105000688	291.5066752000712	295.5755147000309	1.2151733000064269	1.0102331000380218	1.2436078999890015	294.5633256000001	0.6849598999833688	293.53549220005516	2	1	34	2	nogo_punish	1	-1	0	0	0	1	0	0.0	1.0	0	1.0	0.6849598999833688	1052.414196799975	1340.184676600038	1341.1897073000437	1342.40488060005	1343.920872000046	1344.931105100084	1345.94968900003	1346.977522399975	1347.9897115000058	1349.2333193999948	2019-12-27 17:10:39.032206	0.971905502794729	-0.517538929496269	0.0	-0.230224896027431	-0.971905502794729	0.0	-0.971905502794729	0.0	-0.517538929496269	0.0	-0.971905502794729	0.0	-1.7895087815487671	-1.6465556406954986	-1.0940650641034244	-2.7087795837938966	-1.924243397302166	-1.0940650641034244	-0.7228681425806981	-2.403908621477181	-0.6143998399284096	-2.4600510088572003	-0.2805696959417208	3	correct	1.0
296.83506210008636	8.661242499947548	go_reward	1.0	296.86290320008993	298.54196560010314	301.0721660000272	1.6790624000132084	297.8697515000822	300.0522951000603	304.1334397000028	0.6722141000209376	1.019870899966918	1.3907060000346974	303.1198325000005	0.7551211999962106	302.0924072000198	2	1	35	3	go_reward	1	1	0	1	0	0	0	0.0	1.0	0	1.0	0.7551211999962106	1052.414196799975	1349.2771000000648	1350.283948300057	1350.956162400078	1352.4664919000352	1353.486362800002	1354.5066039999947	1355.5340292999754	1356.5476364999777	1357.9383425000124	2019-12-27 17:10:39.032206	0.711637444849326	1.15038131911107	1.90566054474144	2.61420415439364	1.19402309989211	1.90566054474144	-0.711637444849326	1.90566054474144	1.15038131911107	1.90566054474144	1.19402309989211	-1.90566054474144	-2.04977683949417	0.021364607911840583	0.8115954806380157	0.1356494666271746	0.24168520538467286	0.8115954806380157	-2.628528687322138	-0.4982480767357411	1.5515287627584293	-0.5543904641157602	1.3873505526656182	3	correct	1.0
305.5200469000265	8.44486060005147	nogo_reward	0.6010419999947771	305.54788800003007	307.4024604000151	309.92605140002	1.8545723999850452	306.5592571001034	308.92326630000025	312.9833877000492	0.8432032999116927	1.0027851000197643	1.009360900032334	311.9710460000208	0.733747799997218	310.9428443000652	2	1	36	4	nogo_reward	0	1	0	0	1	0	0	0.0	1.0	1	0.6010419999947771	0.733747799997218	1052.414196799975	1357.962084800005	1358.9734539000783	1359.81665719999	1361.3374630999751	1362.340248199995	1363.35704110004	1364.3852427999957	1365.397584500024	1366.4069454000564	2019-12-27 17:10:39.032206	-0.538543792228583	1.43640627096417	1.90566054474144	2.05793164583601	1.36711675251285	1.90566054474144	0.538543792228583	1.43640627096417	1.90566054474144	1.36711675251285	1.90566054474144	11.68446406918133	-3.299958076572079	0.30738955976494053	0.8115954806380157	-0.4206230419304555	0.4147788580054129	0.8115954806380157	10.961595926600632	-1.0367918689643312	2.2631662076077594	-1.0236447378930302	2.1426297782959884	3	correct	1.0
314.00823650008533	9.220280900015496	go_reward	1.0	314.0360776000889	316.45724100002553	318.9908967000665	2.4211633999366313	315.0343565000221	317.971008100081	322.0443669999952	1.4228845000034198	1.0198885999855065	1.2119915001092068	321.0330834001072	0.9480795999988914	320.00840310007334	2	1	37	3	go_reward	1	1	0	1	0	0	1	1.0	1.0	0	1.0	0.9480795999988914	1052.414196799975	1366.4502744000638	1367.448553299997	1368.8714378000004	1370.385204900056	1371.4050935000414	1372.4225999000482	1373.447280200082	1374.45856379997	1375.6705553000793	2019-12-27 17:10:39.032206	0.486683345072315	1.15038131911107	1.60686665078932	2.21230854748615	1.120183305717	1.60686665078932	-0.486683345072315	1.60686665078932	1.15038131911107	1.60686665078932	1.120183305717	-1.60686665078932	-2.274730939271181	0.021364607911840583	0.5128015866858955	-0.26624614028031557	0.16784541120956298	0.5128015866858955	-2.329734793370018	-0.7970419706878613	1.4776889685833194	-0.8531843580678804	1.3873505526656182	3	correct	1.0
323.27065860002745	9.200676799984876	nogo_punish	1.0	323.298499700031	325.7558229001006	328.29650020005647	2.4573232000695953	324.2956482000882	327.2723279000493	331.3336229000706	1.4601747000124305	1.0241723000071943	1.1655535999452695	330.320989800035	0.6830171999754384	329.3024726000149	2	1	38	2	nogo_punish	0	0	-1	0	0	1	0	0.0	1.0	-1	1.0	0.6830171999754384	1052.414196799975	1375.712696500006	1376.709845000063	1378.1700197000755	1379.6865247000242	1380.7106970000314	1381.7166693999898	1382.73518660001	1383.7478197000455	1384.9133732999908	2019-12-27 17:10:39.032206	0.965288621279348	-0.517538929496269	0.0	-0.197109327076774	-0.965288621279348	0.0	-0.965288621279348	0.0	-0.517538929496269	0.0	-0.965288621279348	-5.00374270831402	-1.796125663064148	-1.6465556406954986	-1.0940650641034244	-2.6756640148432393	-1.9176265157867851	-1.0940650641034244	-5.726610850894718	-2.403908621477181	-0.6077829584130288	-2.4600510088572003	-0.2805696959417208	3	correct	1.0
332.5117744000163	9.401385699980892	nogo_punish	1.0	332.53961550001986	335.164700600086	337.7046110000226	2.625085100066144	333.5496315000348	336.68079760007095	340.74328280007467	1.615069100051187	1.0238133999516776	1.1977183999260888	339.7350632000016	0.5214872000506148	338.7209909000667	2	1	39	2	nogo_punish	1	-1	0	0	0	1	0	0.0	1.0	0	1.0	0.5214872000506148	1052.414196799975	1384.9538122999948	1385.9638283000097	1387.578897400061	1389.0949944000458	1390.1188077999975	1391.1351877000416	1392.1492599999765	1393.1574796000496	1394.3551979999756	2019-12-27 17:10:39.032206	0.379434147609206	-0.517538929496269	-0.727428410412943	-0.89654810009087	-1.10686255802215	-0.727428410412943	-0.379434147609206	-0.727428410412943	-0.517538929496269	-0.727428410412943	-1.10686255802215	0.727428410412943	-2.38198013673429	-1.6465556406954986	-1.8214934745163673	-3.3751027878573354	-2.0592004525295873	-1.8214934745163673	0.004560267832244946	-3.131337031890124	-0.7493568951558307	-3.187479419270143	-0.2805696959417208	3	correct	1.0
341.9417587000644	9.808472199947573	go_punish	0.4050990999676287	341.96959980006795	344.7384523000801	347.2790138000855	2.7688525000121444	342.9717132000951	346.2648502000375	350.3003115000902	1.7667390999849886	1.0141636000480503	1.4777604999253526	349.30296630004887	1.0	348.2943077000091	2	1	40	1	go_punish	0	-1	0	1	1	1	0	n/a	0.0	0	0.4050990999676287	1.0	1052.414196799975	1394.3837966000428	1395.38591000007	1397.152649100055	1398.6790470000124	1399.6932106000604	1400.708504499984	1401.7171631000238	1402.714508300065	1404.1922687999904	2019-12-27 17:10:39.032206	0.306199573728227	-1.09917285727312	-2.29590651684032	-2.42657103644679	-1.98970694311209	-2.29590651684032	-0.306199573728227	-1.09917285727312	-2.29590651684032	-1.98970694311209	-2.29590651684032	-3.9045698510408995	-2.455214710615269	-2.2281895684723496	-3.3899715809437443	-4.9051257242132555	-2.942044837619527	-3.3899715809437443	-4.627437993621598	-4.393615564589271	-1.9384008539740005	-3.5592238661303206	-2.0589372832857715	3	missed	0.0
351.77255170000717	8.508398100035265	nogo_reward	0.8393824000377208	351.80039280001074	353.3750117000891	355.91000010003336	1.5746189000783488	352.8135189000752	354.8955388000468	358.95898610004224	0.5614928000138661	1.0144612999865785	1.349804800003767	357.9458308001049	0.7549124000361189	356.9286602000939	2	1	41	4	nogo_reward	1	0	1	0	1	0	0	0.0	1.0	0	0.8393824000377208	0.7549124000361189	1052.414196799975	1404.2145895999856	1405.22771570005	1405.789208500064	1407.3097356000217	1408.3241969000082	1409.3428570000688	1410.3600276000798	1411.3731829000171	1412.722987700021	2019-12-27 17:10:39.032206	1.44150136311488	3.13262781631012	1.90566054474144	3.66447053318811	3.34716190785632	1.90566054474144	-1.44150136311488	3.13262781631012	1.90566054474144	3.34716190785632	1.90566054474144	-3.13262781631012	-1.319912921228616	2.003611105110891	0.8115954806380157	1.1859158454216443	2.394824013348883	0.8115954806380157	-3.855495958890818	0.943253286379139	2.2631662076077594	0.6725768074529199	2.1426297782959884	3	correct	1.0
360.30440540006384	8.469276299932972	nogo_reward	0.8589283999754116	360.3322465000674	361.70684150001034	364.261266600108	1.3745949999429286	361.34430690004956	363.2380565000931	367.3080065000104	0.36253459996078163	1.0232101000149214	1.4935162999900058	366.2954386000056	0.6374674999387935	365.2660354000982	2	1	42	4	nogo_reward	0	1	0	0	1	0	0	0.0	1.0	1	0.8589283999754116	0.6374674999387935	1052.414196799975	1412.7464433000423	1413.7585037000244	1414.1210382999852	1415.652253300068	1416.675463400083	1417.680232200073	1418.7096353999805	1419.7222032999853	1421.2157195999753	2019-12-27 17:10:39.032206	0.866410723481905	2.65713302958379	1.90566054474144	3.11317759384799	2.77207126822334	1.90566054474144	-0.866410723481905	2.65713302958379	1.90566054474144	2.77207126822334	1.90566054474144	10.46373731056171	-1.8950035608615912	1.5281163183845605	0.8115954806380157	0.6346229060815247	1.819733373715903	0.8115954806380157	9.740869167981012	0.36816264674615873	2.2631662076077594	0.19708202072658976	2.1426297782959884	3	correct	1.0
368.8147520000348	8.391185299959261	nogo_punish	1.0	368.84259310003836	370.8810648000799	373.40534719999414	2.038471700041555	369.84350750001613	372.395892700064	376.4748891000636	1.0375573000637814	1.0094544999301434	0.758889299934026	375.4579632000532	0.7370944999856874	374.4253854000708	2	1	43	2	nogo_punish	1	-1	0	0	0	1	0	0.0	1.0	0	1.0	0.7370944999856874	1052.414196799975	1421.2567899000132	1422.257704299991	1423.2952616000548	1424.8100895000389	1425.819543999969	1426.8395822000457	1427.872160000028	1428.8890859000385	1429.6479751999725	2019-12-27 17:10:39.032206	0.465237372543161	-0.517538929496269	-0.612827607033794	-0.758238694282971	-1.07806497957696	-0.612827607033794	-0.465237372543161	-0.612827607033794	-0.517538929496269	-0.612827607033794	-1.07806497957696	0.612827607033794	-2.2961769118003352	-1.6465556406954986	-1.7068926711372185	-3.2367933820494366	-2.030402874084397	-1.7068926711372185	-0.11004053554690407	-3.0167362285109753	-0.7205593167106406	-3.0728786158909944	-0.2805696959417208	3	correct	1.0
377.23024120007176	8.567421899992269	nogo_reward	0.3334788000211119	377.25808230007533	379.27303820010275	381.8137370001059	2.0149559000274166	378.2689607000211	380.79650720011	384.87260740005877	1.004077500081621	1.0172297999959028	0.9528968000088298	383.85777720005717	0.4320640999358147	382.83044640009757	2	1	44	4	nogo_reward	1	0	1	0	1	0	1	0.0	0.0	0	0.3334788000211119	0.4320640999358147	1052.414196799975	1429.6722791000502	1430.683157499996	1431.6872350000776	1433.210704000085	1434.2279338000808	1435.2446432000725	1436.271974000032	1437.2868042000337	1438.2397010000425	2019-12-27 17:10:39.032206	2.62748078272604	4.16458558939581	1.90566054474144	4.55643225755803	4.53314132746748	1.90566054474144	-2.62748078272604	4.16458558939581	1.90566054474144	4.53314132746748	1.90566054474144	-4.16458558939581	-0.13393350161745632	3.035568878196581	0.8115954806380157	2.0778775697915646	3.5808034329600433	0.8115954806380157	-4.887453731976509	2.129232705990299	2.2631662076077594	1.7045345805386098	2.1426297782959884	3	wrong	1.0
385.83805890008784	8.292091400013533	nogo_punish	0.7310927999205887	385.8659000000914	387.3764114000369	389.92627870000433	1.5105113999454716	386.8761620000005	388.9069084000075	392.9616690000985	0.5002494000364095	1.0193702999968082	1.1963224000064656	391.9647913000081	0.8363279999466613	390.94511700002477	2	1	45	2	nogo_punish	1	-1	0	0	1	0	1	0.0	0.0	-1	0.7310927999205887	0.8363279999466613	1052.414196799975	1438.2800968000663	1439.2903587999754	1439.7906082000118	1441.3211051999824	1442.3404754999792	1443.3593137999997	1444.378988099983	1445.3758658000734	1446.5721882000798	2019-12-27 17:10:39.032206	-0.536683400434138	-0.517538929496269	-0.517538929496269	-0.642824734258688	-1.05422232993041	-0.517538929496269	0.536683400434138	-0.517538929496269	-0.517538929496269	-1.05422232993041	-0.517538929496269	-4.4862037788177505	-3.298097684777634	-1.6465556406954986	-1.6116039935996933	-3.1213794220251536	-2.0065602244378473	-1.6116039935996933	-5.209071921398449	-3.4581309514075915	-0.1600332666299497	-2.977589938353469	-0.2805696959417208	3	wrong	1.0
394.17222599999513	8.781914200051688	nogo_punish	1.0	394.2000670999987	396.0394929000174	398.5746645000763	1.8394258000187165	395.19924970006105	397.5549533000449	401.6265514000552	0.840243199956376	1.0197112000314519	1.3554298999952152	400.61352230003104	0.6609776999102905	399.594654000015	2	1	46	2	nogo_punish	1	-1	0	0	0	1	0	0.0	1.0	0	1.0	0.6609776999102905	1052.414196799975	1446.6142638999736	1447.613446500036	1448.4536896999923	1449.9691501000198	1450.9888613000512	1452.00885079999	1453.027719100006	1454.04074820003	1455.3961781000253	2019-12-27 17:10:39.032206	1.31202054651635	-1.16553998031026	-0.517538929496269	-1.27370634494024	-1.82955947601261	-0.517538929496269	-1.31202054651635	-0.517538929496269	-1.16553998031026	-0.517538929496269	-1.82955947601261	0.517538929496269	-1.4493937378271462	-2.2945566915094897	-1.6116039935996933	-3.7522610327067056	-2.781897370520047	-1.6116039935996933	-0.20532921308442909	-2.92144755097345	-1.4720538131462906	-2.977589938353469	-0.9285707467557118	3	correct	1.0
402.9793868000852	8.576845499919727	go_punish	1.0	403.00722790008876	405.0544942000415	407.58524790010415	2.047266299952753	404.00764110009186	406.5619658000069	410.60623420006596	1.046853099949658	1.0232821000972763	0.9778391999425367	409.60861400002614	1.0	408.60021340008825	2	1	47	1	go_punish	1	0	-1	1	0	0	0	n/a	0.0	-1	1.0	1.0	1052.414196799975	1455.4214247000637	1456.4218379000667	1457.4686910000164	1458.9761625999818	1459.999444700079	1461.0144102000631	1462.022810800001	1463.0204310000408	1463.9982701999834	2019-12-27 17:10:39.032206	-0.552254226029074	-0.928985510569854	-2.29590651684032	-2.05840452510001	-1.74365229081125	-2.29590651684032	0.552254226029074	-2.29590651684032	-0.928985510569854	-2.29590651684032	-1.74365229081125	-2.7078361914737	-3.3136685103725703	-2.0580022217690837	-3.3899715809437443	-4.536959212866476	-2.695990185318687	-3.3899715809437443	-3.430704334054398	-4.699815138317501	-1.3861466279449306	-4.75595752569752	-0.6920162770153058	3	missed	0.0
411.60005400003865	8.63051909999922	nogo_punish	1.0	411.6278951000422	413.400812100037	415.9303568000905	1.7729169999947771	412.634523100103	414.9163732000161	418.9708010000177	0.7662889999339768	1.0139836000744253	1.2876132000237703	417.95767770009115	0.5062183999689296	416.94526680000126	2	1	48	2	nogo_punish	0	0	-1	0	0	1	1	1.0	1.0	-1	1.0	0.5062183999689296	1052.414196799975	1464.042091900017	1465.048719900078	1465.815008900012	1467.330569999991	1468.3445536000654	1469.3594635999762	1470.371874500066	1471.3849977999926	1472.6726110000163	2019-12-27 17:10:39.032206	1.35085151138898	-1.16553998031026	-0.438111569897313	-1.0781457975723	-1.78896308128629	-0.438111569897313	-1.35085151138898	-0.438111569897313	-1.16553998031026	-0.438111569897313	-1.78896308128629	-4.565631138416707	-1.410562772954516	-2.2945566915094897	-1.5321766340007374	-3.5567004853387654	-2.741300975793727	-1.5321766340007374	-5.288499280997406	-2.8420201913744942	-1.4314574184199707	-2.8981625787545133	-0.9285707467557118	3	correct	1.0
420.25370100000873	7.937994200037792	nogo_reward	0.4392406999832019	420.2815421000123	421.86236010002904	424.3945876000216	1.580818000016734	421.2934026001021	423.38352490006946	427.4448622000634	0.5689574999269098	1.0110626999521628	0.7746740999866688	426.43156710010953	0.4777926000533625	425.4037971000653	2	1	49	4	nogo_reward	1	0	1	0	1	0	0	0.0	1.0	0	0.4392406999832019	0.4777926000533625	1052.414196799975	1472.6957388999872	1473.707599400077	1474.276556900004	1475.7977217000443	1476.8087843999965	1477.8179939000402	1478.8457639000844	1479.8590590000383	1480.633733100025	2019-12-27 17:10:39.032206	1.86990312987899	3.53154002250798	1.90566054474144	3.86890129293295	3.77556367462043	1.90566054474144	-1.86990312987899	3.53154002250798	1.90566054474144	3.77556367462043	1.90566054474144	-3.53154002250798	-0.891511154464506	2.4025233113087507	0.8115954806380157	1.3903466051664846	2.823225780112993	0.8115954806380157	-4.2544081650886785	1.371655053143249	2.2631662076077594	1.0714890136507798	2.1426297782959884	3	correct	1.0
428.23553140007425	8.237384599982988	go_reward	1.0	428.2633725000778	429.8232633000007	432.3476173999952	1.5598907999228686	429.2704192000674	431.3278972000114	435.3980435000267	0.5528440999332815	1.0197201999837944	1.1027136000341216	434.3941826000812	0.7603228000225499	433.36621820006985	2	1	50	3	go_reward	1	1	0	1	0	0	0	0.0	1.0	0	1.0	0.7603228000225499	1052.414196799975	1480.6775693000527	1481.6846160000423	1482.2374600999756	1483.7420939999863	1484.76181419997	1485.7804150000447	1486.808379400056	1487.8122403000016	1488.9149539000357	2019-12-27 17:10:39.032206	0.298935939316508	1.15038131911107	1.35805599829253	1.87647966020901	1.05912005897603	1.35805599829253	-0.298935939316508	1.35805599829253	1.15038131911107	1.35805599829253	1.05912005897603	-1.35805599829253	-2.4624783450269883	0.021364607911840583	0.2639909341891056	-0.6020750275574556	0.10678216446859279	0.2639909341891056	-2.080924140873228	-1.0458526231846512	1.4166257218423493	-1.1019950105646703	1.3873505526656182	3	correct	1.0
436.496461700066	8.329789499985054	nogo_reward	0.2619816000806167	436.52430280006956	438.34764370007906	440.9015769000398	1.823340900009498	437.5362083000364	439.891270800028	443.9544018000597	0.8114354000426829	1.0103061000118032	0.8996904999949038	442.94190730003174	0.4521746999816969	441.9123179001035	2	1	51	4	nogo_reward	1	0	1	0	1	0	1	1.0	1.0	0	0.2619816000806167	0.4521746999816969	1052.414196799975	1488.9384996000445	1489.9504051000113	1490.761840500054	1492.3054676000029	1493.3157737000147	1494.3265147000784	1495.3561041000066	1496.3685986000346	1497.2682891000295	2019-12-27 17:10:39.032206	1.23658006289984	3.00152708226984	1.90566054474144	3.29255197651346	3.14224060764128	1.90566054474144	-1.23658006289984	3.00152708226984	1.90566054474144	3.14224060764128	1.90566054474144	-3.00152708226984	-1.524834221443656	1.8725103710706106	0.8115954806380157	0.8139972887469944	2.189902713133843	0.8115954806380157	-3.724395224850538	0.7383319861640989	2.2631662076077594	0.5414760734126398	2.1426297782959884	3	correct	1.0
444.8715111000929	9.064490899909288	go_reward	1.0	444.8993522000965	447.4876323000062	450.014855000074	2.5882800999097526	445.9104168000631	449.00332970009185	453.07935020001605	1.5772154999431223	1.0115252999821678	0.8844928999897093	452.067446900066	0.4964538000058383	451.03886940004304	2	1	52	3	go_reward	1	1	0	1	0	0	1	1.0	1.0	0	1.0	0.4964538000058383	1052.414196799975	1497.3135490000714	1498.324613600038	1499.9018290999811	1501.4175265000667	1502.429051800049	1503.453066200018	1504.4816437000409	1505.493546999991	1506.3780398999806	2019-12-27 17:10:39.032206	0.141880226657662	1.15038131911107	1.15038131911107	1.59520580120871	1.00850109245341	1.15038131911107	-0.141880226657662	1.15038131911107	1.15038131911107	1.15038131911107	1.00850109245341	-1.15038131911107	-2.619534057685834	0.021364607911840583	0.0563162550076457	-0.8833488865577555	0.0561631979459728	0.0563162550076457	-1.8732494616917683	-1.253527302366111	1.3660067553197293	-1.3096696897461302	1.3873505526656182	3	correct	1.0
453.96014149999246	8.459818800096173	go_punish	1.0	453.98798259999603	455.45750410004985	457.9962267000228	1.4695215000538155	454.9985468999946	456.97328740009107	461.0331682000542	0.458957200055238	1.0229392999317497	1.414633200037997	460.0187358000546	1.0	459.0104702000972	2	1	53	1	go_punish	1	0	-1	1	0	0	0	n/a	0.0	-1	1.0	1.0	1052.414196799975	1506.402179399971	1507.4127436999695	1507.8717009000247	1509.387484200066	1510.4104234999977	1511.424667000072	1512.4329326000295	1513.447365000029	1514.861998200067	2019-12-27 17:10:39.032206	-0.839901693307645	-0.928985510569854	-2.66765096370049	-2.47762536325998	-1.82774927039285	-2.66765096370049	0.839901693307645	-2.66765096370049	-0.928985510569854	-2.66765096370049	-1.82774927039285	-2.3360917446135296	-3.601315977651141	-2.0580022217690837	-3.7617160278039146	-4.956180051026445	-2.780087164900287	-3.7617160278039146	-3.0589598871942276	-5.071559585177671	-1.4702436075265306	-5.1277019725576904	-0.6920162770153058	3	missed	0.0
462.46227420005016	8.486153100035153	nogo_punish	0.468730799970217	462.49011530005373	463.9978741999946	466.53953100007493	1.5077588999408817	463.49831400008406	465.5294347000306	469.5843125000829	0.49956019991054745	1.0100963000443244	1.3919559000059962	468.5818023000611	0.7120888999197632	467.5525465999963	2	1	54	2	nogo_punish	1	-1	0	0	1	0	0	0.0	1.0	-1	0.468730799970217	0.7120888999197632	1052.414196799975	1514.9043121000286	1515.912510800059	1516.4120709999695	1517.9436315000055	1518.9537278000498	1519.9667433999712	1520.995999100036	1521.9985093000578	1523.3904652000638	2019-12-27 17:10:39.032206	-0.803272999900827	-1.16553998031026	-1.09917285727312	-1.64223496376258	-1.90244585717394	-1.09917285727312	0.803272999900827	-1.16553998031026	-1.09917285727312	-1.90244585717394	-1.09917285727312	-3.83820272800376	-3.5646872842443234	-2.2945566915094897	-2.1932379213765447	-4.120789651529045	-2.854783751681377	-2.1932379213765447	-4.561070870584458	-4.306354478651121	-0.7416671944068007	-3.6255909891674603	-0.862203623718572	3	correct	1.0
470.9727598000318	9.371266099973582	go_punish	1.0	471.00060090003535	473.83578160009347	476.3495786000276	2.8351807000581175	472.0024399000688	475.34026150009595	479.3819577000104	1.8333417000246754	1.0093170999316499	0.9899092999985442	478.3859063000418	0.9662827000720426	477.3652536000591	2	1	55	1	go_punish	1	0	-1	1	0	0	1	0.0	0.0	-1	1.0	0.9662827000720426	1052.414196799975	1523.4147977000102	1524.4166367000437	1526.2499784000684	1527.7544583000708	1528.7637754000025	1529.779450400034	1530.8001031000167	1531.7961544999853	1532.7860637999838	2019-12-27 17:10:39.032206	-1.08555533232681	-0.928985510569854	-2.98380886723655	-2.83182359452251	-1.89825353490974	-2.98380886723655	1.08555533232681	-2.98380886723655	-0.928985510569854	-2.98380886723655	-1.89825353490974	-2.01993384107747	-3.846969616670306	-2.0580022217690837	-4.077873931339974	-5.310378282288975	-2.850591429417177	-4.077873931339974	-2.742801983658168	-5.387717488713731	-1.5407478720434207	-5.44385987609375	-0.6920162770153058	3	wrong	1.0
480.38947360008024	8.820489799953066	go_reward	1.0	480.4173147000838	482.4041362000862	484.9453813000582	1.9868215000024065	481.422568900045	483.9187749000266	487.9930977000622	0.9815673000412062	1.0266064000315964	1.244706799974665	486.9898018999954	0.7604186999378726	485.9621756999986	2	1	56	3	go_reward	0	0	1	1	0	0	0	1.0	0.0	1	1.0	0.7604186999378726	1052.414196799975	1532.8315115000587	1533.83676570002	1534.818333000061	1536.3329717000015	1537.359578100033	1538.3763724999735	1539.4039986999703	1540.407294500037	1541.6520013000118	2019-12-27 17:10:39.032206	0.0102014651487477	1.15038131911107	0.976642243042378	1.35908762748774	0.966440777893631	0.976642243042378	-0.0102014651487477	0.976642243042378	1.15038131911107	0.976642243042378	0.966440777893631	12.144228097103122	-2.7512128191947482	0.021364607911840583	-0.1174228210610464	-1.1194670602787256	0.01410288338619392	-0.1174228210610464	11.421359954522424	-1.4272663784348032	1.3239464407599504	-1.4834087658148223	1.3873505526656182	3	wrong	1.0
489.23512800002936	9.294937400030904	go_punish	1.0	489.26296910003293	492.03378930001054	494.57279980008025	2.7708201999776065	490.26814540009946	493.54965600010473	497.61141910008155	1.7656438999110833	1.0231437999755144	0.9464873999822885	496.60611240006983	0.8015282000415027	495.5848876000382	2	1	57	1	go_punish	1	0	-1	1	0	0	1	0.0	0.0	-1	1.0	0.8015282000415027	1052.414196799975	1541.6771659000078	1542.6823422000743	1544.4479860999854	1545.9638528000796	1546.9869966000551	1547.999084400013	1549.0203092000447	1550.0256159000564	1550.9721033000387	2019-12-27 17:10:39.032206	-1.29578162883884	-0.928985510569854	-3.25330075179058	-3.13182803345497	-1.95751912295175	-3.25330075179058	1.29578162883884	-3.25330075179058	-0.928985510569854	-3.25330075179058	-1.95751912295175	-1.75044195652344	-4.057195913182336	-2.0580022217690837	-4.347365815894005	-5.610382721221436	-2.909857017459187	-4.347365815894005	-2.473310099104138	-5.6572093732677615	-1.6000134600854305	-5.713351760647781	-0.6920162770153058	3	wrong	1.0
498.57179690001067	8.253802200080827	nogo_punish	1.0	498.59963800001424	500.38582140009385	502.9149909000844	1.786183400079608	499.59858160000294	501.8940640001092	505.95344800001476	0.7872398000909016	1.0209268999751657	0.8999922000803053	504.95066670002416	0.4819638999179005	503.9316960000433	2	1	58	2	nogo_punish	1	-1	0	0	0	1	0	0.0	1.0	0	1.0	0.4819638999179005	1052.414196799975	1551.0138347999891	1552.0127783999778	1552.8000182000687	1554.308260800084	1555.3291877000593	1556.3458928000182	1557.364863499999	1558.3676447999896	1559.26763700007	2019-12-27 17:10:39.032206	1.444780209487	-1.71200046430691	-1.09917285727312	-2.11830200707036	-2.54395306676012	-1.09917285727312	-1.444780209487	-1.09917285727312	-1.71200046430691	-1.09917285727312	-2.54395306676012	1.09917285727312	-1.3166340748564962	-2.8410171755061393	-2.1932379213765447	-4.596856694836825	-3.496290961267557	-2.1932379213765447	0.376304714692422	-3.5030814787503015	-2.1864474038938004	-3.5592238661303206	-1.4750312307523619	3	correct	1.0
506.86718330008443	8.709727799985558	nogo_punish	1.0	506.895024400088	509.2627230000214	511.7952616000548	2.3676985999334192	507.9041880000152	510.7740284000756	514.8549230000935	1.3585350000062135	1.0212331999791786	0.7498291999800131	513.8422003000742	0.6560215998906642	512.8136065000435	2	1	59	2	nogo_punish	1	-1	0	0	0	1	0	0.0	1.0	0	1.0	0.6560215998906642	1052.414196799975	1559.309221200063	1560.31838479999	1561.6769197999963	1563.1882252000505	1564.2094584000297	1565.2278033000184	1566.256397100049	1567.2691198000684	1568.0189490000485	2019-12-27 17:10:39.032206	1.54765173352815	-1.71200046430691	-0.928985510569854	-1.79363109584581	-2.47663724409801	-0.928985510569854	-1.54765173352815	-0.928985510569854	-1.71200046430691	-0.928985510569854	-2.47663724409801	0.928985510569854	-1.213762550815346	-2.8410171755061393	-2.0230505746732783	-4.272185783612276	-3.428975138605447	-2.0230505746732783	0.20611736798915592	-3.332894132047035	-2.1191315812316907	-3.389036519427054	-1.4750312307523619	3	correct	1.0
515.600802400033	8.696860000025481	nogo_reward	0.3314852999756112	515.6286435000366	517.4200855999952	519.9662425999995	1.7914420999586582	516.6398191000335	518.95158610004	523.0040845000185	0.7802664999617264	1.0146564999595284	1.3214190000435337	522.0003480000887	0.9098859999794512	520.9777330000652	2	1	60	4	nogo_reward	0	1	0	0	1	0	0	0.0	1.0	1	0.3314852999756112	0.9098859999794512	1052.414196799975	1568.0428403000114	1569.0540159000084	1569.83428239997	1571.365782900015	1572.3804393999744	1573.39192980004	1574.4145448000636	1575.4182812999934	1576.739700300037	2019-12-27 17:10:39.032206	0.705897524286179	2.55675404411158	1.90566054474144	2.80829391762332	2.61155806902762	1.90566054474144	-0.705897524286179	2.55675404411158	1.90566054474144	2.61155806902762	1.90566054474144	10.56411629603392	-2.055516760057317	1.4277373329123504	0.8115954806380157	0.32973922985685444	1.659220174520183	0.8115954806380157	9.841248153453222	0.2076494475504389	2.2631662076077594	0.09670303525437962	2.1426297782959884	3	correct	1.0
