onset	duration	trial_type	response_time	cueOnset	targetOnset	fbOnset	cueRT	firstfixOnset	secondfixOnset	waitOnset	firstfixdur	secondfixdur	waitdur	nback_fbOnset	nback_response_time	nback_targetOnset	block	wm	trial	cue	cond	is_common	outcome_go	outcome_nogo	key_correct	key_pressed	is_correct	key_correct_nback	key_pressed_nback	is_correct_nback	outcome	rt	rt_nback	time_scan	time_onset	time_isi1	time_circle	time_isi2	time_feedback	time_same	time_correct	time_iti	time_done	timestamp_scan	DV	Qgo	Qnogo	SV	Wgo	Wnogo	mDV	Qchosen	Qunchosen	Wchosen	Wunchosen	PE	DVC	QgoC	QnogoC	SVC	WgoC	WnogoC	PEC	WchosenC	WunchosenC	QchosenC	QunchosenC	run	outcome_nback	nback_targetResp
0.0	9.413034100012965	nogo_reward	1.0	0.009477399988099933	2.7687166999969577	5.297838999992109	2.7592393000088578	1.0115627999916796	4.273528599995643	8.375756599998795	1.757153900005278	1.024310399996466	1.04675490000227	7.366576100000884	0.5104812999925343	6.323870299995633	2	1	61	4	nogo_reward	1	0	1	0	0	1	1	0.0	0.0	1	1.0	0.5104812999925343	1822.057725800012	1822.0672032	1823.0692886000036	1824.8264425000089	1826.3312544000075	1827.355564800004	1828.3815961000075	1829.4243019000128	1830.4334824000107	1831.480237300013	2020-06-04 10:59:38.770859	5.23388828513265	0.0	7.61169638150399	7.61002664988299	2.37780809637134	7.61169638150399	-5.23388828513265	7.61169638150399	0.0	7.61169638150399	2.37780809637134	2.0672730331899993	2.015510470959932	-0.7429855344376347	7.26144167042085	5.715577330799565	0.5717318532890732	7.26144167042085	1.743317732403882	4.924341997334928	2.908831526374996	5.5547507846501425	0.9637053513330737	4	wrong	1.0
9.44034790000319	9.306386500000826	go_punish	0.339021000007051	9.44982529999129	12.2283342000012	14.747222399994143	2.7785089000099106	10.457920399989234	13.738729999997304	17.79997139998909	1.7704138000119656	1.0084923999968396	0.9562404000030256	16.7887062999946	0.3670340999960899	15.753289100001211	2	1	62	1	go_punish	0	-1	0	1	1	1	0	0.0	1.0	-1	0.339021000007051	0.3670340999960899	1822.057725800012	1831.5075511000032	1832.5156462000011	1834.286060000013	1835.7964558000092	1836.804948200006	1837.811014900013	1838.8464321000065	1839.857697200001	1840.813937600004	2020-06-04 10:59:38.770859	4.14634356694131	-0.176498525930509	-3.89215814430662	-1.33901971382952	0.254185422634684	-3.89215814430662	-4.14634356694131	-0.176498525930509	-3.89215814430662	0.254185422634684	-3.89215814430662	-5.74425627769979	0.9279657527685914	-0.9194840603681437	-4.242412855389761	-3.2334690329129443	-1.551890820447583	-4.242412855389761	-6.068211578485908	-2.4331689615343786	-3.361134714302964	-2.2334441227843573	-2.9284527929735464	4	correct	1.0
18.77037570001289	8.664657899993472	nogo_reward	1.0	18.77985310000099	20.469711300000426	22.99912639999843	1.6898581999994349	19.790843499999255	21.97663439999451	26.038528099991026	0.6788678000011714	1.022492000003922	1.405982900003437	25.034514599988825	0.4308574000024237	24.013599200000044	2	1	63	4	nogo_reward	1	0	1	0	0	1	1	1.0	1.0	1	1.0	0.4308574000024237	1822.057725800012	1840.8375789000129	1841.8485693000111	1842.5274371000123	1844.0343602000064	1845.0568522000103	1846.071325000012	1847.0922404000007	1848.096253900003	1849.5022368000064	2020-06-04 10:59:38.770859	6.27804841590885	0.0	8.94969325742333	8.94886766445823	2.67164484151448	8.94969325742333	-6.27804841590885	8.94969325742333	0.0	8.94969325742333	2.67164484151448	0.7292761572706592	3.0596706017361313	-0.7429855344376347	8.59943854634019	7.054418345374806	0.865568598432213	8.59943854634019	0.4053208564845419	6.262338873254269	3.202668271518136	6.892747660569482	0.9637053513330737	4	correct	1.0
27.477531600001612	8.205610700010084	go_reward	0.3070129999978235	27.487008999989712	29.156439799990494	31.711147700000083	1.6694308000007823	28.495379499989212	30.697592299999314	34.757129599995324	0.6610603000012816	1.0135554000007687	0.935490100004472	33.744491199992126	0.3331048999971244	32.72614749999775	2	1	64	3	go_reward	1	1	0	1	1	1	0	0.0	1.0	1	0.3070129999978235	0.3331048999971244	1822.057725800012	1849.5447348000016	1850.553105300001	1851.2141656000024	1852.7553181000112	1853.768873500012	1854.7838733000096	1855.802217000004	1856.8148554000072	1857.7503455000117	2020-06-04 10:59:38.770859	12.4786589396276	9.64988437389112	0.0	9.64988437389112	12.4786589396276	0.0	-12.4786589396276	9.64988437389112	0.0	12.4786589396276	0.0	0.02908504080286889	9.260281125454881	8.906898839453486	-0.35025471108314005	7.7554350548076965	10.672582696545334	-0.35025471108314005	-0.2948702599832484	9.791304555458538	0.5310234300036563	7.592938777037272	0.9637053513330737	4	correct	1.0
35.72571460000495	7.9620266999991145	nogo_punish	1.0	35.73519199999305	37.235145799990505	39.7702759999961	1.4999537999974564	36.73541919999161	38.75093489998858	42.82865650000167	0.499726599998894	1.019341100007523	0.8685621999904924	41.816077099996846	0.3267207999888342	40.7876825999997	2	1	65	2	nogo_punish	1	-1	0	0	0	1	0	0.0	1.0	0	1.0	0.3267207999888342	1822.057725800012	1857.792917800005	1858.7931450000035	1859.2928716000024	1860.8086607000005	1861.828001800008	1862.8454084000116	1863.8738029000087	1864.8863823000136	1865.754944500004	2020-06-04 10:59:38.770859	2.97941973036814	-3.89215814430662	-0.250317434919186	-0.250382049717294	-3.22973716528733	-0.250317434919186	-2.97941973036814	-0.250317434919186	-3.89215814430662	-0.250317434919186	-3.22973716528733	0.250317434919186	-0.2389580838045786	-4.635143678744255	-0.6005721460023261	-2.1448313688007183	-5.035813408369597	-0.6005721460023261	-0.07363786586693127	-2.9376718190882483	-2.6987137352836736	-2.3072630317730343	-2.9284527929735464	4	correct	1.0
43.71283180000364	8.365839899997127	go_punish	0.2533960000000661	43.72230919999174	45.72694079999974	48.27173459999926	2.004631600007997	44.73241029999963	47.25107329999446	51.32326130000001	0.9945305000001099	1.0206613000048037	0.7648877999888555	50.310504399996944	0.3153413999971235	49.2897457999934	2	1	66	1	go_punish	1	0	-1	1	1	1	0	0.0	1.0	0	0.2533960000000661	0.3153413999971235	1822.057725800012	1865.7800350000036	1866.7901361000115	1867.7846666000116	1869.3087991000064	1870.3294604000112	1871.3474716000053	1872.3682302000088	1873.380987100012	1874.1458749000008	2020-06-04 10:59:38.770859	-0.281584549249294	-3.9647516033645	-3.89215814430662	-4.37859222801418	-4.17374269355592	-3.89215814430662	0.281584549249294	-3.9647516033645	-3.89215814430662	-4.17374269355592	-3.89215814430662	3.9647516033645	-3.4999623634220125	-4.707737137802135	-4.242412855389761	-6.273041547097605	-5.979818936638187	-4.242412855389761	3.6407963025783827	-6.861097077724983	-3.361134714302964	-6.021697200218348	-2.9284527929735464	4	correct	1.0
52.105446400004894	8.522044800003414	go_punish	0.272364500007825	52.114923799992994	53.79499229999806	56.32932689999893	1.6800685000050635	53.123366100000794	55.32580279999843	59.39371309999842	0.671626199997263	1.0035241000005044	1.2432554999979857	58.38077199998975	0.2615360999916447	57.35193239999376	2	1	67	1	go_punish	1	0	-1	1	1	1	0	0.0	1.0	0	0.272364500007825	0.2615360999916447	1822.057725800012	1874.172649600005	1875.1810919000127	1875.85271810001	1877.3835286000103	1878.3870527000108	1879.4096582000057	1880.4384978000016	1881.4514389000103	1882.6946944000083	2020-06-04 10:59:38.770859	2.99955381539873	-1.29778208985285	-3.89215814430662	-1.45682211886219	-0.892604328907891	-3.89215814430662	-2.99955381539873	-1.29778208985285	-3.89215814430662	-0.892604328907891	-3.89215814430662	1.29778208985285	-0.2188239987739884	-2.040767624290485	-4.242412855389761	-3.3512714379456146	-2.698680571990158	-4.242412855389761	0.9738267890667327	-3.5799587130769535	-3.361134714302964	-3.354727686706698	-2.9284527929735464	4	correct	1.0
60.6710844000047	9.357499200006941	go_reward	0.2641481000027852	60.6805617999928	63.2251550999938	65.77111550000018	2.5445933000009973	61.678707499988604	64.7561386000018	68.8259338999926	1.5464476000051945	1.0149768999983735	1.2121271000071374	67.81283749999443	0.2752011999982642	66.78123100000107	2	1	68	3	go_reward	1	1	0	1	1	1	0	0.0	1.0	1	0.2641481000027852	0.2752011999982642	1822.057725800012	1882.7382876000047	1883.7364333000005	1885.2828809000057	1886.8138644000137	1887.828841300012	1888.838956800013	1889.8705633000063	1890.8836597000045	1892.0957868000116	2020-06-04 10:59:38.770859	12.4975974422874	9.6652478563109	0.0	9.6652478563109	12.4975974422874	0.0	-12.4975974422874	9.6652478563109	0.0	12.4975974422874	0.0	0.013721558383089416	9.279219628114681	8.922262321873266	-0.35025471108314005	7.770798537227476	10.691521199205134	-0.35025471108314005	-0.31023374240302787	9.810243058118338	0.5310234300036563	7.6083022594570515	0.9637053513330737	4	correct	1.0
70.07100970001193	8.113796799996862	nogo_punish	1.0	70.08048710000003	71.3690289999945	73.89522320000083	1.2885418999944704	71.08870649999903	72.8753328999885	76.94378249999181	0.28032249999546366	1.019890300012321	1.2505014000050778	75.93242299999133	0.2980199999874457	74.91221479998808	2	1	69	2	nogo_punish	1	-1	0	0	0	1	0	0.0	1.0	0	1.0	0.2980199999874457	1822.057725800012	1892.138212900012	1893.146432300011	1893.4267548000064	1894.9330587000004	1895.9529490000127	1896.9699406	1897.9901488000032	1899.0015083000037	1900.2520097000088	2020-06-04 10:59:38.770859	3.0936374180477	-3.89215814430662	-0.104557943844718	-0.104594184305857	-3.19819536189242	-0.104557943844718	-3.0936374180477	-0.104557943844718	-3.89215814430662	-0.104557943844718	-3.19819536189242	0.104557943844718	-0.1247403961250182	-4.635143678744255	-0.45481265492785805	-1.9990435033892815	-5.004271604974687	-0.45481265492785805	-0.21939735694139928	-2.7919123280137805	-2.667171931888764	-2.1615035406985665	-2.9284527929735464	4	correct	1.0
78.22818420000885	8.34431099999324	go_reward	0.291489499999443	78.23766159999695	79.78284919999737	82.32705870000086	1.5451876000004177	79.23425480000174	81.31346629999484	85.36778999998933	0.5485943999956362	1.0135924000060186	1.2141826000008678	84.35462189999839	0.3511457999993581	83.34219179999513	2	1	70	3	go_reward	1	1	0	1	1	1	1	1.0	1.0	1	0.291489499999443	0.3511457999993581	1822.057725800012	1900.2953874000088	1901.2919806000136	1901.8405750000093	1903.3711921000067	1904.3847845000128	1905.399917600007	1906.4123477000103	1907.4255158000012	1908.639698400002	2020-06-04 10:59:38.770859	12.506295880448	9.67229479415568	0.0	9.67229479415568	12.506295880448	0.0	-12.506295880448	9.67229479415568	0.0	12.506295880448	0.0	0.0066746205383090285	9.287918066275282	8.929309259718046	-0.35025471108314005	7.777845475072256	10.700219637365734	-0.35025471108314005	-0.31728068024780826	9.818941496278939	0.5310234300036563	7.615349197301832	0.9637053513330737	4	correct	1.0
86.61410120000096	8.103521800003364	nogo_punish	1.0	86.62357859998906	88.1240491999929	90.64766709999844	1.5004706000038368	87.62470339999686	89.62696249999885	93.69652529999462	0.49934579999603557	1.0207045999995898	1.0305750999978045	92.68378449999727	0.3232336000073701	91.6533294999972	2	1	71	2	nogo_punish	1	-1	0	0	0	1	1	1.0	1.0	0	1.0	0.3232336000073701	1822.057725800012	1908.681304400001	1909.6824292000088	1910.1817750000048	1911.6846883000107	1912.7053929000103	1913.711055300009	1914.7415103000092	1915.7542511000065	1916.7848262000043	2020-06-04 10:59:38.770859	3.13961298518532	-3.89215814430662	-0.0457794071817555	-0.0458000963962552	-3.18539239236707	-0.0457794071817555	-3.13961298518532	-0.0457794071817555	-3.89215814430662	-0.0457794071817555	-3.18539239236707	0.0457794071817555	-0.07876482898739834	-4.635143678744255	-0.39603411826489554	-1.9402494154796797	-4.991468635449337	-0.39603411826489554	-0.2781758936043618	-2.733133791350818	-2.6543689623634137	-2.102725004035604	-2.9284527929735464	4	correct	1.0
94.74142840001196	8.259385400000383	nogo_reward	1.0	94.75090580000006	96.22124349999694	98.760535599999	1.4703376999968896	95.75130699999886	97.737289500001	101.79183170000056	0.4699364999980844	1.0232460999980049	1.2184594999998808	100.78804970000101	0.3852696999965701	99.77516749998881	2	1	72	4	nogo_reward	1	0	1	0	0	1	0	0.0	1.0	1	1.0	0.3852696999965701	1822.057725800012	1916.808631600012	1917.8090328000108	1918.2789693000088	1919.795015300013	1920.818261400011	1921.8328933000007	1922.845775500013	1923.8495575000125	1925.0680170000123	2020-06-04 10:59:38.770859	6.62808107784401	0.0	9.4002411119887	9.39982340292814	2.77216003414469	9.4002411119887	-6.62808107784401	9.4002411119887	0.0	9.4002411119887	2.77216003414469	0.27872830270528937	3.409703263671292	-0.7429855344376347	9.04998640090556	7.505374083844716	0.9660837910624231	9.04998640090556	-0.04522699808082792	6.7128867278196385	3.303183464148346	7.343295515134852	0.9637053513330737	4	correct	1.0
103.02408560000208	8.888290900009451	nogo_reward	1.0	103.03356299999018	105.2161059999928	107.71992160000104	2.1825430000026245	104.04492839999216	106.71107929998857	110.7657727999906	1.1711776000006466	1.0088423000124749	1.1560811000090325	109.76346089999447	0.2913895000092452	108.73399509998899	2	1	73	4	nogo_reward	1	0	1	0	0	1	0	0.0	1.0	1	1.0	0.2913895000092452	1822.057725800012	1925.091288800002	1926.102654200004	1927.2738318000047	1928.7688051000005	1929.777647400013	1930.7917209000009	1931.8211867000064	1932.8234986000025	1933.9795797000115	2020-06-04 10:59:38.770859	6.75599991604008	0.0	9.56549388225976	9.56527806960216	2.80949396621968	9.56549388225976	-6.75599991604008	9.56549388225976	0.0	9.56549388225976	2.80949396621968	0.11347553243422936	3.537622101867362	-0.7429855344376347	9.21523917117662	7.670828750518735	1.003417723137413	9.21523917117662	-0.21047976835188792	6.8781394980906985	3.340517396223336	7.508548285405912	0.9637053513330737	4	correct	1.0
111.93848700000694	9.929117000006954	go_punish	0.251426500006346	111.94796439999504	114.7849781999978	117.32686529999773	2.837013800002751	112.9565659999937	116.31491249999112	120.37689279999199	1.8284122000040952	1.0119528000066111	1.5001886000100058	119.37259030000132	0.5038795000000391	118.34454799999367	2	1	74	1	go_punish	1	0	-1	1	1	1	0	0.0	1.0	0	0.251426500006346	0.5038795000000391	1822.057725800012	1934.005690200007	1935.0142918000056	1936.8427040000097	1938.372638300003	1939.3845911000096	1940.4022738000056	1941.4303161000132	1942.434618600004	1943.934807200014	2020-06-04 10:59:38.770859	4.02453071960282	-0.469192723505262	-3.89215814430662	-0.534137639163781	0.132372575296198	-3.89215814430662	-4.02453071960282	-0.469192723505262	-3.89215814430662	0.132372575296198	-3.89215814430662	0.469192723505262	0.806152905430102	-1.2121782579428966	-4.242412855389761	-2.4285869582472053	-1.673703667786069	-4.242412855389761	0.1452374227191447	-2.5549818088728644	-3.361134714302964	-2.5261383203591103	-2.9284527929735464	4	correct	1.0
121.89572620000399	8.867259300008527	go_punish	0.2659462000010535	121.90520359999209	123.74435300000209	126.27863129999605	1.839149400010001	122.91244469999242	125.27661889999604	129.32453119999286	0.8319083000096725	1.0020124000000123	1.4479317000077572	128.3229766000004	0.2959172999981092	127.29344369999285	2	1	75	1	go_punish	1	0	-1	1	1	1	0	0.0	1.0	0	0.2659462000010535	0.2959172999981092	1822.057725800012	1943.962929400004	1944.9701705000043	1945.802078800014	1947.334344700008	1948.336357100008	1949.3511695000047	1950.3807024000123	1951.3822570000048	1952.8301887000125	2020-06-04 10:59:38.770859	4.38032186731355	-0.18286464973743	-3.89215814430662	-0.210740263687303	0.488163723006922	-3.89215814430662	-4.38032186731355	-0.18286464973743	-3.89215814430662	0.488163723006922	-3.89215814430662	0.18286464973743	1.1619440531408318	-0.9258501841750647	-4.242412855389761	-2.1051895827707274	-1.317912520075345	-4.242412855389761	-0.1410906510486873	-2.1991906611621403	-3.361134714302964	-2.2398102465912784	-2.9284527929735464	4	correct	1.0
130.80792950000637	9.30098060000455	go_reward	0.2460261000087484	130.81740689999447	133.7832910000002	136.32458459999202	2.9658841000057237	131.81227840000088	135.31311989999108	139.3649736999946	1.9710125999993124	1.0114647000009427	0.7534138000044095	138.35161829998856	0.4966927999921608	137.33374629999207	2	1	76	3	go_reward	0	0	1	1	1	1	0	0.0	1.0	0	0.2460261000087484	0.4966927999921608	1822.057725800012	1952.8751327000064	1953.8700042000128	1955.841016800012	1957.370845700003	1958.382310400004	1959.391472100004	1960.4093441000005	1961.4226995000065	1962.176113300011	2020-06-04 10:59:38.770859	12.5104222409443	9.67563365648371	0.0	9.67563365648371	12.5104222409443	0.0	-12.5104222409443	9.67563365648371	0.0	12.5104222409443	0.0	-9.67563365648371	9.29204442677158	8.932648122046075	-0.35025471108314005	7.781184337400285	10.704345997862033	-0.35025471108314005	-9.999588957269827	9.823067856775237	0.5310234300036563	7.618688059629861	0.9637053513330737	4	correct	1.0
140.1328844000093	8.344424700000673	nogo_reward	1.0	140.1423617999974	141.57093789998885	144.09061809998843	1.42857609999146	141.15011519999848	143.0764861999926	147.13337509999133	0.42082269999036725	1.0141318999958457	1.3534114000067348	146.12990709999622	0.3913154000038048	145.09501549998845	2	1	77	4	nogo_reward	1	0	1	0	0	1	0	0.0	1.0	1	1.0	0.3913154000038048	1822.057725800012	1962.2000876000093	1963.2078410000104	1963.6286637000007	1965.1342120000045	1966.1483439000003	1967.1527413000003	1968.187632900008	1969.1911009000032	1970.54451230001	2020-06-04 10:59:38.770859	6.80603275620844	0.0	9.63033078219086	9.63021711233609	2.82429802598242	9.63033078219086	-6.80603275620844	9.63033078219086	0.0	9.63033078219086	2.82429802598242	0.048638632503129386	3.5876549420357216	-0.7429855344376347	9.28007607110772	7.735767793252666	1.018221782900153	9.28007607110772	-0.2753166682829879	6.9429763980217984	3.3553214559860765	7.5733851853370115	0.9637053513330737	4	correct	1.0
148.52570830000354	7.798539700001356	go_reward	0.3597348000039346	148.53518569999164	149.9225876999992	152.46562579998886	1.3874020000075689	149.53053819999332	151.4518716000025	155.52563479999685	0.39204950000589633	1.0137541999863515	0.8080905999961487	154.50367839999694	0.9487770999985514	153.48175130000163	2	1	78	3	go_reward	1	1	0	1	1	1	1	0.0	0.0	1	0.3597348000039346	0.9487770999985514	1822.057725800012	1970.5929115000035	1971.5882640000052	1971.980313500011	1973.5095974000144	1974.5233516000008	1975.5394771000135	1976.5614042000088	1977.5833606000087	1978.391451200005	2020-06-04 10:59:38.770859	4.65841802345214	3.22320473181939	0.0	3.22320473181939	4.65841802345214	0.0	-4.65841802345214	3.22320473181939	0.0	4.65841802345214	0.0	6.4557646828746	1.4400402092794216	2.4802191973817553	-0.35025471108314005	1.3287554127359655	2.8523417803698727	-0.35025471108314005	6.131809382088482	1.9710636392830776	0.5310234300036563	1.1662591349655416	0.9637053513330737	4	wrong	1.0
156.3494716000132	9.598567900000717	nogo_reward	1.0	156.3589490000013	159.06222680000087	161.59168610000097	2.7032777999995687	157.359702199989	160.567453099997	164.6444774999984	1.702524600011884	1.0242330000039601	1.3130394000036176	163.6311614000008	0.2787433000048622	162.60168989999534	2	1	79	4	nogo_reward	1	0	1	0	0	1	1	1.0	1.0	1	1.0	0.2787433000048622	1822.057725800012	1978.4166748000132	1979.4174280000009	1981.1199526000128	1982.625178900009	1983.6494119000129	1984.6594157000072	1985.6888872000127	1986.7022033000103	1988.015242700014	2020-06-04 10:59:38.770859	6.82671251061669	0.0	9.65720397286331	9.65714302137966	2.83049146224662	9.65720397286331	-6.82671251061669	9.65720397286331	0.0	9.65720397286331	2.83049146224662	0.021765441830678967	3.6083346964439715	-0.7429855344376347	9.30694926178017	7.762693702296236	1.024415219164353	9.30694926178017	-0.3021898589554383	6.969849588694249	3.361514892250276	7.600258376009462	0.9637053513330737	4	correct	1.0
165.97274110000603	9.118651500000851	nogo_reward	1.0	165.98221849999413	168.42225540000095	170.95095169999718	2.4400369000068167	166.9828937999996	169.9355495999921	173.99803829999314	1.439361600001348	1.0154021000050761	1.1028317000018433	172.9838630000013	0.3735410000081174	171.96595829998842	2	1	80	4	nogo_reward	1	0	1	0	0	1	0	1.0	0.0	1	1.0	0.3735410000081174	1822.057725800012	1988.039944300006	1989.0406196000115	1990.4799812000128	1991.993275400004	1993.008677500009	1994.0236841000003	1995.0415888000132	1996.055764100005	1997.1585958000069	2020-06-04 10:59:38.770859	6.83566270226095	0.0	9.66886430219072	9.66883106597714	2.83320159992977	9.66886430219072	-6.83566270226095	9.66886430219072	0.0	9.66886430219072	2.83320159992977	0.010105112503270064	3.6172848880882316	-0.7429855344376347	9.31860959110758	7.774381746893715	1.0271253568475032	9.31860959110758	-0.3138501882828472	6.981509918021658	3.3642250299334266	7.611918705336871	0.9637053513330737	4	wrong	1.0
175.1163435000053	9.573919100003195	go_punish	0.2482699000102002	175.1258208999934	177.5932228999884	180.14287159999367	2.4674019999949905	176.12532669999973	179.1231380999966	183.20820999999682	1.4678961999886724	1.0197334999970735	1.4915299999997842	182.19607469999778	0.2945179999951506	181.15997059999813	2	1	81	1	go_punish	1	0	-1	1	1	1	0	0.0	1.0	0	0.2482699000102002	0.2945179999951506	1822.057725800012	1997.1835467000053	1998.1830525000116	1999.6509487000003	2001.1808639000085	2002.2005974000056	2003.21769640001	2004.2538005000097	2005.2659358000087	2006.7574658000085	2020-06-04 10:59:38.770859	4.51407549392942	-0.0756437842042032	-3.89215814430662	-0.0881213780258729	0.621917349622794	-3.89215814430662	-4.51407549392942	-0.0756437842042032	-3.89215814430662	0.621917349622794	-3.89215814430662	0.0756437842042032	1.2956976797567017	-0.8186293186418379	-4.242412855389761	-1.9825706971092973	-1.1841588934594731	-4.242412855389761	-0.24831151658191408	-2.0654370345462683	-3.361134714302964	-2.1325893810580516	-2.9284527929735464	4	correct	1.0
184.71645870000089	8.441126300007454	go_punish	0.3951918000093428	184.72593609998899	186.28917799999203	188.83027669999888	1.5632419000030495	185.7345631999924	187.80917090000003	191.885372399993	0.5546147999996265	1.0211057999988498	1.2816900000034366	190.87578639999288	0.3849418000027071	189.8475416000001	2	1	82	1	go_punish	1	0	-1	1	1	1	0	0.0	1.0	0	0.3951918000093428	0.3849418000027071	1822.057725800012	2006.7836619000009	2007.7922890000043	2008.346903800004	2009.866896700012	2010.8880025000108	2011.905267400012	2012.9335122000048	2013.943098200005	2015.2247882000083	2020-06-04 10:59:38.770859	4.56763697457494	-0.0328582338795608	-3.89215814430662	-0.0386486470796712	0.67547883026832	-3.89215814430662	-4.56763697457494	-0.0328582338795608	-3.89215814430662	0.67547883026832	-3.89215814430662	0.0328582338795608	1.3492591604022217	-0.7758437683171955	-4.242412855389761	-1.9330979661630956	-1.1305974128139469	-4.242412855389761	-0.29109706690655646	-2.0118755539007425	-3.361134714302964	-2.089803830733409	-2.9284527929735464	4	correct	1.0
193.2046593000125	8.094926299992721	go_reward	0.3037976000050548	193.2141367000006	194.7554924000001	197.29918589998897	1.5413556999994853	194.20926079999504	196.28346359999	200.34648409999522	0.5462316000050578	1.01572229999897	0.9625788999981069	199.33353679999686	0.282661300007021	198.30480729999613	2	1	83	3	go_reward	1	1	0	1	1	1	0	0.0	1.0	1	0.3037976000050548	0.282661300007021	1822.057725800012	2015.2718625000125	2016.266986600007	2016.813218200012	2018.341189400002	2019.3569117000009	2020.362533100008	2021.3912626000088	2022.4042099000071	2023.3667888000052	2020-06-04 10:59:38.770859	10.0231989056351	7.63868455397914	0.0	7.63868455397914	10.0231989056351	0.0	-10.0231989056351	7.63868455397914	0.0	10.0231989056351	0.0	2.0402848607148494	6.804821091462381	6.895699019541506	-0.35025471108314005	5.744235234895716	8.217122662552834	-0.35025471108314005	1.716329559928732	7.335844521466038	0.5310234300036563	5.581738957125292	0.9637053513330737	4	correct	1.0
201.32272630000102	9.150587800002995	nogo_reward	1.0	201.33220369998912	203.6559010999922	206.17241210000088	2.323697400003084	202.32588239999336	205.16126829999848	209.2026999999946	1.3300186999988455	1.011143800002401	1.2800914999975248	208.19364829998813	0.2898738000076264	207.18161319999513	2	1	84	4	nogo_reward	0	1	0	0	0	1	0	0.0	1.0	0	1.0	0.2898738000076264	1822.057725800012	2023.389929500001	2024.3836082000053	2025.713626900004	2027.2189941000104	2028.2301379000128	2029.239339000007	2030.2513741	2031.2604258000065	2032.540517300004	2020-06-04 10:59:38.770859	6.83969137032765	0.0	9.67412522364923	9.67410681004431	2.83443385332158	9.67412522364923	-6.83969137032765	9.67412522364923	0.0	9.67412522364923	2.83443385332158	-9.67412522364923	3.6213135561549312	-0.7429855344376347	9.32387051256609	7.779657490960886	1.0283576102393128	9.32387051256609	-9.998080524435348	6.986770839480169	3.3654572833252363	7.617179626795382	0.9637053513330737	4	correct	1.0
210.51874270000553	9.365341900004069	go_reward	0.3608160000003408	210.52822009999363	212.95065210000053	215.49487319999048	2.422432000006893	211.52290799999923	214.481993399997	218.54050039999174	1.4277441000012914	1.0128797999934704	1.353061600005958	217.52715219999686	0.4996541000000434	216.50272920000134	2	1	85	3	go_reward	0	0	1	1	1	1	1	1.0	1.0	0	0.3608160000003408	0.4996541000000434	1822.057725800012	2032.5859459000055	2033.5806338000111	2035.0083779000124	2036.539719200009	2037.5525990000024	2038.5604550000132	2039.5848780000088	2040.5982262000036	2041.9512878000096	2020-06-04 10:59:38.770859	11.6371867323354	8.96236276525471	0.0	8.96236276525471	11.6371867323354	0.0	-11.6371867323354	8.96236276525471	0.0	11.6371867323354	0.0	-8.96236276525471	8.41880891816268	8.219377230817075	-0.35025471108314005	7.067913446171286	9.831110489253133	-0.35025471108314005	-9.286318066040828	8.949832348166337	0.5310234300036563	6.905417168400861	0.9637053513330737	4	correct	1.0
219.9262870000091	9.519247199991241	nogo_punish	1.0	219.9357643999972	222.70005269999115	225.21601730000089	2.76428829999395	220.94416610000212	224.2069226000026	228.2583457000003	1.7558865999890259	1.0090946999982862	1.1966658999881474	227.2452012000001	0.3678240000008372	226.2262336999995	2	1	86	2	nogo_punish	1	-1	0	0	0	1	0	0.0	1.0	0	1.0	0.3678240000008372	1822.057725800012	2041.993490200009	2043.001891900014	2044.757778500003	2046.2646484000145	2047.2737431000128	2048.2839595000114	2049.302927000012	2050.316071500012	2051.5127374000003	2020-06-04 10:59:38.770859	3.1590723302784	-3.89215814430662	-0.0208579424479278	-0.0208699590689768	-3.17993027272633	-0.0208579424479278	-3.1590723302784	-0.0208579424479278	-3.89215814430662	-0.0208579424479278	-3.17993027272633	0.0208579424479278	-0.059305483894318556	-4.635143678744255	-0.37111265353106787	-1.915319278152401	-4.986006515808597	-0.37111265353106787	-0.30309735833818946	-2.70821232661699	-2.648906842722674	-2.077803539301776	-2.9284527929735464	4	correct	1.0
229.48916390001273	7.9198048999969615	go_reward	0.316037900003721	229.49864130000083	230.83235479999007	233.37419679999607	1.3337134999892442	230.50572580000176	232.35463789998926	236.41856159998883	0.3266289999883156	1.019558900006814	0.9998846000089543	235.41403909999713	0.4204103999945801	234.38514169999712	2	1	87	3	go_reward	0	0	1	1	1	1	1	1.0	1.0	0	0.316037900003721	0.4204103999945801	1822.057725800012	2051.5563671000127	2052.5634516000137	2052.890080600002	2054.412363700001	2055.431922600008	2056.442867500009	2057.471764900009	2058.4762874000007	2059.4761720000097	2020-06-04 10:59:38.770859	4.32607000463992	2.95231883864617	0.0	2.95231883864617	4.32607000463992	0.0	-4.32607000463992	2.95231883864617	0.0	4.32607000463992	0.0	-2.95231883864617	1.1076921904672017	2.2093333042085352	-0.35025471108314005	1.0578695195627454	2.519993761557653	-0.35025471108314005	-3.276274139432287	1.6387156204708577	0.5310234300036563	0.8953732417923215	0.9637053513330737	4	correct	1.0
237.45119570000702	8.477601199992932	nogo_punish	1.0	237.46067309999512	239.1243995999978	241.65102219999312	1.6637265000026673	238.46922949999885	240.64061409999	244.70570049999583	0.6551700999989407	1.0104081000031329	1.232573799992224	243.69330390000027	0.3775499999901512	242.6597667999888	2	1	88	2	nogo_punish	1	-1	0	0	0	1	1	1.0	1.0	0	1.0	0.3775499999901512	1822.057725800012	2059.518398900007	2060.5269553000107	2061.1821254000097	2062.698339900002	2063.708748000005	2064.7174926000007	2065.751029700012	2066.7634263000077	2067.9960001	2020-06-04 10:59:38.770859	3.16766443414924	-3.89215814430662	-0.0098355379290437	-0.0098426358296008	-3.17749997207829	-0.0098355379290437	-3.16766443414924	-0.0098355379290437	-3.89215814430662	-0.0098355379290437	-3.17749997207829	0.0098355379290437	-0.05071338002347847	-4.635143678744255	-0.3600902490121837	-1.9042919549130253	-4.983576215160557	-0.3600902490121837	-0.3141197628570736	-2.697189922098106	-2.646476542074634	-2.066781134782892	-2.9284527929735464	4	correct	1.0
245.9559294000062	8.774388499994984	go_punish	0.2593524999974761	245.9654067999943	247.77605289999315	250.32046129999821	1.8106460999988485	246.96343419999198	249.30816639999125	253.3862120999986	0.8126187000011669	1.0122949000069639	1.3535831999906804	252.37368699999956	0.3243780000047991	251.33814300000108	2	1	89	1	go_punish	1	0	-1	1	1	1	0	0.0	1.0	0	0.2593524999974761	0.3243780000047991	1822.057725800012	2068.023132600006	2069.021160000004	2069.833778700005	2071.365892200003	2072.37818710001	2073.395868800013	2074.4314128000115	2075.4439379000105	2076.797521100001	2020-06-04 10:59:38.770859	4.59022520569529	-0.014873089903055	-3.89215814430662	-0.0176464247100593	0.698067061388663	-3.89215814430662	-4.59022520569529	-0.014873089903055	-3.89215814430662	0.698067061388663	-3.89215814430662	0.014873089903055	1.371847391522572	-0.7578586243406897	-4.242412855389761	-1.9120957437934838	-1.108009181693604	-4.242412855389761	-0.30908221088306226	-1.9892873227803993	-3.361134714302964	-2.0718186867569033	-2.9284527929735464	4	correct	1.0
254.7543282000122	9.01220830000193	nogo_reward	1.0	254.7638056000003	256.81062530000077	259.3444291999915	2.0468197000004693	255.7745082999902	258.32156309999186	262.3757312999953	1.036117000010563	1.0228660999996464	1.4002826000069035	261.37279239999793	0.3189372999913757	260.3595177999962	2	1	90	4	nogo_reward	1	0	1	0	0	1	0	0.0	1.0	1	1.0	0.3189372999913757	1822.057725800012	2076.821531400012	2077.832234100002	2078.8683511000127	2080.3792889000038	2081.4021550000034	2082.417243600008	2083.43051820001	2084.433457100007	2085.833739700014	2020-06-04 10:59:38.770859	1.78747225438029	0.0	3.2225239264483	3.22251356892687	1.435051672068	3.2225239264483	-1.78747225438029	3.2225239264483	0.0	3.2225239264483	1.435051672068	6.45644548824569	-1.4309055597924285	-0.7429855344376347	2.87226921536516	1.3280642498434454	-0.371024571014267	2.87226921536516	6.132490187459572	0.5351695422792377	1.9660751020716563	1.1655783295944517	0.9637053513330737	4	correct	1.0
263.7944338000091	8.66094269999303	go_punish	0.2812927000049967	263.8039111999972	265.8561297999988	268.41942549998953	2.052218600001652	264.8100477999981	267.3986523999922	271.4501765000025	1.0460820000007516	1.0207730999973137	1.0146773999877041	270.4362676000021	0.2856204999989131	269.4239589999927	2	1	91	1	go_punish	1	0	-1	1	1	1	1	0.0	0.0	0	0.2812927000049967	0.2856204999989131	1822.057725800012	2085.861637000009	2086.86777360001	2087.9138556000107	2089.456378200004	2090.4771513000014	2091.4816848000046	2092.493993400014	2093.5079023000144	2094.522579700002	2020-06-04 10:59:38.770859	4.60017473472866	-0.0069751240320625	-3.89215814430662	-0.0083412347998337	0.708016590422034	-3.89215814430662	-4.60017473472866	-0.0069751240320625	-3.89215814430662	0.708016590422034	-3.89215814430662	0.0069751240320625	1.3817969205559417	-0.7499606584696972	-4.242412855389761	-1.9027905538832581	-1.098059652660233	-4.242412855389761	-0.31698017675405477	-1.9793377937470282	-3.361134714302964	-2.063920720885911	-2.9284527929735464	4	wrong	1.0
272.5024442000142	9.54221939999843	go_reward	0.3124341999937314	272.5119216000023	274.99003780000226	277.5316538999907	2.4781161999999313	273.51592999999434	276.51798649999614	280.5873218999916	1.4741078000079142	1.0136673999945742	1.466819100009161	279.57420669999624	0.3694746999972267	278.5469136999893	2	1	92	3	go_reward	1	1	0	1	1	1	0	0.0	1.0	1	0.3124341999937314	0.3694746999972267	1822.057725800012	2094.569647400014	2095.5736558000062	2097.047763600014	2098.575712300008	2099.5893797000026	2100.604639500001	2101.631932500008	2102.6450477000035	2104.1118668000126	2020-06-04 10:59:38.770859	2.0345552423393	1.07509877536958	0.0	1.07509877536958	2.0345552423393	0.0	-2.0345552423393	1.07509877536958	0.0	2.0345552423393	0.0	8.603870639324409	-1.1838225718334185	0.3321132409319453	-0.35025471108314005	-0.8193505437138444	0.22847899925703286	-0.35025471108314005	8.279915338538292	-0.6527991418297625	0.5310234300036563	-0.9818468214842684	0.9637053513330737	4	correct	1.0
282.0741676000041	9.452007500003674	go_punish	0.2623319999984232	282.0836449999922	284.7101514999961	287.24640179998846	2.6265065000038703	283.1016447000004	286.23205809999513	290.3022987000006	1.6085067999956664	1.0143436999933328	1.2333537999952568	289.2897191999948	0.3546963999979198	288.2608344999901	2	1	93	1	go_punish	0	-1	0	1	1	1	1	1.0	1.0	-1	0.2623319999984232	0.3546963999979198	1822.057725800012	2104.141370800004	2105.1593705000123	2106.767877300008	2108.289783900007	2109.3041276000004	2110.318560300002	2111.3474450000067	2112.3600245000125	2113.5933783000078	2020-06-04 10:59:38.770859	4.6047236921576	-0.0033743853641539	-3.89215814430662	-0.004064573228844	0.712565547850977	-3.89215814430662	-4.6047236921576	-0.0033743853641539	-3.89215814430662	0.712565547850977	-3.89215814430662	-5.917380418266146	1.3863458779848812	-0.7463599198017886	-4.242412855389761	-1.8985138923122684	-1.09351069523129	-4.242412855389761	-6.241335719052263	-1.9747888363180852	-3.361134714302964	-2.0603199822180023	-2.9284527929735464	4	correct	1.0
291.5491703000009	8.905731000006199	nogo_reward	1.0	291.558647699989	293.4835062999921	296.01165849999256	1.9248586000030627	292.561996699995	294.9985502999923	299.0647348999921	0.9215095999970799	1.0131082000002607	1.3996438000031048	298.05190019999304	0.3883040000073379	297.0281506999893	2	1	94	4	nogo_reward	1	0	1	0	0	1	0	0.0	1.0	1	1.0	0.3883040000073379	1822.057725800012	2113.616373500001	2114.619722500007	2115.541232100004	2117.056276100004	2118.0693843000045	2119.085876500001	2120.109626000005	2121.122460700004	2122.522104500007	2020-06-04 10:59:38.770859	5.25393136562799	0.0	7.6383703763433	7.63836446459968	2.3844390107153	7.6383703763433	-5.25393136562799	7.6383703763433	0.0	7.6383703763433	2.3844390107153	2.04059903835069	2.0355535514552714	-0.7429855344376347	7.288115665260159	5.743915145516255	0.5783627676330332	7.288115665260159	1.7166437375645727	4.951015992174238	2.915462440718956	5.581424779489451	0.9637053513330737	4	correct	1.0
300.4798938000024	8.32353160000639	nogo_reward	1.0	300.4893711999905	302.2946973999931	304.83119559999636	1.8053262000025825	301.5078718000011	303.8108183000006	307.8921963999894	0.7868255999919711	1.0203772999957437	0.9207064000074752	306.87189689998945	0.2835630999907153	305.84791009999776	2	1	95	4	nogo_reward	0	1	0	0	0	1	0	0.0	1.0	0	1.0	0.2835630999907153	1822.057725800012	2122.5470970000024	2123.565597600013	2124.352423200005	2125.8685441000125	2126.8889214000083	2127.9056359000097	2128.9296227000013	2129.9499222000013	2130.870628600009	2020-06-04 10:59:38.770859	6.28742688352775	0.0	8.96221502963206	8.96221160731429	2.67478814610432	8.96221502963206	-6.28742688352775	8.96221502963206	0.0	8.96221502963206	2.67478814610432	-8.96221502963206	3.069049069355031	-0.7429855344376347	8.61196031854892	7.067762288230865	0.8687119030220531	8.61196031854892	-9.286170330418178	6.274860645462999	3.205811576107976	6.905269432778212	0.9637053513330737	4	correct	1.0
308.8477516000132	7.794121599989012	nogo_punish	1.0	308.8572290000013	310.2237299999981	312.7526413000012	1.3665009999967879	309.8633293000023	311.73798939998983	315.8074268999919	0.36040069999580737	1.0146519000113585	0.8439236999984132	314.7946421999952	0.3593556999985594	313.76624079998896	2	1	96	2	nogo_punish	0	0	-1	0	0	1	0	0.0	1.0	-1	1.0	0.3593556999985594	1822.057725800012	2130.914954800013	2131.921055100014	2132.28145580001	2133.7957152000017	2134.810367100013	2135.823966600001	2136.852368000007	2137.865152700004	2138.7090764000022	2020-06-04 10:59:38.770859	3.17159876532382	-3.89215814430662	-0.0047801680655285	-0.0047844300008316	-3.17637893338934	-0.0047801680655285	-3.17159876532382	-0.0047801680655285	-3.89215814430662	-0.0047801680655285	-3.17637893338934	-5.915974635564771	-0.04677904884889861	-4.635143678744255	-0.35503487914866855	-1.899233749084256	-4.982455176471607	-0.35503487914866855	-6.239929936350888	-2.6921345522345907	-2.6453555033856837	-2.0617257649193768	-2.9284527929735464	4	correct	1.0
316.68351700001244	8.850021299993386	nogo_punish	1.0	316.69299440000054	318.5981575999906	321.1348370999915	1.9051631999900565	317.6927782999999	320.11405150000087	324.1904087000005	0.9053792999907273	1.0207855999906315	1.3526069999934407	323.1705127999887	0.2987050999945495	322.14084779999416	2	1	97	2	nogo_punish	1	-1	0	0	0	1	0	0.0	1.0	0	1.0	0.2987050999945495	1822.057725800012	2138.7507202000124	2139.7505041000118	2140.6558834000025	2142.1717773000128	2143.1925629000034	2144.198573600006	2145.2282386000006	2146.2481345000124	2147.600741500006	2020-06-04 10:59:38.770859	0.102255601055359	-3.89215814430662	-3.89454489401365	-3.89454749425354	-3.99680049506901	-3.89454489401365	-0.102255601055359	-3.89454489401365	-3.89215814430662	-3.89454489401365	-3.99680049506901	3.89454489401365	-3.1161222131173596	-4.635143678744255	-4.24479960509679	-5.788996813336965	-5.802876738151277	-4.24479960509679	3.570589593227533	-6.581899278182712	-3.465777065065354	-5.951490490867498	-2.9284527929735464	4	correct	1.0
325.55954750000114	7.970314300007885	go_punish	0.3307113999908324	325.56902489998924	327.01283279999984	329.55873330000054	1.4438079000105972	326.57524339998804	328.5491503999949	332.5928434999953	0.43758940001180235	1.0095829000056256	0.946495700001833	331.589227299992	0.3208801000000676	330.5774430999884	2	1	98	1	go_punish	1	0	-1	1	1	1	0	0.0	1.0	0	0.3307113999908324	0.3208801000000676	1822.057725800012	2147.626750700001	2148.6329692	2149.0705586000117	2150.606876200007	2151.6164591000124	2152.6351689000003	2153.646953100004	2154.650569300007	2155.597065000009	2020-06-04 10:59:38.770859	-0.106241162849527	-3.89383640210988	-3.89215814430662	-3.89419327330934	-3.99839930715615	-3.89215814430662	0.106241162849527	-3.89383640210988	-3.89215814430662	-3.99839930715615	-3.89215814430662	3.89383640210988	-3.3246189770222454	-4.6368219365475145	-4.242412855389761	-5.7886425923927645	-5.804475550238417	-4.242412855389761	3.569881101323763	-6.685753691325212	-3.361134714302964	-5.950781998963729	-2.9284527929735464	4	correct	1.0
333.55789690000506	9.265329700007442	go_punish	0.3145948000019416	333.56737429999316	335.8558564999987	338.40326809999556	2.2884822000055465	334.5746872999882	337.38068729999964	341.44227780000097	1.2811692000104813	1.0225807999959216	1.390426199999638	340.4384580999906	0.3527773999958299	339.41974600000026	2	1	99	1	go_punish	1	0	-1	1	1	1	0	0.0	1.0	0	0.3145948000019416	0.3527773999958299	1822.057725800012	2155.625100100005	2156.6324131	2157.9135823000106	2159.4384131000115	2160.4609939000075	2161.477471800012	2162.4961839000025	2163.500003600013	2164.8904298000125	2020-06-04 10:59:38.770859	3.07117654873372	-1.26728210914755	-3.89215814430662	-1.26747064294443	-0.820981595572904	-3.89215814430662	-3.07117654873372	-1.26728210914755	-3.89215814430662	-0.820981595572904	-3.89215814430662	1.26728210914755	-0.14720126543899825	-2.0102676435851845	-4.242412855389761	-3.1619199620278544	-2.627057838655171	-4.242412855389761	0.9433268083614326	-3.5083359797419664	-3.361134714302964	-3.3242277060013983	-2.9284527929735464	4	correct	1.0
342.86537110000813	8.069031399994856	nogo_punish	1.0	342.87484849999623	344.2344899999882	346.7605795999991	1.3596414999919944	343.8743754999889	345.74867239999026	349.80992269999183	0.36011449999932665	1.0119072000088636	1.1339571999992586	348.7983740999923	0.3678405000100611	347.7696681999953	2	1	100	2	nogo_punish	1	-1	0	0	0	1	0	0.0	1.0	0	1.0	0.3678405000100611	1822.057725800012	2164.932574300008	2165.932101300001	2166.2922158	2167.806398200002	2168.818305400011	2169.827394000007	2170.856099900004	2171.8676485000037	2173.001605700003	2020-06-04 10:59:38.770859	2.17825032361701	-3.89215814430662	-1.26764749001701	-1.26764910109078	-3.44589781363403	-1.26764749001701	-2.17825032361701	-1.26764749001701	-3.89215814430662	-1.26764749001701	-3.44589781363403	1.26764749001701	-1.0401274905557085	-4.635143678744255	-1.61790220110015	-3.162098420174204	-5.251974056716297	-1.61790220110015	0.9436921892308927	-3.955001874186072	-2.914874383630374	-3.324593086870858	-2.9284527929735464	4	correct	1.0
350.9627117000057	8.721172899997327	go_punish	0.8831843999942066	350.9721890999938	352.6872501999899	355.2387026999934	1.7150610999960918	351.9786944999944	354.21851510000147	358.3029773000019	0.7085556999954861	1.0201875999919139	1.3903846999892266	357.28845779999415	0.3504075999953784	356.25194209998904	2	1	101	1	go_punish	1	0	-1	1	1	1	1	0.0	0.0	0	0.8831843999942066	0.3504075999953784	1822.057725800012	2173.0299149000057	2174.0364203000063	2174.7449760000018	2176.2762409000134	2177.2964285000053	2178.309667900001	2179.346183600006	2180.360703100014	2181.751087800003	2020-06-04 10:59:38.770859	4.055363224228	-0.455524859011178	-3.89215814430662	-0.455626492437566	0.163205079921372	-3.89215814430662	-4.055363224228	-0.455524859011178	-3.89215814430662	0.163205079921372	-3.89215814430662	0.455524859011178	0.836985410055282	-1.1985103934488128	-4.242412855389761	-2.3500758115209903	-1.642871163160895	-4.242412855389761	0.13156955822506072	-2.5241493042476906	-3.361134714302964	-2.512470455865026	-2.9284527929735464	4	wrong	1.0
359.7286909000102	8.751312499997312	nogo_punish	1.0	359.7381682999983	362.14825159999623	364.6739375999898	2.4100832999979502	360.7416558999978	363.6540099999986	367.71464500000025	1.4065956999984337	1.019927599991206	0.7748357999953441	366.7092426999882	0.3501074000087101	365.6924256999921	2	1	102	2	nogo_punish	1	-1	0	0	0	1	1	0.0	0.0	0	1.0	0.3501074000087101	1822.057725800012	2181.79589410001	2182.7993817000097	2184.205977400008	2185.7117358000105	2186.7316634000017	2187.750151500004	2188.7669685	2189.772370800012	2190.5472066000075	2020-06-04 10:59:38.770859	2.81773160537534	-3.89215814430662	-0.455717354447157	-0.455718367508265	-3.2734489598225	-0.455717354447157	-2.81773160537534	-0.455717354447157	-3.89215814430662	-0.455717354447157	-3.2734489598225	0.455717354447157	-0.40064620879737856	-4.635143678744255	-0.8059720655302971	-2.350167686591689	-5.079525202904767	-0.8059720655302971	0.1317620536610397	-3.1430717386162192	-2.742425529818844	-2.5126629513010053	-2.9284527929735464	4	wrong	1.0
368.505711200007	8.928165999997873	go_punish	0.2751602000062121	368.5151885999951	370.36925969999015	372.9093043999894	1.8540710999950534	369.5244202999895	371.8989237999924	375.95415069999603	0.8448394000006374	1.0103805999970064	1.4892038999969373	374.9360177999922	1.0	373.92709440000203	2	1	103	1	go_punish	1	0	-1	1	1	1	1	n/a	0.0	-1	0.2751602000062121	1.0	1822.057725800012	2190.572914400007	2191.5821461000014	2192.426985500002	2193.9566496000043	2194.9670302000013	2195.984820200014	2196.993743600004	2198.011876500008	2199.501080400005	2020-06-04 10:59:38.770859	4.3941831562809	-0.176519488214596	-3.89215814430662	-0.176575338007754	0.502025011974274	-3.89215814430662	-4.3941831562809	-0.176519488214596	-3.89215814430662	0.502025011974274	-3.89215814430662	0.176519488214596	1.1758053421081818	-0.9195050226522308	-4.242412855389761	-2.0710246570911783	-1.304051231107993	-4.242412855389761	-0.14743581257152127	-2.185329372194788	-3.361134714302964	-2.2334650850684445	-2.9284527929735464	4	missed	0.0
377.479321400009	8.831261999992876	go_reward	0.3202943000069354	377.4887987999971	379.25893559999554	381.8037785999916	1.770136799998454	378.4938523000021	380.7903682999897	384.8530422999904	0.765083299993421	1.0134103000018513	1.46701849999954	383.84004039999877	0.4166932000080123	382.81101330000115	2	1	104	3	go_reward	0	0	1	1	1	1	0	0.0	1.0	0	0.3202943000069354	0.4166932000080123	1822.057725800012	2199.546524600009	2200.551578100014	2201.3166614000074	2202.8480941000016	2203.8615044000035	2204.868739100013	2205.8977662000107	2206.9107681000023	2208.377786600002	2020-06-04 10:59:38.770859	9.08956583642253	6.87636726049112	0.0	6.87636726049112	9.08956583642253	0.0	-9.08956583642253	6.87636726049112	0.0	9.08956583642253	0.0	-6.87636726049112	5.871188022249811	6.133381726053486	-0.35025471108314005	4.981917941407696	7.283489593340263	-0.35025471108314005	-7.200322561277238	6.402211452253468	0.5310234300036563	4.8194216636372715	0.9637053513330737	4	correct	1.0
386.3384751000124	9.32290619998821	nogo_reward	1.0	386.3479525000005	388.7034552999978	391.2209558999891	2.355502799997339	387.3546113999912	390.1950073999908	394.2872093999906	1.3488439000066137	1.0259484999983215	1.3836492999980692	393.27378609999164	0.4390031999937491	392.2446203000002	2	1	105	4	nogo_reward	1	0	1	0	0	1	0	0.0	1.0	1	1.0	0.4390031999937491	1822.057725800012	2208.4056783000124	2209.412337200003	2210.7611811000097	2212.2527332000027	2213.278681700001	2214.302346100012	2215.3315119000035	2216.3449352000025	2217.7285845000006	2020-06-04 10:59:38.770859	1.57851443557752	0.0	2.95224828109788	2.95224627243063	1.37373384552035	2.95224828109788	-1.57851443557752	2.95224828109788	0.0	2.95224828109788	1.37373384552035	6.72672113359611	-1.6398633785951984	-0.7429855344376347	2.60199357001474	1.0577969533472058	-0.43234239756191695	2.60199357001474	6.402765832809992	0.2648938969288177	1.9047572755240063	0.8953026842440317	0.9637053513330737	4	correct	1.0
395.70767830000864	9.143569299994851	nogo_punish	1.0	395.71715569999674	398.24328119998995	400.7750030999889	2.5261254999932135	396.7206701999969	399.75699749999353	403.8204688999979	1.5226109999930486	1.0180055999953765	1.0402560999937123	402.8077071000009	0.2700391999969724	401.7904709000002	2	1	106	2	nogo_punish	1	-1	0	0	0	1	0	0.0	1.0	0	1.0	0.2700391999969724	1822.057725800012	2217.7748815000086	2218.778396000009	2220.301007000002	2221.8147233000054	2222.832728900001	2223.848196700012	2224.865432900013	2225.8781947000098	2226.9184508000035	2020-06-04 10:59:38.770859	3.03700162028127	-3.89215814430662	-0.176622952877306	-0.176623598905126	-3.21362457315857	-0.176622952877306	-3.03700162028127	-0.176622952877306	-3.89215814430662	-0.176622952877306	-3.21362457315857	0.176622952877306	-0.18137619389144843	-4.635143678744255	-0.526877663960446	-2.0710729179885505	-5.019700816240837	-0.526877663960446	-0.14733234790881128	-2.8639773370463684	-2.6826011431549137	-2.2335685497311544	-2.9284527929735464	4	correct	1.0
404.87536780000687	9.56580959999701	nogo_reward	1.0	404.88484519999497	407.4760777999911	410.0057739999904	2.5912325999961467	405.90152649999095	408.9813410999925	413.03573509999865	1.5745513000001665	1.0244328999979189	1.4149196999933338	412.0327120000004	0.3496993000007933	411.0197691999931	2	1	107	4	nogo_reward	1	0	1	0	0	1	1	1.0	1.0	1	1.0	0.3496993000007933	1822.057725800012	2226.942571000007	2227.959252300003	2229.533803600003	2231.0390669000044	2232.0634998000023	2233.077495000005	2234.0904378000123	2235.0934609000105	2236.508380600004	2020-06-04 10:59:38.770859	5.16971197905121	0.0	7.52912133039254	7.52912013547204	2.35940935134133	7.52912133039254	-5.16971197905121	7.52912133039254	0.0	7.52912133039254	2.35940935134133	2.14984808430145	1.9513341648784919	-0.7429855344376347	7.1788666193093995	5.634670816388615	0.5533331082590631	7.1788666193093995	1.8258927835153325	4.841766946223478	2.8904327813449866	5.472175733538691	0.9637053513330737	4	correct	1.0
414.4652658000125	8.090548199994373	nogo_reward	1.0	414.4747432000006	416.0459274999887	418.5757213999898	1.57118429998809	415.48622900000214	417.55085229998826	421.61267209998937	0.5596984999865526	1.0248691000015242	0.9526193000056082	420.60908270000095	0.3553543000016361	419.5802336999916	2	1	108	4	nogo_reward	1	0	1	0	0	1	0	0.0	1.0	1	1.0	0.3553543000016361	1822.057725800012	2236.5324690000125	2237.543954800014	2238.1036533000006	2239.6085781	2240.6334472000017	2241.6379595000035	2242.666808500013	2243.6703979000013	2244.623017200007	2020-06-04 10:59:38.770859	6.25169276842333	0.0	8.915741451191	8.9157407309401	2.66404868276767	8.915741451191	-6.25169276842333	8.915741451191	0.0	8.915741451191	2.66404868276767	0.7632279635029899	3.0333149542506113	-0.7429855344376347	8.56548674010786	7.021291411856675	0.8579724396854032	8.56548674010786	0.43927266271687265	6.228387067021938	3.195072112771326	6.858795854337151	0.9637053513330737	4	correct	1.0
422.60024	8.3438249000028	go_reward	0.3467001999961212	422.6097173999881	424.4717066000014	427.03860369999916	1.8619892000133405	423.6220165999987	426.0180120000007	430.0691806999969	0.8496900000027381	1.0205916999984765	0.8843615999940084	429.056503	0.3654993000091053	428.044093299992	2	1	109	3	go_reward	1	1	0	1	1	1	0	0.0	1.0	1	0.3467001999961212	0.3654993000091053	1822.057725800012	2244.6674432	2245.6797424000106	2246.5294324000133	2248.0757378000126	2249.096329500011	2250.101819100004	2251.114228800012	2252.1269065000088	2253.011268100003	2020-06-04 10:59:38.770859	3.42378248351921	2.21549563013774	0.0	2.21549563013774	3.42378248351921	0.0	-3.42378248351921	2.21549563013774	0.0	3.42378248351921	0.0	7.46347378455625	0.2054046693464917	1.4725100957001054	-0.35025471108314005	0.3210463110543156	1.617706240436943	-0.35025471108314005	7.139518483770132	0.7364280993501477	0.5310234300036563	0.1585500332838916	0.9637053513330737	4	correct	1.0
430.99040980001223	9.015944499987654	go_reward	1.0	430.99988720000033	432.97121189998893	435.50854840000125	1.9713246999885996	431.9970059999903	434.4873751999987	438.55337709999026	0.9742058999986511	1.0211732000025222	1.4624545999977272	437.53697339999803	0.3336405000009108	436.5158462999973	2	1	110	3	go_reward	1	1	0	1	0	0	0	0.0	1.0	0	1.0	0.3336405000009108	1822.057725800012	2253.057613000012	2254.054731800002	2255.028937700001	2256.5451010000106	2257.566274200013	2258.573572100009	2259.59469920001	2260.611102900002	2262.0735575	2020-06-04 10:59:38.770859	-9.54266676627388	7.24729208689592	0.0	7.24729208689592	9.54266676627388	0.0	9.54266676627388	0.0	7.24729208689592	0.0	9.54266676627388	0.0	-12.7610445804466	6.504306552458285	-0.35025471108314005	5.352842767812495	7.736590523191613	-0.35025471108314005	-0.3239553007861173	-2.6873543841690624	10.073690196277537	-2.0569455968538484	8.210997438228993	4	correct	1.0
440.05050090000464	7.8480754000047455	go_reward	0.3477335999923525	440.05997829999274	441.3947728999922	443.95070869999495	1.3347945999994408	441.0661183999912	442.9309919999944	447.002706399988	0.3286545000009937	1.019716700000572	0.9053473000094527	445.99860459999786	0.4689875000040047	444.96250729999224	2	1	111	3	go_reward	0	0	1	1	1	1	1	1.0	1.0	0	0.3477335999923525	0.4689875000040047	1822.057725800012	2262.1177041000046	2263.123844200003	2263.452498700004	2264.9887178000063	2266.008434500007	2267.020233100004	2268.0563304000098	2269.0604322	2269.9657795000094	2020-06-04 10:59:38.770859	8.48503832932458	7.24729208689592	0.0	2.34689333738154	8.48503832932458	0.0	-8.48503832932458	7.24729208689592	0.0	8.48503832932458	0.0	-7.24729208689592	5.266660515151861	6.504306552458285	-0.35025471108314005	0.45244401829811576	6.678962086242312	-0.35025471108314005	-7.571247387682037	5.7976839451555175	0.5310234300036563	5.190346490042071	0.9637053513330737	4	correct	1.0
447.9399605000078	8.538918299992929	nogo_punish	1.0	447.9494378999959	449.9237632000006	452.45194159999687	1.9743253000046934	448.9592004000008	451.4394646000003	455.4888096999932	0.9645627999998396	1.0124769999965793	0.9995464999956312	454.4870930999898	0.3835868999885861	453.46700330000044	2	1	112	2	nogo_punish	0	0	-1	0	0	1	0	0.0	1.0	-1	1.0	0.3835868999885861	1822.057725800012	2270.007163700008	2271.0169262000127	2271.9814890000125	2273.497190400012	2274.5096674000088	2275.5247291000123	2276.5448189000017	2277.546535500005	2278.5460820000008	2020-06-04 10:59:38.770859	3.11851393608387	-3.89215814430662	-0.0726623357912899	-0.0726627532340891	-3.19117627187516	-0.0726623357912899	-3.11851393608387	-0.0726623357912899	-3.89215814430662	-0.0726623357912899	-3.19117627187516	-5.84809246783901	-0.09986387808884833	-4.635143678744255	-0.42291704687442994	-1.9671120723175135	-4.997252514957427	-0.42291704687442994	-6.172047768625127	-2.7600167199603525	-2.660152841871504	-2.1296079326451385	-2.9284527929735464	4	correct	1.0
456.5053402000051	8.294441300007747	go_punish	0.2619434999942314	456.5148175999932	458.3086851999981	460.86103269999217	1.7938676000048872	457.52654890000144	459.839959899997	463.9095991999932	0.7821362999966368	1.0210727999951814	0.89965970000776	462.8970172999982	0.3476156999968225	461.8789398999945	2	1	113	1	go_punish	1	0	-1	1	1	1	0	0.0	1.0	0	0.2619434999942314	0.3476156999968225	1822.057725800012	2278.572543400005	2279.5842747000133	2280.36641100001	2281.897685700009	2282.918758500004	2283.9366657000064	2284.95474310001	2285.967325000005	2286.866984700013	2020-06-04 10:59:38.770859	-0.192573089769782	-3.96476380064364	-3.89215814430662	-3.96479506248407	-4.08473123407641	-3.89215814430662	0.192573089769782	-3.96476380064364	-3.89215814430662	-4.08473123407641	-3.89215814430662	3.96476380064364	-3.4109509039425006	-4.7077493350812745	-4.242412855389761	-5.859244381567494	-5.890807477158678	-4.242412855389761	3.6408084998575228	-6.772085618245473	-3.361134714302964	-6.021709397497489	-2.9284527929735464	4	correct	1.0
464.8249814000012	7.677952099998947	nogo_reward	1.0	464.8344587999893	466.18196889999695	468.7024236	1.3475101000076393	465.83868799998913	467.6786455999975	471.7486705999911	0.3432809000078123	1.023778000002494	0.7637402999971528	470.7355586999913	0.4468851999990875	469.7156133999963	2	1	114	4	nogo_reward	1	0	1	0	0	1	0	0.0	1.0	1	1.0	0.4468851999990875	1822.057725800012	2286.892184600001	2287.896413800001	2288.239694700009	2289.7363714000094	2290.760149400012	2291.773339200008	2292.793284500003	2293.806396400003	2294.5701367	2020-06-04 10:59:38.770859	6.61678277131685	0.0	9.38567325452091	9.38567281476527	2.76889048320406	9.38567325452091	-6.61678277131685	9.38567325452091	0.0	9.38567325452091	2.76889048320406	0.2932961601730799	3.3984049571441317	-0.7429855344376347	9.03541854343777	7.4912234956818455	0.9628142401217932	9.03541854343777	-0.030659140613037372	6.698318870351848	3.2999139132077167	7.328727657667061	0.9637053513330737	4	correct	1.0
472.5507269000084	8.406357700005174	nogo_punish	1.0	472.5602042999965	474.4215140000017	476.9492659999962	1.8613097000052221	473.5551870999923	475.93701919999216	479.9888177999967	0.866326900009426	1.0122468000040499	0.9777442000049632	478.98458859999687	0.6076329999923473	477.956878199999	2	1	115	2	nogo_punish	1	-1	0	0	0	1	0	0.0	1.0	0	1.0	0.6076329999923473	1822.057725800012	2294.6179301000084	2295.612912900004	2296.4792398000136	2297.994745000004	2299.006991800008	2300.014604000011	2301.0423144000088	2302.0465436000086	2303.0242878000136	2020-06-04 10:59:38.770859	0.0796095116517032	-3.89215814430662	-3.92355282008886	-3.92355309315844	-4.00316233174056	-3.92355282008886	-0.0796095116517032	-3.92355282008886	-3.89215814430662	-3.92355282008886	-4.00316233174056	3.92355282008886	-3.138768302521015	-4.635143678744255	-4.273807531172	-5.8180024122418645	-5.809238574822827	-4.273807531172	3.5995975193027427	-6.610907204257922	-3.472138901736904	-5.980498416942709	-2.9284527929735464	4	correct	1.0
480.9808973000038	9.067037400003755	nogo_reward	1.0	480.9903746999919	483.22627839999063	485.76260339999885	2.235903699998744	482.00180990000104	484.74181949999206	488.80812390000233	1.224468499989598	1.0207839000067906	1.249288199993316	487.79545089999715	0.352533899989794	486.7700962999959	2	1	116	4	nogo_reward	0	1	0	0	0	1	1	1.0	1.0	0	1.0	0.352533899989794	1822.057725800012	2303.048100500004	2304.059535700013	2305.2840042000025	2306.799545300004	2307.8203292000107	2308.827822100008	2309.853176700009	2310.865849700014	2312.1151379000075	2020-06-04 10:59:38.770859	6.75097695851279	0.0	9.55901290119916	9.5590126293176	2.80803594268638	9.55901290119916	-6.75097695851279	9.55901290119916	0.0	9.55901290119916	2.80803594268638	-9.55901290119916	3.5325991443400713	-0.7429855344376347	9.20875819011602	7.6645633102341755	1.001959699604113	9.20875819011602	-9.882968201985278	6.871658517030099	3.339059372690036	7.502067304345312	0.9637053513330737	4	correct	1.0
490.0960304000039	7.855965199996717	go_reward	0.2952383999945596	490.105507799992	491.4435999999989	494.0048209999952	1.3380922000069404	491.0971697999919	492.9799602999999	497.0508704999959	0.3464302000070347	1.0248606999953154	0.9106024999928195	496.0465543999892	0.341098899996723	495.01853159999905	2	1	117	3	go_reward	1	1	0	1	1	1	0	0.0	1.0	1	0.2952383999945596	0.341098899996723	1822.057725800012	2312.163233600004	2313.154895600004	2313.501325800011	2315.037686100012	2316.062546800007	2317.076257400011	2318.104280200001	2319.108596300008	2320.0191988000006	2020-06-04 10:59:38.770859	3.25357861619111	2.34689333738154	0.0	0.843019692466054	3.25357861619111	0.0	-3.25357861619111	2.34689333738154	0.0	3.25357861619111	0.0	7.33207607731245	0.03520080201839182	1.6039078029439056	-0.35025471108314005	-1.0514296266173704	1.4475023731088432	-0.35025471108314005	7.008120776526332	0.5662242320220479	0.5310234300036563	0.2899477405276918	0.9637053513330737	4	correct	1.0
497.9947063000002	8.099772200002917	nogo_punish	1.0	498.0041836999883	499.5748396999991	502.09440779998863	1.5706560000107856	499.0136908999996	501.0826693999991	505.1357317999939	0.5611487999995006	1.0117383999895537	0.9682240999973146	504.12250519999384	0.3076032999961171	503.10404929998936	2	1	118	2	nogo_punish	1	-1	0	0	0	1	0	0.0	1.0	0	1.0	0.3076032999961171	1822.057725800012	2320.0619095	2321.0714167000115	2321.632565500011	2323.140395200011	2324.1521336000005	2325.1617751000013	2326.1802310000057	2327.193457600006	2328.161681700003	2020-06-04 10:59:38.770859	2.16818386698235	-3.89215814430662	-1.28056302993882	-1.28056321059691	-3.44874689692117	-1.28056302993882	-2.16818386698235	-1.28056302993882	-3.89215814430662	-1.28056302993882	-3.44874689692117	1.28056302993882	-1.0501939471903685	-4.635143678744255	-1.63081774102196	-3.1750125296803344	-5.254823140003437	-1.63081774102196	0.9566077291527026	-3.967917414107882	-2.917723466917514	-3.337508626792668	-2.9284527929735464	4	correct	1.0
506.12145990000886	9.545395099994948	go_punish	0.2648124999977881	506.13093729999696	508.85021989999245	511.4145849999916	2.719282599995495	507.12961979999113	510.4036417999889	514.4793309999952	1.7206001000013202	1.0109432000026572	1.1970013999966795	513.4670857000021	0.3310233999945922	512.4326876999987	2	1	119	1	go_punish	1	0	-1	1	1	1	0	0.0	1.0	0	0.2648124999977881	0.3310233999945922	1822.057725800012	2328.188663100009	2329.187345600003	2330.9079457000043	2332.461367600001	2333.4723108000035	2334.4904135000106	2335.524811500014	2336.537056800007	2337.734058200004	2020-06-04 10:59:38.770859	3.03400939907251	-1.29778930851127	-3.89215814430662	-1.29780712247588	-0.858148745234114	-3.89215814430662	-3.03400939907251	-1.29778930851127	-3.89215814430662	-0.858148745234114	-3.89215814430662	1.29778930851127	-0.18436841510020852	-2.0407748429489048	-4.242412855389761	-3.192256441559304	-2.664224988316381	-4.242412855389761	0.9738340077251526	-3.5455031294031762	-3.361134714302964	-3.3547349053651185	-2.9284527929735464	4	correct	1.0
515.7111036000131	8.525634399994033	go_reward	0.3127007000002777	515.7205810000012	517.1858898999928	519.7364180000006	1.465308899991669	516.7183867999995	518.7228558999925	522.7668521000012	0.46750309999333695	1.01356210000813	1.47936329999402	521.7731640999993	0.8214980000047944	520.7510065999961	2	1	120	3	go_reward	1	1	0	1	1	1	0	0.0	1.0	1	0.3127007000002777	0.8214980000047944	1822.057725800012	2337.778306800013	2338.7761126000114	2339.2436157000047	2340.7805817000044	2341.7941438000125	2342.808732400008	2343.8308899000112	2344.824577900013	2346.303941200007	2020-06-04 10:59:38.770859	9.4884789732721	7.29707636266231	0.0	6.78148074010813	9.4884789732721	0.0	-9.4884789732721	7.29707636266231	0.0	9.4884789732721	0.0	2.38189305203168	6.270101159099381	6.554090828224675	-0.35025471108314005	4.887031421024705	7.682402730189833	-0.35025471108314005	2.057937751245563	6.801124589103038	0.5310234300036563	5.240130765808461	0.9637053513330737	4	correct	1.0
