onset	duration	trial_type	response_time	cueOnset	targetOnset	fbOnset	cueRT	firstfixOnset	secondfixOnset	waitOnset	firstfixdur	secondfixdur	waitdur	nback_fbOnset	nback_response_time	nback_targetOnset	block	wm	trial	cue	cond	is_common	outcome_go	outcome_nogo	key_correct	key_pressed	is_correct	key_correct_nback	key_pressed_nback	is_correct_nback	outcome	rt	rt_nback	time_scan	time_onset	time_isi1	time_circle	time_isi2	time_feedback	time_same	time_correct	time_iti	time_done	timestamp_scan	DV	Qgo	Qnogo	SV	Wgo	Wnogo	mDV	Qchosen	Qunchosen	Wchosen	Wunchosen	PE	DVC	QgoC	QnogoC	SVC	WgoC	WnogoC	PEC	WchosenC	WunchosenC	QchosenC	QunchosenC	run	outcome_nback	nback_targetResp
0.0	8.531082900008187	nogo_punish	0.4423972999211401	0.11729350010870121	1.543642200063914	4.176583100110349	1.4263486999552129	1.120312100043634	3.145556499948782	7.20194180007104	0.42333010002028004	1.0310266001615673	1.4464346000458477	6.197922999970672	1.0	5.1895127000753405	1	1	1	3	nogo_punish	1	-1	0	0	1	0	0	n/a	0.0	0	0.4423972999211401	1.0	462.2331792998593	462.350472799968	463.3534913999029	463.7768214999232	465.37873579980806	466.4097623999696	467.4226919999346	468.43110229982994	469.4351210999303	470.88155569997616	2020-02-08 13:09:40.310176	0.54071282239675	0.0	0.0	0.0	0.54071282239675	0.0	-0.54071282239675	0.0	0.0	0.54071282239675	0.0	-25.5530829637413	-3.7592396545035696	0.43063303702356753	1.4968394133538279	-0.4601908293447811	0.19910890639226847	1.4968394133538279	-24.72093670733237	-1.031645667378736	2.7275939871248314	-0.985830723378994	2.9133031737563893	1	missed	0.0
8.620978199876845	8.829504700144753	go_punish	0.5740562002174556	8.738271699985546	10.58613079995854	13.144081500126106	1.8478590999729931	9.746435400098619	12.124010300031046	16.1776867001318	0.8396953998599201	1.0200712000950602	1.390089699998498	15.172249099938256	1.0	14.160911499988345	1	1	2	4	go_punish	1	0	-1	1	1	1	0	n/a	0.0	-1	0.5740562002174556	1.0	462.2331792998593	470.9714509998448	471.9796146999579	472.8193100998178	474.3571895998903	475.3772607999854	476.3940907998476	477.40542839979753	478.4108659999911	479.8009556999896	2020-02-08 13:09:40.310176	0.54071282239675	0.0	0.0	0.0	0.54071282239675	0.0	-0.54071282239675	0.0	0.0	0.54071282239675	0.0	0.0	-3.7592396545035696	0.43063303702356753	1.4968394133538279	-0.4601908293447811	0.19910890639226847	1.4968394133538279	0.8321462564089288	-1.031645667378736	2.7275939871248314	-0.985830723378994	2.9133031737563893	1	missed	0.0
17.485601299908012	8.38370839995332	go_reward	0.1503730998374521	17.602894800016713	19.42763829999609	21.96641150000511	1.8247434999793768	18.60746180010034	20.957292200066206	25.033819600008485	0.8201764998957515	1.0091192999389023	0.952783599961549	24.02091130008921	0.3348065998870879	22.98646289994946	1	1	3	2	go_reward	0	0	1	1	1	1	0	0.0	1.0	0	0.1503730998374521	0.3348065998870879	462.2331792998593	479.836074099876	480.8406410999596	481.66081759985536	483.1904714999255	484.1995907998644	485.21964219980873	486.2540905999485	487.26699889986776	488.2197824998293	2020-02-08 13:09:40.310176	0.54071282239675	0.0	0.0	0.0	0.54071282239675	0.0	-0.54071282239675	0.0	0.0	0.54071282239675	0.0	0.0	-3.7592396545035696	0.43063303702356753	1.4968394133538279	-0.4601908293447811	0.19910890639226847	1.4968394133538279	0.8321462564089288	-1.031645667378736	2.7275939871248314	-0.985830723378994	2.9133031737563893	1	correct	1.0
25.90858539985493	8.377395200077501	nogo_punish	0.1752047000918537	26.02587889996363	27.418911300134027	29.949597100028825	1.393032400170398	27.028538000071535	28.93405360006733	33.004166899947506	0.3903733000624925	1.0155434999614954	1.3991072000936242	31.996387100080085	0.6404232999775559	30.963793100090754	1	1	4	3	nogo_punish	1	-1	0	0	1	0	0	0.0	1.0	-1	0.1752047000918537	0.6404232999775559	462.2331792998593	488.2590581998229	489.2617172999308	489.6520905999933	491.1672328999266	492.1827763998881	493.19697239995	494.22956639993936	495.2373461998068	496.6364533999004	2020-02-08 13:09:40.310176	0.54071282239675	0.0	0.0	0.0	0.54071282239675	0.0	-0.54071282239675	0.0	0.0	0.54071282239675	0.0	-25.5530829637413	-3.7592396545035696	0.43063303702356753	1.4968394133538279	-0.4601908293447811	0.19910890639226847	1.4968394133538279	-24.72093670733237	-1.031645667378736	2.7275939871248314	-0.985830723378994	2.9133031737563893	1	correct	1.0
34.34644200000912	8.600788499927091	nogo_reward	0.2673959000967443	34.46373550011782	36.500839099986536	39.0610059001483	2.037103599868715	35.46066080010502	38.037243900122235	42.10253509995533	1.0401782998815179	1.0237620000260677	0.9619889000895796	41.097910500131604	0.8387928998563439	40.075437300140095	1	1	5	1	nogo_reward	0	1	0	0	1	0	0	0.0	1.0	1	0.2673959000967443	0.8387928998563439	462.2331792998593	496.6969147999771	497.6938400999643	498.7340183998458	500.2704231999815	501.2941852000076	502.30861659999937	503.3310897999909	504.3357143998146	505.2977032999042	2020-02-08 13:09:40.310176	0.54071282239675	0.0	0.0	0.0	0.54071282239675	0.0	-0.54071282239675	0.0	0.0	0.54071282239675	0.0	18.2596505059561	-3.7592396545035696	0.43063303702356753	1.4968394133538279	-0.4601908293447811	0.19910890639226847	1.4968394133538279	19.09179676236503	-1.031645667378736	2.7275939871248314	-0.985830723378994	2.9133031737563893	1	correct	1.0
42.9830185000319	8.655386399943382	go_punish	1.0	43.100312000140605	44.880853000097034	47.40821010014048	1.780540999956429	44.11551710008649	46.392184700118435	50.443341400008705	0.7653359000105411	1.0160254000220448	1.3123570000752807	49.434246700024346	0.4721033999230712	48.42113850009633	1	1	6	4	go_punish	1	0	-1	1	0	0	0	0.0	1.0	-1	1.0	0.4721033999230712	462.2331792998593	505.3334912999999	506.34869639994577	507.1140322999563	508.6253639999777	509.64138939999975	510.6543177999556	511.6674259998836	512.676520699868	513.9888776999433	2020-02-08 13:09:40.310176	-0.0867442716981006	-0.837121372704351	0.0	-0.837121372704351	0.0867442716981006	0.0	0.0867442716981006	0.0	-0.837121372704351	0.0	0.0867442716981006	-25.5530829637413	-4.38669674859842	-0.4064883356807835	1.4968394133538279	-1.2973122020491321	-0.2548596443063809	1.4968394133538279	-24.72093670733237	-1.5723584897754859	2.8143382588229318	-0.985830723378994	2.076181801052038	1	correct	1.0
51.67109779990278	8.979952699970454	go_punish	0.7380208999384195	51.78839130001148	54.409027300076616	56.940046800067705	2.620636000065133	52.79826349997899	55.929706700146255	59.99337180005392	1.6107638000976294	1.01034009992145	0.7749721999280155	58.97901799995458	0.4964040999766439	57.9576692001429	1	1	7	4	go_punish	1	0	-1	1	1	1	0	0.0	1.0	0	0.7380208999384195	0.4964040999766439	462.2331792998593	514.0215705998708	515.0314427998383	516.6422065999359	518.1628860000055	519.173226099927	520.1908485000022	521.2121972998139	522.2265510999132	523.0015232998412	2020-02-08 13:09:40.310176	1.2889148894451	-0.837121372704351	-0.837121372704351	-1.6223074234321	0.451793516740751	-0.837121372704351	-1.2889148894451	-0.837121372704351	-0.837121372704351	0.451793516740751	-0.837121372704351	0.837121372704351	-3.0110375874552195	-0.4064883356807835	0.6597180406494768	-2.082498252776881	0.11018960073626949	0.6597180406494768	1.6692676291132797	-1.120564973034735	1.8904726144204802	-1.8229520960833452	2.076181801052038	1	correct	1.0
60.686612899880856	9.102655600057915	go_punish	0.424243199871853	60.80390639998956	63.35687240003614	65.91464169998659	2.552966000046581	61.81874880008405	64.88988410006283	68.95383820007561	1.5381235999520868	1.0247575999237597	0.9527237999718636	67.9416064000689	0.4842028999701142	66.92199039994745	1	1	8	4	go_punish	1	0	-1	1	1	1	1	1.0	1.0	0	0.424243199871853	0.4842028999701142	462.2331792998593	523.0370856998488	524.0519280999433	525.5900516998954	527.1230633999221	528.1478209998459	529.1551696998067	530.1747856999282	531.1870174999349	532.1397412999067	2020-02-08 13:09:40.310176	1.30622047328071	-0.785186050727752	-0.837121372704351	-1.52401668916652	0.469099100576363	-0.837121372704351	-1.30622047328071	-0.785186050727752	-0.837121372704351	0.469099100576363	-0.837121372704351	0.785186050727752	-2.9937320036196096	-0.3545530137041845	0.6597180406494768	-1.9842075185113013	0.12749518457188147	0.6597180406494768	1.6173323071366807	-1.103259389199123	1.8904726144204802	-1.7710167741067462	2.076181801052038	1	correct	1.0
69.83481289981864	9.681276500225067	nogo_punish	0.3100277001503855	69.95210639992735	72.78315040003514	75.3227536999621	2.831044000107795	70.94878820003947	74.3135784999468	78.38992829993373	1.8343621999956667	1.0091752000153065	1.2434546002186835	77.37772849993786	0.3231473998166621	76.34292490012018	1	1	9	3	nogo_punish	0	0	-1	0	1	0	0	0.0	1.0	0	0.3100277001503855	0.3231473998166621	462.2331792998593	532.1852856997866	533.1819674998987	535.0163296998944	536.5467577998061	537.5559329998214	538.5761041999795	539.6109077997971	540.623107599793	541.8665622000117	2020-02-08 13:09:40.310176	0.0867442716981006	-0.837121372704351	0.0	-0.837121372704351	0.0867442716981006	0.0	-0.0867442716981006	-0.837121372704351	0.0	0.0867442716981006	0.0	0.837121372704351	-4.213208205202219	-0.4064883356807835	1.4968394133538279	-1.2973122020491321	-0.2548596443063809	1.4968394133538279	1.6692676291132797	-1.4856142180773853	2.7275939871248314	-1.8229520960833452	2.9133031737563893	1	correct	1.0
79.55001839995384	7.862356799887493	nogo_reward	0.1718661000486463	79.66731190006254	81.09927479992626	83.6405015001074	1.43196289986372	80.67696369998163	82.62058149999945	86.67061159992596	0.4223110999446362	1.019920000107959	0.8590571000240743	85.66891460004268	0.4600241999141872	84.64908570004633	1	1	10	1	nogo_reward	1	0	1	0	1	0	0	0.0	1.0	0	0.1718661000486463	0.4600241999141872	462.2331792998593	541.9004911999218	542.9101429998409	543.3324540997855	544.8537607998587	545.8736807999667	546.8822649999056	547.902093899902	548.9037908997852	549.7628479998093	2020-02-08 13:09:40.310176	1.0186090136216	0.715353628490003	0.0	0.715353628490003	1.0186090136216	0.0	-1.0186090136216	0.715353628490003	0.0	1.0186090136216	0.0	-0.715353628490003	-3.2813434632787195	1.1459866655135704	1.4968394133538279	0.25516279914522183	0.6770050976171185	1.4968394133538279	0.11679262791892586	-0.5537494761538859	2.7275939871248314	-0.2704770948889911	2.9133031737563893	1	correct	1.0
87.4481203998439	9.62304320000112	go_reward	0.7164503999520093	87.5654138999526	90.35481290007016	92.89514470007276	2.7893990001175553	88.58077320014132	91.88497689994989	95.9699463001453	1.774039699928835	1.010167800122872	1.2185107998084277	94.95247050002223	0.3270558000076562	93.91401910013525	1	1	11	2	go_reward	0	0	1	1	1	1	0	0.0	1.0	0	0.7164503999520093	0.3270558000076562	462.2331792998593	549.7985931998119	550.8139525000006	552.5879921999294	554.1181561998092	555.128323999932	556.1471983999945	557.1856497998815	558.2031256000046	559.421636399813	2020-02-08 13:09:40.310176	0.54071282239675	0.0	0.0	0.0	0.54071282239675	0.0	-0.54071282239675	0.0	0.0	0.54071282239675	0.0	0.0	-3.7592396545035696	0.43063303702356753	1.4968394133538279	-0.4601908293447811	0.19910890639226847	1.4968394133538279	0.8321462564089288	-1.031645667378736	2.7275939871248314	-0.985830723378994	2.9133031737563893	1	correct	1.0
97.11338200001046	8.364306599833071	nogo_punish	1.0	97.23067550011916	99.22432909999048	101.75173999997793	1.9936535998713225	98.23926359997137	100.72909620008437	104.8139555000235	0.9850655000191182	1.022643799893558	0.7810265999287367	103.80107169994159	0.4984577998984605	102.77172089996753	1	1	12	3	nogo_punish	1	-1	0	0	0	1	0	0.0	1.0	0	1.0	0.4984577998984605	462.2331792998593	559.4638547999784	560.4724428998306	561.4575083998498	562.9622754999436	563.9849192998372	565.0049001998268	566.0342509998009	567.0471347998828	567.8281613998115	2020-02-08 13:09:40.310176	-0.120576016711649	-0.785186050727752	0.0	-0.785186050727752	0.120576016711649	0.0	0.120576016711649	0.0	-0.785186050727752	0.0	0.120576016711649	0.0	-4.420528493611968	-0.3545530137041845	1.4968394133538279	-1.245376880072533	-0.22102789929283254	1.4968394133538279	0.8321462564089288	-1.5723584897754859	2.8481700038364806	-0.985830723378994	2.128117123028637	1	correct	1.0
105.51142729981802	8.257200699998066	go_reward	1.0	105.62872079992673	106.9581983000972	109.4837537000422	1.3294775001704693	106.63039300008683	108.46385239996022	112.53300300007692	0.32780530001036823	1.0199013000819832	1.352918499847874	111.52961610001518	0.344063299940899	110.50199580006307	1	1	13	2	go_reward	1	1	0	1	0	0	1	1.0	1.0	0	1.0	0.344063299940899	462.2331792998593	567.861900099786	568.8635722999461	569.1913775999565	570.6970316998195	571.7169329999015	572.7351750999223	573.7627953998744	574.7661822999362	576.1191007997841	2020-02-08 13:09:40.310176	-0.54071282239675	0.0	0.0	0.0	0.54071282239675	0.0	0.54071282239675	0.0	0.0	0.0	0.54071282239675	0.0	-4.840665299297069	0.43063303702356753	1.4968394133538279	-0.4601908293447811	0.19910890639226847	1.4968394133538279	0.8321462564089288	-1.5723584897754859	3.2683068095215813	-0.985830723378994	2.9133031737563893	1	correct	1.0
113.80177649995312	8.189704800024629	nogo_reward	1.0	113.91907000006182	115.64661319996236	118.16490900004288	1.7275431999005377	114.92144259996718	117.13964680000214	121.20443430007441	0.725170599995181	1.0252622000407428	0.9043405000120401	120.19114620005718	0.3503590000327676	119.17852149996912	1	1	14	1	nogo_reward	1	0	1	0	0	1	0	0.0	1.0	1	1.0	0.3503590000327676	462.2331792998593	576.1522492999211	577.1546218998265	577.8797924998216	579.3728260998614	580.3980882999022	581.4117007998284	582.4243254999164	583.4376135999337	584.3419540999457	2020-02-08 13:09:40.310176	-0.969219769633357	0.652338239096606	0.0	0.652338239096606	0.969219769633357	0.0	0.969219769633357	0.0	0.652338239096606	0.0	0.969219769633357	18.2596505059561	-5.269172246533676	1.0829712761201735	1.4968394133538279	0.19214740975182493	0.6276158536288754	1.4968394133538279	19.09179676236503	-1.5723584897754859	3.6968137567581882	-0.985830723378994	3.565641412852995	1	correct	1.0
122.02493409998715	9.225306899985299	go_reward	0.5621712999418378	122.14222760009585	124.31692710006615	126.8567981999368	2.174699499970302	123.14531930000527	125.83851659996441	129.9054004999344	1.1716078000608832	1.018281599972397	1.4621340001467615	128.89247029996483	0.335502800066024	127.88048990000976	1	1	15	2	go_reward	0	0	1	1	1	1	1	1.0	1.0	0	0.5621712999418378	0.335502800066024	462.2331792998593	584.3754068999551	585.3784985998645	586.5501063999254	588.0716958998237	589.0899774997961	590.113669199869	591.1256495998241	592.1385797997937	593.6007137999404	2020-02-08 13:09:40.310176	0.54071282239675	0.0	0.0	0.0	0.54071282239675	0.0	-0.54071282239675	0.0	0.0	0.54071282239675	0.0	0.0	-3.7592396545035696	0.43063303702356753	1.4968394133538279	-0.4601908293447811	0.19910890639226847	1.4968394133538279	0.8321462564089288	-1.031645667378736	2.7275939871248314	-0.985830723378994	2.9133031737563893	1	correct	1.0
131.28528369986452	8.361790100112557	go_punish	0.5998041999991983	131.40257719997322	132.97122250008402	135.50613410002558	1.568645300110802	132.40890059992677	134.4918128000573	138.55208289995795	0.5623219001572579	1.0143212999682873	1.2122844001278281	137.53904780000454	0.4702219001483172	136.51971910009166	1	1	16	4	go_punish	0	-1	0	1	1	1	0	0.0	1.0	-1	0.5998041999991983	0.4702219001483172	462.2331792998593	593.6357564998325	594.642079899786	595.2044017999433	596.7249920999166	597.7393133998848	598.7528983999509	599.7722270998638	600.7852621998172	601.997546599945	2020-02-08 13:09:40.310176	1.32088560196653	-0.738830638438764	-0.837121372704351	-1.43606214732589	0.483764229262179	-0.837121372704351	-1.32088560196653	-0.738830638438764	-0.837121372704351	0.483764229262179	-0.837121372704351	-24.814252325302537	-2.9790668749337894	-0.3081976014151964	0.6597180406494768	-1.8962529766706713	0.14216031325769746	0.6597180406494768	-23.982106068893607	-1.088594260513307	1.8904726144204802	-1.724661361817758	2.076181801052038	1	correct	1.0
139.68073619995266	9.059018299914896	go_punish	0.3702771998941898	139.79802970006136	141.80780730000703	144.35761990002362	2.0097775999456644	140.80811209999962	143.33427059999673	147.3790623999667	0.9996952000074089	1.0233493000268936	1.4779856000095606	146.37339780014014	1.0	145.3625050000847	1	1	17	4	go_punish	0	-1	0	1	1	1	0	n/a	0.0	0	0.3702771998941898	1.0	462.2331792998593	602.0312089999206	603.0412913998589	604.0409865998663	605.567449899856	606.5907991998829	607.595684299944	608.6065770999994	609.612241699826	611.0902272998355	2020-02-08 13:09:40.310176	0.879373138807726	-1.53435288159148	-0.837121372704351	-2.19406481193322	0.042251766103375	-0.837121372704351	-0.879373138807726	-1.53435288159148	-0.837121372704351	0.042251766103375	-0.837121372704351	-24.01873008214982	-3.4205793380925935	-1.1037198445679124	0.6597180406494768	-2.654255641278001	-0.29935214990110653	0.6597180406494768	-23.18658382574089	-1.5301067236721109	1.8904726144204802	-2.520183604970474	2.076181801052038	1	missed	0.0
148.7787301999051	7.735703699989244	nogo_punish	0.5162184000946581	148.8960237000138	150.23259040014824	152.7790775999893	1.3365667001344264	149.8982792999596	151.76449550013064	155.82552039995795	0.33431110018864274	1.0145820998586714	0.8062070000451058	154.8215344001074	0.7676307000219822	153.79443929996347	1	1	18	3	nogo_punish	1	-1	0	0	1	0	0	0.0	1.0	-1	0.5162184000946581	0.7676307000219822	462.2331792998593	611.1292029998731	612.1314585998189	612.4657697000075	613.9976747999899	615.0122568998486	616.0276185998227	617.0547136999667	618.0586996998172	618.8649066998623	2020-02-08 13:09:40.310176	0.104049855533713	-0.785186050727752	0.0	-0.738830638438764	0.104049855533713	0.0	-0.104049855533713	-0.785186050727752	0.0	0.104049855533713	0.0	-24.767896913013548	-4.195902621366606	-0.3545530137041845	1.4968394133538279	-1.1990214677835451	-0.23755406047076855	1.4968394133538279	-23.93575065660462	-1.4683086342417728	2.7275939871248314	-1.7710167741067462	2.9133031737563893	1	correct	1.0
156.54945059982128	8.264149300055578	go_punish	1.0	156.66674409992999	158.24038000009028	160.78067489992833	1.5736359001602978	157.6785415001214	159.7561709999573	163.82818850013433	0.5618384999688715	1.0245038999710232	1.1027048998512328	162.8140251000878	0.4729150999337435	161.7930882000365	1	1	19	4	go_punish	1	0	-1	1	0	0	1	1.0	1.0	-1	1.0	0.4729150999337435	462.2331792998593	618.8999233997893	619.9117207999807	620.4735592999496	621.9893502998166	623.0138541997876	624.0262674998958	625.0472043999471	626.0613677999936	627.1640726998448	2020-02-08 13:09:40.310176	-0.923805105064873	-1.4448979810695	-0.837121372704351	-2.07060952465978	0.0866837323605219	-0.837121372704351	0.923805105064873	-0.837121372704351	-1.4448979810695	-0.837121372704351	0.0866837323605219	-24.715961591036947	-5.2237575819651925	-1.0142649440459324	0.6597180406494768	-2.5308003540045614	-0.25492018364395963	0.6597180406494768	-23.883815334628018	-2.409479862479837	2.814277719485353	-1.8229520960833452	1.4684051926868893	1	correct	1.0
164.85497309989296	8.949164099991322	go_reward	0.6420177000109106	164.97226660000166	166.83802290004684	169.39498080010532	1.8657563000451773	165.97725700004963	168.37407599994918	172.4437404000201	0.8607658999972045	1.0209048001561314	1.4776902999728918	171.44014630001044	0.353376799961552	170.41265740012756	1	1	20	2	go_reward	0	0	1	1	1	1	0	0.0	1.0	0	0.6420177000109106	0.353376799961552	462.2331792998593	627.2054458998609	628.2104362999089	629.0712021999061	630.6072552998085	631.6281600999646	632.6458366999868	633.6733255998697	634.6769196998794	636.1546099998523	2020-02-08 13:09:40.310176	0.54071282239675	0.0	0.0	0.0	0.54071282239675	0.0	-0.54071282239675	0.0	0.0	0.54071282239675	0.0	0.0	-3.7592396545035696	0.43063303702356753	1.4968394133538279	-0.4601908293447811	0.19910890639226847	1.4968394133538279	0.8321462564089288	-1.031645667378736	2.7275939871248314	-0.985830723378994	2.9133031737563893	1	correct	1.0
173.83922319998965	8.643191899871454	go_punish	1.0	173.95651670009835	175.79168110014876	178.3108358001337	1.8351644000504166	174.97236110013915	177.29559709993197	181.3660506000743	0.8193200000096112	1.015238700201735	1.233657999895513	180.35315990005626	0.5324928001500666	179.3245282999706	1	1	21	4	go_punish	1	0	-1	1	0	0	1	1.0	1.0	-1	1.0	0.5324928001500666	462.2331792998593	636.1896959999576	637.2055403999984	638.024860400008	639.5287763997912	640.544015099993	641.5577075998299	642.5863391999155	643.5992298999336	644.8328878998291	2020-02-08 13:09:40.310176	-2.05065259405108	-1.4448979810695	-1.6223074234321	-2.79642675614667	0.428345170618977	-1.6223074234321	2.05065259405108	-1.6223074234321	-1.4448979810695	-1.6223074234321	0.428345170618977	-23.9307755403092	-6.350605070951399	-1.0142649440459324	-0.12546801007827213	-3.256617585491451	0.08674125461449544	-0.12546801007827213	-23.09862928390027	-3.1946659132075856	3.1559391577438083	-2.6081381468110942	1.4684051926868893	1	correct	1.0
182.5170837000478	9.23481999989599	go_punish	0.0081297000870108	182.6343772001565	185.06293389992794	187.60191630013293	2.428556699771434	183.63964990014216	186.5904729000759	190.65740390005527	1.423283999785781	1.0114434000570327	1.2117932999972254	189.64483710005885	0.5433253000956029	188.61955279996624	1	1	22	4	go_punish	1	0	-1	1	1	1	0	0.0	1.0	0	0.0081297000870108	0.5433253000956029	462.2331792998593	644.8675565000158	645.8728292000014	647.2961131997872	648.8236521999352	649.8350955999922	650.8527320998255	651.8780163999181	652.8905831999145	654.1023764999118	2020-02-08 13:09:40.310176	3.11613080959873	-1.4448979810695	-2.36113806187087	-3.48077725107201	0.75499274772786	-2.36113806187087	-3.11613080959873	-1.4448979810695	-2.36113806187087	0.75499274772786	-2.36113806187087	1.4448979810695	-1.1838216673015896	-1.0142649440459324	-0.8642986485170423	-3.9409680804167913	0.4133888317233784	-0.8642986485170423	2.277044237478429	-0.8173657420476259	0.3664559252539612	-2.430728704448494	0.5521651118855191	1	correct	1.0
191.79823529999703	7.857652799924836	nogo_punish	0.3836646999698132	191.91552880010573	193.19246400007984	195.7380641000346	1.2769351999741048	192.91107879998168	194.7230774001219	198.77967520011595	0.28138520009815693	1.014986699912697	0.9935063999146223	197.77555939997552	0.5517867999151349	196.75126260006806	1	1	23	3	nogo_punish	1	-1	0	0	1	0	0	0.0	1.0	-1	0.3836646999698132	0.5517867999151349	462.2331792998593	654.148708099965	655.144258099841	655.4256432999391	656.9562566999812	657.9712433998939	658.9844418999273	660.0087386998348	661.0128544999752	662.0063608998898	2020-02-08 13:09:40.310176	-0.318727405301184	-1.57595201114311	0.0	-1.53435288159148	-0.318727405301184	0.0	0.318727405301184	-1.57595201114311	0.0	-0.318727405301184	0.0	-23.97713095259819	-4.618679882201503	-1.1453189741195424	1.4968394133538279	-1.9945437109362611	-0.6603313213056655	1.4968394133538279	-23.144984696189262	-1.8910858950766698	2.7275939871248314	-2.561782734522104	2.9133031737563893	1	correct	1.0
199.69194729998708	8.884825099958107	go_punish	0.1158849000930786	199.80924080009578	201.85318640014162	204.39128680014989	2.043945600045845	200.8157687000931	203.37422870006418	207.41917270002892	1.037417700048536	1.0170581000857055	1.2748932000249624	206.41591059998615	0.3803133000619709	205.4025993000251	1	1	24	4	go_punish	0	-1	0	1	1	1	1	1.0	1.0	-1	0.1158849000930786	0.3803133000619709	462.2331792998593	662.042420099955	663.0489479999524	664.0863657000009	665.6074079999235	666.6244661000092	667.6357785998844	668.6490898998454	669.6523519998882	670.9272451999132	2020-02-08 13:09:40.310176	3.12617642314359	-1.36454218202905	-2.36113806187087	-3.29072065679417	0.765038361272727	-2.36113806187087	-3.12617642314359	-1.36454218202905	-2.36113806187087	0.765038361272727	-2.36113806187087	-24.18854078171225	-1.1737760537567294	-0.9339091450054824	-0.8642986485170423	-3.750911486138951	0.4234344452682454	-0.8642986485170423	-23.35639452530332	-0.8073201285027589	0.3664559252539612	-2.3503729054080438	0.5521651118855191	1	correct	1.0
208.60977169987746	9.088987100170925	nogo_reward	0.2872607000172138	208.72706519998616	211.29866930004215	213.85607580002403	2.5716041000559926	209.7201028000564	212.83469099993823	216.90945770009426	1.5785664999857545	1.021384800085798	0.9065946000628173	215.89667790010577	0.3208067999221384	214.87210340006283	1	1	25	1	nogo_reward	1	0	1	0	1	0	0	0.0	1.0	0	0.2872607000172138	0.3208067999221384	462.2331792998593	670.9602444998454	671.9532820999157	673.5318485999014	675.0678702997975	676.0892550998833	677.1052826999221	678.129857199965	679.1426369999535	680.0492316000164	2020-02-08 13:09:40.310176	0.0284694168752478	0.652338239096606	0.715353628490003	1.31282046530074	0.743823045365251	0.715353628490003	-0.0284694168752478	0.652338239096606	0.715353628490003	0.743823045365251	0.715353628490003	-0.652338239096606	-4.271483060025072	1.0829712761201735	2.2121930418438307	0.8526296359559589	0.4022191293607695	2.2121930418438307	0.17980801731232277	-0.8285354444102349	3.4429476156148344	-0.333492484282388	3.6286568022463923	1	correct	1.0
217.73313939990476	8.43832640000619	nogo_reward	0.2967298999428749	217.85043290001346	219.22626270004554	221.7860137999524	1.3758298000320792	218.86680640000856	220.77267180010682	224.8200410001446	0.3594563000369817	1.0133419998455793	1.4687182998750359	223.8078215999995	0.3947145000565797	222.79527530004276	1	1	26	1	nogo_reward	1	0	1	0	1	0	0	0.0	1.0	0	0.2967298999428749	0.3947145000565797	462.2331792998593	680.0836121998727	681.0999856998678	681.4594419999048	683.0058510999661	684.0191930998117	685.028454599902	686.0410008998588	687.0532203000039	688.5219385998789	2020-02-08 13:09:40.310176	-0.0020118062220845	0.597466836810736	0.715353628490003	1.20176430490779	0.713341822267918	0.715353628490003	0.0020118062220845	0.597466836810736	0.715353628490003	0.713341822267918	0.715353628490003	-0.597466836810736	-4.301964283122404	1.0280998738343035	2.2121930418438307	0.7415734755630088	0.37173790626343645	2.2121930418438307	0.23467941959819283	-0.8590166675075679	3.4429476156148344	-0.38836388656825804	3.6286568022463923	1	correct	1.0
226.2110186999198	9.000245600007474	nogo_punish	0.267711800057441	226.3283122000285	228.69132199999882	231.23771669995045	2.363009799970314	227.32922590011736	230.21377240004955	234.27260720008059	1.3620960998814553	1.0239442999009043	1.0559505999553949	233.260396800004	0.5062960998620838	232.24557309993548	1	1	27	3	nogo_punish	1	-1	0	0	1	0	0	0.0	1.0	-1	0.267711800057441	0.5062960998620838	462.2331792998593	688.5614914998878	689.5624051999766	690.9245012998581	692.4469516999088	693.4708959998097	694.4787523997948	695.4935760998633	696.5057864999399	697.5617370998953	2020-02-08 13:09:40.310176	-0.711244001021205	-2.31953893231923	0.0	-2.28201935377385	-0.711244001021205	0.0	0.711244001021205	-2.31953893231923	0.0	-0.711244001021205	0.0	-23.23354403142207	-5.011196477921525	-1.8889058952956623	1.4968394133538279	-2.742210183118631	-1.0528479170256866	1.4968394133538279	-22.40139777501314	-2.283602490796691	2.7275939871248314	-3.305369655698224	2.9133031737563893	1	correct	1.0
235.24639389989898	8.309423699975014	go_punish	0.3458841999527067	235.36368740000768	236.8391521000304	239.39580209995626	1.4754647000227123	236.3704836000689	238.375451900065	242.42864870000636	0.4686684999614954	1.0203501998912543	1.244462399976328	241.4266824999359	0.3206561000552028	240.41427540010778	1	1	28	4	go_punish	1	0	-1	1	1	1	0	0.0	1.0	0	0.3458841999527067	0.3206561000552028	462.2331792998593	697.596866699867	698.6036628999282	699.0723313998897	700.6086311999243	701.6289813998155	702.647454699967	703.6598617997952	704.6618279998656	705.906290399842	2020-02-08 13:09:40.310176	2.67979583942227	-2.12911608300475	-2.36113806187087	-3.956020616042	0.318657777551404	-2.36113806187087	-2.67979583942227	-2.12911608300475	-2.36113806187087	0.318657777551404	-2.36113806187087	2.12911608300475	-1.6201566374780496	-1.6984830459811824	-0.8642986485170423	-4.416211445386781	-0.022946138453077525	-0.8642986485170423	2.961262339413679	-1.2537007122240817	0.3664559252539612	-3.114946806383744	0.5521651118855191	1	correct	1.0
243.59109100000933	7.921608299948275	nogo_reward	0.3359692001249641	243.70838450011803	245.27394370012922	247.81046700011944	1.5655592000111938	244.71576409996493	246.79453880013904	250.87106209993368	0.5581796001642942	1.015928199980408	0.7589307001326233	249.8577408001293	0.3149886999744922	248.82872730004607	1	1	29	1	nogo_reward	1	0	1	0	1	0	0	0.0	1.0	0	0.3359692001249641	0.3149886999744922	462.2331792998593	705.9415637999773	706.9489433998242	707.5071229999885	709.0277180999983	710.0436462999787	711.0619065999053	712.0909200999886	713.104241399793	713.8631720999256	2020-02-08 13:09:40.310176	-0.0283167063518113	0.549426065811187	0.715353628490003	1.10462578206888	0.687036922138191	0.715353628490003	0.0283167063518113	0.549426065811187	0.715353628490003	0.687036922138191	0.715353628490003	-0.549426065811187	-4.3282691832521305	0.9800591028347545	2.2121930418438307	0.6444349527240989	0.3454330061337095	2.2121930418438307	0.2827201905977418	-0.8853215676372949	3.4429476156148344	-0.436404657567807	3.6286568022463923	1	correct	1.0
251.54730789992027	7.982505500083789	go_punish	0.2823721000459045	251.66460140002897	253.0315161000472	255.57136810012167	1.366914700018242	252.67157150013378	254.56193269998772	258.6218817001209	0.3599445999134332	1.0094354001339525	1.0252251999918371	257.6097765001469	0.3643575999885797	256.5916284001433	1	1	30	4	go_punish	1	0	-1	1	1	1	1	1.0	1.0	0	0.2823721000459045	0.3643575999885797	462.2331792998593	713.8977806998882	714.904750799993	715.2646953999065	716.795111999847	717.804547399981	718.8248077000026	719.8429558000062	720.8550609999802	721.880286199972	2020-02-08 13:09:40.310176	2.71917146174108	-2.011373098409	-2.36113806187087	-3.74801320278429	0.358033399870215	-2.36113806187087	-2.71917146174108	-2.011373098409	-2.36113806187087	0.358033399870215	-2.36113806187087	2.011373098409	-1.5807810151592396	-1.5807400613854323	-0.8642986485170423	-4.208204032129071	0.016429483865733452	-0.8642986485170423	2.8435193548179285	-1.2143250899052709	0.3664559252539612	-2.997203821787994	0.5521651118855191	1	correct	1.0
259.570844899863	8.838222700171173	nogo_punish	0.6206389998551458	259.6881383999717	261.53629600000573	264.08575900015427	1.8481576000340283	260.6922299000435	263.07223540009005	267.1370824000333	0.8440660999622196	1.013523600064218	1.3892787001095712	266.1246573000681	0.3502592998556793	265.09975890000356	1	1	31	3	nogo_punish	1	-1	0	0	1	0	0	0.0	1.0	-1	0.6206389998551458	0.3502592998556793	462.2331792998593	721.921317699831	722.9254091999028	723.769475299865	725.3054146999493	726.3189383000135	727.3329381998628	728.3578365999274	729.3702616998926	730.7595404000022	2020-02-08 13:09:40.310176	-1.0769724147651	-3.02084999221261	0.0	-2.98684960546115	-1.0769724147651	0.0	1.0769724147651	-3.02084999221261	0.0	-1.0769724147651	0.0	-22.53223297152869	-5.3769248916654195	-2.5902169551890424	1.4968394133538279	-3.447040434805931	-1.4185763307695816	1.4968394133538279	-21.70008671511976	-2.649330904540586	2.7275939871248314	-4.006680715591604	2.9133031737563893	1	correct	1.0
268.4490429998841	9.488545899977908	nogo_punish	1.0	268.5663364999928	270.99985180003574	273.52455339999875	2.4335153000429273	269.5774242000189	272.499493499985	276.5707882000134	1.4224276000168175	1.02505990001373	1.484094199957326	275.5566195000429	0.444870000006631	274.539024299942	1	1	32	3	nogo_punish	0	0	-1	0	0	1	0	0.0	1.0	-1	1.0	0.444870000006631	462.2331792998593	730.7995157998521	731.8106034998782	733.233031099895	734.7326727998443	735.757732699858	736.7722035998013	737.7897987999022	738.8039674998727	740.28806169983	2020-02-08 13:09:40.310176	1.41886936031537	-3.68408111434828	0.0	-3.65313277217127	-1.41886936031537	0.0	-1.41886936031537	0.0	-3.68408111434828	0.0	-1.41886936031537	-25.5530829637413	-2.8810831165849495	-3.2534480773247125	1.4968394133538279	-4.113323601516051	-1.7604732763198514	1.4968394133538279	-24.72093670733237	-1.5723584897754859	1.3087246268094614	-0.985830723378994	-0.7707779405918909	1	correct	1.0
277.97185659990646	9.262730099959299	go_punish	0.3339008998591453	278.08915010001516	280.81402270006953	283.35951760015456	2.7248726000543684	279.10565089993185	282.34507749998016	286.42095840000553	1.7083718001376837	1.0144401001743972	0.9309217999689281	285.4015033000615	0.8618995998986065	284.3729868000374	1	1	33	4	go_punish	0	-1	0	1	1	1	0	1.0	0.0	-1	0.3339008998591453	0.8618995998986065	462.2331792998593	740.3223293998744	741.3388301997911	743.0472019999288	744.5782567998394	745.5926969000138	746.6061660998967	747.6346825999208	748.6541376998648	749.5850594998337	2020-02-08 13:09:40.310176	2.75284348187409	-1.90505910197545	-2.36113806187087	-3.55926391725708	0.391705420003224	-2.36113806187087	-2.75284348187409	-1.90505910197545	-2.36113806187087	0.391705420003224	-2.36113806187087	-23.64802386176585	-1.5471089950262296	-1.4744260649518823	-0.8642986485170423	-4.019454746601861	0.05010150399874247	-0.8642986485170423	-22.81587760535692	-1.180653069772262	0.3664559252539612	-2.890889825354444	0.5521651118855191	1	wrong	1.0
287.2846718998626	7.887043599970639	nogo_punish	0.7997554000467062	287.4019653999713	288.72898759995593	291.29739319998777	1.3270221999846399	288.40841679996817	290.2744742000942	294.3278475000989	0.32057079998776317	1.0229189998935908	0.9611614998430014	293.31970839994034	1.0	292.31111679994507	1	1	34	3	nogo_punish	1	-1	0	0	1	0	1	n/a	0.0	0	0.7997554000467062	1.0	462.2331792998593	749.6351446998306	750.6415960998274	750.9621668998152	752.5076534999534	753.530572499847	754.5442960998043	755.5528876997996	756.5610267999582	757.5221882998012	2020-02-08 13:09:40.310176	-0.273580706412548	-3.68408111434828	-0.837121372704351	-4.28455661843924	-1.1107020791169	-0.837121372704351	0.273580706412548	-3.68408111434828	-0.837121372704351	-1.1107020791169	-0.837121372704351	-21.86900184939302	-4.573533183312867	-3.2534480773247125	0.6597180406494768	-4.744747447784021	-1.4523059951213815	0.6597180406494768	-21.03685559298409	-2.683060568892386	1.8904726144204802	-4.669911837727274	2.076181801052038	1	missed	0.0
295.2583705999423	9.557519699912518	go_punish	0.2914277000818401	295.375664100051	298.1273809999694	300.67090629995806	2.7517168999183923	296.3924883001019	299.65143100009305	303.73702420014894	1.734892699867487	1.0194752998650074	1.196159599814564	302.7241541999393	0.2773714000359177	301.6884047000204	1	1	35	4	go_punish	1	0	-1	1	1	1	1	1.0	1.0	0	0.2914277000818401	0.2773714000359177	462.2331792998593	757.6088433999103	758.6256675999612	760.3605602998286	761.8846102999523	762.9040855998173	763.9215839998797	764.9573334997986	765.9702035000082	767.1663630998228	2020-02-08 13:09:40.310176	2.32773672340381	-2.64572471547982	-2.36113806187087	-4.22433371776434	-0.0334013384670525	-2.36113806187087	-2.32773672340381	-2.64572471547982	-2.36113806187087	-0.0334013384670525	-2.36113806187087	2.64572471547982	-1.9722157534965095	-2.215091678456252	-0.8642986485170423	-4.684524547109121	-0.37500525447153404	-0.8642986485170423	3.4778709718887484	-1.6057598282425383	0.3664559252539612	-3.631555438858814	0.5521651118855191	1	correct	1.0
304.8499781000428	9.057843599934131	go_punish	0.4087225999683141	304.9672716001515	306.9501014000271	309.49094899999915	1.982829799875617	305.9814657999669	308.47115420014603	312.5243504000828	0.9686356000602245	1.0197947998531163	1.5007648000027984	311.5219058000949	0.3173992000520229	310.5105078001507	1	1	36	4	go_punish	1	0	-1	1	1	1	0	0.0	1.0	0	0.4087225999683141	0.3173992000520229	462.2331792998593	767.2004509000108	768.2146450998262	769.1832806998864	770.7043335000053	771.7241282998584	772.74368710001	773.7550850999542	774.7575296999421	776.2582944999449	2020-02-08 13:09:40.310176	2.38635751481612	-2.50588497734833	-2.36113806187087	-4.0149028944537	0.0252194529452526	-2.36113806187087	-2.38635751481612	-2.50588497734833	-2.36113806187087	0.0252194529452526	-2.36113806187087	2.50588497734833	-1.9135949620841997	-2.0752519403247622	-0.8642986485170423	-4.475093723798481	-0.31638446305922896	-0.8642986485170423	3.338031233757259	-1.5471390368302333	0.3664559252539612	-3.491715700727324	0.5521651118855191	1	correct	1.0
313.9430775998626	9.5665311999619	go_punish	0.2835856999736279	314.0603710999713	317.0261595000048	319.5591019999702	2.965788400033489	315.066497999942	318.5476758999285	322.6009488999844	1.9596615000627935	1.0114261000417173	1.0259533999487758	321.5990349000786	0.3245425000786781	320.57035339996224	1	1	37	4	go_punish	1	0	-1	1	1	1	1	1.0	1.0	0	0.2835856999736279	0.3245425000786781	462.2331792998593	776.2935503998306	777.2996772998013	779.259338799864	780.7808551997878	781.7922812998295	782.8035326998215	783.8322141999379	784.8341281998437	785.8600815997925	2020-02-08 13:09:40.310176	2.43751513468861	-2.37908191058291	-2.36113806187087	-3.82380556153843	0.0763770728177403	-2.36113806187087	-2.43751513468861	-2.37908191058291	-2.36113806187087	0.0763770728177403	-2.36113806187087	2.37908191058291	-1.8624373422117095	-1.9484488735593426	-0.8642986485170423	-4.283996390883211	-0.2652268431867412	-0.8642986485170423	3.211228166991839	-1.4959814169577457	0.3664559252539612	-3.364912633961904	0.5521651118855191	1	correct	1.0
323.54740629997104	8.037137300008908	go_reward	0.3206937999930233	323.66469980007975	325.23997470014734	327.78305949992506	1.5752749000675976	324.6781904001255	326.76694969995884	330.81640530005103	0.5617843000218272	1.016109799966216	0.8854318000376225	329.8152078001295	0.7791682998649776	328.7966777000111	1	1	38	2	go_reward	1	1	0	1	1	1	0	0.0	1.0	1	0.3206937999930233	0.7791682998649776	462.2331792998593	785.897879099939	786.9113696999848	787.4731540000066	789.0001289998181	790.0162387997843	791.0298569998704	792.0483870999888	793.0495845999103	793.9350163999479	2020-02-08 13:09:40.310176	0.54071282239675	0.0	0.0	0.0	0.54071282239675	0.0	-0.54071282239675	0.0	0.0	0.54071282239675	0.0	18.2596505059561	-3.7592396545035696	0.43063303702356753	1.4968394133538279	-0.4601908293447811	0.19910890639226847	1.4968394133538279	19.09179676236503	-1.031645667378736	2.7275939871248314	-0.985830723378994	2.9133031737563893	1	correct	1.0
331.6194499998819	8.910031700041145	go_punish	0.1981663999613374	331.7367434999906	334.07756670005625	336.62298989994457	2.3408232000656426	332.7498767001089	335.59789690002805	339.66891849995596	1.3276899999473244	1.0250929999165237	0.9778567000757903	338.6556388000027	0.3452091999351978	337.62570070009684	1	1	39	4	go_punish	0	-1	0	1	1	1	1	1.0	1.0	-1	0.1981663999613374	0.3452091999351978	462.2331792998593	793.9699227998499	794.9830559999682	796.3107459999155	797.8310761998873	798.8561691998038	799.8588799999561	800.888818099862	801.9020977998152	802.879954499891	2020-02-08 13:09:40.310176	2.4823282446256	-2.26356970539092	-2.36113806187087	-3.64869256443355	0.121190182754735	-2.36113806187087	-2.4823282446256	-2.26356970539092	-2.36113806187087	0.121190182754735	-2.36113806187087	-23.28951325835038	-1.8176242322747194	-1.8329366683673523	-0.8642986485170423	-4.108883393778331	-0.22041373324974653	-0.8642986485170423	-22.45736700194145	-1.4511683070207508	0.3664559252539612	-3.249400428769914	0.5521651118855191	1	correct	1.0
340.5649722998496	8.780948200030252	go_reward	0.3296125999186188	340.6822657999583	342.47815760015516	345.03893029992474	1.7958918001968414	341.6976636999753	344.0148770001252	348.07922070007777	0.780493900179863	1.0240532997995615	1.3839932999107987	347.07542390003806	0.4677039999514818	346.0481442001183	1	1	40	2	go_reward	1	1	0	1	1	1	1	0.0	0.0	1	0.3296125999186188	0.4677039999514818	462.2331792998593	802.9154450998176	803.9308429998346	804.7113369000144	806.2480562999845	807.272109599784	808.2813234999776	809.3086031998973	810.312399999937	811.6963932998478	2020-02-08 13:09:40.310176	1.0186090136216	0.715353628490003	0.0	0.715353628490003	1.0186090136216	0.0	-1.0186090136216	0.715353628490003	0.0	1.0186090136216	0.0	17.544296877466095	-3.2813434632787195	1.1459866655135704	1.4968394133538279	0.25516279914522183	0.6770050976171185	1.4968394133538279	18.376443133875025	-0.5537494761538859	2.7275939871248314	-0.2704770948889911	2.9133031737563893	1	wrong	1.0
349.3818558999337	9.302200200036168	nogo_reward	0.3673946000635624	349.4991494000424	351.72843310004106	354.2854522000999	2.229283699998632	350.5140603999608	353.268622300122	357.34918280015705	1.2143727000802755	1.0168298999778926	1.4521667999215424	356.3365434999578	0.3318107000086456	355.3019227001351	1	1	41	1	nogo_reward	1	0	1	0	1	0	0	0.0	1.0	0	0.3673946000635624	0.3318107000086456	462.2331792998593	811.7323286999017	812.74723969982	813.9616123999003	815.5018015999813	816.5186314999592	817.5351019999944	818.5697227998171	819.5823621000163	821.0345288999379	2020-02-08 13:09:40.310176	-0.0510694855545608	0.507158945258141	0.715353628490003	1.01923019743274	0.664284142935442	0.715353628490003	0.0510694855545608	0.507158945258141	0.715353628490003	0.664284142935442	0.715353628490003	-0.507158945258141	-4.3510219624548805	0.9377919822817085	2.2121930418438307	0.5590393680879588	0.3226802269309605	2.2121930418438307	0.3249873111507878	-0.9080743468400438	3.4429476156148344	-0.47867177812085304	3.6286568022463923	1	correct	1.0
358.7259606998414	9.215401200111955	nogo_punish	1.0	358.8432541999501	361.13364670006564	363.6499610000756	2.2903925001155585	359.8521029001568	362.62843869999057	366.69973620004026	1.2815437999088317	1.0215223000850528	1.3589192000217736	365.68576809996745	0.2971353998873383	364.6686764999759	1	1	42	3	nogo_punish	1	-1	0	0	0	1	0	0.0	1.0	0	1.0	0.2971353998873383	462.2331792998593	821.0764334998094	822.0852822000161	823.3668259999249	824.8616179998498	825.8831402999349	826.9018557998352	827.9189473998267	828.9329154998995	830.2918346999213	2020-02-08 13:09:40.310176	0.152424906854523	-3.47572332980866	-0.837121372704351	-4.04718859193207	-0.989546279558874	-0.837121372704351	-0.152424906854523	-0.837121372704351	-3.47572332980866	-0.837121372704351	-0.989546279558874	0.837121372704351	-4.1475275700457965	-3.0450902927850922	0.6597180406494768	-4.507379421276851	-1.3311501955633556	0.6597180406494768	1.6692676291132797	-2.409479862479837	1.7380477075659573	-1.8229520960833452	-0.5624201560522706	1	correct	1.0
367.976427000016	8.982150899944827	go_reward	0.6761105000041425	368.0937205001247	370.54567479994154	373.0779715001118	2.4519542998168617	369.1097001000308	372.06235000002204	376.1297411001288	1.4359746999107301	1.0156215000897646	0.9461302999407053	375.1238884001505	0.4359246999956667	374.08988910005434	1	1	43	2	go_reward	1	1	0	1	1	1	0	1.0	0.0	1	0.6761105000041425	0.4359246999956667	462.2331792998593	830.326899799984	831.3428793998901	832.7788540998008	834.2955292998813	835.3111507999711	836.3230683999136	837.3570677000098	838.3629203999881	839.3090506999288	2020-02-08 13:09:40.310176	1.44711596085821	1.36769186758661	0.0	1.36769186758661	1.44711596085821	0.0	-1.44711596085821	1.36769186758661	0.0	1.44711596085821	0.0	16.891958638369488	-2.8528365160421094	1.7983249046101777	1.4968394133538279	0.9075010382418289	1.1055120448537286	1.4968394133538279	17.724104894778417	-0.12524252891727583	2.7275939871248314	0.3818611442076161	2.9133031737563893	1	wrong	1.0
376.99872839986347	8.320674099959433	nogo_punish	0.1341350998263806	377.11602189997217	378.6535525999498	381.2020674999804	1.5375306999776512	378.11761930002837	380.1782830001321	384.247352299979	0.535933299921453	1.0237844998482615	1.1893436999525875	383.23467390006414	0.4436182000208646	382.217175600119	1	1	44	3	nogo_punish	1	-1	0	0	1	0	1	0.0	0.0	-1	0.1341350998263806	0.4436182000208646	462.2331792998593	839.3492011998314	840.3507985998876	840.8867318998091	842.4114622999914	843.4352467998397	844.4503548999783	845.4678531999234	846.4805315998383	847.6698752997909	2020-02-08 13:09:40.310176	-0.284834670909493	-3.47572332980866	-0.785186050727752	-3.83285745514626	-1.07002072163724	-0.785186050727752	0.284834670909493	-3.47572332980866	-0.785186050727752	-1.07002072163724	-0.785186050727752	-22.07735963393264	-4.584787147809813	-3.0450902927850922	0.7116533626260758	-4.293048284491041	-1.4116246376417214	0.7116533626260758	-21.24521337752371	-2.6423792114127256	1.9424079363970792	-4.461554053187654	2.128117123028637	1	wrong	1.0
385.3595958999358	8.51032010000199	nogo_reward	0.3887422000989318	385.4768894000445	387.1370630001184	389.6982317001094	1.6601736000739038	386.4813171001152	388.67453580000443	392.74251889996236	0.6557459000032395	1.02369590010494	1.244690600084141	391.74065620009793	0.4060639000963419	390.71168090007274	1	1	45	1	nogo_reward	0	1	0	0	1	0	0	0.0	1.0	1	0.3887422000989318	0.4060639000963419	462.2331792998593	847.7100686999038	848.7144963999745	849.3702422999777	850.9077150998637	851.9314109999686	852.944860199932	853.9738354999572	854.9756981998216	856.2203887999058	2020-02-08 13:09:40.310176	-0.070791911764121	0.469804131621556	0.715353628490003	0.943811383421556	0.644561716725882	0.715353628490003	0.070791911764121	0.469804131621556	0.715353628490003	0.644561716725882	0.715353628490003	17.789846374334545	-4.37074438866444	0.9004371686451236	2.2121930418438307	0.4836205540767749	0.3029578007214005	2.2121930418438307	18.621992630743474	-0.9277967730496038	3.4429476156148344	-0.516026591757438	3.6286568022463923	1	correct	1.0
393.90676499996334	9.477680299896747	go_punish	0.2554570001084357	394.02405850007204	396.5422156001442	399.09982539992785	2.5181571000721306	395.0273057001178	398.07905669999315	402.15808810014283	1.514909900026396	1.020768699934706	1.3436506998259574	401.1459151001182	0.3132307999767363	400.11744619999087	1	1	46	4	go_punish	1	0	-1	1	1	1	0	0.0	1.0	0	0.2554570001084357	0.3132307999767363	462.2331792998593	856.2572377999313	857.260484999977	858.7753949000034	860.3122359998524	861.3330046997871	862.3506254998501	863.3790943999775	864.3912674000021	865.7349180998281	2020-02-08 13:09:40.310176	2.0677556650566	-2.99501189886583	-2.36113806187087	-4.32471081320537	-0.293382396814269	-2.36113806187087	-2.0677556650566	-2.99501189886583	-2.36113806187087	-0.293382396814269	-2.36113806187087	2.99501189886583	-2.2321968118437194	-2.5643788618422625	-0.8642986485170423	-4.784901642550151	-0.6349863128187505	-0.8642986485170423	3.827158155274759	-1.865740886589755	0.3664559252539612	-3.980842622244824	0.5521651118855191	1	correct	1.0
403.4199595998507	8.283021700102836	go_punish	0.3076794999651611	403.5372530999594	405.2400245000609	407.7764294000809	1.7027714001014829	404.5527067999356	406.7765373999719	410.8201651999262	0.687317700125277	0.9998920001089573	1.0001096001360565	409.8079556000885	0.5694330001715571	408.7943180999719	1	1	47	4	go_punish	1	0	-1	1	1	1	0	0.0	1.0	0	0.3076794999651611	0.5694330001715571	462.2331792998593	865.7704323998187	866.7858860997949	867.4732037999202	869.0097166998312	870.0096086999401	871.0274973998312	872.0411348999478	873.0533444997855	874.0534540999215	2020-02-08 13:09:40.310176	2.13633930730508	-2.84600518661514	-2.36113806187087	-4.12401267800965	-0.224798754565788	-2.36113806187087	-2.13633930730508	-2.84600518661514	-2.36113806187087	-0.224798754565788	-2.36113806187087	2.84600518661514	-2.1636131695952394	-2.4153721495915725	-0.8642986485170423	-4.584203507354431	-0.5664026705702695	-0.8642986485170423	3.6781514430240687	-1.7971572443412738	0.3664559252539612	-3.831835909994134	0.5521651118855191	1	correct	1.0
411.7387816000264	8.861429899930954	nogo_reward	1.0	411.8560751001351	413.7677931000945	416.2954516001046	1.9117179999593645	412.8600258000661	415.2826690000948	419.3333540000022	0.9077673000283539	1.012782600009814	1.3841510000638664	418.3294274001383	0.3388692999724298	417.3108570000623	1	1	48	1	nogo_reward	1	0	1	0	0	1	0	0.0	1.0	1	1.0	0.3388692999724298	462.2331792998593	874.0892543999944	875.0932050999254	876.0009723999538	877.5158482999541	878.5286308999639	879.5440362999216	880.5626066999976	881.5665332998615	882.9506842999253	2020-02-08 13:09:40.310176	-0.389974485574028	1.15200606665342	0.715353628490003	1.59227271638903	1.10532811406403	0.715353628490003	0.389974485574028	0.715353628490003	1.15200606665342	0.715353628490003	1.10532811406403	17.544296877466095	-4.689926962474347	1.5826391036769876	2.2121930418438307	1.1320818870442488	0.7637241980595486	2.2121930418438307	18.376443133875025	-0.8570048612854829	3.8329221011888617	-0.2704770948889911	4.0653092404098095	1	correct	1.0
420.63544699992053	9.410644999938086	nogo_reward	1.0	420.75274050002923	423.2345118001104	425.76312270015484	2.4817713000811636	421.768436399987	424.75009010010405	428.8108028999996	1.4660754001233727	1.013032600050792	1.3525825999677181	427.7964783001226	0.3652906001079827	426.7784234001302	1	1	49	1	nogo_reward	1	0	1	0	0	1	0	0.0	1.0	1	1.0	0.3652906001079827	462.2331792998593	882.9859197998885	884.0016156998463	885.4676910999697	886.9832693999633	887.9963020000141	889.0116026999895	890.0296575999819	891.0439821998589	892.3965647998266	2020-02-08 13:09:40.310176	0.471563170814173	1.15200606665342	1.36769186758661	2.18504346549939	0.896128696772435	1.36769186758661	-0.471563170814173	1.36769186758661	1.15200606665342	1.36769186758661	0.896128696772435	16.891958638369488	-3.8283893060861462	1.5826391036769876	2.864531280940438	1.7248526361546088	0.5545247807679534	2.864531280940438	17.724104894778417	-0.20466662218887577	3.6237226838972663	0.3818611442076161	4.0653092404098095	1	correct	1.0
430.08091799984686	8.535639800131321	go_reward	1.0	430.19821149995556	431.99626350007026	434.52096130000433	1.7980520001146942	431.21377660008153	433.5001453000587	437.57778739999054	0.7824868999887258	1.0208159999456257	1.156063900096342	436.5654901999515	0.2713316997978836	435.5413802999538	1	1	50	2	go_reward	1	1	0	1	0	0	0	0.0	1.0	0	1.0	0.2713316997978836	462.2331792998593	892.4313907998148	893.4469558999408	894.2294427999295	895.733324599918	896.7541405998636	897.7745595998131	898.7986694998108	899.8109666998498	900.9670305999462	2020-02-08 13:09:40.310176	-1.83281221880599	1.96515870439734	0.0	1.96515870439734	1.83281221880599	0.0	1.83281221880599	0.0	1.96515870439734	0.0	1.83281221880599	0.0	-6.132764695706309	2.3957917414209073	1.4968394133538279	1.5049678750525588	1.4912083028015086	1.4968394133538279	0.8321462564089288	-1.5723584897754859	4.560406205930821	-0.985830723378994	4.878461878153729	1	correct	1.0
438.6502195999492	8.667886399896815	nogo_reward	1.0	438.7675131000579	440.43258580006676	442.9615261999425	1.6650727000088636	439.76869629998697	441.9481920001563	446.02476479997875	0.6638895000797902	1.0133341997861862	1.410634699975958	445.0111034000293	0.3736840998753905	443.9810556999875	1	1	51	1	nogo_reward	1	0	1	0	0	1	1	1.0	1.0	1	1.0	0.3736840998753905	462.2331792998593	901.0006923999172	902.0018755998462	902.665765099926	904.1813713000156	905.1947054998018	906.2142349998468	907.2442826998886	908.257944099838	909.668578799814	2020-02-08 13:09:40.310176	1.26737732413455	1.15200606665342	1.96515870439734	2.72926429515035	0.69778138026279	1.96515870439734	-1.26737732413455	1.96515870439734	1.15200606665342	1.96515870439734	0.69778138026279	16.29449180155876	-3.0325751527657694	1.5826391036769876	3.461998117751168	2.269073465805569	0.3561774642583085	3.461998117751168	17.12663805796769	0.3928002146218541	3.4253753673876215	0.979327981018346	4.0653092404098095	1	correct	1.0
447.3545780000276	8.394357600016633	nogo_reward	1.0	447.4718715001363	449.3905225000345	451.91757000004867	1.9186509998982046	448.47835240000876	450.89872290007776	454.95189430005854	0.912170100025719	1.0188470999709125	0.9143348000943661	453.9386726999655	0.348558499943465	452.92515210015716	1	1	52	1	nogo_reward	0	1	0	0	0	1	0	1.0	0.0	0	1.0	0.348558499943465	462.2331792998593	909.7050507999955	910.711531699868	911.6237017998938	913.131902199937	914.150749299908	915.1583314000164	916.1718519998248	917.1850735999178	918.0994084000122	2020-02-08 13:09:40.310176	2.00544435893827	1.15200606665342	2.51458477020853	3.23092279670432	0.509140411270265	2.51458477020853	-2.00544435893827	2.51458477020853	1.15200606665342	2.51458477020853	0.509140411270265	-2.51458477020853	-2.2945081179620495	1.5826391036769876	4.011424183562358	2.7707319673595387	0.16753649526578346	4.011424183562358	-1.6824385137996012	0.9422262804330441	3.2367343983950962	1.528754046829536	4.0653092404098095	1	wrong	1.0
455.78876979998324	9.478261800017208	nogo_punish	1.0	455.90606330009194	458.67530190013355	461.19973909994593	2.7692386000416036	456.91835579997877	460.1897007001099	464.25021070009115	1.756946100154778	1.0100383998360485	1.1341144000180066	463.2377270001453	0.3263743999414146	462.2172292000616	1	1	53	3	nogo_punish	1	-1	0	0	0	1	0	0.0	1.0	0	1.0	0.3263743999414146	462.2331792998593	918.1392425999512	919.151535099838	920.9084811999928	922.4228799999692	923.4329183998052	924.4504084999209	925.4709063000046	926.4833899999504	927.6175043999684	2020-02-08 13:09:40.310176	0.625617597761145	-4.12508211130177	-0.785186050727752	-4.47552655321561	-1.4108036484889	-0.785186050727752	-0.625617597761145	-0.785186050727752	-4.12508211130177	-0.785186050727752	-1.4108036484889	0.785186050727752	-3.6743348791391743	-3.694449074278203	0.7116533626260758	-4.935717382560391	-1.7524075644933814	0.7116533626260758	1.6173323071366807	-2.357544540503238	1.3167903386359314	-1.7710167741067462	-1.2117789375453811	1	correct	1.0
465.30133559997205	8.972702499944603	nogo_reward	1.0	465.41862910008075	467.9007244999521	470.4386520001571	2.482095399871355	466.42653669999	469.4159403000959	473.4915686999447	1.4741877999621238	1.0227117000612225	0.8997629000806455	472.48214199999353	0.5162516999989748	471.45438350015314	1	1	54	1	nogo_reward	1	0	1	0	0	1	1	0.0	0.0	1	1.0	0.5162516999989748	462.2331792998593	927.65180839994	928.6597159998493	930.1339037998114	931.6491195999552	932.6718313000164	933.6875628000124	934.7153212998528	935.724747999804	936.6245108998846	2020-02-08 13:09:40.310176	1.73968901236801	1.15200606665342	2.30639008697667	2.97972674706715	0.566701074608662	2.30639008697667	-1.73968901236801	2.30639008697667	1.15200606665342	2.30639008697667	0.566701074608662	15.95326041897943	-2.5602634645323095	1.5826391036769876	3.803229500330498	2.5195359177223686	0.2250971586041805	3.803229500330498	16.78540667538836	0.7340315972011839	3.2942950617334934	1.3205593635976758	4.0653092404098095	1	wrong	1.0
474.3065644998568	8.47456080000859	nogo_reward	1.0	474.4238579999655	475.9013106001075	478.41966190002876	1.4774526001419872	475.42647509998636	477.4083730001003	481.47855320014077	0.47483550012111664	1.011288899928445	1.4198655998333152	480.4649466001429	0.4212846998125314	479.4363639000804	1	1	55	1	nogo_reward	0	1	0	0	0	1	0	0.0	1.0	0	1.0	0.4212846998125314	462.2331792998593	936.6570372998248	937.6596543998456	938.1344898999668	939.6415522999596	940.652841199888	941.6695431999397	942.6981259000022	943.7117325	945.1315980998334	2020-02-08 13:09:40.310176	2.45810487063652	1.15200606665342	2.83920960799162	3.47370647417993	0.381104737355098	2.83920960799162	-2.45810487063652	2.83920960799162	1.15200606665342	2.83920960799162	0.381104737355098	-2.83920960799162	-1.8418476062637996	1.5826391036769876	4.336049021345448	3.0135156448351488	0.039500821350616444	4.336049021345448	-2.0070633515826914	1.2668511182161342	3.1086987244799293	1.853378884612626	4.0653092404098095	1	correct	1.0
482.8148276999128	8.071992600103613	nogo_reward	1.0	482.9321212000215	484.59165409998974	487.12012820015667	1.6595328999682124	483.9347457999831	486.0968081001193	490.16701869992556	0.6569083000066485	1.023320100037381	0.8370951001995763	489.1543596999256	0.3218092999886721	488.12630250002275	1	1	56	1	nogo_reward	1	0	1	0	0	1	1	1.0	1.0	1	1.0	0.3218092999886721	462.2331792998593	945.1653004998808	946.1679250998424	946.824833399849	948.3299873999786	949.353307500016	950.359481799882	951.3875389997849	952.4001979997848	953.2372930999844	2020-02-08 13:09:40.310176	2.17362368357678	1.15200606665342	2.61537981995091	3.21468300591362	0.441756136374128	2.61537981995091	-2.17362368357678	2.61537981995091	1.15200606665342	2.61537981995091	0.441756136374128	15.64427068600519	-2.1263287933235393	1.5826391036769876	4.112219233304738	2.754492176568839	0.10015222036964644	4.112219233304738	16.47641694241412	1.0430213301754243	3.169350123498959	1.6295490965719162	4.0653092404098095	1	correct	1.0
490.92776270001207	8.231240199878812	nogo_punish	1.0	491.04505620012077	492.49398429994477	495.0212292000651	1.448928099824002	492.0555501999335	493.9974038000219	498.0476885000243	0.43843410001124994	1.0238254000431652	1.228607899975259	497.0440130999779	0.5161699000746012	496.0243553000037	1	1	57	3	nogo_punish	0	0	-1	0	0	1	0	0.0	1.0	-1	1.0	0.5161699000746012	462.2331792998593	953.27823549998	954.2887294997928	954.727163599804	956.2305830998812	957.2544084999244	958.257534599863	959.2771923998372	960.2808677998836	961.5094756998589	2020-02-08 13:09:40.310176	0.759450011974768	-4.12508211130177	-0.738830638438764	-4.24638757196642	-1.49828065041353	-0.738830638438764	-0.759450011974768	-0.738830638438764	-4.12508211130177	-0.738830638438764	-1.49828065041353	-24.814252325302537	-3.5405024649255514	-3.694449074278203	0.7580087749150639	-4.7065784013112015	-1.8398845664180115	0.7580087749150639	-23.982106068893607	-2.3111891282142496	1.2293133367113014	-1.724661361817758	-1.2117789375453811	1	correct	1.0
499.19494699989446	8.164166700094938	go_reward	0.7332483001518995	499.31224050000316	500.8243752000855	503.37363480008213	1.5121347000823562	500.32443740009336	502.3552345000207	506.4362612001133	0.4999377999921535	1.0184003000614439	1.0401459999848157	505.43047869997116	0.4625715999864042	504.3959917000031	1	1	58	2	go_reward	1	1	0	1	1	1	0	0.0	1.0	1	0.7332483001518995	0.4625715999864042	462.2331792998593	961.5454197998624	962.5576166999526	963.0575544999448	964.58841379988	965.6068140999414	966.6291709998624	967.6636579998304	968.6694404999726	969.7095864999574	2020-02-08 13:09:40.310176	1.86926311099157	1.96515870439734	0.0	1.79923114171853	1.86926311099157	0.0	-1.86926311099157	1.96515870439734	0.0	1.86926311099157	0.0	16.29449180155876	-2.4306893659087496	2.3957917414209073	1.4968394133538279	1.3390403123737489	1.5276591949870886	1.4968394133538279	17.12663805796769	0.2969046212160842	2.7275939871248314	0.979327981018346	2.9133031737563893	1	correct	1.0
507.39466589991923	9.631581899942944	go_reward	1.0	507.51195940002793	510.26997760008095	512.8051370000467	2.758018200053016	508.5240730999503	511.7854548001197	515.862322299974	1.7459045001306777	1.019682199927047	1.2812189999967813	514.8568782000802	0.455953000113368	513.8286800000351	1	1	59	2	go_reward	1	1	0	1	0	0	0	1.0	0.0	0	1.0	0.455953000113368	462.2331792998593	969.7451386998872	970.7572523998095	972.5031568999402	974.018634099979	975.038316299906	976.0618592998944	977.0900574999396	978.0955015998334	979.3767205998302	2020-02-08 13:09:40.310176	-2.21373164419082	2.51458477020853	0.0	2.36940547637007	2.21373164419082	0.0	2.21373164419082	0.0	2.51458477020853	0.0	2.21373164419082	0.0	-6.513684121091139	2.9452178072320976	1.4968394133538279	1.9092146470252889	1.8721277281863384	1.4968394133538279	0.8321462564089288	-1.5723584897754859	4.941325631315651	-0.985830723378994	5.427887943964919	1	wrong	1.0
517.0607147000264	7.854490399826432	go_reward	1.0	517.1780082001351	518.688103799941	521.2232447999995	1.5100955998059362	518.1880628000945	520.2033842999956	524.2732043999713	0.5000409998465329	1.0198605000040288	0.7592941999902223	523.2603895999491	0.3666406997945159	522.2420151000842	1	1	60	2	go_reward	1	1	0	1	0	0	1	0.0	0.0	0	1.0	0.3666406997945159	462.2331792998593	979.4111874999944	980.4212420999538	980.9212830998003	982.4365635998548	983.4564240998589	984.4751943999436	985.4935688998085	986.5063836998306	987.2656778998208	2020-02-08 13:09:40.310176	-2.25654728881904	2.51458477020853	0.0	2.17872738178749	2.25654728881904	0.0	2.25654728881904	0.0	2.51458477020853	0.0	2.25654728881904	0.0	-6.5564997657193596	2.9452178072320976	1.4968394133538279	1.7185365524427088	1.9149433728145586	1.4968394133538279	0.8321462564089288	-1.5723584897754859	4.9841412759438715	-0.985830723378994	5.427887943964919	1	wrong	1.0
