onset	duration	trial_type	response_time	cueOnset	targetOnset	fbOnset	cueRT	firstfixOnset	secondfixOnset	waitOnset	firstfixdur	secondfixdur	waitdur	nback_fbOnset	nback_response_time	nback_targetOnset	block	wm	trial	cue	cond	is_common	outcome_go	outcome_nogo	key_correct	key_pressed	is_correct	key_correct_nback	key_pressed_nback	is_correct_nback	outcome	rt	rt_nback	time_scan	time_onset	time_isi1	time_circle	time_isi2	time_feedback	time_same	time_correct	time_iti	time_done	timestamp_scan	DV	Qgo	Qnogo	SV	Wgo	Wnogo	mDV	Qchosen	Qunchosen	Wchosen	Wunchosen	PE	DVC	QgoC	QnogoC	SVC	WgoC	WnogoC	PEC	WchosenC	WunchosenC	QchosenC	QunchosenC	run	outcome_nback	nback_targetResp
0.0	6.678867199923388	nogo_reward	0.383270800113678	0.011786000104621053	1.6730989001230228	4.209895600099117	1.6613129000184017	1.0236551000270993	3.188821099931374	5.2256219000555575	0.6494438000959235	1.0210745001677424	1.465031299972452	n/a	1.0	n/a	2	0	61	1	nogo_reward	1	0	1	0	1	0	0	n/a	n/a	0	0.383270800113678	1.0	2113.742092799861	2113.7538787999656	2114.765747899888	2115.415191699984	2116.9309138997924	2117.95198839996	n/a	n/a	2118.9677146999165	2120.432745999889	2020-02-08 13:37:11.816458	2.08674113885075	1.54160233476707	0.0	1.54160233476707	2.08674113885075	0.0	-2.08674113885075	1.54160233476707	0.0	2.08674113885075	0.0	-1.54160233476707	-2.2132113380495695	1.9722353717906376	1.4968394133538279	1.0814115054222888	1.7451372228462685	1.4968394133538279	-0.7094560783581412	0.5143826490752641	2.7275939871248314	0.555771611388076	2.9133031737563893	4	missed	0.0
6.7239977000281215	6.72361309989401	nogo_punish	1.0	6.7357837001327425	8.51295579993166	11.04914800007873	1.7771720997989178	7.733302799984813	10.02968879998707	12.05321640009106	0.7796529999468476	1.01945920009166	1.4061803999356925	n/a	1.0	n/a	2	0	62	3	nogo_punish	1	-1	0	0	0	1	0	n/a	n/a	0	1.0	1.0	2113.742092799861	2120.4778764999937	2121.475395599846	2122.2550485997926	2123.771781599848	2124.7912407999397	n/a	n/a	2125.795309199952	2127.2014895998877	2020-02-08 13:37:11.816458	12.6653367557981	-14.267754094354	-1.01136668478361	-1.38647686024491	-13.6767034405817	-1.01136668478361	-12.6653367557981	-1.01136668478361	-14.267754094354	-1.01136668478361	-13.6767034405817	1.01136668478361	8.36538427889778	-13.837121057330434	0.48547272857021784	-1.8466676895896912	-14.018307356586183	0.48547272857021784	1.8435129411925388	-2.583725174559096	-10.94910945345687	-1.997197408162604	-11.35445092059761	4	missed	0.0
13.493101299973205	7.346644199918956	go_reward	0.284974800189957	13.504887300077826	15.920390000101179	18.467614199966192	2.415502700023353	14.500824500108138	17.444952399936028	19.477460500085726	1.4195654999930412	1.0226618000301642	1.374070999911055	n/a	1.0	n/a	2	0	63	2	go_reward	1	1	0	1	1	1	0	n/a	n/a	1	0.284974800189957	1.0	2113.742092799861	2127.246980099939	2128.242917299969	2129.662482799962	2131.187045199797	2132.209706999827	n/a	n/a	2133.2195532999467	2134.5936242998578	2020-02-08 13:37:11.816458	7.933410626406	7.30954030011132	0.0	7.30954030011132	7.933410626406	0.0	-7.933410626406	7.30954030011132	0.0	7.933410626406	0.0	10.95011020584478	3.633458149505681	7.7401733371348875	1.4968394133538279	6.849349470766539	7.591806710401519	1.4968394133538279	11.78225646225371	6.361052136630514	2.7275939871248314	6.323709576732326	2.9133031737563893	4	missed	0.0
20.862830800004303	7.51612009992823	go_punish	0.2795311999507248	20.874616800108925	23.41879849997349	25.98630510014482	2.5441816998645663	21.87615939998068	24.97290900000371	26.98791140015237	1.5426390999928117	1.013396100141108	1.4028254998847842	n/a	1.0	n/a	2	0	64	4	go_punish	0	-1	0	1	1	1	0	n/a	n/a	-1	0.2795311999507248	1.0	2113.742092799861	2134.61670959997	2135.6182521998417	2137.1608912998345	2138.7150017998647	2139.728397900006	n/a	n/a	2140.7300042000134	2142.132829699898	2020-02-08 13:37:11.816458	8.48465378102149	-0.218545426224179	-8.15089851356052	-0.281785267041434	0.333755267460963	-8.15089851356052	-8.48465378102149	-0.218545426224179	-8.15089851356052	0.333755267460963	-8.15089851356052	-25.33453753751712	4.184701304121171	0.21208761079938854	-6.654059100206692	-0.7419760963862151	-0.007848648543518522	-6.654059100206692	-24.502391281108192	-1.238603222314523	-5.423304526435689	-1.204376149603173	-5.23759533980413	4	missed	0.0
28.405010599875368	6.399482700042881	go_punish	0.4456245000474155	28.41679659997999	29.963746400084347	32.501218199963205	1.5469498001043576	29.423061300069094	31.490010099951178	33.50387160014361	0.5406851000152528	1.011208100012027	1.3124076998792589	n/a	1.0	n/a	2	0	65	4	go_punish	1	0	-1	1	1	1	0	n/a	n/a	0	0.4456245000474155	1.0	2113.742092799861	2142.158889399841	2143.16515409993	2143.7058391999453	2145.232102899812	2146.243310999824	n/a	n/a	2147.2459644000046	2148.558372099884	2020-02-08 13:37:11.816458	0.461500232617888	-8.30984941404653	-8.15089851356052	-8.35683993736606	-7.68939828094264	-8.15089851356052	-0.461500232617888	-8.30984941404653	-8.15089851356052	-7.68939828094264	-8.15089851356052	8.30984941404653	-3.8384522442824314	-7.879216377022963	-6.654059100206692	-8.81703076671084	-8.031002196947123	-6.654059100206692	9.14199567045546	-9.261756770718126	-5.423304526435689	-9.295680137425524	-5.23759533980413	4	missed	0.0
34.8489712998271	6.41974850022234	nogo_punish	1.0	34.86075729993172	36.721345900092274	39.25837619998492	1.860588600160554	35.87174020009115	38.23872440005607	40.271505899960175	0.8496057000011206	1.0196517999288517	1.008999900193885	n/a	1.0	n/a	2	0	66	3	nogo_punish	1	-1	0	0	0	1	0	n/a	n/a	0	1.0	1.0	2113.742092799861	2148.6028500997927	2149.613832999952	2150.4634386999533	2151.980817199917	2153.000468999846	n/a	n/a	2154.013598699821	2155.022598600015	2020-02-08 13:37:11.816458	12.9650171307328	-14.267754094354	-0.723337622725571	-1.00030611811393	-13.6883547534583	-0.723337622725571	-12.9650171307328	-0.723337622725571	-14.267754094354	-0.723337622725571	-13.6883547534583	0.723337622725571	8.66506465383248	-13.837121057330434	0.7735017906282569	-1.4604969474587113	-14.029958669462783	0.7735017906282569	1.5554838791344998	-2.295696112501057	-10.960760766333468	-1.709168346104565	-11.35445092059761	4	missed	0.0
41.31079559982754	5.966579600004479	go_reward	0.3656226999592036	41.322581599932164	42.88763580005616	45.42333390004933	1.5650542001239955	42.32192529994063	44.405880599981174	46.43026329996064	0.5657105001155287	1.017453300068155	0.8588978999760002	n/a	1.0	n/a	2	0	67	2	go_reward	1	1	0	1	1	1	0	n/a	n/a	1	0.3656226999592036	1.0	2113.742092799861	2155.064674399793	2156.0640180998016	2156.629728599917	2158.147973399842	2159.1654266999103	n/a	n/a	2160.1723560998216	2161.0312539997976	2020-02-08 13:37:11.816458	11.8686325588285	11.1257431151901	0.0	11.1257431151901	11.8686325588285	0.0	-11.8686325588285	11.1257431151901	0.0	11.8686325588285	0.0	7.133907390766	7.56868008192818	11.556376152213666	1.4968394133538279	10.665552285845319	11.527028642824018	1.4968394133538279	7.966053647174928	10.296274069053014	2.7275939871248314	10.139912391811105	2.9133031737563893	4	missed	0.0
47.30376249994151	6.556330600054935	go_punish	0.333870799979195	47.315548500046134	48.97237590001896	51.515328499954194	1.6568273999728262	48.32456939993426	50.49557420006022	52.52533340011723	0.6478065000846982	1.0197542998939753	1.3465456999838352	n/a	1.0	n/a	2	0	68	4	go_punish	1	0	-1	1	1	1	0	n/a	n/a	0	0.333870799979195	1.0	2113.742092799861	2161.057641299907	2162.0666621997952	2162.71446869988	2164.237666999921	2165.257421299815	n/a	n/a	2166.267426199978	2167.613971899962	2020-02-08 13:37:11.816458	3.24683881730976	-5.52231539639853	-8.15089851356052	-5.55739664903362	-4.90405969625077	-8.15089851356052	-3.24683881730976	-5.52231539639853	-8.15089851356052	-4.90405969625077	-8.15089851356052	5.52231539639853	-1.0531136595905592	-5.091682359374962	-6.654059100206692	-6.017587478378402	-5.245663612255251	-6.654059100206692	6.3544616528074584	-6.476418186026256	-5.423304526435689	-6.508146119777524	-5.23759533980413	4	missed	0.0
53.89052589982748	6.207465999992564	nogo_reward	0.4059736998751759	53.9023118999321	55.47133930004202	58.03388260002248	1.569027400109917	54.91879170015454	57.01478590001352	59.05233450001106	0.5525475998874754	1.0190967000089586	1.057443399913609	n/a	1.0	n/a	2	0	69	1	nogo_reward	1	0	1	0	1	0	0	n/a	n/a	0	0.4059736998751759	1.0	2113.742092799861	2167.644404699793	2168.6608845000155	2169.213432099903	2170.7568786998745	2171.7759753998835	n/a	n/a	2172.794427299872	2173.8518706997856	2020-02-08 13:37:11.816458	1.59559777468621	1.05600467227503	0.0	1.05600467227503	1.59559777468621	0.0	-1.59559777468621	1.05600467227503	0.0	1.59559777468621	0.0	-1.05600467227503	-2.7043547022141095	1.4866377092985976	1.4968394133538279	0.5958138429302489	1.2539938586817285	1.4968394133538279	-0.22385841586610122	0.023239284910724134	2.7275939871248314	0.07017394889603601	2.9133031737563893	4	missed	0.0
60.14412339986302	6.076130200177431	nogo_punish	1.0	60.15590939996764	61.9274216000922	64.44856159994379	1.7715122001245618	61.15011640009516	63.43596910010092	65.46149499993771	0.7773051999970448	1.0125924998428673	0.7705446002073586	n/a	1.0	n/a	2	0	70	3	nogo_punish	1	-1	0	0	0	1	0	n/a	n/a	0	1.0	1.0	2113.742092799861	2173.8980021998286	2174.892209199956	2175.669514399953	2177.178061899962	2178.1906543998048	n/a	n/a	2179.2035877997987	2179.974132400006	2020-02-08 13:37:11.816458	13.1764189119564	-14.267754094354	-0.520881778574293	-0.726335614681663	-13.6973006905307	-0.520881778574293	-13.1764189119564	-0.520881778574293	-14.267754094354	-0.520881778574293	-13.6973006905307	0.520881778574293	8.87646643505608	-13.837121057330434	0.9759576347795349	-1.186526444026444	-14.038904606535182	0.9759576347795349	1.3530280349832218	-2.0932402683497786	-10.969706703405869	-1.506712501953287	-11.35445092059761	4	missed	0.0
66.24925550003536	6.062892099842429	nogo_reward	0.2526396000757813	66.26104150013998	67.73761199996807	70.282758400077	1.4765704998280853	67.26992999995127	69.25995080010034	71.29293250013143	0.4676820000167936	1.0228075999766588	1.0310010998509824	n/a	1.0	n/a	2	0	71	1	nogo_reward	0	1	0	0	1	0	1	n/a	n/a	1	0.2526396000757813	1.0	2113.742092799861	2180.003134300001	2181.0120227998123	2181.479704799829	2183.0020435999613	2184.024851199938	n/a	n/a	2185.0350252999924	2186.0660263998434	2020-02-08 13:37:11.816458	1.26852528094447	0.73124645911319	0.0	0.73124645911319	1.26852528094447	0.0	-1.26852528094447	0.73124645911319	0.0	1.26852528094447	0.0	17.52840404684291	-3.0314271959558496	1.1618794961367576	1.4968394133538279	0.27105562976840886	0.9269213649399886	1.4968394133538279	18.360550303251838	-0.30383320883101583	2.7275939871248314	-0.25458426426580405	2.9133031737563893	4	missed	0.0
72.34127600002057	6.92389129987032	go_punish	0.2805961000267416	72.35306200012519	74.53866229997948	77.09966810001106	2.1856002998542863	73.36813900014386	76.08824530011043	78.11208839993924	1.1705232998356223	1.0114227999006289	1.1648649000562727	n/a	1.0	n/a	2	0	72	4	go_punish	1	0	-1	1	1	1	0	n/a	n/a	0	0.2805961000267416	1.0	2113.742092799861	2186.095154799986	2187.110231800005	2188.2807550998405	2189.8303380999714	2190.841760899872	n/a	n/a	2191.8541811998	2193.0190460998565	2020-02-08 13:37:11.816458	5.0351225220989	-3.72347928269435	-8.15089851356052	-3.7497876069871	-3.11577599146163	-8.15089851356052	-5.0351225220989	-3.72347928269435	-8.15089851356052	-3.11577599146163	-8.15089851356052	3.72347928269435	0.735170045198581	-3.2928462456707823	-6.654059100206692	-4.209978436331881	-3.4573799074661116	-6.654059100206692	4.5556255391032785	-4.688134481237116	-5.423304526435689	-4.709310006073344	-5.23759533980413	4	missed	0.0
79.31195469992235	6.478966699913144	nogo_punish	1.0	79.32374070002697	81.37394880014472	83.89917570003308	2.050208100117743	80.32749789999798	82.87965800007805	84.9124028000515	1.0464509001467377	1.0195176999550313	0.8903045998886228	n/a	1.0	n/a	2	0	73	3	nogo_punish	1	-1	0	0	0	1	0	n/a	n/a	0	1.0	1.0	2113.742092799861	2193.065833499888	2194.069590699859	2195.1160416000057	2196.621750799939	2197.641268499894	n/a	n/a	2198.6544955999125	2199.544800199801	2020-02-08 13:37:11.816458	13.326659375717	-14.267754094354	-0.377496326710185	-0.53058431138925	-13.7041557024272	-0.377496326710185	-13.326659375717	-0.377496326710185	-14.267754094354	-0.377496326710185	-13.7041557024272	0.377496326710185	9.02670689881668	-13.837121057330434	1.119343086643643	-0.9907751407340311	-14.045759618431681	1.119343086643643	1.2096425831191138	-1.9498548164856708	-10.976561715302367	-1.363327050089179	-11.35445092059761	4	missed	0.0
85.83946929988451	6.939493900164962	go_reward	0.3004825999960303	85.85125529998913	88.28850180003792	90.8287051001098	2.4372465000487864	86.85189509997144	89.80573419993743	91.82727210014127	1.436606700066477	1.0229709001723677	0.9634771000128239	n/a	1.0	n/a	2	0	74	2	go_reward	1	1	0	1	1	1	0	n/a	n/a	1	0.3004825999960303	1.0	2113.742092799861	2199.59334809985	2200.5939878998324	2202.030594599899	2203.5478269997984	2204.570797899971	n/a	n/a	2205.5693649000023	2206.532842000015	2020-02-08 13:37:11.816458	14.3321916204851	13.5304299629233	0.0	13.5304299629233	14.3321916204851	0.0	-14.3321916204851	13.5304299629233	0.0	14.3321916204851	0.0	4.729220543032799	10.03223914358478	13.961062999946867	1.4968394133538279	13.07023913357852	13.990587704480618	1.4968394133538279	5.5613667994417275	12.759833130709614	2.7275939871248314	12.544599239544306	2.9133031737563893	4	missed	0.0
92.82775489985943	6.077720000175759	nogo_punish	1.0	92.83954089996405	94.16024570004083	96.6868571001105	1.3207048000767827	93.83255699998699	95.67592940013856	97.70572330011055	0.3276887000538409	1.010927699971944	1.21153760002926	n/a	1.0	n/a	2	0	75	3	nogo_punish	1	-1	0	0	0	1	1	n/a	n/a	0	1.0	1.0	2113.742092799861	2206.581633699825	2207.574649799848	2207.902338499902	2209.4180221999995	2210.4289498999715	n/a	n/a	2211.4478160999715	2212.659353700001	2020-02-08 13:37:11.816458	13.4341755521884	-14.267754094354	-0.275229667262468	-0.389792271509713	-13.7094052194509	-0.275229667262468	-13.4341755521884	-0.275229667262468	-14.267754094354	-0.275229667262468	-13.7094052194509	0.275229667262468	9.13422307528808	-13.837121057330434	1.2216097460913597	-0.8499831008544941	-14.051009135455383	1.2216097460913597	1.107375923671397	-1.8475881570379538	-10.98181123232607	-1.261060390641462	-11.35445092059761	4	missed	0.0
98.94896920002066	6.236981299938634	nogo_punish	1.0	98.96075520012528	100.87909770011902	103.41026469995268	1.9183424999937415	99.95670440001413	102.39030959992715	104.42331079998985	0.9223933001048863	1.019955100025527	0.7744257000740618	n/a	1.0	n/a	2	0	76	3	nogo_punish	1	-1	0	0	0	1	0	n/a	n/a	0	1.0	1.0	2113.742092799861	2212.7028479999863	2213.698797199875	2214.62119049998	2216.132402399788	2217.1523574998137	n/a	n/a	2218.165403599851	2218.939829299925	2020-02-08 13:37:11.816458	13.5116179847006	-14.267754094354	-0.201808521028287	-0.28789870784109	-13.7134265057289	-0.201808521028287	-13.5116179847006	-0.201808521028287	-14.267754094354	-0.201808521028287	-13.7134265057289	0.201808521028287	9.21166550780028	-13.837121057330434	1.295030892325541	-0.7480895371858711	-14.055030421733383	1.295030892325541	1.0339547774372158	-1.7741670108037728	-10.98583251860407	-1.187639244407281	-11.35445092059761	4	missed	0.0
105.233035299927	7.2435880999551046	nogo_punish	1.0	105.24482130003162	108.010267799953	110.54091980005614	2.7654464999213815	106.23830720013939	109.51804840005934	111.55136630008928	1.7719605998136103	1.0228713999968022	0.9370430998974371	n/a	1.0	n/a	2	0	77	3	nogo_punish	0	0	-1	0	0	1	1	n/a	n/a	-1	1.0	1.0	2113.742092799861	2218.9869140998926	2219.9804000000004	2221.752360599814	2223.2601411999203	2224.283012599917	n/a	n/a	2225.2934590999503	2226.2305021998477	2020-02-08 13:37:11.816458	13.5677402793295	-14.267754094354	-0.14876959506908	-0.213724214296704	-13.7165098743986	-0.14876959506908	-13.5677402793295	-0.14876959506908	-14.267754094354	-0.14876959506908	-13.7165098743986	-25.40431336867222	9.267787802429181	-13.837121057330434	1.348069818284748	-0.6739150436414851	-14.058113790403082	1.348069818284748	-24.57216711226329	-1.7211280848445658	-10.98891588727377	-1.134600318448074	-11.35445092059761	4	missed	0.0
112.50351199996658	6.140323000028729	go_punish	0.5517172000836581	112.5152980000712	113.8743620000314	116.40548840002157	1.359063999960199	113.52364149992354	115.39134999993257	117.4146771000228	0.3507205001078546	1.0141384000889957	1.2409439000771272	n/a	1.0	n/a	2	0	78	4	go_punish	0	-1	0	1	1	1	0	n/a	n/a	-1	0.5517172000836581	1.0	2113.742092799861	2226.257390799932	2227.2657342997845	2227.6164547998924	2229.1334427997936	2230.1475811998826	n/a	n/a	2231.156769899884	2232.397713799961	2020-02-08 13:37:11.816458	6.20429521061616	-2.54214589316825	-8.15089851356052	-2.56196025296575	-1.94660330294436	-8.15089851356052	-6.20429521061616	-2.54214589316825	-8.15089851356052	-1.94660330294436	-8.15089851356052	-23.01093707057305	1.9043427337158407	-2.1115128561446825	-6.654059100206692	-3.0221510823105313	-2.2882072189488416	-6.654059100206692	-22.17879081416412	-3.5189617927198458	-5.423304526435689	-3.527976616547244	-5.23759533980413	4	missed	0.0
118.68984170001931	6.09468699991703	nogo_punish	1.0	118.70162770012394	120.27051339996979	122.79630849999376	1.5688856998458505	119.709074200131	121.78613190003671	123.8095813000109	0.5614391998387873	1.010176599957049	0.9867334000300616	n/a	1.0	n/a	2	0	79	3	nogo_punish	1	-1	0	0	0	1	1	n/a	n/a	0	1.0	1.0	2113.742092799861	2232.443720499985	2233.451166999992	2234.0126061998308	2235.5282246998977	2236.5384012998547	n/a	n/a	2237.551674099872	2238.538407499902	2020-02-08 13:37:11.816458	5.3869267841123	-14.267754094354	-8.26112887769731	-8.31032732333586	-13.6480556618096	-8.26112887769731	-5.3869267841123	-8.26112887769731	-14.267754094354	-8.26112887769731	-13.6480556618096	8.26112887769731	1.0869743072119809	-13.837121057330434	-6.764289464343482	-8.77051815268064	-13.989659577814082	-6.764289464343482	9.09327513410624	-9.833487367472795	-10.92046167468477	-9.246959601076304	-11.35445092059761	4	missed	0.0
124.81235729996115	6.120401199907064	go_punish	0.3349908001255244	124.82414330006577	126.55598310008645	129.09333780012093	1.7318398000206798	125.8317253999412	128.0773954000324	130.1075174999428	0.7242577001452446	1.0159424000885338	0.8370270000300479	n/a	1.0	n/a	2	0	80	4	go_punish	1	0	-1	1	1	1	1	n/a	n/a	0	0.3349908001255244	1.0	2113.742092799861	2238.5662360999268	2239.573818199802	2240.2980758999474	2241.8194881998934	2242.835430599982	n/a	n/a	2243.8496102998038	2244.686637299834	2020-02-08 13:37:11.816458	-1.09965573228551	-9.90570545993329	-8.15089851356052	-9.92069049216602	-9.25055424584603	-8.15089851356052	1.09965573228551	-9.90570545993329	-8.15089851356052	-9.25055424584603	-8.15089851356052	9.90570545993329	-5.399608209185829	-9.475072422909724	-6.654059100206692	-10.3808813215108	-9.592158161850513	-6.654059100206692	10.73785171634222	-10.822912735621516	-5.423304526435689	-10.891536183312285	-5.23759533980413	4	missed	0.0
130.9602691999171	6.408588800113648	nogo_reward	0.318500499939546	130.9720552000217	132.36058730003424	134.89114980003797	1.388532100012526	131.96957850013905	133.88442649994977	135.9057084999513	0.39100879989518944	1.006723300088197	1.474935500184074	n/a	1.0	n/a	2	0	81	1	nogo_reward	1	0	1	0	1	0	0	n/a	n/a	0	0.318500499939546	1.0	2113.742092799861	2244.7141479998827	2245.7116713	2246.102680099895	2247.6265192998108	2248.633242599899	n/a	n/a	2249.6478012998123	2251.1227367999963	2020-02-08 13:37:11.816458	7.45767545794227	6.75001942986976	0.0	6.75001942986976	7.45767545794227	0.0	-7.45767545794227	6.75001942986976	0.0	7.45767545794227	0.0	-6.75001942986976	3.1577229810419505	7.180652466893328	1.4968394133538279	6.289828600524979	7.116071541937789	1.4968394133538279	-5.917873173460832	5.885316968166784	2.7275939871248314	5.764188706490766	2.9133031737563893	4	missed	0.0
137.3961409998592	5.758945500012487	go_punish	0.4081707999575883	137.40792699996382	138.85203059995547	141.40393560007215	1.4441035999916494	138.41582140000537	140.38452760013752	142.4077383999247	0.436209199950099	1.0194079999346286	0.7591341000515968	n/a	1.0	n/a	2	0	82	4	go_punish	1	0	-1	1	1	1	1	n/a	n/a	0	0.4081707999575883	1.0	2113.742092799861	2251.150019799825	2252.1579141998664	2252.5941233998165	2254.1266203999985	2255.146028399933	n/a	n/a	2256.1498311997857	2256.9089652998373	2020-02-08 13:37:11.816458	2.16708287600808	-6.62934494878935	-8.15089851356052	-6.64072263236544	-5.98381563755244	-8.15089851356052	-2.16708287600808	-6.62934494878935	-8.15089851356052	-5.98381563755244	-8.15089851356052	6.62934494878935	-2.1328696008922394	-6.198711911765782	-6.654059100206692	-7.100913461710221	-6.325419553556921	-6.654059100206692	7.4614912051982785	-7.556174127327926	-5.423304526435689	-7.615175672168344	-5.23759533980413	4	missed	0.0
143.2023753998801	7.118379200110212	go_reward	0.4653570000082254	143.21416139998473	145.79379840008914	148.34471660014242	2.5796370001044124	144.21777230012276	147.32173470011912	149.35511630005203	1.5760260999663842	1.0229819000232965	0.9774243000429124	n/a	1.0	n/a	2	0	83	2	go_reward	1	1	0	1	1	1	0	n/a	n/a	1	0.4653570000082254	1.0	2113.742092799861	2256.9562541998457	2257.9598650999837	2259.53589119995	2261.06382749998	2262.0868094000034	n/a	n/a	2263.097209099913	2264.074633399956	2020-02-08 13:37:11.816458	15.9080803100905	15.0774344146613	0.0	15.0774344146613	15.9080803100905	0.0	-15.9080803100905	15.0774344146613	0.0	15.9080803100905	0.0	3.1822160912947997	11.608127833190181	15.508067451684866	1.4968394133538279	14.617243585316519	15.566476394086019	1.4968394133538279	4.014362347703728	14.335721820315015	2.7275939871248314	14.091603691282305	2.9133031737563893	4	missed	0.0
150.36311040003784	6.815449999878183	nogo_punish	1.0	150.37489640014246	152.1592371000438	154.68090760009363	1.7843406999013496	151.38956569996708	153.66124300006777	155.69425050006248	0.7696714000767315	1.0196646000258625	1.4960958999581635	n/a	1.0	n/a	2	0	84	3	nogo_punish	1	-1	0	0	0	1	0	n/a	n/a	0	1.0	1.0	2113.742092799861	2264.1169892000034	2265.131658499828	2265.901329899905	2267.4033357999288	2268.4230003999546	n/a	n/a	2269.4363432999235	2270.9324391998816	2020-02-08 13:37:11.816458	8.16191851775782	-14.267754094354	-5.48810840557669	-5.52551255284066	-13.6500269233345	-5.48810840557669	-8.16191851775782	-5.48810840557669	-14.267754094354	-5.48810840557669	-13.6500269233345	5.48810840557669	3.861966040857501	-13.837121057330434	-3.991268992222862	-5.9857033821854415	-13.991630839338983	-3.991268992222862	6.320254661985619	-7.060466895352176	-10.92243293620967	-6.473939128955684	-11.35445092059761	4	missed	0.0
157.20601970003918	7.226870899787173	nogo_reward	0.2856556999031454	157.2178057001438	159.55251750000753	162.0780200001318	2.334711799863726	158.22552700014785	161.0687539000064	163.09197210008324	1.3269904998596758	1.0092661001253873	1.3527044998477322	n/a	1.0	n/a	2	0	85	1	nogo_reward	1	0	1	0	1	0	0	n/a	n/a	0	0.2856556999031454	1.0	2113.742092799861	2270.959898500005	2271.967619800009	2273.2946102998685	2274.8108466998674	2275.820112799993	n/a	n/a	2276.834064899944	2278.186769399792	2020-02-08 13:37:11.816458	4.95846342688435	4.33807503376837	0.0	4.33807503376837	4.95846342688435	0.0	-4.95846342688435	4.33807503376837	0.0	4.95846342688435	0.0	-4.33807503376837	0.6585109499840307	4.768708070791938	1.4968394133538279	3.877884204423589	4.616859510879869	1.4968394133538279	-3.5059287773594416	3.3861049371088643	2.7275939871248314	3.352244310389376	2.9133031737563893	4	missed	0.0
164.47920439997688	6.143381400033832	go_reward	0.037565599894151	164.4909904000815	165.8225968999318	168.3744612999726	1.3316064998502952	165.49589330004528	167.351953699952	169.39311220007949	0.326703599886514	1.0225076000206172	1.2412596000358462	n/a	1.0	n/a	2	0	86	2	go_reward	1	1	0	1	1	1	0	n/a	n/a	1	0.037565599894151	1.0	2113.742092799861	2278.2330831999425	2279.2379860999063	2279.564689699793	2281.094046499813	2282.1165540998336	n/a	n/a	2283.1352049999405	2284.3764645999763	2020-02-08 13:37:11.816458	16.9345243509081	16.0901794934165	0.0	16.0901794934165	16.9345243509081	0.0	-16.9345243509081	16.0901794934165	0.0	16.9345243509081	0.0	2.1694710125395993	12.63457187400778	16.520812530440068	1.4968394133538279	15.62998866407172	16.59292043490362	1.4968394133538279	3.001617268948528	15.362165861132613	2.7275939871248314	15.104348770037506	2.9133031737563893	4	missed	0.0
170.66728319996037	7.268410800024867	go_reward	0.2706623999401927	170.679069200065	173.09846689994401	175.65922260005073	2.4193976998790276	171.67146910005204	174.63638880010694	176.66123010008596	1.4269977998919785	1.0228337999437827	1.2862499000038952	n/a	1.0	n/a	2	0	87	2	go_reward	1	1	0	1	1	1	0	n/a	n/a	1	0.2706623999401927	1.0	2113.742092799861	2284.421161999926	2285.413561899913	2286.840559699805	2288.378481599968	2289.4013153999117	n/a	n/a	2290.403322899947	2291.689572799951	2020-02-08 13:37:11.816458	17.6136020275607	16.7632663361389	0.0	16.7632663361389	17.6136020275607	0.0	-17.6136020275607	16.7632663361389	0.0	17.6136020275607	0.0	1.4963841698171976	13.31364955066038	17.19389937316247	1.4968394133538279	16.30307550679412	17.27199811155622	1.4968394133538279	2.328530426226126	16.041243537785213	2.7275939871248314	15.777435612759907	2.9133031737563893	4	missed	0.0
177.98066610004753	6.091835099970922	nogo_punish	1.0	177.99245210015215	179.27983670006506	181.81802679994144	1.2873845999129117	178.99936140002683	180.7959948000498	182.8344598999247	0.2804753000382334	1.0220319998916239	1.2498273001983762	n/a	1.0	n/a	2	0	88	3	nogo_punish	1	-1	0	0	0	1	0	n/a	n/a	0	1.0	1.0	2113.742092799861	2291.734544900013	2292.741454199888	2293.021929499926	2294.538087599911	2295.5601195998024	n/a	n/a	2296.5765526997857	2297.826379999984	2020-02-08 13:37:11.816458	9.96107712202214	-14.267754094354	-3.69933910537037	-3.72787949961667	-13.6604162273925	-3.69933910537037	-9.96107712202214	-3.69933910537037	-14.267754094354	-3.69933910537037	-13.6604162273925	3.69933910537037	5.66112464512182	-13.837121057330434	-2.2024996920165423	-4.188070328961451	-14.002020143396981	-2.2024996920165423	4.531485361779299	-5.271697595145856	-10.932822240267669	-4.685169828749364	-11.35445092059761	4	missed	0.0
184.0994809998665	6.873393699992903	go_punish	0.2623912000562995	184.11126699997112	186.01572070014709	188.57827630010433	1.9044537001759636	185.11033049994148	187.55904130009003	189.58434500009753	0.905390200205602	1.0192350000143051	1.4003156998664963	n/a	1.0	n/a	2	0	89	4	go_punish	1	0	-1	1	1	1	0	n/a	n/a	0	0.2623912000562995	1.0	2113.742092799861	2297.853359799832	2298.8524232998025	2299.757813500008	2301.301134099951	2302.3203690999653	n/a	n/a	2303.3264377999585	2304.726753499825	2020-02-08 13:37:11.816458	4.28139181859646	-4.4983904871413	-8.15089851356052	-4.50706213007403	-3.86950669496407	-8.15089851356052	-4.28139181859646	-4.4983904871413	-8.15089851356052	-3.86950669496407	-8.15089851356052	4.4983904871413	-0.018560658303859334	-4.067757450117733	-6.654059100206692	-4.967252959418811	-4.211110610968552	-6.654059100206692	5.330536743550229	-5.441865184739556	-5.423304526435689	-5.484221210520294	-5.23759533980413	4	missed	0.0
191.00014030002058	6.655955099966832	nogo_reward	0.3073233999311924	191.0119263001252	192.9777061000932	195.52725280006416	1.9657797999680042	192.0195997999981	194.50959100015507	196.52593569993041	0.9581063000950962	1.0176617999090922	1.1419457001616138	n/a	1.0	n/a	2	0	90	1	nogo_reward	0	1	0	0	1	0	0	n/a	n/a	1	0.3073233999311924	1.0	2113.742092799861	2304.754019099986	2305.761692599859	2306.719798899954	2308.251683800016	2309.269345599925	n/a	n/a	2310.2680284997914	2311.409974199953	2020-02-08 13:37:11.816458	3.41908625704771	2.84193717060436	0.0	2.84193717060436	3.41908625704771	0.0	-3.41908625704771	2.84193717060436	0.0	3.41908625704771	0.0	15.417713335351738	-0.8808662198526096	3.2725702076279277	1.4968394133538279	2.381746341259579	3.077482341043228	1.4968394133538279	16.249859591760668	1.846727767272224	2.7275939871248314	1.856106447225366	2.9133031737563893	4	missed	0.0
197.684592399979	5.79276129999198	nogo_reward	0.5510366000235081	197.69637840008363	199.06201330013573	201.59418240003288	1.3656349000521004	198.70329100009985	200.5833223999948	202.5971939000301	0.358722300035879	1.0108600000380648	0.8919458000455052	n/a	1.0	n/a	2	0	91	1	nogo_reward	1	0	1	0	1	0	0	n/a	n/a	0	0.5510366000235081	1.0	2113.742092799861	2311.4384711999446	2312.445383799961	2312.8041060999967	2314.325415199856	2315.336275199894	n/a	n/a	2316.339286699891	2317.2312324999366	2020-02-08 13:37:11.816458	8.85766971527556	8.13094619394496	0.0	8.13094619394496	8.85766971527556	0.0	-8.85766971527556	8.13094619394496	0.0	8.85766971527556	0.0	-8.13094619394496	4.55771723837524	8.561579230968526	1.4968394133538279	7.670755364600178	8.516065799271077	1.4968394133538279	-7.298799937536031	7.285311225500074	2.7275939871248314	7.145115470565965	2.9133031737563893	4	missed	0.0
203.50700689991936	7.277006600052118	nogo_reward	0.1625810000114143	203.51879290002398	206.0073416000232	208.55520360008813	2.488548699999228	204.5241634999402	207.53519600001164	209.5684122000821	1.4831781000830233	1.0200076000764966	1.2273872999940068	n/a	1.0	n/a	2	0	92	1	nogo_reward	1	0	1	0	1	0	1	n/a	n/a	0	0.1625810000114143	1.0	2113.742092799861	2317.260885699885	2318.266256299801	2319.749434399884	2321.2772887998726	2322.297296399949	n/a	n/a	2323.310504999943	2324.537892299937	2020-02-08 13:37:11.816458	5.88401032041667	5.25515638708214	0.0	5.25515638708214	5.88401032041667	0.0	-5.88401032041667	5.25515638708214	0.0	5.88401032041667	0.0	-5.25515638708214	1.5840578435163506	5.685789424105708	1.4968394133538279	4.794965557737359	5.542406404412189	1.4968394133538279	-4.4230101306732115	4.311651830641184	2.7275939871248314	4.269325663703146	2.9133031737563893	4	missed	0.0
210.82857809984125	7.014955500141241	go_reward	0.2846775001380592	210.84036409994587	213.36834920011506	215.90035380003974	2.5279851001691895	211.84703930001706	214.88855920010246	216.9029765001028	1.5213099000980037	1.011794599937275	0.9523430999843185	n/a	1.0	n/a	2	0	93	2	go_reward	1	1	0	1	1	1	0	n/a	n/a	1	0.2846775001380592	1.0	2113.742092799861	2324.582456899807	2325.589132099878	2327.110441999976	2328.6306519999634	2329.6424465999007	n/a	n/a	2330.645069299964	2331.597412399948	2020-02-08 13:37:11.816458	18.0690805226478	17.2166192365905	0.0	17.2166192365905	18.0690805226478	0.0	-18.0690805226478	17.2166192365905	0.0	18.0690805226478	0.0	1.0430312693655992	13.769128045747479	17.64725227361407	1.4968394133538279	16.756428407245718	17.727476606643318	1.4968394133538279	1.875177525774528	16.496722032872313	2.7275939871248314	16.230788513211508	2.9133031737563893	4	missed	0.0
217.87036399985664	7.178283100016415	nogo_reward	0.2874525999650359	217.88214999996126	220.16154960007407	222.6947201001458	2.2793996001128107	218.88106929999776	221.68420240003616	223.7078476001043	1.2804803000763059	1.0105177001096308	1.3525854998733848	n/a	1.0	n/a	2	0	94	1	nogo_reward	1	0	1	0	1	0	1	n/a	n/a	0	0.2874525999650359	1.0	2113.742092799861	2331.6242427998222	2332.6231620998587	2333.903642399935	2335.426295199897	2336.4368129000068	n/a	n/a	2337.4499403999653	2338.8025258998387	2020-02-08 13:37:11.816458	4.03935601662964	3.45908460559111	0.0	3.45908460559111	4.03935601662964	0.0	-4.03935601662964	3.45908460559111	0.0	4.03935601662964	0.0	-3.45908460559111	-0.26059646027067984	3.8897176426146776	1.4968394133538279	2.998893776246329	3.697752100625158	1.4968394133538279	-2.626938349182181	2.4669975268541537	2.7275939871248314	2.473253882212116	2.9133031737563893	4	missed	0.0
225.07588469982147	6.466904900036752	go_punish	0.3105682001914829	225.0876706999261	227.06060359999537	229.610583800124	1.9729329000692815	226.08659690013155	228.58948280010372	230.62388460012153	0.9740066998638213	1.0211010000202805	0.9306909998413175	n/a	1.0	n/a	2	0	95	4	go_punish	1	0	-1	1	1	1	0	n/a	n/a	0	0.3105682001914829	1.0	2113.742092799861	2338.829763499787	2339.8286896999925	2340.8026963998564	2342.3315755999647	2343.352676599985	n/a	n/a	2344.3659773999825	2345.296668399824	2020-02-08 13:37:11.816458	5.67368992276681	-3.08908582655665	-8.15089851356052	-3.09571924873509	-2.47720859079371	-8.15089851356052	-5.67368992276681	-3.08908582655665	-8.15089851356052	-2.47720859079371	-8.15089851356052	3.08908582655665	1.3737374458664906	-2.6584527895330825	-6.654059100206692	-3.5559100780798714	-2.8188125067981917	-6.654059100206692	3.921232082965579	-4.0495670805691955	-5.423304526435689	-4.074916549935644	-5.23759533980413	4	missed	0.0
231.58729299996048	7.7527767000719905	go_reward	0.1349610998295247	231.5990790000651	234.55509310006164	237.10084570012987	2.956014099996537	232.5961488999892	236.08672120003075	238.10849110013805	1.9589442000724375	1.0141245000991148	1.2433645999990404	n/a	1.0	n/a	2	0	96	2	go_reward	1	1	0	1	1	1	0	n/a	n/a	1	0.1349610998295247	1.0	2113.742092799861	2345.341171799926	2346.33824169985	2348.2971858999226	2349.8288139998917	2350.842938499991	n/a	n/a	2351.850583899999	2353.093948499998	2020-02-08 13:37:11.816458	18.3783521975737	17.5256395451146	0.0	17.5256395451146	18.3783521975737	0.0	-18.3783521975737	17.5256395451146	0.0	18.3783521975737	0.0	0.7340109608414984	14.078399720673382	17.95627258213817	1.4968394133538279	17.06544871576982	18.03674828156922	1.4968394133538279	1.5661572172504272	16.805993707798216	2.7275939871248314	16.539808821735605	2.9133031737563893	4	missed	0.0
239.3674170000013	6.898353299824521	nogo_reward	0.4321622001007199	239.37920300010592	241.84689550008625	244.3800743999891	2.4676924999803305	240.3791157000228	243.36842750012875	245.39339670003392	1.4677798000634539	1.0116468998603523	0.8841595998965204	n/a	1.0	n/a	2	0	97	1	nogo_reward	1	0	1	0	1	0	0	n/a	n/a	0	0.4321622001007199	1.0	2113.742092799861	2353.121295799967	2354.121208499884	2355.5889882999472	2357.1105202999897	2358.12216719985	n/a	n/a	2359.135489499895	2360.0196490997914	2020-02-08 13:37:11.816458	2.86870597342862	2.31254919423599	0.0	2.31254919423599	2.86870597342862	0.0	-2.86870597342862	2.31254919423599	0.0	2.86870597342862	0.0	-2.31254919423599	-1.4312465034716992	2.7431822312595577	1.4968394133538279	1.852358364891209	2.5271020574241385	1.4968394133538279	-1.4804029378270613	1.2963474836531343	2.7275939871248314	1.3267184708569961	2.9133031737563893	4	missed	0.0
246.31412879982963	6.016224500024691	go_reward	0.3358270998578518	246.32591479993425	247.81722959992476	250.374286799924	1.491314799990505	247.32313570007682	249.35441510006785	251.39042460010387	0.4940938998479396	1.0198716998561395	0.9517146998550743	n/a	1.0	n/a	2	0	98	2	go_reward	0	0	1	1	1	1	1	n/a	n/a	0	0.3358270998578518	1.0	2113.742092799861	2360.0680075997952	2361.065228499938	2361.5593223997857	2363.096507899929	2364.116379599785	n/a	n/a	2365.132517399965	2366.08423209982	2020-02-08 13:37:11.816458	18.590683749065	17.7385638928223	0.0	17.7385638928223	18.590683749065	0.0	-18.590683749065	17.7385638928223	0.0	18.590683749065	0.0	-17.7385638928223	14.290731272164681	18.169196929845867	1.4968394133538279	17.278373063477517	18.24907983306052	1.4968394133538279	-16.90641763641337	17.018325259289515	2.7275939871248314	16.752733169443303	2.9133031737563893	4	missed	0.0
252.37235730001657	7.780422699870996	go_reward	0.3288144001271575	252.3841433001212	255.2192349000834	257.7674130999949	2.8350915999621975	253.3845923000481	256.75698600010946	258.78056779992767	1.834642600035295	1.010427099885419	1.383998200064525	n/a	1.0	n/a	2	0	99	2	go_reward	0	0	1	1	1	1	0	n/a	n/a	0	0.3288144001271575	1.0	2113.742092799861	2366.126236099982	2367.126685099909	2368.9613276999444	2370.4990787999704	2371.509505899856	n/a	n/a	2372.5226605997887	2373.906658799853	2020-02-08 13:37:11.816458	12.3281985737447	11.6480685151924	0.0	11.6480685151924	12.3281985737447	0.0	-12.3281985737447	11.6480685151924	0.0	12.3281985737447	0.0	-11.6480685151924	8.02824609684438	12.078701552215966	1.4968394133538279	11.187877685847619	11.986594657740218	1.4968394133538279	-10.81592225878347	10.755840083969215	2.7275939871248314	10.662237791813405	2.9133031737563893	4	missed	0.0
260.19748619990423	6.343311700038612	nogo_punish	1.0	260.20927220000885	261.636565499939	264.1791463999548	1.4272932999301702	261.21560120000504	263.1581441999879	265.19321379996836	0.4209642999339849	1.0210021999669152	1.3593701000791043	n/a	1.0	n/a	2	0	100	3	nogo_punish	1	-1	0	0	0	1	0	n/a	n/a	0	1.0	1.0	2113.742092799861	2373.95136499987	2374.957693999866	2375.3786582998	2376.900236999849	2377.921239199816	n/a	n/a	2378.9353065998293	2380.2946766999085	2020-02-08 13:37:11.816458	11.1474309208819	-14.267754094354	-2.52502873644124	-2.54688215756372	-13.6724596573231	-2.52502873644124	-11.1474309208819	-2.52502873644124	-14.267754094354	-2.52502873644124	-13.6724596573231	2.52502873644124	6.847478443981581	-13.837121057330434	-1.028189323087412	-3.007072986908501	-14.014063573327583	-1.028189323087412	3.357174992850169	-4.097387226216726	-10.944865670198269	-3.510859459820234	-11.35445092059761	4	missed	0.0
266.60307359998114	6.857126099989273	go_reward	0.2803220001515001	266.61485960008577	268.6557553000748	271.2105803999584	2.0408956999890506	267.6206853999756	270.18737359996885	272.21328789996915	1.035069900099188	1.0232067999895662	1.2586978001058924	n/a	1.0	n/a	2	0	101	2	go_reward	1	1	0	1	1	1	1	n/a	n/a	1	0.2803220001515001	1.0	2113.742092799861	2380.3569523999467	2381.3627781998366	2382.397848099936	2383.92946639983	2384.9526731998194	n/a	n/a	2385.95538069983	2387.214078499936	2020-02-08 13:37:11.816458	8.37026545706188	7.77484796618558	0.0	7.77484796618558	8.37026545706188	0.0	-8.37026545706188	7.77484796618558	0.0	8.37026545706188	0.0	10.48480253977052	4.07031298016156	8.205481003209147	1.4968394133538279	7.314657136840799	8.028661541057398	1.4968394133538279	11.31694879617945	6.797906967286394	2.7275939871248314	6.789017242806586	2.9133031737563893	4	missed	0.0
273.5066597999539	6.5984294000086265	go_reward	0.4083014999050647	273.51844580005854	275.3346935000736	277.89127740007825	1.816247700015083	274.5234018000774	276.8720299000852	278.9045174000785	0.8112916999962181	1.019247499993071	1.2123577999886948	n/a	1.0	n/a	2	0	102	2	go_reward	0	0	1	1	1	1	0	n/a	n/a	0	0.4083014999050647	1.0	2113.742092799861	2387.2605385999195	2388.2654945999384	2389.0767862999346	2390.614122699946	2391.6333701999392	n/a	n/a	2392.6466101999395	2393.858967999928	2020-02-08 13:37:11.816458	12.2274223010615	11.5019369125101	0.0	11.5019369125101	12.2274223010615	0.0	-12.2274223010615	11.5019369125101	0.0	12.2274223010615	0.0	-11.5019369125101	7.9274698241611805	11.932569949533667	1.4968394133538279	11.04174608316532	11.885818385057018	1.4968394133538279	-10.66979065610117	10.655063811286015	2.7275939871248314	10.516106189131106	2.9133031737563893	4	missed	0.0
280.1316282998305	7.714974700008042	go_punish	0.305331600131467	280.1434142999351	282.8666827999991	285.4174784999341	2.723268500064023	281.15158369997516	284.3978148000315	286.43063800013624	1.7150991000239628	1.019663699902594	1.4277509998069036	n/a	1.0	n/a	2	0	103	4	go_punish	1	0	-1	1	1	1	0	n/a	n/a	0	0.305331600131467	1.0	2113.742092799861	2393.885507099796	2394.893676499836	2396.60877559986	2398.1399075998925	2399.159571299795	n/a	n/a	2400.172730799997	2401.600481799804	2020-02-08 13:37:11.816458	6.6039744945189	-2.14380272566142	-8.15089851356052	-2.14889490867171	-1.54692401904162	-8.15089851356052	-6.6039744945189	-2.14380272566142	-8.15089851356052	-1.54692401904162	-8.15089851356052	2.14380272566142	2.30402201761858	-1.7131696886378522	-6.654059100206692	-2.6090857380164914	-1.8885279350461015	-6.654059100206692	2.9759489820703484	-3.119282508817106	-5.423304526435689	-3.129633449040414	-5.23759533980413	4	missed	0.0
287.8953907999676	7.221030500018969	go_reward	0.3029120999854058	287.9071768000722	290.6699872999452	293.1988679000642	2.7628104998730123	288.9056573000271	292.1858727000654	294.2125129001215	1.7643299999181181	1.0129951999988407	0.9156943999696523	n/a	1.0	n/a	2	0	104	2	go_reward	1	1	0	1	1	1	1	n/a	n/a	1	0.3029120999854058	1.0	2113.742092799861	2401.649269599933	2402.647750099888	2404.412080099806	2405.9279654999264	2406.940960699925	n/a	n/a	2407.9546056999825	2408.870300099952	2020-02-08 13:37:11.816458	8.20410493250606	7.58484045619101	0.0	7.58484045619101	8.20410493250606	0.0	-8.20410493250606	7.58484045619101	0.0	8.20410493250606	0.0	10.674810049765089	3.9041524556057414	8.015473493214577	1.4968394133538279	7.124649626846229	7.86250101650158	1.4968394133538279	11.506956306174018	6.6317464427305755	2.7275939871248314	6.599009732812016	2.9133031737563893	4	missed	0.0
295.1441865998786	7.381510300096124	nogo_reward	0.2870573999825865	295.1559725999832	297.5179000000935	300.0676561000291	2.3619274001102895	296.1634271000512	299.0451992999292	301.0708093000576	1.3544729000423104	1.022456800099917	1.4666736000217497	n/a	1.0	n/a	2	0	105	1	nogo_reward	1	0	1	0	1	0	0	n/a	n/a	0	0.2870573999825865	1.0	2113.742092799861	2408.898065399844	2409.905519899912	2411.2599927999545	2412.78729209979	2413.80974889989	n/a	n/a	2414.8129020999186	2416.2795756999403	2020-02-08 13:37:11.816458	2.11160734300784	1.56717624744412	0.0	1.56717624744412	2.11160734300784	0.0	-2.11160734300784	1.56717624744412	0.0	2.11160734300784	0.0	-1.56717624744412	-2.1883451338924793	1.9978092844676876	1.4968394133538279	1.1069854180993388	1.7700034270033587	1.4968394133538279	-0.7350299910351912	0.5392488532323543	2.7275939871248314	0.581345524065126	2.9133031737563893	4	missed	0.0
302.580420400016	6.322700399905443	nogo_punish	1.0	302.59220640012063	303.95510750007816	306.48997450014576	1.3629010999575257	303.5962706999853	305.4705066999886	307.49853760004044	0.35883680009283125	1.0194678001571447	1.4163691999856383	n/a	1.0	n/a	2	0	106	3	nogo_punish	1	-1	0	0	0	1	0	n/a	n/a	0	1.0	1.0	2113.742092799861	2416.3342991999816	2417.3383634998463	2417.697200299939	2419.2125994998496	2420.2320673000067	n/a	n/a	2421.2406303999014	2422.656999599887	2020-02-08 13:37:11.816458	11.9409735658075	-14.267754094354	-1.74261581508347	-1.75940571454829	-13.683589380891	-1.74261581508347	-11.9409735658075	-1.74261581508347	-14.267754094354	-1.74261581508347	-13.683589380891	1.74261581508347	7.641021088907181	-13.837121057330434	-0.2457764017296422	-2.219596543893071	-14.025193296895482	-0.2457764017296422	2.574762071492399	-3.314974304858956	-10.95599539376617	-2.728446538462464	-11.35445092059761	4	missed	0.0
308.9510579998605	6.309681200189971	go_reward	0.2971212998963892	308.9628439999651	310.53663660003804	313.07033050013706	1.5737926000729203	309.97514940006704	312.0682041000109	314.0721798001323	0.5614871999709976	1.0021264001261443	1.2003454000227975	n/a	1.0	n/a	2	0	107	2	go_reward	0	0	1	1	1	1	0	n/a	n/a	0	0.2971212998963892	1.0	2113.742092799861	2422.704936799826	2423.717242199928	2424.278729399899	2425.810296899872	2426.812423299998	n/a	n/a	2427.8142725999933	2429.014618000016	2020-02-08 13:37:11.816458	12.0632071165815	11.32421974563	0.0	11.32421974563	12.0632071165815	0.0	-12.0632071165815	11.32421974563	0.0	12.0632071165815	0.0	-11.32421974563	7.763254639681181	11.754852782653566	1.4968394133538279	10.86402891628522	11.721603200577018	1.4968394133538279	-10.49207348922107	10.490848626806015	2.7275939871248314	10.338389022251006	2.9133031737563893	4	missed	0.0
315.3062954999041	6.096376599976793	nogo_punish	1.0	315.3180815000087	316.67196019995026	319.2029331000522	1.3538786999415606	316.3232332000043	318.1832628000993	320.21677890000865	0.3487269999459386	1.0196702999528497	1.1976791999768466	n/a	1.0	n/a	2	0	108	3	nogo_punish	1	-1	0	0	0	1	1	n/a	n/a	0	1.0	1.0	2113.742092799861	2429.0601742998697	2430.0653259998653	2430.4140529998112	2431.9253555999603	2432.945025899913	n/a	n/a	2433.9588716998696	2435.1565508998465	2020-02-08 13:37:11.816458	12.4784125977889	-14.267754094354	-1.214589782341	-1.22753168947693	-13.6930023801299	-1.214589782341	-12.4784125977889	-1.214589782341	-14.267754094354	-1.214589782341	-13.6930023801299	1.214589782341	8.17846012088858	-13.837121057330434	0.28224963101282796	-1.687722518821711	-14.034606296134383	0.28224963101282796	2.0467360387499287	-2.7869482721164855	-10.96540839300507	-2.200420505719994	-11.35445092059761	4	missed	0.0
321.47729589999653	7.639398799976334	go_reward	0.4398940000683069	321.48908190010116	324.0951014000457	326.6392449999694	2.606019499944523	322.48538390011527	325.62693249993026	327.6416005999781	1.6097174999304116	1.0123125000391155	1.4868801000993699	n/a	1.0	n/a	2	0	109	2	go_reward	1	1	0	1	1	1	1	n/a	n/a	1	0.4398940000683069	1.0	2113.742092799861	2435.231174699962	2436.2274766999763	2437.8371941999067	2439.3690252997912	2440.3813377998304	n/a	n/a	2441.383693399839	2442.8705734999385	2020-02-08 13:37:11.816458	8.06333589998239	7.43588876268488	0.0	7.43588876268488	8.06333589998239	0.0	-8.06333589998239	7.43588876268488	0.0	8.06333589998239	0.0	10.82376174327122	3.76338342308207	7.866521799708448	1.4968394133538279	6.975697933340099	7.721731983977908	1.4968394133538279	11.65590799968015	6.490977410206904	2.7275939871248314	6.450058039305886	2.9133031737563893	4	missed	0.0
329.1650258998852	6.9922269999515265	nogo_punish	1.0	329.17681189998984	331.8809768999927	334.3963582001161	2.704165000002831	330.1746833000798	333.3768645999953	335.409634700045	1.7062935999128968	1.019493600120768	0.7594041998963803	n/a	1.0	n/a	2	0	110	3	nogo_punish	1	-1	0	0	0	1	1	n/a	n/a	0	1.0	1.0	2113.742092799861	2442.918904699851	2443.9167760999408	2445.6230696998537	2447.1189573998563	2448.138450999977	n/a	n/a	2449.151727499906	2449.9111316998024	2020-02-08 13:37:11.816458	12.846439249653	-14.267754094354	-0.854181960914844	-0.864189437483004	-13.7006212105678	-0.854181960914844	-12.846439249653	-0.854181960914844	-14.267754094354	-0.854181960914844	-13.7006212105678	0.854181960914844	8.546486772752681	-13.837121057330434	0.6426574524389839	-1.324380266827785	-14.042225126572282	0.6426574524389839	1.6863282173237728	-2.4265404506903296	-10.973027223442969	-1.840012684293838	-11.35445092059761	4	missed	0.0
336.18119909986854	6.334065699949861	go_punish	0.633909999858588	336.19298509997316	338.04203930008225	340.59315069997683	1.8490542001090944	337.1999049999281	339.5735450000502	341.60684369993396	0.8421343001541572	1.0196056999266148	0.9202070999890566	n/a	1.0	n/a	2	0	111	4	go_punish	1	0	-1	1	1	1	0	n/a	n/a	0	0.633909999858588	1.0	2113.742092799861	2449.935077899834	2450.941997799789	2451.7841320999432	2453.315637799911	2454.335243499838	n/a	n/a	2455.348936499795	2456.269143599784	2020-02-08 13:37:11.816458	7.23343866750858	-1.50194110245839	-8.15089851356052	-1.50586344504895	-0.917459846051942	-8.15089851356052	-7.23343866750858	-1.50194110245839	-8.15089851356052	-0.917459846051942	-8.15089851356052	1.50194110245839	2.93348619060826	-1.0713080654348224	-6.654059100206692	-1.9660542743937313	-1.2590637620564236	-6.654059100206692	2.3340873588673188	-2.4898183358274277	-5.423304526435689	-2.4877718258373838	-5.23759533980413	4	missed	0.0
342.5420542999632	6.69008630001963	go_punish	0.5642084998544306	342.5538403000678	344.23275790014304	346.7801057000179	1.6789176000752377	343.56179130007513	345.77037689997815	347.7848481000401	0.6709666000679135	1.0097288000397384	1.459078500047326	n/a	1.0	n/a	2	0	112	4	go_punish	1	0	-1	1	1	1	0	n/a	n/a	0	0.5642084998544306	1.0	2113.742092799861	2456.295933099929	2457.303884099936	2457.974850700004	2459.512469699839	2460.522198499879	n/a	n/a	2461.526940899901	2462.9860193999484	2020-02-08 13:37:11.816458	7.6641231510567	-1.06134970356293	-8.15089851356052	-1.06438087528453	-0.486775362503821	-8.15089851356052	-7.6641231510567	-1.06134970356293	-8.15089851356052	-0.486775362503821	-8.15089851356052	1.06134970356293	3.36417067415638	-0.6307166665393624	-6.654059100206692	-1.5245717046293112	-0.8283792785083025	-6.654059100206692	1.8934959599718588	-2.059133852279307	-5.423304526435689	-2.047180426941924	-5.23759533980413	4	missed	0.0
349.27972059999547	6.389747399837233	go_reward	0.2924291999079287	349.2915066001001	351.2995472000912	353.86369529995136	2.008040599991091	350.2946180999279	352.843015700113	354.87533039995515	1.004929100163281	1.0206795998383313	0.8059235999821794	n/a	1.0	n/a	2	0	113	2	go_reward	1	1	0	1	1	1	0	n/a	n/a	1	0.2924291999079287	1.0	2113.742092799861	2463.033599399961	2464.036710899789	2465.041639999952	2466.585108499974	2467.6057880998123	n/a	n/a	2468.617423199816	2469.4233467997983	2020-02-08 13:37:11.816458	11.9497801493339	11.2055241244692	0.0	11.2055241244692	11.9497801493339	0.0	-11.9497801493339	11.2055241244692	0.0	11.9497801493339	0.0	7.054126381486899	7.649827672433581	11.636157161492767	1.4968394133538279	10.74533329512442	11.608176233329418	1.4968394133538279	7.886272637895828	10.377421659558415	2.7275939871248314	10.219693401090206	2.9133031737563893	4	missed	0.0
355.6947321998887	7.302973699988797	go_punish	0.3425021998118609	355.7065181999933	358.47637300007045	361.02746769995474	2.7698548000771552	356.71265460015275	360.0076914001256	362.04073760006577	1.7637183999177068	1.0197762998291182	0.968754299916327	n/a	1.0	n/a	2	0	114	4	go_punish	1	0	-1	1	1	1	1	n/a	n/a	0	0.3425021998118609	1.0	2113.742092799861	2469.4486109998543	2470.4547474000137	2472.2184657999314	2473.7497841999866	2474.7695604998157	n/a	n/a	2475.7828303999268	2476.751584699843	2020-02-08 13:37:11.816458	7.9617559987362	-0.755949737072595	-8.15089851356052	-0.7582996425858	-0.189142514824326	-8.15089851356052	-7.9617559987362	-0.755949737072595	-8.15089851356052	-0.189142514824326	-8.15089851356052	0.755949737072595	3.66180352183588	-0.3253167000490275	-6.654059100206692	-1.2184904719305811	-0.5307464308288076	-6.654059100206692	1.5880959934815237	-1.7615010045998118	-5.423304526435689	-1.7417804604515892	-5.23759533980413	4	missed	0.0
363.04299269989133	6.478106199996091	nogo_punish	1.0	363.05477869999595	364.53826060006395	367.0507974999491	1.483481900068	364.06583869992755	366.04015260003507	368.05499189998955	0.4724219001363963	1.0106448999140412	1.4778930000024957	n/a	1.0	n/a	2	0	115	3	nogo_punish	1	-1	0	0	0	1	0	n/a	n/a	0	1.0	1.0	2113.742092799861	2476.796871499857	2477.8079314997885	2478.280353399925	2479.782245399896	2480.79289029981	n/a	n/a	2481.7970846998505	2483.274977699853	2020-02-08 13:37:11.816458	13.1009697195187	-14.267754094354	-0.605670479519318	-0.613432660176531	-13.706640199038	-0.605670479519318	-13.1009697195187	-0.605670479519318	-14.267754094354	-0.605670479519318	-13.706640199038	0.605670479519318	8.80101724261838	-13.837121057330434	0.8911689338345099	-1.0736234895213121	-14.048244115042483	0.8911689338345099	1.4378167359282468	-2.178028969294804	-10.979046211913168	-1.591501202898312	-11.35445092059761	4	missed	0.0
369.55183849995956	6.817388599971309	nogo_reward	0.2723519999999553	369.5636245000642	371.78546190005727	374.3280784001108	2.221837399993092	370.5678310999647	373.3081098999828	375.34092670003884	1.2176308000925928	1.0199685001280159	1.0400863999966532	n/a	1.0	n/a	2	0	116	1	nogo_reward	1	0	1	0	1	0	0	n/a	n/a	0	0.2723519999999553	1.0	2113.742092799861	2483.305717299925	2484.3099238998257	2485.5275546999183	2487.050202699844	2488.070171199972	n/a	n/a	2489.0830194999	2490.1231058998965	2020-02-08 13:37:11.816458	1.61395313739354	1.07492888346169	0.0	1.07492888346169	1.61395313739354	0.0	-1.61395313739354	1.07492888346169	0.0	1.61395313739354	0.0	-1.07492888346169	-2.6859993395067794	1.5055619204852575	1.4968394133538279	0.6147380541169087	1.2723492213890586	1.4968394133538279	-0.2427826270527611	0.041594647618054204	2.7275939871248314	0.08909816008269589	2.9133031737563893	4	missed	0.0
376.3985540999565	6.429820500081405	nogo_reward	0.3548583998344838	376.41034010006115	378.084143999964	380.6216881000437	1.6738038999028504	377.407069100067	379.5971081999596	381.6314416001551	0.6770748998969793	1.0245799000840634	1.2087189999874681	n/a	1.0	n/a	2	0	117	1	nogo_reward	0	1	0	0	1	0	0	n/a	n/a	1	0.3548583998344838	1.0	2113.742092799861	2490.152432899922	2491.149161899928	2491.826236799825	2493.3392009998206	2494.3637808999047	n/a	n/a	2495.373534400016	2496.5822534000035	2020-02-08 13:37:11.816458	1.2821476662194	0.745324488082342	0.0	0.745324488082342	1.2821476662194	0.0	-1.2821476662194	0.745324488082342	0.0	1.2821476662194	0.0	17.514326017873756	-3.0178048106809197	1.1759575251059096	1.4968394133538279	0.28513365873756086	0.9405437502149185	1.4968394133538279	18.346472274282686	-0.29021082355608585	2.7275939871248314	-0.24050623529665205	2.9133031737563893	4	missed	0.0
382.8761171998922	6.409910599934392	nogo_punish	1.0	382.8879031999968	384.74191570002586	387.2723463999573	1.8540125000290573	383.8992831001524	386.25816810014703	388.2734670999921	0.8426325998734683	1.0141782998102826	1.0243466999390876	n/a	1.0	n/a	2	0	118	3	nogo_punish	0	0	-1	0	0	1	0	n/a	n/a	-1	1.0	1.0	2113.742092799861	2496.629995999858	2497.6413759000134	2498.484008499887	2500.000260900008	2501.0144391998183	n/a	n/a	2502.015559899853	2503.039906599792	2020-02-08 13:37:11.816458	13.2786021535079	-14.267754094354	-0.432726875564183	-0.438765451685406	-13.711329029072	-0.432726875564183	-13.2786021535079	-0.432726875564183	-14.267754094354	-0.432726875564183	-13.711329029072	-25.120356088177118	8.978649676607581	-13.837121057330434	1.064112537789645	-0.8989562810301871	-14.052932945076481	1.064112537789645	-24.28820983176819	-2.005085365339669	-10.983735041947167	-1.4185575989431771	-11.35445092059761	4	missed	0.0
389.3129666999448	6.442976200021803	go_punish	0.4088847998064011	389.32475270004943	390.82293460005894	393.364359700121	1.498181900009513	390.3325529000722	392.35420659999363	394.3671393000991	0.49038169998675585	1.0101531001273543	1.400589599972136	n/a	1.0	n/a	2	0	119	4	go_punish	1	0	-1	1	1	1	0	n/a	n/a	0	0.4088847998064011	1.0	2113.742092799861	2503.0668454999104	2504.074645699933	2504.56502739992	2506.0962993998546	2507.106452499982	n/a	n/a	2508.10923209996	2509.509821699932	2020-02-08 13:37:11.816458	8.16931134297173	-0.542372220162205	-8.15089851356052	-0.544199559468347	0.0184128294112046	-8.15089851356052	-8.16931134297173	-0.542372220162205	-8.15089851356052	0.0184128294112046	-8.15089851356052	0.542372220162205	3.86935886607141	-0.11173918313863745	-6.654059100206692	-1.004390388813128	-0.32319108659327694	-6.654059100206692	1.3745184765711338	-1.5539456603642812	-5.423304526435689	-1.528202943541199	-5.23759533980413	4	missed	0.0
395.80193139985204	6.508686700137332	nogo_punish	1.0	395.81371739995666	397.6693395001348	400.20938870008104	1.8556221001781523	396.8138840000611	399.18647820013575	401.21991390013136	0.855455500073731	1.022910499945283	1.1024901999626309	n/a	1.0	n/a	2	0	120	3	nogo_punish	0	0	-1	0	0	1	1	n/a	n/a	-1	1.0	1.0	2113.742092799861	2509.5558101998176	2510.555976799922	2511.411432299996	2512.9285709999967	2513.951481499942	n/a	n/a	2514.9620066999923	2516.064496899955	2020-02-08 13:37:11.816458	5.18188067893739	-14.267754094354	-8.46224939151149	-8.46696065802387	-13.6441300704489	-8.46224939151149	-5.18188067893739	-8.46224939151149	-14.267754094354	-8.46224939151149	-13.6441300704489	-17.090833572229812	0.8819282020370709	-13.837121057330434	-6.965409978157662	-8.92715148736865	-13.985733986453383	-6.965409978157662	-16.258687315820882	-10.034607881286975	-10.916536083324068	-9.448080114890484	-11.35445092059761	4	missed	0.0
