onset	duration	trial_type	response_time	cueOnset	targetOnset	fbOnset	cueRT	firstfixOnset	secondfixOnset	waitOnset	firstfixdur	secondfixdur	waitdur	nback_fbOnset	nback_response_time	nback_targetOnset	block	wm	trial	cue	cond	is_common	outcome_go	outcome_nogo	key_correct	key_pressed	is_correct	key_correct_nback	key_pressed_nback	is_correct_nback	outcome	rt	rt_nback	time_scan	time_onset	time_isi1	time_circle	time_isi2	time_feedback	time_same	time_correct	time_iti	time_done	timestamp_scan	DV	Qgo	Qnogo	SV	Wgo	Wnogo	mDV	Qchosen	Qunchosen	Wchosen	Wunchosen	PE	DVC	QgoC	QnogoC	SVC	WgoC	WnogoC	PEC	WchosenC	WunchosenC	QchosenC	QunchosenC	run	outcome_nback	nback_targetResp
0.0	8.378636300097924	nogo_reward	1.0	0.023304899921868127	1.3881403999400845	3.916092500090599	1.3648355000182164	1.0279989000409842	2.9023319999687374	6.955744700040668	0.3601414998991004	1.0137605001218617	1.4461964999791235	5.945407700026408	1.0	4.9369594000745565	1	1	61	1	nogo_reward	1	0	1	0	0	1	0	n/a	0.0	1	1.0	1.0	1054.4483699998818	1054.4716748998037	1055.4763688999228	1055.836510399822	1057.3507019998506	1058.3644624999724	1059.3853293999564	1060.3937776999082	1061.4041146999225	1062.8503111999016	2020-02-08 13:19:32.520984	2.8743127738337	1.15200606665342	3.13355093662133	3.70086540991285	0.259238162787629	3.13355093662133	-2.8743127738337	3.13355093662133	1.15200606665342	3.13355093662133	0.259238162787629	15.12609956933477	-1.4256397030666195	1.5826391036769876	4.6303903499751575	3.240674580568069	-0.08236575321685252	4.6303903499751575	15.958245825743699	1.561192446845844	2.9868321499124604	2.147720213242336	4.0653092404098095	2	missed	0.0
8.42033460014477	8.505376099841442	nogo_punish	1.0	8.443639500066638	10.179532099980861	12.713135499973077	1.735892599914223	9.45339599996828	11.693396599963307	15.737216100096475	0.7261361000125817	1.01973890000977	1.2117994998116046	14.739882000023272	1.0	13.731098900083452	1	1	62	3	nogo_punish	1	-1	0	0	0	1	0	n/a	0.0	0	1.0	1.0	1054.4483699998818	1062.8920094999485	1063.90176599985	1064.6279020998627	1066.1417665998451	1067.161505499855	1068.1794688999653	1069.188251999905	1070.1855860999783	1071.39738559979	2020-02-08 13:19:32.520984	-0.337944025523233	-4.12508211130177	-1.53435288159148	-4.8749937885231	-1.19640885606825	-1.53435288159148	0.337944025523233	-1.53435288159148	-4.12508211130177	-1.53435288159148	-1.19640885606825	1.53435288159148	-4.637896502423552	-3.694449074278203	-0.037513468237652114	-5.335184617867881	-1.5380127720727315	-0.037513468237652114	2.3664991380004086	-3.106711371366966	1.5311851310565814	-2.520183604970474	-1.2117789375453811	2	missed	0.0
16.964233000063814	8.500004600035254	go_reward	0.3139204999897629	16.987537899985682	18.896298200124875	21.51999199995771	1.9087603001391926	18.00024570012465	20.480685400078073	24.581290900008753	0.8960525000002235	1.0393065998796374	0.9062516000121832	23.57454840000719	0.3562791999429464	22.537870000116527	1	1	63	2	go_reward	1	1	0	1	1	1	0	0.0	1.0	1	0.3139204999897629	0.3562791999429464	1054.4483699998818	1071.4359078998675	1072.4486157000065	1073.3446682000067	1074.92905539996	1075.9683619998395	1076.9862399999984	1078.022918399889	1079.0296608998906	1079.9359124999028	2020-02-08 13:19:32.520984	2.29499069681002	2.51458477020853	0.0	2.01108235185385	2.29499069681002	0.0	-2.29499069681002	2.51458477020853	0.0	2.29499069681002	0.0	15.74506573574757	-2.0049617800902992	2.9452178072320976	1.4968394133538279	1.550891522509069	1.9533867808055387	1.4968394133538279	16.5772119921565	0.7226322070345343	2.7275939871248314	1.528754046829536	2.9133031737563893	2	correct	1.0
25.501167000038322	9.210661299992353	go_reward	0.2188818000722676	25.52447189996019	28.0710680000484	30.62507990002632	2.546596100088209	26.52611090010032	29.602407899918262	33.68900400004327	1.5449570999480784	1.0226720001080594	1.0461291999092737	32.6740266000852	0.4990334999747574	31.639134400058538	1	1	64	2	go_reward	1	1	0	1	1	1	0	0.0	1.0	1	0.2188818000722676	0.4990334999747574	1054.4483699998818	1079.972841899842	1080.9744808999822	1082.5194379999302	1084.0507778998	1085.0734498999082	1086.0875043999404	1087.122396599967	1088.137373999925	1089.1835031998344	2020-02-08 13:19:32.520984	2.59943536771208	3.02174371546667	0.0	2.57835122036364	2.59943536771208	0.0	-2.59943536771208	3.02174371546667	0.0	2.59943536771208	0.0	15.23790679048943	-1.7005171091882394	3.452376752490238	1.4968394133538279	2.1181603910188587	2.2578314517075984	1.4968394133538279	16.07005304689836	1.0270768779365942	2.7275939871248314	2.035912992087676	2.9133031737563893	2	correct	1.0
34.745221900055185	8.641662799985852	nogo_reward	1.0	34.76852679997705	36.534955099923536	39.05531150009506	1.766428299946483	35.770413500024006	38.03234319994226	42.09497099998407	0.7645415998995304	1.0229683001527974	1.3152185999788344	41.08262969995849	0.4769148998893797	40.06832360010594	1	1	65	1	nogo_reward	1	0	1	0	0	1	0	0.0	1.0	1	1.0	0.4769148998893797	1054.4483699998818	1089.216896799859	1090.2187834999058	1090.9833250998054	1092.480713199824	1093.503681499977	1094.5166935999878	1095.5309996998403	1096.543340999866	1097.8585595998447	2020-02-08 13:19:32.520984	3.52592607101578	1.15200606665342	3.61138861920961	4.14954044910759	0.0854625481938311	3.61138861920961	-3.52592607101578	3.61138861920961	1.15200606665342	3.61138861920961	0.0854625481938311	14.64826188674649	-0.7740264058845394	1.5826391036769876	5.108228032563438	3.689349619762809	-0.25614136781065044	5.108228032563438	15.480408143155419	2.039030129434124	2.8130565353186623	2.625557895830616	4.0653092404098095	2	correct	1.0
43.427876800065405	9.039490800118301	nogo_punish	0.2179331998340785	43.45118169998727	45.89026549994014	48.44200929999329	2.4390837999528685	44.453221499919664	47.42119719996117	51.48732560011558	1.437044000020478	1.020812100032117	1.0033468999899924	50.47474989993498	0.3042663000524044	49.46007149992511	1	1	66	3	nogo_punish	1	-1	0	0	1	0	0	0.0	1.0	-1	0.2179331998340785	0.3042663000524044	1054.4483699998818	1097.899551699869	1098.9015914998015	1100.338635499822	1101.869567199843	1102.8903792998751	1103.908441499807	1104.9231198998168	1105.9356955999974	1106.9390424999874	2020-02-08 13:19:32.520984	0.15458836602691	-4.12508211130177	-1.4448979810695	-4.63248490926936	-1.29030961504259	-1.4448979810695	-0.15458836602691	-4.12508211130177	-1.4448979810695	-1.29030961504259	-1.4448979810695	-21.42800085243953	-4.14536411087341	-3.694449074278203	0.051941432284327904	-5.092675738614141	-1.6319135310470714	0.051941432284327904	-20.595854596030602	-2.8626681048180758	1.2826960060553314	-5.110912834680764	1.4684051926868893	2	correct	1.0
52.50412110006414	8.777161200065166	nogo_reward	1.0	52.52742599998601	54.319603600073606	56.85626680008136	1.792177600087598	53.53233089996502	55.83548570005223	59.90499780001119	0.7872727001085877	1.0207811000291258	1.3995894000399858	58.892275399994105	0.6895351000130177	57.86263530002907	1	1	67	1	nogo_reward	0	1	0	0	0	1	1	1.0	1.0	0	1.0	0.6895351000130177	1054.4483699998818	1106.9757959998678	1107.9807008998469	1108.7679735999554	1110.283855699934	1111.3046367999632	1112.311005299911	1113.340645399876	1114.353367799893	1115.752957199933	2020-02-08 13:19:32.520984	4.13424288468888	1.15200606665342	4.05377483832127	4.5652635701601	-0.0804680463676156	4.05377483832127	-4.13424288468888	4.05377483832127	1.15200606665342	4.05377483832127	-0.0804680463676156	-4.05377483832127	-0.16570959221143955	1.5826391036769876	5.550614251675098	4.105072740815319	-0.42207196237209715	5.550614251675098	-3.2216285819123414	2.481416348545784	2.6471259407572156	3.067944114942276	4.0653092404098095	2	correct	1.0
61.318642800207954	9.819677899824455	go_reward	0.5128584001213312	61.34194770012982	64.19541659997776	66.74496349995025	2.8534688998479396	62.355072600068524	65.73228779993929	69.80877849995159	1.840343999909237	1.0126757000109592	1.3528471000026911	68.79569890000857	0.3436409998685121	67.76162409991957	1	1	68	2	go_reward	0	0	1	1	1	1	0	0.0	1.0	0	0.5128584001213312	0.3436409998685121	1054.4483699998818	1115.7903177000117	1116.8034425999504	1118.6437865998596	1120.1806577998211	1121.193333499832	1122.2099940998014	1123.2440688998904	1124.2571484998334	1125.609995599836	2020-02-08 13:19:32.520984	2.87698683191935	3.49154784708823	0.0	3.099317367035	2.87698683191935	0.0	-2.87698683191935	3.49154784708823	0.0	2.87698683191935	0.0	-3.49154784708823	-1.4229656449809696	3.9221808841117975	1.4968394133538279	2.6391265376902187	2.535382915914868	1.4968394133538279	-2.659401590679301	1.304628342143864	2.7275939871248314	2.505717123709236	2.9133031737563893	2	correct	1.0
71.17577560013137	9.567207099869847	go_punish	0.4303527001757175	71.19908050005324	73.69581539998785	76.2335304999724	2.4967348999346086	72.21846539992839	75.21390500012785	79.28850840008818	1.4773500000594595	1.019625499844551	1.477779199834913	78.27593889995478	0.2446302999742329	77.25259299995378	1	1	69	4	go_punish	1	0	-1	1	1	1	0	0.0	1.0	0	0.4303527001757175	0.2446302999742329	1054.4483699998818	1125.647450499935	1126.6668353998102	1128.1441853998697	1129.6622750000097	1130.6819004998542	1131.7009629998356	1132.7243088998366	1133.73687839997	1135.214657599805	2020-02-08 13:19:32.520984	2.19692401169413	-2.71015046430354	-2.36113806187087	-3.93981530267899	-0.164214050176737	-2.36113806187087	-2.19692401169413	-2.71015046430354	-2.36113806187087	-0.164214050176737	-2.36113806187087	2.71015046430354	-2.1030284652061892	-2.2795174272799725	-0.8642986485170423	-4.400006132023771	-0.5058179661812185	-0.8642986485170423	3.5422967207124687	-1.736572539952223	0.3664559252539612	-3.695981187682534	0.5521651118855191	2	correct	1.0
80.78249410004332	8.899954200023785	nogo_punish	0.8586742000188679	80.80579899996519	83.28750590002187	85.84758990001865	2.481706900056679	81.82252230006247	84.82444350002334	88.90010610013246	1.464983599959396	1.023146399995312	0.8056470998565146	87.8824966000393	0.3758193999528885	86.86139889992774	1	1	70	3	nogo_punish	1	-1	0	0	1	0	0	0.0	1.0	-1	0.8586742000188679	0.3758193999528885	1054.4483699998818	1135.254168999847	1136.2708922999443	1137.7358758999037	1139.2728134999052	1140.2959598999005	1141.3097688998096	1142.3308665999211	1143.3484761000143	1144.1541231998708	2020-02-08 13:19:32.520984	-0.164860139881903	-4.74024252761093	-1.4448979810695	-5.24836716253586	-1.6097581209514	-1.4448979810695	0.164860139881903	-4.74024252761093	-1.4448979810695	-1.6097581209514	-1.4448979810695	-20.81284043613037	-4.464812616782223	-4.309609490587363	0.051941432284327904	-5.7085579918806415	-1.9513620369558815	0.051941432284327904	-19.98069417972144	-3.1821166107268857	1.2826960060553314	-5.726073250989924	1.4684051926868893	2	correct	1.0
89.71682020020648	8.999022299889475	nogo_reward	1.0	89.74012510012835	91.72048570006154	94.24040520004928	1.9803605999331921	90.75934180011973	93.22465039999224	97.26966190012172	0.9611438999418169	1.0157548000570387	1.469485499896109	96.26431210013106	1.0	95.25565590010956	1	1	71	1	nogo_reward	1	0	1	0	0	1	0	n/a	0.0	1	1.0	1.0	1054.4483699998818	1144.1884951000102	1145.2077118000016	1146.1688556999434	1147.673020399874	1148.6887751999311	1149.7040258999914	1150.712682100013	1151.7180319000036	1153.1875173998997	2020-02-08 13:19:32.520984	3.75132458399491	1.15200606665342	3.74947889058887	4.23652178861691	-0.0018456934060348	3.74947889058887	-3.75132458399491	3.74947889058887	1.15200606665342	3.74947889058887	-0.0018456934060348	14.510171615367229	-0.5486278929054094	1.5826391036769876	5.246318303942698	3.776330959272129	-0.34344960941051633	5.246318303942698	15.342317871776158	2.177120400813384	2.7257482937187967	2.763648167209876	4.0653092404098095	2	missed	0.0
98.75180130009517	9.473653200082254	go_punish	0.2969443001784384	98.77510620001704	101.54628000012599	104.07954840012826	2.7711738001089543	99.79010699992045	103.06815740000457	107.13940549991094	1.7561730002055356	1.0113910001236945	1.1093539001883528	106.12625580001622	0.3545317999087274	105.09858340001665	1	1	72	4	go_punish	1	0	-1	1	1	1	0	0.0	1.0	0	0.2969443001784384	0.3545317999087274	1054.4483699998818	1153.2234761998989	1154.2384769998023	1155.9946500000078	1157.5165273998864	1158.52791840001	1159.5469533998985	1160.574625799898	1161.5877754997928	1162.6971293999811	2020-02-08 13:19:32.520984	2.25066301377995	-2.58574399413581	-2.36113806187087	-3.77008217163162	-0.11047504809092	-2.36113806187087	-2.25066301377995	-2.58574399413581	-2.36113806187087	-0.11047504809092	-2.36113806187087	2.58574399413581	-2.0492894631203695	-2.1551109571122424	-0.8642986485170423	-4.230273000976401	-0.45207896409540155	-0.8642986485170423	3.4178902505447386	-1.6828335378664059	0.3664559252539612	-3.571574717514804	0.5521651118855191	2	correct	1.0
108.26146950013913	9.718657999997959	go_punish	0.3074884999077767	108.284774400061	111.01170919998526	113.55404080008157	2.7269347999242655	109.29290240001865	112.53881300007924	116.61454729991988	1.7188067999666146	1.0152278000023216	1.3888851001390776	115.60013990011066	0.6253132000565529	114.56391309993342	1	1	73	4	go_punish	1	0	-1	1	1	1	0	0.0	1.0	0	0.3074884999077767	0.6253132000565529	1054.4483699998818	1162.7331443999428	1163.7412723999005	1165.460079199867	1166.987182999961	1168.0024107999634	1169.0122830998152	1170.0485098999925	1171.0629172998017	1172.4518023999408	2020-02-08 13:19:32.520984	2.29851671288214	-2.47135750986743	-2.36113806187087	-3.61309531502587	-0.0626213489887239	-2.36113806187087	-2.29851671288214	-2.47135750986743	-2.36113806187087	-0.0626213489887239	-2.36113806187087	2.47135750986743	-2.0014357640181792	-2.0407244728438623	-0.8642986485170423	-4.073286144370651	-0.40422526499320544	-0.8642986485170423	3.303503766276359	-1.6349798387642098	0.3664559252539612	-3.457188233246424	0.5521651118855191	2	correct	1.0
118.0161251001989	8.054102799855173	go_reward	1.0	118.03943000012077	119.74277810007334	122.2779594999738	1.7033480999525636	119.05536220013187	121.25817329995334	125.31876570009626	0.6874158999414703	1.0197862000204623	0.7747670998796821	124.30633740010649	0.3124086000025272	123.28778559993953	1	1	74	2	go_reward	1	1	0	1	0	0	0	0.0	1.0	0	1.0	0.3124086000025272	1054.4483699998818	1172.4878000000026	1173.5037322000137	1174.1911480999552	1175.7065432998352	1176.7263294998556	1177.7361555998214	1178.7547073999883	1179.767135699978	1180.5419027998578	2020-02-08 13:19:32.520984	-2.65282071492933	3.21284665676164	0.0	2.86441395803126	2.65282071492933	0.0	2.65282071492933	0.0	3.21284665676164	0.0	2.65282071492933	0.0	-6.95277319182965	3.6434796937852076	1.4968394133538279	2.404223128686479	2.3112167989248484	1.4968394133538279	0.8321462564089288	-1.5723584897754859	5.3804147020541615	-0.985830723378994	6.126149830518029	2	correct	1.0
126.11139860004141	8.49662230000854	nogo_punish	1.0	126.13470349996328	128.17933800001606	130.70673279999755	2.04463450005278	127.1445746999234	129.69637560006208	133.74105950002559	1.0347633000926635	1.01035719993547	0.8902662999462336	132.73790400009625	0.3989858999848366	131.724329699995	1	1	75	3	nogo_punish	1	-1	0	0	0	1	0	0.0	1.0	0	1.0	0.3989858999848366	1054.4483699998818	1180.583073499845	1181.5929446998052	1182.627707999898	1184.144745599944	1185.1551027998794	1186.1726996998768	1187.186273999978	1188.1894294999074	1189.0796957998537	2020-02-08 13:19:32.520984	0.465685054742558	-5.32440848703074	-1.4448979810695	-5.8308587078542	-1.91058303581205	-1.4448979810695	-0.465685054742558	-1.4448979810695	-5.32440848703074	-1.4448979810695	-1.91058303581205	1.4448979810695	-3.8342674221577613	-4.893775450007173	0.051941432284327904	-6.291049537198981	-2.2521869518165314	0.051941432284327904	2.277044237478429	-3.017256470844986	0.8170109513127815	-2.430728704448494	-2.411105313274351	2	correct	1.0
134.6438167002052	9.49442129977956	nogo_reward	1.0	134.66712160012707	137.1033445999492	139.62863490008726	2.436222999822121	135.68202390009537	138.60874620010145	142.67186140012927	1.4213206998538226	1.0198886999858132	1.4896814997773618	141.65970560000278	0.2881619001273066	140.64798610005528	1	1	76	1	nogo_reward	0	1	0	0	0	1	0	0.0	1.0	0	1.0	0.2881619001273066	1054.4483699998818	1189.115491600009	1190.1303938999772	1191.551714599831	1193.0571161999833	1194.077004899969	1195.096356099937	1196.1080755998846	1197.120231400011	1198.6099128997885	2020-02-08 13:19:32.520984	4.36357909426847	1.15200606665342	4.19573260111975	4.66030215828416	-0.167846493148714	4.19573260111975	-4.36357909426847	4.19573260111975	1.15200606665342	4.19573260111975	-0.167846493148714	-4.19573260111975	0.06362661736815056	1.5826391036769876	5.692572014473578	4.2001113289393786	-0.5094504091531955	5.692572014473578	-3.3635863447108214	2.623374111344264	2.5597474939761176	3.209901877740756	4.0653092404098095	2	correct	1.0
144.1735593001356	9.33865990000777	go_punish	0.0869058999232947	144.19686420005746	146.54826469998807	149.10061919991858	2.3514004999306053	145.21353580011055	148.07499000011012	152.14423460001126	1.3347288998775184	1.0256291998084635	1.391289500053972	151.14228860009462	0.3998976000584662	150.11312939994968	1	1	77	4	go_punish	0	-1	0	1	1	1	0	0.0	1.0	-1	0.0869058999232947	0.3998976000584662	1054.4483699998818	1198.6452341999393	1199.6619057999924	1200.99663469987	1202.523359999992	1203.5489891998004	1204.5614993998315	1205.5906585999765	1206.592604599893	1207.983894099947	2020-02-08 13:19:32.520984	2.34128935971653	-2.36578597619893	-2.36113806187087	-3.46739653569773	-0.0198487021543398	-2.36113806187087	-2.34128935971653	-2.36578597619893	-2.36113806187087	-0.0198487021543398	-2.36113806187087	-23.18729698754237	-1.9586631171837894	-1.9351529391753624	-0.8642986485170423	-3.9275873650425113	-0.36145261815882135	-0.8642986485170423	-22.355150731133442	-1.5922071919298257	0.3664559252539612	-3.351616699577924	0.5521651118855191	2	correct	1.0
153.54891600017413	8.92007329990156	go_reward	1.0	153.572220900096	155.54821250005625	158.0732436000833	1.9759915999602526	154.58784210006706	157.06383999995887	161.13909740000986	0.9603703999891877	1.0094036001244149	1.3531967999876997	160.1266890000552	0.2928730000276118	159.09323309990577	1	1	78	2	go_reward	1	1	0	1	0	0	0	0.0	1.0	0	1.0	0.2928730000276118	1054.4483699998818	1208.0205908999778	1209.036212099949	1209.996582499938	1211.5122099998407	1212.5216135999651	1213.5416030997876	1214.575058999937	1215.5874673998917	1216.9406641998794	2020-02-08 13:19:32.520984	-2.70211993769984	3.21284665676164	0.0	2.65687400175665	2.70211993769984	0.0	2.70211993769984	0.0	3.21284665676164	0.0	2.70211993769984	0.0	-7.00207241460016	3.6434796937852076	1.4968394133538279	2.196683172411869	2.3605160216953585	1.4968394133538279	0.8321462564089288	-1.5723584897754859	5.4297139248246715	-0.985830723378994	6.126149830518029	2	correct	1.0
162.50329500017665	8.135047399904579	nogo_reward	1.0	162.52659990009852	163.85163459996693	166.37142410012893	1.3250346998684108	163.5241741000209	165.34650350012816	169.41843449999578	0.327460499946028	1.024920600000769	1.2432128000073135	168.40704909991473	0.393178999889642	167.3849742000457	1	1	79	1	nogo_reward	1	0	1	0	0	1	0	1.0	0.0	1	1.0	0.393178999889642	1054.4483699998818	1216.9749698999804	1217.9725440999027	1218.3000045998488	1219.79487350001	1220.8197941000108	1221.8333441999275	1222.8554190997966	1223.8668044998776	1225.110017299885	2020-02-08 13:19:32.520984	3.98258439462878	1.15200606665342	3.89367586434375	4.33753171070518	-0.0889085302850228	3.89367586434375	-3.98258439462878	3.89367586434375	1.15200606665342	3.89367586434375	-0.0889085302850228	14.365974641612349	-0.31736808227153945	1.5826391036769876	5.3905152776975775	3.877340881360399	-0.43051244628950436	5.3905152776975775	15.198120898021278	2.321317374568264	2.6386854568398084	2.907845140964756	4.0653092404098095	2	wrong	1.0
170.67754210019461	9.51303209993057	nogo_reward	1.0	170.70084700011648	173.67190880002454	176.19958309992217	2.971061799908057	171.7126064999029	175.17590370005928	179.25162210012786	1.9593023001216352	1.0236793998628855	0.962256999919191	178.24737170012668	0.3713496001437306	177.21480430010706	1	1	80	1	nogo_reward	1	0	1	0	0	1	0	0.0	1.0	1	1.0	0.3713496001437306	1054.4483699998818	1225.1492169999983	1226.1609764997847	1228.1202787999064	1229.624273699941	1230.647953099804	1231.663174299989	1232.6957417000085	1233.6999921000097	1234.6622490999289	2020-02-08 13:19:32.520984	4.59524830512623	1.15200606665342	4.34093519224423	4.76565132413708	-0.254313112881999	4.34093519224423	-4.59524830512623	4.34093519224423	1.15200606665342	4.34093519224423	-0.254313112881999	13.918715313711868	0.2952958282259104	1.5826391036769876	5.837774605598058	4.305460494792299	-0.5959170288864806	5.837774605598058	14.750861570120797	2.7685767024687444	2.4732808742428323	3.3551044688652363	4.0653092404098095	2	correct	1.0
180.22612300002925	8.608766900142655	nogo_reward	1.0	180.24942789995112	182.04883829993196	184.58336220006458	1.799410399980843	181.2571807000786	183.5574388001114	187.62301600002706	0.7916575998533517	1.0259233999531716	1.2351788000667057	186.61634890013374	0.4152287999168038	185.5897532000672	1	1	81	1	nogo_reward	1	0	1	0	0	1	1	1.0	1.0	1	1.0	0.4152287999168038	1054.4483699998818	1234.697797899833	1235.7055506999604	1236.4972082998138	1238.0058087999932	1239.0317321999464	1240.038123199949	1241.0647189000156	1242.071385999909	1243.3065647999756	2020-02-08 13:19:32.520984	5.16632852181107	1.15200606665342	4.75429775319001	5.16128583881477	-0.412030768621066	4.75429775319001	-5.16632852181107	4.75429775319001	1.15200606665342	4.75429775319001	-0.412030768621066	13.50535275276609	0.8663760449107505	1.5826391036769876	6.251137166543838	4.701095009469989	-0.7536346846255475	6.251137166543838	14.33749900917502	3.1819392634145243	2.3155632185037653	3.768467029811016	4.0653092404098095	2	correct	1.0
188.87168089998863	8.205397700192407	go_reward	1.0	188.8949857999105	190.24430530006066	192.78025329997786	1.349319500150159	189.89934340002947	191.75927989999786	195.80987130012386	0.3449619000311941	1.0209733999799937	1.290512199979048	194.8070145000238	0.401298499898985	193.78968250006437	1	1	82	2	go_reward	1	1	0	1	0	0	0	0.0	1.0	0	1.0	0.401298499898985	1054.4483699998818	1243.3433557997923	1244.3477133999113	1244.6926752999425	1246.2076498998797	1247.2286232998597	1248.2380524999462	1249.2553844999056	1250.2582413000057	1251.5487534999847	2020-02-08 13:19:32.520984	-2.74695626571345	3.21284665676164	0.0	2.4726754941837	2.74695626571345	0.0	2.74695626571345	0.0	3.21284665676164	0.0	2.74695626571345	0.0	-7.04690874261377	3.6434796937852076	1.4968394133538279	2.0124846648389187	2.405352349708968	1.4968394133538279	0.8321462564089288	-1.5723584897754859	5.474550252838281	-0.985830723378994	6.126149830518029	2	correct	1.0
197.11908980016574	9.668592100031674	nogo_punish	1.0	197.1423947000876	199.90770029998384	202.43241839995608	2.7653055998962373	198.15536440000847	201.41275039990433	205.46402950002812	1.7523358999753782	1.0196680000517517	1.3469573000911623	204.45999100012705	0.4158817001152783	203.44114280003123	1	1	83	3	nogo_punish	1	-1	0	0	0	1	0	0.0	1.0	0	1.0	0.4158817001152783	1054.4483699998818	1251.5907646999694	1252.6037343998903	1254.3560702998657	1255.8611203997862	1256.880788399838	1257.889512799913	1258.9083610000089	1259.91239949991	1261.2593568000011	2020-02-08 13:19:32.520984	0.657261307859059	-5.32440848703074	-1.36454218202905	-5.54612699252868	-2.02180348988811	-1.36454218202905	-0.657261307859059	-1.36454218202905	-5.32440848703074	-1.36454218202905	-2.02180348988811	1.36454218202905	-3.6426911690412602	-4.893775450007173	0.1322972313247779	-6.006317821873461	-2.3634074058925916	0.1322972313247779	2.196688438437979	-2.936900671804536	0.7057904972367215	-2.3503729054080438	-2.411105313274351	2	correct	1.0
206.8244896000249	8.632011400070041	go_reward	1.0	206.84779449994676	208.5070684000384	211.0404362999834	1.659273900091648	207.8575915999245	210.0206619000528	214.07894839998335	0.6494768001139164	1.0197743999306113	1.400857500033453	213.08418769994728	0.2807416999712586	212.05635849991813	1	1	84	2	go_reward	1	1	0	1	0	0	1	0.0	0.0	0	1.0	0.2807416999712586	1054.4483699998818	1261.2961644998286	1262.3059615998063	1262.9554383999202	1264.4690318999346	1265.4888062998652	1266.5047284998	1267.532557699829	1268.5273183998652	1269.9281758998986	2020-02-08 13:19:32.520984	-2.78795020689002	3.21284665676164	0.0	2.30850512843233	2.78795020689002	0.0	2.78795020689002	0.0	3.21284665676164	0.0	2.78795020689002	0.0	-7.08790268379034	3.6434796937852076	1.4968394133538279	1.8483142990875487	2.4463462908855385	1.4968394133538279	0.8321462564089288	-1.5723584897754859	5.5155441940148515	-0.985830723378994	6.126149830518029	2	wrong	1.0
215.494908200111	8.19272739999019	go_reward	1.0	215.51821310003288	216.90233119996265	219.42047440004535	1.3841180999297649	216.54071089997888	218.4001571999397	222.47761570010334	0.36162029998376966	1.0203172001056373	1.2333247999197283	221.4735630999785	0.2938323998823762	220.43809710000664	1	1	85	2	go_reward	1	1	0	1	0	0	0	0.0	1.0	0	1.0	0.2938323998823762	1054.4483699998818	1269.9665830999147	1270.9890808998607	1271.3507011998445	1272.8485271998215	1273.8688443999272	1274.8864670998885	1275.9219330998603	1276.9259856999852	1278.159310499905	2020-02-08 13:19:32.520984	-2.8256078959151	3.21284665676164	0.0	2.1616083896651	2.8256078959151	0.0	2.8256078959151	0.0	3.21284665676164	0.0	2.8256078959151	0.0	-7.1255603728154195	3.6434796937852076	1.4968394133538279	1.7014175603203188	2.4840039799106184	1.4968394133538279	0.8321462564089288	-1.5723584897754859	5.5532018830399315	-0.985830723378994	6.126149830518029	2	correct	1.0
223.7254225001666	8.514567499980558	go_reward	1.0	223.74872740008846	225.79959870013408	228.32419750001281	2.0508713000456282	224.75329299992904	227.31508349999785	231.3748234999366	1.046305700205039	1.0091140000149608	0.8884714001324028	230.3621189999394	0.4291753999423235	229.34389690007106	1	1	86	2	go_reward	1	1	0	1	0	0	1	1.0	1.0	0	1.0	0.4291753999423235	1054.4483699998818	1278.1970973999703	1279.2016629998109	1280.247968700016	1281.7634534998797	1282.7725674998946	1283.792266899953	1284.8104889998212	1285.8231934998184	1286.7116648999508	2020-02-08 13:19:32.520984	-2.86034769413521	3.21284665676164	0.0	2.02967789482659	2.86034769413521	0.0	2.86034769413521	0.0	3.21284665676164	0.0	2.86034769413521	0.0	-7.16030017103553	3.6434796937852076	1.4968394133538279	1.569487065481809	2.5187437781307285	1.4968394133538279	0.8321462564089288	-1.5723584897754859	5.587941681260041	-0.985830723378994	6.126149830518029	2	correct	1.0
232.27592939999863	9.3491613001097	go_punish	0.5775242000818253	232.2992342999205	234.91067299991846	237.46165599999927	2.6114386999979615	233.30443609994836	236.44195770006627	240.51135520008393	1.6062368999700993	1.0196982999329975	1.1370403999462724	239.49857360008173	0.3425489999353885	238.46953279990703	1	1	87	4	go_punish	1	0	-1	1	1	1	0	0.0	1.0	0	0.5775242000818253	0.3425489999353885	1054.4483699998818	1286.7476042998023	1287.7528060998302	1289.3590429998003	1290.890327699948	1291.910025999881	1292.9179027997889	1293.9469435999636	1294.9597251999658	1296.096765599912	2020-02-08 13:19:32.520984	1.92568924703753	-3.10512820881797	-2.36113806187087	-4.16886260377675	-0.435448814833336	-2.36113806187087	-1.92568924703753	-3.10512820881797	-2.36113806187087	-0.435448814833336	-2.36113806187087	3.10512820881797	-2.3742632298627893	-2.6744951717944025	-0.8642986485170423	-4.629053433121531	-0.7770527308378175	-0.8642986485170423	3.937274465226899	-2.007807304608822	0.3664559252539612	-4.090958932196964	0.5521651118855191	2	correct	1.0
241.66842310014158	8.05628679995425	nogo_punish	1.0	241.69172800006345	243.13704279996455	245.65869370009727	1.445314799901098	242.7004643001128	244.6387595999986	248.70907089998946	0.43657849985174835	1.0199341000986806	1.0389439000282437	247.7052329001017	0.3391583000775426	246.67686040000967	1	1	88	3	nogo_punish	1	-1	0	0	0	1	0	0.0	1.0	0	1.0	0.3391583000775426	1054.4483699998818	1296.1400979999453	1297.1488342999946	1297.5854127998464	1299.0871295998804	1300.107063699979	1301.1252303998915	1302.1536028999835	1303.1574408998713	1304.1963847998995	2020-02-08 13:19:32.520984	0.833496829516815	-5.32440848703074	-1.2919947103004	-5.28604730893065	-2.12549153981722	-1.2919947103004	-0.833496829516815	-1.2919947103004	-5.32440848703074	-1.2919947103004	-2.12549153981722	1.2919947103004	-3.4664556473835044	-4.893775450007173	0.20484470305342795	-5.746238138275431	-2.4670954558217018	0.20484470305342795	2.1241409667093287	-2.864353200075886	0.6021024473076113	-2.2778254336793937	-2.411105313274351	2	correct	1.0
249.7588088000191	8.065527600003406	nogo_reward	1.0	249.78211369994096	251.4686575999949	253.9984979000874	1.6865439000539482	250.79850780009292	252.9846036999952	257.07248149998486	0.6701497999019921	1.0138942000921816	0.7751597999595106	256.06008359999396	0.3767373000737279	255.03028509998694	1	1	89	1	nogo_reward	1	0	1	0	0	1	0	0.0	1.0	1	1.0	0.3767373000737279	1054.4483699998818	1304.2304836998228	1305.2468777999748	1305.9170275998767	1307.432973699877	1308.4468678999692	1309.4786550998688	1310.5084535998758	1311.5208514998667	1312.2960112998262	2020-02-08 13:19:32.520984	5.70074576386128	1.15200606665342	5.13788937378167	5.52841875760258	-0.562856390079603	5.13788937378167	-5.70074576386128	5.13788937378167	1.15200606665342	5.13788937378167	-0.562856390079603	13.121761132174429	1.400793286960961	1.5826391036769876	6.634728787135498	5.068227928257799	-0.9044603060840846	6.634728787135498	13.953907388583358	3.565530884006184	2.1647375970452285	4.152058650402676	4.0653092404098095	2	correct	1.0
257.858687300002	8.766329400008544	go_reward	1.0	257.88199219992384	259.86974260001466	262.39575819997117	1.9877504000908175	258.87466070009395	261.37487900000997	265.4359967999626	0.9950818999207058	1.0208791999612004	1.2123247999697924	264.42283910000697	0.2889229001011699	263.40320209995866	1	1	90	2	go_reward	1	1	0	1	0	0	0	0.0	1.0	0	1.0	0.2889229001011699	1054.4483699998818	1312.3303621998057	1313.3230306999758	1314.3181125998965	1315.8232489998918	1316.844128199853	1317.8515720998405	1318.8712090998888	1319.8843667998444	1321.0966915998142	2020-02-08 13:19:32.520984	-2.89251925039268	3.21284665676164	0.0	1.91076844538942	2.89251925039268	0.0	2.89251925039268	0.0	3.21284665676164	0.0	2.89251925039268	0.0	-7.192471727292999	3.6434796937852076	1.4968394133538279	1.4505776160446389	2.5509153343881983	1.4968394133538279	0.8321462564089288	-1.5723584897754859	5.620113237517511	-0.985830723378994	6.126149830518029	2	correct	1.0
266.6656560001427	8.319602299947292	nogo_punish	1.0	266.68896090006456	268.5279391000513	271.06489520007744	1.838978199986741	267.7089291999582	270.04454890009947	274.10267019993626	0.8190099000930786	1.020346299977973	0.9058930000755936	273.1089771001134	0.5978467999957502	272.08218319993466	1	1	91	3	nogo_punish	1	-1	0	0	0	1	0	0.0	1.0	0	1.0	0.5978467999957502	1054.4483699998818	1321.1373308999464	1322.15729919984	1322.9763090999331	1324.4929188999813	1325.5132651999593	1326.5305531998165	1327.5573470999952	1328.551040199818	1329.4569331998937	2020-02-08 13:19:32.520984	0.996302597259447	-5.32440848703074	-1.22618704768125	-5.04747163261373	-2.2224896449407	-1.22618704768125	-0.996302597259447	-1.22618704768125	-5.32440848703074	-1.22618704768125	-2.2224896449407	1.22618704768125	-3.303649879640872	-4.893775450007173	0.2706523656725779	-5.507662461958511	-2.5640935609451816	0.2706523656725779	2.058333304090179	-2.798545537456736	0.5051043421841315	-2.212017771060244	-2.411105313274351	2	correct	1.0
275.023094900185	8.962818600004539	nogo_punish	1.0	275.0463998001069	277.2330650999211	279.75997269991785	2.1866652998141944	276.05742989992723	278.7402983000502	282.8066215999427	1.1756351999938488	1.0196743998676538	1.2025968001687488	281.8033903001342	0.5321172999683768	280.77575189992785	1	1	92	3	nogo_punish	1	-1	0	0	0	1	0	0.0	1.0	0	1.0	0.5321172999683768	1054.4483699998818	1329.4947697999887	1330.505799899809	1331.681435099803	1333.188668299932	1334.2083426997997	1335.2241218998097	1336.251760300016	1337.2549915998245	1338.4575883999933	2020-02-08 13:19:32.520984	1.14728173954771	-5.32440848703074	-1.16622846353669	-4.82775483522729	-2.3135102030844	-1.16622846353669	-1.14728173954771	-1.16622846353669	-5.32440848703074	-1.16622846353669	-2.3135102030844	1.16622846353669	-3.1526707373526097	-4.893775450007173	0.3306109498171379	-5.287945664572071	-2.6551141190888816	0.3306109498171379	1.9983747199456188	-2.7385869533121756	0.41408378404043145	-2.152059186915684	-2.411105313274351	2	correct	1.0
284.0247471001926	7.822589699877653	nogo_punish	1.0	284.04805200011447	285.52718070009723	288.06148559995927	1.4791286999827662	285.0655374999624	287.041464000009	291.11142450012267	0.4616432001348585	1.0200215999502689	0.7592171998694539	290.098823599983	0.3283585999161005	289.0695843999274	1	1	93	3	nogo_punish	1	-1	0	0	0	1	1	1.0	1.0	0	1.0	0.3283585999161005	1054.4483699998818	1338.4964219999963	1339.5139074998442	1339.975550699979	1341.4898339998908	1342.509855599841	1343.5179543998092	1344.5471935998648	1345.5597945000045	1346.319011699874	2020-02-08 13:19:32.520984	1.28778862086068	-5.32440848703074	-1.11137183388834	-4.62466054981794	-2.39916045474902	-1.11137183388834	-1.28778862086068	-1.11137183388834	-5.32440848703074	-1.11137183388834	-2.39916045474902	1.11137183388834	-3.0121638560396393	-4.893775450007173	0.3854675794654878	-5.084851379162721	-2.7407643707535017	0.3854675794654878	1.9435180902972689	-2.683730323663826	0.3284335323758114	-2.097202557267334	-2.411105313274351	2	correct	1.0
291.8860890001522	9.427380499895662	go_reward	1.0	291.90939390007406	294.3451861999929	296.87244990002387	2.4357922999188304	292.9275563999545	295.8617819000501	299.92184019996785	1.4176298000384122	1.010667999973748	1.4149342000018805	298.9089287999086	0.5600844000000507	297.8918943000026	1	1	94	2	go_reward	1	1	0	1	0	0	0	0.0	1.0	0	1.0	0.5600844000000507	1054.4483699998818	1346.357763899956	1347.3759263998363	1348.7935561998747	1350.310151899932	1351.3208198999057	1352.3402642998844	1353.3572987997904	1354.3702101998497	1355.7851443998516	2020-02-08 13:19:32.520984	-2.92241749941889	3.21284665676164	0.0	1.80323119505584	2.92241749941889	0.0	2.92241749941889	0.0	3.21284665676164	0.0	2.92241749941889	0.0	-7.222369976319209	3.6434796937852076	1.4968394133538279	1.3430403657110588	2.5808135834144084	1.4968394133538279	0.8321462564089288	-1.5723584897754859	5.650011486543722	-0.985830723378994	6.126149830518029	2	correct	1.0
301.3544803999828	9.356239000102505	nogo_punish	1.0	301.37778529990464	303.9091539999936	306.434123700019	2.531368700088933	302.38790900004096	305.4144490000326	309.48427139990986	1.5212449999526143	1.0196746999863535	1.2497529000972918	308.470255299937	0.6300762000028044	307.45193909993395	1	1	95	3	nogo_punish	1	-1	0	0	0	1	1	1.0	1.0	0	1.0	0.6300762000028044	1054.4483699998818	1355.8261552997865	1356.8362789999228	1358.3575239998754	1359.8628189999145	1360.8824936999008	1361.9003090998158	1362.9186252998188	1363.9326413997917	1365.182394299889	2020-02-08 13:19:32.520984	1.41897465693207	-5.32440848703074	-1.06098699627883	-4.43628741781232	-2.4799616532109	-1.06098699627883	-1.41897465693207	-1.06098699627883	-5.32440848703074	-1.06098699627883	-2.4799616532109	1.06098699627883	-2.8809778199682494	-4.893775450007173	0.4358524170749978	-4.896478247157101	-2.8215655692153816	0.4358524170749978	1.893133252687759	-2.633345486054316	0.24763233391393147	-2.046817719657824	-2.411105313274351	2	correct	1.0
310.7464310000646	9.309678599937115	nogo_reward	1.0	310.7697358999865	313.55747830006294	316.0828857999293	2.7877424000764677	311.7859330000356	315.06304599996656	319.1173616000451	1.7715453000273556	1.0198397999627105	0.9620528998784721	318.1142927000765	0.3657194999977946	317.10118329990655	1	1	96	1	nogo_reward	0	1	0	0	0	1	0	0.0	1.0	0	1.0	0.3657194999977946	1054.4483699998818	1365.2181058998683	1366.2343029999174	1368.0058482999448	1369.5114159998484	1370.531255799811	1371.5495532997884	1372.5626626999583	1373.565731599927	1374.5277844998054	2020-02-08 13:19:32.520984	6.20263026798113	1.15200606665342	5.49518023968423	5.87039516043787	-0.707450028296907	5.49518023968423	-6.20263026798113	5.49518023968423	1.15200606665342	5.49518023968423	-0.707450028296907	-5.49518023968423	1.9026777910808104	1.5826391036769876	6.992019653038058	5.410204331093089	-1.0490539443013884	6.992019653038058	-4.663033983275302	3.9228217499087443	2.0201439588279246	4.509349516305236	4.0653092404098095	2	correct	1.0
320.0919131999833	7.721175500191748	nogo_reward	1.0	320.1152180999052	321.4027644000016	323.9279646000359	1.2875463000964373	321.1208476999309	322.91709399991646	326.97441429994046	0.2819167000707239	1.0108706001194605	0.8619793001564631	325.97105180006474	0.3566238998901099	324.9422931999434	1	1	97	1	nogo_reward	0	1	0	0	0	1	0	0.0	1.0	0	1.0	0.3566238998901099	1054.4483699998818	1374.563588099787	1375.5692176998127	1375.8511343998834	1377.3654639997983	1378.3763345999178	1379.3906631998252	1380.4194217999466	1381.4227842998223	1382.2847635999788	2020-02-08 13:19:32.520984	5.72267174448117	1.15200606665342	5.11376081542015	5.47469526521349	-0.60891092906102	5.11376081542015	-5.72267174448117	5.11376081542015	1.15200606665342	5.11376081542015	-0.60891092906102	-5.11376081542015	1.4227192675808507	1.5826391036769876	6.610600228773978	5.014504435868709	-0.9505148450655014	6.610600228773978	-4.281614559011222	3.5414023256446643	2.1186830580638114	4.127930092041156	4.0653092404098095	2	correct	1.0
327.8492471000643	8.349808000027906	go_reward	1.0	327.8725519999862	329.23859840002865	331.7668864999432	1.3660464000424781	328.87934310012497	330.74580030003585	334.82580130011775	0.35925529990367977	1.0210861999073586	1.3965586998963317	333.82171649998054	0.413026699796319	332.78976549999766	1	1	98	2	go_reward	1	1	0	1	0	0	0	1.0	0.0	0	1.0	0.413026699796319	1054.4483699998818	1382.320921999868	1383.3277131000068	1383.6869683999105	1385.1941702999177	1386.215256499825	1387.2381354998795	1388.2700864998624	1389.2741712999996	1390.670729999896	2020-02-08 13:19:32.520984	-2.95029318005705	3.21284665676164	0.0	1.70566181758693	2.95029318005705	0.0	2.95029318005705	0.0	3.21284665676164	0.0	2.95029318005705	0.0	-7.25024565695737	3.6434796937852076	1.4968394133538279	1.2454709882421489	2.6086892640525683	1.4968394133538279	0.8321462564089288	-1.5723584897754859	5.677887167181881	-0.985830723378994	6.126149830518029	2	wrong	1.0
336.23682630015514	8.6504575998988	go_reward	1.0	336.260131200077	338.0814378000796	340.60673610004596	1.821306600002572	337.26817260007374	339.5867761000991	343.66098299995065	0.8132652000058442	1.0199599999468774	1.249605800025165	342.65766589995474	0.2923538999166339	341.6245913999155	1	1	99	2	go_reward	1	1	0	1	0	0	0	0.0	1.0	0	1.0	0.2923538999166339	1054.4483699998818	1390.7085011999588	1391.7165425999556	1392.5298077999614	1394.035146099981	1395.0551060999278	1396.0729613997974	1397.1060358998366	1398.1093529998325	1399.3589587998576	2020-02-08 13:19:32.520984	-2.97636090230476	3.21284665676164	0.0	1.61685915185323	2.97636090230476	0.0	2.97636090230476	0.0	3.21284665676164	0.0	2.97636090230476	0.0	-7.27631337920508	3.6434796937852076	1.4968394133538279	1.1566683225084489	2.634756986300278	1.4968394133538279	0.8321462564089288	-1.5723584897754859	5.703954889429591	-0.985830723378994	6.126149830518029	2	correct	1.0
344.92531100008614	8.807216899935156	go_reward	1.0	344.948615900008	347.23705430002906	349.7591552999802	2.2884384000210503	345.95254480000585	348.73904979997315	352.8026807999704	1.284509500023205	1.0201055000070482	0.9531519999727607	351.7899208001327	0.3666956000961363	350.77732710004784	1	1	100	2	go_reward	1	1	0	1	0	0	1	1.0	1.0	0	1.0	0.3666956000961363	1054.4483699998818	1399.3969858998898	1400.4009147998877	1401.685424299911	1403.187419799855	1404.207525299862	1405.2256970999297	1406.2382908000145	1407.2510507998522	1408.204202799825	2020-02-08 13:19:32.520984	-3.00080544595718	3.21284665676164	0.0	1.53579184014371	3.00080544595718	0.0	3.00080544595718	0.0	3.21284665676164	0.0	3.00080544595718	0.0	-7.3007579228575	3.6434796937852076	1.4968394133538279	1.075601010798929	2.659201529952698	1.4968394133538279	0.8321462564089288	-1.5723584897754859	5.728399433082011	-0.985830723378994	6.126149830518029	2	correct	1.0
353.7674891999918	8.402438400080655	nogo_reward	1.0	353.7907940999137	355.1256641000509	357.6611043000594	1.3348700001372436	354.79802719992585	356.6411679999437	360.71560120000504	0.3276369001250714	1.0199363001156598	1.477631299989298	359.70247550006025	0.6091839000582695	358.6677258000709	1	1	101	1	nogo_reward	0	1	0	0	0	1	0	0.0	1.0	0	1.0	0.6091839000582695	1054.4483699998818	1408.2391640997955	1409.2463971998077	1409.5740340999328	1411.0895379998256	1412.1094742999412	1413.1160957999527	1414.150845499942	1415.1639711998869	1416.6416024998762	2020-02-08 13:19:32.520984	5.29331434323002	1.15200606665342	4.77451607815619	5.12210665886311	-0.518798265073823	4.77451607815619	-5.29331434323002	4.77451607815619	1.15200606665342	4.77451607815619	-0.518798265073823	-4.77451607815619	0.9933618663297006	1.5826391036769876	6.271355491510018	4.661915829518329	-0.8604021810783045	6.271355491510018	-3.9423698217472616	3.2021575883807043	2.2087957220510086	3.788685354777196	4.0653092404098095	2	correct	1.0
362.2174951001066	9.088232399896015	nogo_punish	1.0	362.24080000002846	364.80610859999433	367.3400856999215	2.5653085999658742	363.2339232999366	366.32015709998086	370.40533660002984	1.572185300057754	1.019928599940613	0.9236957998946309	369.39333470002725	0.5140363001264632	368.3588751000352	1	1	102	3	nogo_punish	1	-1	0	0	0	1	0	0.0	1.0	0	1.0	0.5140363001264632	1054.4483699998818	1416.6891699999103	1417.6822932998184	1419.2544785998762	1420.7685270998627	1421.7884556998033	1422.807245099917	1423.841704699909	1424.8537065999117	1425.7774023998063	2020-02-08 13:19:32.520984	1.54182433885826	-5.32440848703074	-1.01453972855386	-4.26101060398122	-2.55636406741212	-1.01453972855386	-1.54182433885826	-1.01453972855386	-5.32440848703074	-1.01453972855386	-2.55636406741212	1.01453972855386	-2.7581281380420597	-4.893775450007173	0.4822996847999679	-4.7212014333260015	-2.897967983416602	0.4822996847999679	1.8466859849627888	-2.586898218329346	0.17122991971271118	-2.000370451932854	-2.411105313274351	2	correct	1.0
371.340752799995	9.125850000185892	nogo_reward	1.0	371.3640576999169	373.73261289997026	376.25151580013335	2.368555200053379	372.38356139999814	375.23809180012904	379.2935705999844	1.34905149997212	1.0134240000043064	1.1963371001183987	378.289916299982	0.5619814998935908	377.2658510999754	1	1	103	1	nogo_reward	1	0	1	0	0	1	1	1.0	1.0	1	1.0	0.5619814998935908	1054.4483699998818	1425.8124276997987	1426.83193139988	1428.180982899852	1429.6864618000109	1430.6998858000152	1431.7142210998572	1432.7382862998638	1433.7419405998662	1434.9382776999846	2020-02-08 13:19:32.520984	4.90742280108021	1.15200606665342	4.4714655097824	4.80656258452014	-0.435957291297813	4.4714655097824	-4.90742280108021	4.4714655097824	1.15200606665342	4.4714655097824	-0.435957291297813	13.7881849961737	0.6074703241798902	1.5826391036769876	5.968304923136228	4.346371755175359	-0.7775612073022946	5.968304923136228	14.620331252582629	2.899107020006914	2.2916366958270182	3.4856347864034056	4.0653092404098095	2	correct	1.0
380.51543230004586	8.007026399951428	nogo_punish	1.0	380.5387371999677	382.07770080002956	384.5951461000368	1.5389636000618339	381.5468310001306	383.59668750013225	387.65289600007236	0.5308697998989373	0.9984585999045521	0.8928675998467952	386.6405450999737	0.2943655999843031	385.61249880003743	1	1	104	3	nogo_punish	1	-1	0	0	0	1	1	1.0	1.0	0	1.0	0.2943655999843031	1054.4483699998818	1434.9871071998496	1435.9952010000125	1436.5260707999114	1438.045057500014	1439.0435160999186	1440.0608687999193	1441.0889150998555	1442.1012659999542	1442.994133599801	2020-02-08 13:19:32.520984	1.65718389507108	-5.32440848703074	-0.971574995090518	-4.09743494308546	-2.6287588901616	-0.971574995090518	-1.65718389507108	-0.971574995090518	-5.32440848703074	-0.971574995090518	-2.6287588901616	0.971574995090518	-2.6427685818292392	-4.893775450007173	0.5252644182633098	-4.557625772430241	-2.9703628061660816	0.5252644182633098	1.803721251499447	-2.543933484866004	0.09883509696323145	-1.957405718469512	-2.411105313274351	2	correct	1.0
388.5575063000431	8.49527780013159	go_punish	0.3789810000453144	388.58081119996496	389.9768219999969	392.5429994999431	1.396010800031945	389.5865551999307	391.5235601000022	395.58280090009794	0.3902668000662288	1.019439399940893	1.4932880999986082	394.5698359000962	0.5089138001203537	393.54493959993124	1	1	105	4	go_punish	1	0	-1	1	1	1	0	0.0	1.0	0	0.3789810000453144	0.5089138001203537	1054.4483699998818	1443.0291811998468	1444.0349251998125	1444.4251919998787	1445.971930099884	1446.991369499825	1447.993309599813	1449.018205899978	1450.0311708999798	1451.5244589999784	2020-02-08 13:19:32.520984	1.99405742372242	-2.96233386427254	-2.36113806187087	-3.99024772232414	-0.36708063814845	-2.36113806187087	-1.99405742372242	-2.96233386427254	-2.36113806187087	-0.36708063814845	-2.36113806187087	2.96233386427254	-2.3058950531778994	-2.5317008272489723	-0.8642986485170423	-4.450438551668921	-0.7086845541529315	-0.8642986485170423	3.7944801206814684	-1.9394391279239358	0.3664559252539612	-3.948164587651534	0.5521651118855191	2	correct	1.0
397.0936517000664	8.215110199991386	nogo_punish	1.0	397.11695659998827	398.79344290005974	401.3303217999637	1.676486300071474	398.13314169994555	400.3104864000343	404.36284260009415	0.6603012001141906	1.019835399929434	0.9692241998855025	403.3595605001319	0.3346239998936653	402.3493016001303	1	1	106	3	nogo_punish	1	-1	0	0	0	1	1	1.0	1.0	0	1.0	0.3346239998936653	1054.4483699998818	1451.56532659987	1452.5815116998274	1453.2418128999416	1454.758856399916	1455.7786917998455	1456.797671600012	1457.8079305000138	1458.811212599976	1459.7804367998615	2020-02-08 13:19:32.520984	1.7657843242698	-5.32440848703074	-0.931703478480233	-3.9443570788925	-2.69748780275004	-0.931703478480233	-1.7657843242698	-0.931703478480233	-5.32440848703074	-0.931703478480233	-2.69748780275004	0.931703478480233	-2.5341681526305195	-4.893775450007173	0.5651359348735948	-4.404547908237281	-3.0390917187545217	0.5651359348735948	1.763849734889162	-2.504061968255719	0.0301061843747914	-1.917534201859227	-2.411105313274351	2	correct	1.0
405.34733020002	8.750177400186658	go_reward	1.0	405.37063509994186	407.22582729998976	409.73775750002824	1.8551922000478953	406.38293870002985	408.72690599993825	412.7745662999805	0.8428885999599061	1.0108515000899843	1.3462462001480162	411.77209739992395	0.3811504999175668	410.75356750003994	1	1	107	2	go_reward	1	1	0	1	0	0	0	0.0	1.0	0	1.0	0.3811504999175668	1054.4483699998818	1459.8190050998237	1460.8313086999117	1461.6741972998716	1463.17527599982	1464.18612749991	1465.2019374999218	1466.2204673998058	1467.2229362998623	1468.5691825000104	2020-02-08 13:19:32.520984	-3.0237867539869	3.21284665676164	0.0	1.46157116755529	3.0237867539869	0.0	3.0237867539869	0.0	3.21284665676164	0.0	3.0237867539869	0.0	-7.323739230887219	3.6434796937852076	1.4968394133538279	1.0013803382105089	2.682182837982418	1.4968394133538279	0.8321462564089288	-1.5723584897754859	5.751380741111731	-0.985830723378994	6.126149830518029	2	correct	1.0
414.1340069000141	8.20454690000065	go_reward	1.0	414.157311799936	416.012355200015	418.54721800005063	1.855043400079012	415.168309800094	417.52717099990696	421.60256909998134	0.8440453999210149	1.020047000143677	0.7592895999553093	420.59029740002006	0.6471041000913829	419.5716617999133	1	1	108	2	go_reward	1	1	0	1	0	0	0	0.0	1.0	0	1.0	0.6471041000913829	1054.4483699998818	1468.6056817998178	1469.6166797999758	1470.4607251998968	1471.9755409997888	1472.9955879999325	1474.020031799795	1475.038667399902	1476.0509390998632	1476.8102286998185	2020-02-08 13:19:32.520984	-3.04544394216074	3.21284665676164	0.0	1.39342878101759	3.04544394216074	0.0	3.04544394216074	0.0	3.21284665676164	0.0	3.04544394216074	0.0	-7.34539641906106	3.6434796937852076	1.4968394133538279	0.9332379516728089	2.7038400261562585	1.4968394133538279	0.8321462564089288	-1.5723584897754859	5.773037929285572	-0.985830723378994	6.126149830518029	2	correct	1.0
422.3752629000228	8.407097900053259	go_punish	1.0	422.39856779994466	424.26853440003447	426.7971598999575	1.8699666000898105	423.40328490012325	425.77386200008914	429.85956709994934	0.865249499911215	1.0232978998683393	0.9460986000485718	428.84498789999634	0.418541399994865	427.8112612001132	1	1	109	4	go_punish	1	0	-1	1	0	0	0	0.0	1.0	-1	1.0	0.418541399994865	1054.4483699998818	1476.8469377998265	1477.851654900005	1478.7169043999163	1480.222231999971	1481.2455298998393	1482.259631199995	1483.2933578998782	1484.3079370998312	1485.2540356998798	2020-02-08 13:19:32.520984	-2.05507686499624	-2.83129183857687	-2.36113806187087	-3.82526813891549	-0.30606119687463	-2.36113806187087	2.05507686499624	-2.36113806187087	-2.83129183857687	-2.36113806187087	-0.30606119687463	-23.19194490187043	-6.355029341896559	-2.4006588015533024	-0.8642986485170423	-4.285458968260271	-0.6476651128791115	-0.8642986485170423	-22.3597986454615	-3.933496551646356	2.4215327902502013	-3.346968785249864	0.0820113351795193	2	correct	1.0
430.8180533000268	8.6118930999653	go_reward	1.0	430.8413581999487	432.40935850003734	434.92638650001027	1.56800030008867	431.8464188000653	433.91331259999424	437.98485350003466	0.5629396999720484	1.0130739000160247	1.4683977998793125	436.9720119999256	0.3387166999746114	435.9441271000542	1	1	110	2	go_reward	1	1	0	1	0	0	1	1.0	1.0	0	1.0	0.3387166999746114	1054.4483699998818	1485.2897281998305	1486.2947887999471	1486.8577284999192	1488.361682599876	1489.374756499892	1490.392497099936	1491.4203819998074	1492.4332234999165	1493.9016212997958	2020-02-08 13:19:32.520984	-3.06589855334317	3.21284665676164	0.0	1.33069829413715	3.06589855334317	0.0	3.06589855334317	0.0	3.21284665676164	0.0	3.06589855334317	0.0	-7.36585103024349	3.6434796937852076	1.4968394133538279	0.8705074647923687	2.7242946373386885	1.4968394133538279	0.8321462564089288	-1.5723584897754859	5.7934925404680016	-0.985830723378994	6.126149830518029	2	correct	1.0
439.467776100151	8.970514300046489	go_reward	1.0	439.4910810000729	441.71366080013104	444.2342157999519	2.2225798000581563	440.49647730006836	443.2232762000058	447.2990403000731	1.2171835000626743	1.0109395999461412	1.162555000046268	446.28678379999474	0.4632220000494271	445.2575463000685	1	1	111	2	go_reward	1	1	0	1	0	0	0	0.0	1.0	0	1.0	0.4632220000494271	1054.4483699998818	1493.9394509999547	1494.9448472999502	1496.1620308000129	1497.6716461998876	1498.6825857998338	1499.7059162999503	1500.7351537998766	1501.747410299955	1502.9099653000012	2020-02-08 13:19:32.520984	-3.08525722252847	3.21284665676164	0.0	1.27280001727996	3.08525722252847	0.0	3.08525722252847	0.0	3.21284665676164	0.0	3.08525722252847	0.0	-7.385209699428789	3.6434796937852076	1.4968394133538279	0.8126091879351789	2.743653306523988	1.4968394133538279	0.8321462564089288	-1.5723584897754859	5.812851209653301	-0.985830723378994	6.126149830518029	2	correct	1.0
448.4922089001627	7.966606199974194	nogo_punish	1.0	448.5155138000846	450.0610044999048	452.5962425000034	1.5454906998202205	449.51841989997774	451.57642660010606	455.6452333999332	0.5425845999270678	1.0198158998973668	0.836886600125581	454.63148500001967	0.3640002000611275	453.60869650007226	1	1	112	3	nogo_punish	1	-1	0	0	0	1	0	0.0	1.0	0	1.0	0.3640002000611275	1054.4483699998818	1502.9638837999664	1503.9667898998596	1504.5093744997866	1506.024796599988	1507.0446124998853	1508.057066499954	1509.0798549999015	1510.093603399815	1510.9304899999406	2020-02-08 13:19:32.520984	1.86826006168215	-5.32440848703074	-0.894590672350698	-3.80073464308276	-2.76285073403285	-0.894590672350698	-1.86826006168215	-0.894590672350698	-5.32440848703074	-0.894590672350698	-2.76285073403285	0.894590672350698	-2.431692415218169	-4.893775450007173	0.6022487410031299	-4.260925472427541	-3.1044546500373316	0.6022487410031299	1.7267369287596268	-2.466949162126184	-0.0352567469080185	-1.880421395729692	-2.411105313274351	2	correct	1.0
456.4995076002085	8.19926179992035	nogo_punish	1.0	456.5228125001304	457.9468799000606	460.46901590004586	1.424067399930209	457.5239099001046	459.4489535000175	463.5285249000881	0.42296999995596707	1.020062400028337	1.1935493999626487	462.5156578000169	0.4201346999034285	461.4866617999505	1	1	113	3	nogo_punish	1	-1	0	0	0	1	0	0.0	1.0	0	1.0	0.4201346999034285	1054.4483699998818	1510.9711825000122	1511.9722798999865	1512.3952498999424	1513.8973234998994	1514.9173858999277	1515.9350317998324	1516.9640277998988	1517.97689489997	1519.1704442999326	2020-02-08 13:19:32.520984	1.96516421585074	-5.32440848703074	-0.85994799197643	-3.66566100467518	-2.82511220782717	-0.85994799197643	-1.96516421585074	-0.85994799197643	-5.32440848703074	-0.85994799197643	-2.82511220782717	0.85994799197643	-2.3347882610495794	-4.893775450007173	0.6368914213773978	-4.125851834019961	-3.1667161238316517	0.6368914213773978	1.692094248385359	-2.4323064817519158	-0.09751822070233862	-1.845778715355424	-2.411105313274351	2	correct	1.0
464.7324920000972	8.173341700108722	nogo_reward	1.0	464.75579690001905	466.334402800072	468.8633129000664	1.5786059000529349	465.7728925999254	467.85029440000653	471.9201168001164	0.5615102001465857	1.013018500059843	1.0090218000113964	470.90748769999504	0.3555312999524176	469.88027269998565	1	1	114	1	nogo_reward	1	0	1	0	0	1	0	0.0	1.0	1	1.0	0.3555312999524176	1054.4483699998818	1519.2041668999009	1520.2212625998072	1520.7827727999538	1522.2986643998884	1523.3116828999482	1524.3286426998675	1525.3558576998769	1526.3684867999982	1527.3775086000096	2020-02-08 13:19:32.520984	5.51190918934364	1.15200606665342	4.91500256749521	5.23837995686882	-0.596906621848431	4.91500256749521	-5.51190918934364	4.91500256749521	1.15200606665342	4.91500256749521	-0.596906621848431	13.344647938460888	1.2119567124433201	1.5826391036769876	6.411841980849038	4.778189127524039	-0.9385105378529126	6.411841980849038	14.176794194869817	3.3426440777197244	2.1306873652764002	3.9291718441162162	4.0653092404098095	2	correct	1.0
472.94180170004233	8.15785069996491	go_punish	0.3962141999509185	472.9651065999642	474.54455980006605	477.10265809996054	1.5794532001018524	473.97527749999426	476.07592680002585	480.1609620999079	0.5692823000717908	1.0267312999346814	0.9619952000211924	479.1477687999143	0.5643899999558926	478.11345940013416	1	1	115	4	go_punish	1	0	-1	1	1	1	0	0.0	1.0	0	0.3962141999509185	0.5643899999558926	1054.4483699998818	1527.413476599846	1528.423647499876	1528.992929799948	1530.5242967999077	1531.5510280998424	1532.561829400016	1533.596138799796	1534.6093320997898	1535.571327299811	2020-02-08 13:19:32.520984	3.06939695335682	-2.83129183857687	-3.05836957075799	-4.50942471112917	0.0110273825988296	-3.05836957075799	-3.06939695335682	-2.83129183857687	-3.05836957075799	0.0110273825988296	-3.05836957075799	2.83129183857687	-1.2305555235434995	-2.4006588015533024	-1.5615301574041622	-4.969615540473951	-0.33057653340565196	-1.5615301574041622	3.663438094985799	-1.5613311071766562	-0.33077558363315873	-3.817122561955864	-0.14506639700160084	2	correct	1.0
481.1366090001534	8.549186199903716	go_punish	0.2250898000784218	481.15991390007525	483.0806154999882	485.63581819995306	1.9207015999129453	482.16899959999137	484.62386559997685	488.6792365000583	0.911615899996832	1.0119525999762118	1.0298635999206454	487.66618810012005	0.4131577000953257	486.65447190008126	1	1	116	4	go_punish	1	0	-1	1	1	1	0	0.0	1.0	0	0.2250898000784218	0.4131577000953257	1054.4483699998818	1535.608283899957	1536.6173695998732	1537.52898549987	1539.0722355998587	1540.084188199835	1541.102841899963	1542.114558100002	1543.1276064999402	1544.1574700998608	2020-02-08 13:19:32.520984	3.10956512741203	-2.71053464129692	-3.05836957075799	-4.31516970774678	0.0511955566540354	-3.05836957075799	-3.10956512741203	-2.71053464129692	-3.05836957075799	0.0511955566540354	-3.05836957075799	2.71053464129692	-1.1903873494882893	-2.2799016042733524	-1.5615301574041622	-4.7753605370915615	-0.2904083593504461	-1.5615301574041622	3.542680897705849	-1.5211629331214505	-0.33077558363315873	-3.696365364675914	-0.14506639700160084	2	correct	1.0
489.7223528001921	9.57965480000712	nogo_reward	1.0	489.74565770011395	492.48402410000585	495.00483469991013	2.738366399891902	490.7596513000317	493.98894959990866	498.044853300089	1.7243727999741623	1.0158851000014693	1.2804592000320554	497.031453399919	0.3983692000620067	496.0185861000791	1	1	117	1	nogo_reward	1	0	1	0	0	1	0	1.0	0.0	1	1.0	0.3983692000620067	1054.4483699998818	1544.1940276999958	1545.2080212999135	1546.9323940998877	1548.4373195997905	1549.453204699792	1550.466956099961	1551.4798233998008	1552.4932232999709	1553.773682500003	2020-02-08 13:19:32.520984	6.07239756531779	1.15200606665342	5.32260952929092	5.63497296236504	-0.749788036026869	5.32260952929092	-6.07239756531779	5.32260952929092	1.15200606665342	5.32260952929092	-0.749788036026869	12.937040976665179	1.772445088417471	1.5826391036769876	6.819448942644748	5.174782133020259	-1.0913919520313506	6.819448942644748	13.769187233074108	3.7502510395154345	1.9778059510979622	4.336778805911926	4.0653092404098095	2	wrong	1.0
499.3385032000949	8.527128400048241	go_punish	0.4922748999670148	499.3618081000168	500.84447020012885	503.3965173999313	1.4826621001120657	500.3760099001229	502.37561460002325	506.42968740011565	0.4684603000059724	1.0209027999080718	1.4592490999493748	505.4283386000898	0.3835547000635415	504.4051590000745	1	1	118	4	go_punish	1	0	-1	1	1	1	1	0.0	0.0	0	0.4922748999670148	0.3835547000635415	1054.4483699998818	1553.8101780998986	1554.8243799000047	1555.2928402000107	1556.823984599905	1557.8448873998132	1558.8535289999563	1559.8767085999716	1560.8780573999975	1562.3373064999469	2020-02-08 13:19:32.520984	3.14551194978084	-2.59882869116267	-3.05836957075799	-4.13597436868812	0.0871423790228481	-3.05836957075799	-3.14551194978084	-2.59882869116267	-3.05836957075799	0.0871423790228481	-3.05836957075799	2.59882869116267	-1.1544405271194793	-2.1681956541391023	-1.5615301574041622	-4.596165198032901	-0.25446153698163343	-1.5615301574041622	3.430974947571599	-1.4852161107526378	-0.33077558363315873	-3.584659414541664	-0.14506639700160084	2	wrong	1.0
507.9072326000312	8.111286700004712	nogo_punish	1.0	507.93053749995306	509.4314437001012	511.97058270010166	1.5009062001481652	508.93083949992433	510.94735820009373	515.0138501001059	0.5006042001768947	1.0232245000079274	1.0279740998519173	514.0081154000945	0.3635207000188529	512.98429329996	1	1	119	3	nogo_punish	0	0	-1	0	0	1	0	0.0	1.0	-1	1.0	0.3635207000188529	1054.4483699998818	1562.378907499835	1563.3792094998062	1563.879813699983	1565.3957281999756	1566.4189526999835	1567.4326632998418	1568.4564853999764	1569.4622200999877	1570.4901941998396	2020-02-08 13:19:32.520984	2.05698108371998	-5.32440848703074	-0.827525488969848	-3.53834446736419	-2.88450657268983	-0.827525488969848	-2.05698108371998	-0.827525488969848	-5.32440848703074	-0.827525488969848	-2.88450657268983	-24.725557474771453	-2.2429713931803397	-4.893775450007173	0.6693139243839799	-3.998535296708971	-3.2261104886943115	0.6693139243839799	-23.893411218362523	-2.3998839787453337	-0.15691258556499843	-1.813356212348842	-2.411105313274351	2	correct	1.0
516.0532672000115	8.596370400162414	go_punish	0.718933200230822	516.0765720999334	517.6546849000733	520.2027863000985	1.5781128001399338	517.0926651000045	519.1830082000233	523.2617484000511	0.5620198000688106	1.0197781000752002	1.4111941000446677	522.2493761999065	0.3308995000552386	521.2218214001041	1	1	120	4	go_punish	1	0	-1	1	1	1	1	1.0	1.0	0	0.718933200230822	0.3308995000552386	1054.4483699998818	1570.5249420998152	1571.5410350998864	1572.1030548999552	1573.6313781999052	1574.6511562999804	1575.670191399986	1576.6977461997883	1577.710118399933	1579.1213124999776	2020-02-08 13:19:32.520984	3.17778334954874	-2.49513003203238	-3.05836957075799	-3.97001760020866	0.119413778790748	-3.05836957075799	-3.17778334954874	-2.49513003203238	-3.05836957075799	0.119413778790748	-3.05836957075799	2.49513003203238	-1.1221691273515795	-2.0644969950088123	-1.5615301574041622	-4.430208429553441	-0.22219013721373354	-1.5615301574041622	3.3272762884413085	-1.4529447109847378	-0.33077558363315873	-3.480960755411374	-0.14506639700160084	2	correct	1.0
