onset	duration	trial_type	response_time	cueOnset	targetOnset	fbOnset	cueRT	firstfixOnset	secondfixOnset	waitOnset	firstfixdur	secondfixdur	waitdur	nback_fbOnset	nback_response_time	nback_targetOnset	block	wm	trial	cue	cond	is_common	outcome_go	outcome_nogo	key_correct	key_pressed	is_correct	key_correct_nback	key_pressed_nback	is_correct_nback	outcome	rt	rt_nback	time_scan	time_onset	time_isi1	time_circle	time_isi2	time_feedback	time_same	time_correct	time_iti	time_done	timestamp_scan	DV	Qgo	Qnogo	SV	Wgo	Wnogo	mDV	Qchosen	Qunchosen	Wchosen	Wunchosen	PE	DVC	QgoC	QnogoC	SVC	WgoC	WnogoC	PEC	WchosenC	WunchosenC	QchosenC	QunchosenC	run	outcome_nback	nback_targetResp
0.0	8.823048300109804	go_punish	0.4693712000735104	0.027446700259929457	1.8819979000835474	4.4263411001301165	1.854551199823618	1.0376822999677415	3.423598700202774	7.4898133999666925	0.8443156001158059	1.0027423999273424	1.3606816004030406	6.49308359995473	0.5500116003677249	5.44913770025596	1	1	61	3	go_punish	1	0	-1	1	1	1	1	0.0	0.0	0	0.4693712000735104	0.5500116003677249	1017.5043415999972	1017.5317883002572	1018.542023899965	1019.3863395000808	1020.9279403002	1021.9306827001274	1022.9534793002532	1023.997425199952	1024.994154999964	1026.354836600367	2020-01-14 11:29:53.429312	-0.152030587486547	-0.414847944352254	-0.745397298343619	-1.02164564550267	-0.897427885830165	-0.745397298343619	0.152030587486547	-0.414847944352254	-0.745397298343619	-0.897427885830165	-0.745397298343619	0.414847944352254	-1.940651363897973	-1.1185906675190065	-1.4318530192211347	-2.380599622580082	-1.6563854097163149	-1.4318530192211347	-0.8632937411812451	-2.5144448964177117	-0.5737935325197387	-1.7630077481398383	-0.7874359386003023	2	wrong	1.0
8.857358700130135	8.157798399683088	go_reward	0.3427269998937845	8.884805400390064	10.259680100250648	12.815310500096416	1.3748746998605839	9.901232900097853	11.791136800311392	15.846123100258296	0.35844720015279563	1.024173699785024	1.196480699814856	14.841195700224375	0.3369187996722758	13.816445200238263	1	1	62	1	go_reward	1	1	0	1	1	1	0	0.0	1.0	1	0.3427269998937845	0.3369187996722758	1017.5043415999972	1026.3891470003873	1027.405574500095	1027.764021700248	1029.2954784003086	1030.3196521000937	1031.3207868002355	1032.3455373002216	1033.3504647002555	1034.5469454000704	2020-01-14 11:29:53.429312	6.0578893628062	3.86977418025518	0.0	3.80699704226003	6.0578893628062	0.0	-6.0578893628062	3.86977418025518	0.0	6.0578893628062	0.0	9.006039573004418	4.269268586394774	3.166031457088428	-0.6864557208775158	2.448043065182618	5.2989318389200495	-0.6864557208775158	7.727897887470919	4.440872352218653	0.1716037658238803	2.521614376467596	-0.042038640256683246	2	correct	1.0
17.049065299797803	8.92578800022602	nogo_punish	1.0	17.076512000057733	19.54876050027076	22.08442000020284	2.472248500213027	18.088754000141876	21.064529600087667	25.13371850037936	1.460006500128884	1.0198904001151732	0.8685814999043941	24.121509999967998	0.2234528996050357	23.102868000045305	1	1	63	4	nogo_punish	1	-1	0	0	0	1	0	0.0	1.0	0	1.0	0.2234528996050357	1017.5043415999972	1034.580853600055	1035.5930956001391	1037.053102100268	1038.568871200085	1039.5887616002	1040.6072096000426	1041.6258515999652	1042.6380601003766	1043.506641600281	2020-01-14 11:29:53.429312	0.907865071355654	-0.772290055205827	-0.0968730445287221	-0.57577865838147	-1.00473811588438	-0.0968730445287221	-0.907865071355654	-0.0968730445287221	-0.772290055205827	-0.0968730445287221	-1.00473811588438	0.0968730445287221	-0.8807557050557719	-1.4760327783725795	-0.783328765406238	-1.9347326354588819	-1.7636956397705301	-0.783328765406238	-1.181268641004777	-1.7138900551162686	-0.8331343500604997	-1.4450328483163064	-0.8143286954625103	2	correct	1.0
26.01493480009958	8.366428500041138	go_punish	1.0	26.04238150035951	27.44726130040351	29.975167300086355	1.4048798000440001	27.05295210005704	28.951367300003653	33.00233669998113	0.3943092003464699	1.0238000000827014	1.4064733004195205	32.008197600021845	0.3491229000501334	30.98910330003116	1	1	64	3	go_punish	1	0	-1	1	0	0	0	0.0	1.0	-1	1.0	0.3491229000501334	1017.5043415999972	1043.5467231003568	1044.5572937000543	1044.9516029004008	1046.455708900001	1047.4795089000836	1048.4934449000284	1049.512539200019	1050.5066782999784	1051.913151600398	2020-01-14 11:29:53.429312	0.0916219678874858	-0.388899137411122	-0.745397298343619	-0.960395406304208	-0.837019266231104	-0.745397298343619	-0.0916219678874858	-0.745397298343619	-0.388899137411122	-0.745397298343619	-0.837019266231104	-2.3089317064752013	-1.69699880852394	-1.0926418605778745	-1.4318530192211347	-2.31934938338162	-1.5959767901172541	-1.4318530192211347	-3.5870733920087003	-2.3624143089311653	-0.6654155004072237	-2.0935571021312036	-0.4309377776678052	2	correct	1.0
34.41590330004692	9.474895399995148	nogo_punish	1.0	34.44335000030685	37.207796100061046	39.72554890019785	2.7644460997541955	35.45918150013324	38.71418840019044	42.7839990002102	1.748614599927805	1.011360500007413	1.1342464000917971	41.772503599990046	0.2747716996818781	40.74258430022735	1	1	65	4	nogo_punish	1	-1	0	0	0	1	1	1.0	1.0	0	1.0	0.2747716996818781	1017.5043415999972	1051.947691600304	1052.9635231001305	1054.7121377000583	1056.2185300001877	1057.229890500195	1058.2469259002246	1059.2768451999873	1060.2883406002074	1061.4225870002992	2020-01-14 11:29:53.429312	0.895577376743857	-0.772290055205827	-0.0913284814560666	-0.543945473061897	-0.986905858199924	-0.0913284814560666	-0.895577376743857	-0.0913284814560666	-0.772290055205827	-0.0913284814560666	-0.986905858199924	0.0913284814560666	-0.893043399667569	-1.4760327783725795	-0.7777842023335825	-1.902899450139309	-1.745863382086074	-0.7777842023335825	-1.1868132040774324	-1.7083454920436132	-0.8153020923760438	-1.439488285243651	-0.8143286954625103	2	correct	1.0
43.92449430003762	8.082922799978405	go_reward	0.4106311001814902	43.95194100029755	45.428724400233364	47.97989000007499	1.4767833999358118	44.95988320000458	46.95940960012365	51.02636080002401	0.4688412002287805	1.0204803999513388	1.0085030002519488	50.01363230030972	0.6979682999663055	48.9923927001654	1	1	66	1	go_reward	1	1	0	1	1	1	0	0.0	1.0	1	0.4106311001814902	0.6979682999663055	1017.5043415999972	1061.4562826002948	1062.4642248000018	1062.9330660002306	1064.463751200121	1065.4842316000722	1066.4967343001626	1067.517973900307	1068.5307024000213	1069.5392054002732	2020-01-14 11:29:53.429312	6.64058594999765	4.2439921921891	0.0	4.18523141964555	6.64058594999765	0.0	-6.64058594999765	4.2439921921891	0.0	6.64058594999765	0.0	8.631821561070499	4.851965173586224	3.5402494690223474	-0.6864557208775158	2.8262774425681383	5.8816284261115	-0.6864557208775158	7.353679875537	5.0235689394101035	0.1716037658238803	2.8958323884015154	-0.042038640256683246	2	correct	1.0
52.04072450008243	8.83305699983589	go_reward	0.3134363000281155	52.06817120034236	54.35696210013691	56.89166980003904	2.2887908997945487	53.07025450002391	55.87993489997427	59.92506889998924	1.2867076001130044	1.0117349000647664	0.9761593001890105	58.90655540022988	0.3213495998643338	57.89400820014987	1	1	67	1	go_reward	1	1	0	1	1	1	0	0.0	1.0	1	0.3134363000281155	0.3213495998643338	1017.5043415999972	1069.5725128003396	1070.5745961000212	1071.8613037001342	1073.3842764999715	1074.3960114000363	1075.3983498001471	1076.4108970002271	1077.4294104999865	1078.4055698001755	2020-01-14 11:29:53.429312	7.19097162856223	4.59753053537769	0.0	4.54247792121002	7.19097162856223	0.0	-7.19097162856223	4.59753053537769	0.0	7.19097162856223	0.0	8.27828321788191	5.402350852150804	3.8937878122109373	-0.6864557208775158	3.183523944132608	6.43201410467608	-0.6864557208775158	7.000141532348411	5.5739546179746835	0.1716037658238803	3.2493707315901053	-0.042038640256683246	2	correct	1.0
60.91003050003201	9.80547000002116	nogo_reward	0.2720659002661705	60.93747720029194	63.67630160041165	66.20926420018066	2.738824400119711	61.94262400036666	65.19753460027266	69.26046550041053	1.7336776000449845	1.0117295999079943	1.4824816999025643	68.25995180010784	0.2831602999940514	67.22559170005832	1	1	68	2	nogo_reward	1	0	1	0	1	0	0	0.0	1.0	0	0.2720659002661705	0.2831602999940514	1017.5043415999972	1078.4418188002892	1079.446965600364	1081.180643200409	1082.70187620027	1083.713605800178	1084.7299333000556	1085.764293400105	1086.7648071004078	1088.2472888003103	2020-01-14 11:29:53.429312	1.00190818768455	0.850001518220331	0.556727877101502	1.1237112534418	1.55863606478605	0.556727877101502	-1.00190818768455	0.850001518220331	0.556727877101502	1.55863606478605	0.556727877101502	-0.850001518220331	-0.786712588726876	0.14625879505357853	-0.12972784377601387	-0.23524272363561205	0.7996785408999	-0.12972784377601387	-2.12814320375383	-0.05838094580149655	0.7283316429253822	-0.4981582855672534	0.5146892368448187	2	correct	1.0
70.75078869983554	8.669963899999857	nogo_reward	0.1878669997677207	70.77823540009547	72.63843640033144	75.18400810006995	1.8602010002359748	71.79503910010669	74.15917300013814	78.24518250022072	0.8433973002247512	1.0248350999318063	1.2030167998746037	77.22675470029924	0.3623946998268366	76.19690800039086	1	1	69	2	nogo_reward	0	1	0	0	1	0	0	0.0	1.0	1	0.1878669997677207	0.3623946998268366	1017.5043415999972	1088.2825770000927	1089.299380700104	1090.1427780003287	1091.6635146001354	1092.6883497000672	1093.701249600388	1094.7310963002965	1095.749524100218	1096.9525409000926	2020-01-14 11:29:53.429312	0.920609659064206	0.802470570742608	0.556727877101502	1.06263356457032	1.47733753616571	0.556727877101502	-0.920609659064206	0.802470570742608	0.556727877101502	1.47733753616571	0.556727877101502	12.073343182516991	-0.8680111173472199	0.09872784757585551	-0.12972784377601387	-0.29632041250709196	0.7183800122795599	-0.12972784377601387	10.795201496983491	-0.1396794744218366	0.7283316429253822	-0.5456892330449764	0.5146892368448187	2	correct	1.0
79.46217239974067	8.812464100308716	go_punish	1.0	79.4896191000006	81.27077500009898	83.80056280037377	1.7811559000983834	80.49913040036324	82.78580790013086	86.83118970040243	0.7716445997357368	1.014754900242906	1.4708934999068788	85.82456229999627	0.2783118998631835	84.80805600015435	1	1	70	3	go_punish	0	-1	0	1	0	0	0	0.0	1.0	0	1.0	0.2783118998631835	1017.5043415999972	1096.9939606999978	1098.0034720003605	1098.7751166000962	1100.290149500128	1101.304904400371	1102.3123976001516	1103.3289038999935	1104.3355313003997	1105.8064248003066	2020-01-14 11:29:53.429312	0.0392717595861127	-0.388899137411122	-0.850220586156383	-1.05403805376837	-0.889492345742496	-0.850220586156383	-0.0392717595861127	-0.850220586156383	-0.388899137411122	-0.850220586156383	-0.889492345742496	0.850220586156383	-1.7493490168253132	-1.0926418605778745	-1.5366763070338987	-2.412992030845782	-1.648449869628646	-1.5366763070338987	-0.4279210993771161	-2.4672375967439297	-0.7178885799186158	-2.198380389943967	-0.4309377776678052	2	correct	1.0
88.3134387996979	8.381475500297029	go_punish	1.0	88.34088549995784	90.13777530007053	92.67916220007453	1.7968898001126945	89.35265689995106	91.65479170018796	95.72447560029093	0.7851184001194724	1.0243704998865724	0.9978853999639341	94.70322190038826	0.5631232997402549	93.68162780022237	1	1	71	3	go_punish	1	0	-1	1	0	0	0	0.0	1.0	-1	1.0	0.5631232997402549	1017.5043415999972	1105.845227099955	1106.8569984999483	1107.6421169000678	1109.1591333001852	1110.1835038000718	1111.1859694002196	1112.2075635003855	1113.2288172002882	1114.226702600252	2020-01-14 11:29:53.429312	0.0560039259947205	-0.388899137411122	-0.79855888644138	-0.991896379558133	-0.8545628124361	-0.79855888644138	-0.0560039259947205	-0.79855888644138	-0.388899137411122	-0.79855888644138	-0.8545628124361	-2.2557701183774403	-1.7326168504167054	-1.0926418605778745	-1.4850146073188957	-2.350850356635545	-1.61352033632225	-1.4850146073188957	-3.5339118039109394	-2.4155758970289263	-0.6829590466122197	-2.1467186902289646	-0.4309377776678052	2	correct	1.0
96.73552750004433	8.95268329978012	nogo_punish	0.2555423001758754	96.76297420030426	99.10322160040948	101.6457615001126	2.340247400105227	97.77019490022201	100.62480950029556	104.69082450028498	1.3330267001874745	1.0209519998170435	1.0248329997994006	103.69192700041447	0.3773194001987576	102.66317500034336	1	1	72	4	nogo_punish	0	0	-1	0	1	0	0	0.0	1.0	0	0.2555423001758754	0.3773194001987576	1017.5043415999972	1114.2673158003015	1115.2745365002193	1116.6075632004067	1118.1291511002928	1119.1501031001098	1120.1675166003406	1121.1962686004117	1122.1951661002822	1123.2199991000816	2020-01-14 11:29:53.429312	-0.88412423290419	-0.772290055205827	-0.0861752354052367	-0.514282948089704	-0.970299468309427	-0.0861752354052367	0.88412423290419	-0.772290055205827	-0.0861752354052367	-0.970299468309427	-0.0861752354052367	0.772290055205827	-2.6727450093156158	-1.4760327783725795	-0.7726309562827525	-1.873236925167116	-1.7292569921955772	-0.7726309562827525	-0.505851630327672	-2.5873164788969736	0.0854285304186436	-2.1204498589934113	-0.12821387566191994	2	correct	1.0
105.72668810002506	9.8177375998348	go_punish	1.0	105.75413480028499	108.60741980001319	111.12345860013704	2.853284999728203	106.7665850999764	110.11280740005884	114.17711650021363	1.840834700036794	1.0106512000782004	1.3947558999061584	113.16674590017635	0.5731359999626875	112.13724309997644	1	1	73	3	go_punish	1	0	-1	1	0	0	1	1.0	1.0	-1	1.0	0.5731359999626875	1017.5043415999972	1123.2584764002822	1124.2709266999736	1126.1117614000104	1127.617149000056	1128.6278002001343	1129.6415846999737	1130.6710875001736	1131.6814581002109	1133.076214000117	2020-01-14 11:29:53.429312	0.0054276395260511	-0.388899137411122	-0.901127527533964	-1.08463501673801	-0.906555167060016	-0.901127527533964	-0.0054276395260511	-0.901127527533964	-0.388899137411122	-0.901127527533964	-0.906555167060016	-2.1532014772848562	-1.7831931368853748	-1.0926418605778745	-1.5875832484114798	-2.443588993815422	-1.6655126909461662	-1.5875832484114798	-3.4313431628183553	-2.5181445381215104	-0.7349514012361358	-2.2492873313215482	-0.4309377776678052	2	correct	1.0
115.58199939969927	9.712527400348336	nogo_punish	1.0	115.6094460999592	118.38386060018081	120.91765440022562	2.77441450022161	116.61952600022767	119.89458429999638	123.9663882004096	1.7643345999531448	1.0230701002292335	1.355585299897939	122.96082859998558	0.3938867999240756	121.93252300005395	1	1	74	4	nogo_punish	0	0	-1	0	0	1	1	0.0	0.0	-1	1.0	0.3938867999240756	1017.5043415999972	1133.1137876999564	1134.123867600225	1135.888202200178	1137.3989258999936	1138.4219960002229	1139.4368646000512	1140.4651701999828	1141.4707298004068	1142.8263151003048	2020-01-14 11:29:53.429312	0.821150255548638	-0.72479789587551	-0.0861752354052367	-0.48661395412995	-0.907325490953875	-0.0861752354052367	-0.821150255548638	-0.0861752354052367	-0.72479789587551	-0.0861752354052367	-0.907325490953875	-2.9681537694135836	-0.967470520862788	-1.4285406190422625	-0.7726309562827525	-1.8455679312073618	-1.6662830148400252	-0.7726309562827525	-4.246295454947083	-1.7031922459927833	-0.7357217251299948	-1.4343350391928211	-0.7668365361321933	2	wrong	1.0
125.3282407997176	8.70279260026291	go_reward	0.2105622002854943	125.35568749997753	127.70985030010331	130.2548991004004	2.3541628001257777	126.36160279996682	129.2306907000019	133.30853989999707	1.3482475001364946	1.0242084003984928	0.7499402002433726	132.28991260007012	0.271514699794352	131.2688803002237	1	1	75	1	go_reward	1	1	0	1	1	1	0	0.0	1.0	1	0.2105622002854943	0.271514699794352	1017.5043415999972	1142.8600290999748	1143.865944399964	1145.2141919001006	1146.7350322999991	1147.7592407003976	1148.773221900221	1149.7942542000674	1150.8128814999943	1151.5628217002377	2020-01-14 11:29:53.429312	7.71131084323906	4.93182885724554	0.0	4.88020388335207	7.71131084323906	0.0	-7.71131084323906	4.93182885724554	0.0	7.71131084323906	0.0	7.94398489601406	5.922690066827634	4.228086134078787	-0.6864557208775158	3.5212499062746576	6.95235331935291	-0.6864557208775158	6.665843210480561	6.0942938326515135	0.1716037658238803	3.5836690534579554	-0.042038640256683246	2	correct	1.0
134.06659159995593	8.424511699937511	nogo_reward	0.2999358000233769	134.09403830021586	135.55048750014964	138.0927584003656	1.456449199933786	135.09171850001428	137.08154790010292	141.1342632002196	0.45876900013536215	1.0112105002626777	1.3842867999337614	140.12546230014402	0.813724699895829	139.10371639998618	1	1	76	2	nogo_reward	1	0	1	0	1	0	0	0.0	1.0	0	0.2999358000233769	0.813724699895829	1017.5043415999972	1151.598379900213	1152.5960601000115	1153.054829100147	1154.5858895001002	1155.5971000003628	1156.6080579999834	1157.6298039001413	1158.6386048002169	1160.0228916001506	2020-01-14 11:29:53.429312	1.76531989818564	1.35114546210759	0.556727877101502	1.59858971845277	2.32204777528714	0.556727877101502	-1.76531989818564	1.35114546210759	0.556727877101502	2.32204777528714	0.556727877101502	-1.35114546210759	-0.02330087822578597	0.6474027389408376	-0.12972784377601387	0.23963574137535804	1.5630902514009897	-0.12972784377601387	-2.6292871476410893	0.7050307646995932	0.7283316429253822	0.0029856583200056352	0.5146892368448187	2	correct	1.0
142.5268918001093	8.96057409979403	nogo_punish	1.0	142.55433850036923	144.99389190040517	147.52750390022982	2.4395534000359476	143.5691312002017	146.50272430013854	150.57922320021305	1.4247607002034783	1.0247796000912786	0.9356893999502063	149.57882100017707	0.3754456997849047	148.54999650036905	1	1	77	4	nogo_punish	0	0	-1	0	0	1	0	0.0	1.0	-1	1.0	0.3754456997849047	1017.5043415999972	1160.0586801003665	1161.073472800199	1162.4982335004024	1164.0070659001358	1165.031845500227	1166.0543381003663	1167.0831626001743	1168.0835648002103	1169.0192542001605	2020-01-14 11:29:53.429312	0.745499717771461	-0.72479789587551	-0.231718089304671	-0.611116128496126	-0.977217807076132	-0.231718089304671	-0.745499717771461	-0.231718089304671	-0.72479789587551	-0.231718089304671	-0.977217807076132	-2.822610915514149	-1.043121058639965	-1.4285406190422625	-0.9181738101821868	-1.970070105573538	-1.736175330962282	-0.9181738101821868	-4.100752601047648	-1.8487350998922176	-0.8056140412522518	-1.5798778930922555	-0.7668365361321933	2	correct	1.0
151.52810500003397	8.853471599984914	go_punish	1.0	151.5555517002939	153.43203320028226	155.93088290002186	1.8764814999883583	152.56701940018672	154.92890419997286	158.99475920014072	0.8650138000955394	1.0019787000489941	1.414264100138098	157.99392840033386	0.4044382995925843	156.95810750033695	1	1	78	3	go_punish	1	0	-1	1	0	0	0	0.0	1.0	-1	1.0	0.4044382995925843	1017.5043415999972	1169.0598933002912	1170.071361000184	1170.9363748002795	1172.43324579997	1173.435224500019	1174.4624491003342	1175.498270000331	1176.499100800138	1177.913364900276	2020-01-14 11:29:53.429312	-0.042161874702359	-0.388899137411122	-0.997642023772014	-1.17192284414615	-0.955480149069655	-0.997642023772014	0.042161874702359	-0.997642023772014	-0.388899137411122	-0.997642023772014	-0.955480149069655	-2.056686981046806	-1.830782651113785	-1.0926418605778745	-1.68409774464953	-2.530876821223562	-1.714437672955805	-1.68409774464953	-3.334828666580305	-2.6146590343595606	-0.7838763832457747	-2.3458018275595984	-0.4309377776678052	2	correct	1.0
160.41676370007917	9.191976699978113	nogo_punish	0.1641660998575389	160.4442104003391	162.99125220021244	165.53001120034594	2.547041799873341	161.45288630016137	164.51708890032012	168.58868829999108	1.538365900051076	1.0129223000258207	1.0474988003261387	167.5760480002499	0.4475803999230265	166.53771980013664	1	1	79	4	nogo_punish	0	0	-1	0	1	0	1	1.0	1.0	0	0.1641660998575389	0.4475803999230265	1017.5043415999972	1177.9485520003363	1178.9572279001586	1180.4955938002097	1182.0214305003174	1183.0343528003432	1184.042061400134	1185.0803896002471	1186.0930298999883	1187.1405287003145	2020-01-14 11:29:53.429312	-0.674646887076338	-0.72479789587551	-0.367995930235443	-0.727713013479545	-1.04264281731178	-0.367995930235443	0.674646887076338	-0.72479789587551	-0.367995930235443	-1.04264281731178	-0.367995930235443	0.72479789587551	-2.463267663487764	-1.4285406190422625	-1.054451651112959	-2.086666990556957	-1.80160034119793	-1.054451651112959	-0.553343789657989	-2.6596598278993264	-0.19639216441156274	-2.0729576996630943	-0.41003457049212627	2	correct	1.0
169.64701330009848	8.419394899625331	nogo_punish	0.2518822001293301	169.6744600003584	171.3505983003414	173.89694810006756	1.6761382999829948	170.68537069996785	172.88239200040687	176.93720230041083	0.6652276003735551	1.0145560996606946	1.156652599572908	175.93661590013642	0.8128452999517322	174.91259360033985	1	1	80	4	nogo_punish	1	-1	0	0	1	0	0	0.0	1.0	-1	0.2518822001293301	0.8128452999517322	1017.5043415999972	1187.1788016003557	1188.189712299965	1188.8549399003386	1190.386733600404	1191.4012897000648	1192.416935200337	1193.4409575001337	1194.441543900408	1195.598196499981	2020-01-14 11:29:53.429312	-0.607752529478683	-0.680926624478595	-0.367995930235443	-0.686695496453454	-0.975748459714125	-0.367995930235443	0.607752529478683	-0.680926624478595	-0.367995930235443	-0.975748459714125	-0.367995930235443	-2.373402380340225	-2.396373305890109	-1.3846693476453473	-1.054451651112959	-2.045649473530866	-1.734705983600275	-1.054451651112959	-3.651544065873724	-2.5927654703016714	-0.19639216441156274	-2.0290864282661794	-0.41003457049212627	2	correct	1.0
178.10013279970713	8.192939500324655	nogo_reward	0.4473117003217339	178.12757949996706	179.67187000019464	182.22057190025214	1.5442905002275893	179.1192923001944	181.19963090028602	185.29166290024284	0.5525777000002563	1.0209409999661148	1.0288561000488698	184.27307850029308	0.2601926000788808	183.24024459999043	1	1	81	2	nogo_reward	1	0	1	0	1	0	0	0.0	1.0	0	0.4473117003217339	0.2601926000788808	1017.5043415999972	1195.6319210999643	1196.6236339001916	1197.176211600192	1198.7039725002833	1199.7249135002494	1200.7445861999877	1201.7774201002903	1202.79600450024	1203.824860600289	2020-01-14 11:29:53.429312	1.63849911878466	1.27380905907258	0.556727877101502	1.50930251144612	2.19522699588616	0.556727877101502	-1.63849911878466	1.27380905907258	0.556727877101502	2.19522699588616	0.556727877101502	-1.27380905907258	-0.15012165762676588	0.5700663359058274	-0.12972784377601387	0.1503485343687081	1.43626947200001	-0.12972784377601387	-2.5519507446060787	0.5782099852986136	0.7283316429253822	-0.07435074471500447	0.5146892368448187	2	correct	1.0
186.32985380012542	8.923858399968594	go_reward	0.2394749000668525	186.35730050038535	188.79194490006182	191.3446321003138	2.434644399676472	187.36403870023776	190.32121030008386	194.3802424999884	1.427906199824065	1.0234218002299258	0.9009164003655314	193.37936750007782	0.5414800001308322	192.35795780038427	1	1	82	1	go_reward	1	1	0	1	1	1	0	0.0	1.0	1	0.2394749000668525	0.5414800001308322	1017.5043415999972	1203.8616421003826	1204.868380300235	1206.296286500059	1207.825551900081	1208.848973700311	1209.8622994003815	1210.883709100075	1211.8845840999857	1212.7855005003512	2020-01-14 11:29:53.429312	8.20367443866918	5.24820478955941	0.0	5.19975176136144	8.20367443866918	0.0	-8.20367443866918	5.24820478955941	0.0	8.20367443866918	0.0	7.627608963700189	6.415053662257755	4.544462066392658	-0.6864557208775158	3.8407977842840277	7.44471691478303	-0.6864557208775158	6.34946727816669	6.586657428081634	0.1716037658238803	3.900044985771826	-0.042038640256683246	2	correct	1.0
195.2904348000884	8.668898500036448	nogo_reward	0.2454567002132535	195.31788150034834	196.8960061999968	199.4388247001915	1.5781246996484697	196.33453710004676	198.42914110003028	202.49154620012257	0.5614690999500453	1.0096836001612246	1.4952338002622128	201.48208850016806	0.3156461999751627	200.45387850003306	1	1	83	2	nogo_reward	1	0	1	0	1	0	1	1.0	1.0	0	0.2454567002132535	0.3156461999751627	1017.5043415999972	1212.8222231003456	1213.838878700044	1214.400347799994	1215.9334827000275	1216.9431663001888	1217.9582201000303	1218.9864301001653	1219.9958878001198	1221.491121600382	2020-01-14 11:29:53.429312	1.52075319010465	1.20202553623888	0.556727877101502	1.42628107521063	2.07748106720615	0.556727877101502	-1.52075319010465	1.20202553623888	0.556727877101502	2.07748106720615	0.556727877101502	-1.20202553623888	-0.2678675863067759	0.49828281307212763	-0.12972784377601387	0.06732709813321813	1.31852354332	-0.12972784377601387	-2.480167221772379	0.46046405661860357	0.7283316429253822	-0.1461342675487043	0.5146892368448187	2	correct	1.0
203.9993082000874	9.766516199801117	go_punish	0.2004943997599184	204.02675490034733	206.78606209997076	209.34287070017297	2.7593071996234357	205.02793000033114	208.32324700010906	212.39378740033123	1.7581320996396244	1.019623700063903	1.3994836998172104	211.38168480014417	0.2863683998584747	210.35820150002826	1	1	84	3	go_punish	1	0	-1	1	1	1	0	0.0	1.0	0	0.2004943997599184	0.2863683998584747	1017.5043415999972	1221.5310965003446	1222.5322716003284	1224.290403699968	1225.8275886001063	1226.8472123001702	1227.8625431000255	1228.8860264001414	1229.8981290003285	1231.2976127001457	2020-01-14 11:29:53.429312	0.0869806587630647	-0.388899137411122	-1.08854739574881	-1.25416196555705	-1.00156673698575	-1.08854739574881	-0.0869806587630647	-0.388899137411122	-1.08854739574881	-1.00156673698575	-1.08854739574881	0.388899137411122	-1.7016401176483613	-1.0926418605778745	-1.7750031166263258	-2.6131159426344617	-1.7605242608718998	-1.7750031166263258	-0.8892425481223771	-2.6185837475732967	-0.9169436299249298	-1.7370589411987063	-1.1305860360054933	2	correct	1.0
213.80247320001945	8.374658099841326	nogo_punish	0.4734410997480154	213.82991990027938	215.39603319996957	217.94070160016406	1.566113299690187	214.83430570038024	216.92394110001612	220.98374980036158	0.561727499589324	1.0167605001479387	1.2208281997591257	219.97592750005413	0.6249914998188615	218.94279280025523	1	1	85	4	nogo_punish	1	-1	0	0	1	0	0	0.0	1.0	-1	0.4734410997480154	0.6249914998188615	1017.5043415999972	1231.3342615002766	1232.3386473003775	1232.9003747999668	1234.4282827000134	1235.4450432001613	1236.4471344002525	1237.4802691000514	1238.4880914003588	1239.708919600118	2020-01-14 11:29:53.429312	-0.7804610389073	-0.790681729695742	-0.367995930235443	-0.798900771912435	-1.14845696914274	-0.367995930235443	0.7804610389073	-0.790681729695742	-0.367995930235443	-1.14845696914274	-0.367995930235443	-2.263647275123078	-2.569081815318726	-1.4944244528624946	-1.054451651112959	-2.157854748989847	-1.9074144930288899	-1.054451651112959	-3.541788960656577	-2.7654739797302863	-0.19639216441156274	-2.138841533483326	-0.41003457049212627	2	correct	1.0
222.21313939988613	8.195287900045514	nogo_reward	0.217739500105381	222.24058610014606	223.75976080028306	226.29777650022868	1.5191747001370004	223.2555436999536	225.28353460039932	229.34219250036392	0.5042171003294698	1.0142418998293579	1.0936814998276532	228.3289063000119	0.3077780003659427	227.30877880007017	1	1	86	2	nogo_reward	1	0	1	0	1	0	0	0.0	1.0	0	0.217739500105381	0.3077780003659427	1017.5043415999972	1239.7449277001433	1240.7598852999508	1241.2641024002803	1242.7878762003966	1243.802118100226	1244.8131204000674	1245.8332479000092	1246.8465341003612	1247.9402156001888	2020-01-14 11:29:53.429312	1.41129300807858	1.1353116567757	0.556727877101502	1.3489916821594	1.96802088518008	0.556727877101502	-1.41129300807858	1.1353116567757	0.556727877101502	1.96802088518008	0.556727877101502	-1.1353116567757	-0.377327768332846	0.43156893360894755	-0.12972784377601387	-0.009962294918012038	1.2090633612939299	-0.12972784377601387	-2.4134533423091993	0.35100387459253346	0.7283316429253822	-0.21284814701188437	0.5146892368448187	2	correct	1.0
230.44420959986746	8.929307300131768	nogo_reward	0.2489565997384488	230.4716563001274	232.53555020038027	235.08035610010836	2.0638939002528787	231.48679320001963	234.06848300015565	238.11982710007567	1.048757000360638	1.0118730999527088	1.281136500183493	237.10172430006776	0.3166946996934712	236.08685060031723	1	1	87	2	nogo_reward	1	0	1	0	1	0	0	0.0	1.0	0	0.2489565997384488	0.3166946996934712	1017.5043415999972	1247.9759979001246	1248.9911348000169	1250.0398918003775	1251.572824600153	1252.5846977001056	1253.5911922003145	1254.606065900065	1255.624168700073	1256.9053052002564	2020-01-14 11:29:53.429312	1.30941088815567	1.07323401019229	0.556727877101502	1.27695455787253	1.86613876525717	0.556727877101502	-1.30941088815567	1.07323401019229	0.556727877101502	1.86613876525717	0.556727877101502	-1.07323401019229	-0.47920988825575583	0.36949128702553746	-0.12972784377601387	-0.08199941920488185	1.1071812413710198	-0.12972784377601387	-2.351375695725789	0.24912175466962339	0.7283316429253822	-0.27492579359529445	0.5146892368448187	2	correct	1.0
239.4078166000545	7.9119170000774375	nogo_punish	0.3445354998111725	239.43526330031443	240.79196580033738	243.33909260015923	1.3567025000229478	240.43285660026584	242.32321970025066	246.38422350026656	0.35910920007154346	1.0158728999085724	0.9629568001253119	245.37197580002237	0.6204723999835551	244.35301010031242	1	1	88	4	nogo_punish	1	-1	0	0	1	0	0	0.0	1.0	-1	0.3445354998111725	0.6204723999835551	1017.5043415999972	1256.9396049003117	1257.937198200263	1258.2963074003346	1259.827561300248	1260.8434342001565	1261.8573517003097	1262.8763174000196	1263.8885651002638	1264.8515219003891	2020-01-14 11:29:53.429312	-0.942644369685325	-0.893835479635686	-0.367995930235443	-0.904151383975856	-1.31064029992077	-0.367995930235443	0.942644369685325	-0.893835479635686	-0.367995930235443	-1.31064029992077	-0.367995930235443	-2.160493525183134	-2.7312651460967508	-1.5975782028024383	-1.054451651112959	-2.263105361053268	-2.06959782380692	-1.054451651112959	-3.438635210716633	-2.927657310508317	-0.19639216441156274	-2.2419952834232704	-0.41003457049212627	2	correct	1.0
247.3553875000216	8.198745599948097	nogo_reward	0.2817858001217246	247.38283420028154	249.20263390010211	251.75079640001024	1.819799699820578	248.38562600035186	250.7395589002407	254.79803760023776	0.8170078997502515	1.0112374997695497	0.7835421999918708	253.79393910011265	0.5634705000557005	252.75912780035276	1	1	89	2	nogo_reward	1	0	1	0	1	0	1	0.0	0.0	0	0.2817858001217246	0.5634705000557005	1017.5043415999972	1264.8871758002788	1265.889967600349	1266.7069755000994	1268.243900500238	1269.2551380000075	1270.26346940035	1271.29828070011	1272.302379200235	1273.0859214002269	2020-01-14 11:29:53.429312	1.21447078268063	1.01540303360474	0.556727877101502	1.20973752118212	1.77119865978213	0.556727877101502	-1.21447078268063	1.01540303360474	0.556727877101502	1.77119865978213	0.556727877101502	-1.01540303360474	-0.5741499937307959	0.3116603104379875	-0.12972784377601387	-0.14921645589529198	1.0122411358959802	-0.12972784377601387	-2.293544719138239	0.15418164919458355	0.7283316429253822	-0.33275677018284444	0.5146892368448187	2	wrong	1.0
255.59247579984367	9.507752700243145	go_punish	0.2314466000534594	255.6199225001036	258.59709209995333	261.14772050036106	2.9771695998497307	256.63373840041425	260.126964600291	264.20612019998964	1.9633536995390841	1.0207559000700712	0.9215550003571025	263.1944702002219	0.5494718998670578	262.1640491001307	1	1	90	3	go_punish	1	0	-1	1	1	1	0	0.0	1.0	0	0.2314466000534594	0.5494718998670578	1017.5043415999972	1273.1242641001008	1274.1380800004115	1276.1014336999506	1277.6313062002882	1278.6520621003583	1279.668390700128	1280.6988118002191	1281.710461799987	1282.632016800344	2020-01-14 11:29:53.429312	0.15180030730108	-0.364964294033625	-1.08854739574881	-1.18138046854521	-0.936747088447732	-1.08854739574881	-0.15180030730108	-0.364964294033625	-1.08854739574881	-0.936747088447732	-1.08854739574881	0.364964294033625	-1.6368204691103458	-1.0687070172003774	-1.7750031166263258	-2.540334445622622	-1.695704612333882	-1.7750031166263258	-0.913177391499874	-2.553764099035279	-0.9169436299249298	-1.7131240978212094	-1.1305860360054933	2	correct	1.0
265.13587509980425	8.916286500171054	nogo_punish	1.0	265.1633218000642	267.6215067002921	270.1358989002182	2.458184900227934	266.17878610035393	269.127245500218	273.17988190008316	1.442720599938184	1.0086534000001848	0.8997264001520762	272.1738186003639	0.3364427001215517	271.15207230020326	1	1	91	4	nogo_punish	1	-1	0	0	0	1	0	0.0	1.0	0	1.0	0.3364427001215517	1017.5043415999972	1282.6676634000614	1283.6831277003512	1285.1258483002894	1286.6315871002153	1287.6402405002154	1288.6564139002005	1289.6781602003612	1290.6842235000804	1291.5839499002325	2020-01-14 11:29:53.429312	1.09510617757543	-0.990883326968397	-0.367995930235443	-1.00298657118383	-1.46310210781088	-0.367995930235443	-1.09510617757543	-0.367995930235443	-0.990883326968397	-0.367995930235443	-1.46310210781088	0.367995930235443	-0.6935145988359959	-1.6946260501351493	-1.054451651112959	-2.361940548261242	-2.22205963169703	-1.054451651112959	-0.9101457552980561	-1.9850129408229895	-1.2914983419869996	-1.7161557340230273	-1.0329219672250802	2	correct	1.0
274.086257699877	8.724250100087374	go_reward	0.1830180999822914	274.11370440013695	276.04350800020586	278.5794663000851	1.929803600068908	275.1213964000343	277.573593399953	281.6237550000659	0.9221116001715473	1.0058729001320899	1.2141995001584291	280.61785000003886	0.3133388999849558	279.59218480018865	1	1	92	1	go_reward	1	1	0	1	1	1	0	0.0	1.0	1	0.1830180999822914	0.3133388999849558	1017.5043415999972	1291.6180460001342	1292.6257380000316	1293.547849600203	1295.0779349999502	1296.0838079000823	1297.096526400186	1298.122191600036	1299.1280966000631	1300.3422961002216	2020-01-14 11:29:53.429312	8.66995937938822	5.54786625847611	0.0	5.50235177685696	8.66995937938822	0.0	-8.66995937938822	5.54786625847611	0.0	8.66995937938822	0.0	7.32794749478349	6.881338602976795	4.8441235353093575	-0.6864557208775158	4.143397799779548	7.911001855502071	-0.6864557208775158	6.049805809249991	7.052942368800674	0.1716037658238803	4.199706454688526	-0.042038640256683246	2	correct	1.0
282.8461003000848	7.9825494000688195	go_reward	0.2802305002696812	282.87354700034473	284.42535630008194	286.98227480007324	1.551809299737215	283.8782310001551	285.96412430005137	290.0187017000279	0.5471252999268472	1.018150500021875	0.8373947003856301	289.0161059000528	0.3132123001851141	287.98727730009693	1	1	93	1	go_reward	1	1	0	1	1	1	0	0.0	1.0	1	0.2802305002696812	0.3132123001851141	1017.5043415999972	1300.377888600342	1301.3825726001523	1301.9296979000792	1303.4684659000486	1304.4866164000705	1305.4916189000942	1306.52044750005	1307.5230433000252	1308.3604380004108	2020-01-14 11:29:53.429312	9.11190612134594	5.83192234219939	0.0	5.78913306817878	9.11190612134594	0.0	-9.11190612134594	5.83192234219939	0.0	9.11190612134594	0.0	7.043891411060209	7.323285344934515	5.128179619032638	-0.6864557208775158	4.430179091101367	8.352948597459791	-0.6864557208775158	5.76574972552671	7.494889110758394	0.1716037658238803	4.483762538411806	-0.042038640256683246	2	correct	1.0
290.8685360997915	8.578962699975591	go_punish	0.4844032996334135	290.89598280005146	292.55911780009035	295.1124116000718	1.663135000038892	291.9030646001919	294.10028580017376	298.1622089999727	0.6560531998984516	1.0121257998980582	1.3127365000543705	297.1585956001653	0.387275299988687	296.1293040001764	1	1	94	3	go_punish	1	0	-1	1	1	1	0	0.0	1.0	0	0.4844032996334135	0.387275299988687	1017.5043415999972	1308.4003244000487	1309.4074062001891	1310.0634594000876	1311.604627400171	1312.616753200069	1313.6336456001736	1314.6629372001626	1315.66655059997	1316.9792871000243	2020-01-14 11:29:53.429312	0.211817636843066	-0.342855087307178	-1.08854739574881	-1.11384330591756	-0.876729758905745	-1.08854739574881	-0.211817636843066	-0.342855087307178	-1.08854739574881	-0.876729758905745	-1.08854739574881	0.342855087307178	-1.57680313956836	-1.0465978104739304	-1.7750031166263258	-2.4727972829949723	-1.6356872827918951	-1.7750031166263258	-0.935286598226321	-2.4937467694932915	-0.9169436299249298	-1.6910148910947624	-1.1305860360054933	2	correct	1.0
299.48680809978396	8.107680900022388	nogo_reward	0.2683566999621689	299.5142548000439	301.250933300238	303.79878720035765	1.7366785001941025	300.5174050000495	302.78801260003786	306.8467157999984	0.7335283001884818	1.0107746003197917	0.7752199000678957	305.83665119996283	0.4223988996818661	304.8070904002524	1	1	95	2	nogo_reward	1	0	1	0	1	0	0	0.0	1.0	0	0.2683566999621689	0.4223988996818661	1017.5043415999972	1317.0185964000411	1318.0217466000468	1318.7552749002352	1320.292354200035	1321.303128800355	1322.3114320002496	1323.34099279996	1324.3510573999956	1325.1262773000635	2020-01-14 11:29:53.429312	1.12589984124635	0.961467852609189	0.556727877101502	1.14695048301193	1.68262771834785	0.556727877101502	-1.12589984124635	0.961467852609189	0.556727877101502	1.68262771834785	0.556727877101502	-0.961467852609189	-0.662720935165076	0.25772512944243653	-0.12972784377601387	-0.21200349406548202	0.9236701944617	-0.12972784377601387	-2.239609538142688	0.06561070776030342	0.7283316429253822	-0.3866919511783954	0.5146892368448187	2	correct	1.0
307.6287813000381	8.689993599895615	go_reward	0.5580755998380482	307.65622800029803	309.3574180002323	311.898386100307	1.7011899999342859	308.6654268000274	310.8797981003298	314.94866490038123	0.6919912002049387	1.0185879999771714	1.3975566998124123	313.9450232000089	0.2791761001572013	312.91744170011964	1	1	96	1	go_reward	0	0	1	1	1	1	0	0.0	1.0	0	0.5580755998380482	0.2791761001572013	1017.5043415999972	1325.1605696002953	1326.1697684000246	1326.8617596002296	1328.384139700327	1329.4027277003042	1330.4217833001169	1331.4493648000062	1332.4530065003785	1333.850563200191	2020-01-14 11:29:53.429312	9.53111395568078	6.10139287297548	0.0	6.06113354701715	9.53111395568078	0.0	-9.53111395568078	6.10139287297548	0.0	9.53111395568078	0.0	-6.10139287297548	7.7424931792693545	5.397650149808728	-0.6864557208775158	4.702179569939737	8.772156431794631	-0.6864557208775158	-7.379534558508979	7.914096945093234	0.1716037658238803	4.753233069187896	-0.042038640256683246	2	correct	1.0
316.3531782999637	8.885330500080954	nogo_reward	0.2677612998522818	316.38062500022363	318.3847437002695	320.92969880020235	2.004118700045865	317.3871491001918	319.9057873999699	323.98526950040844	0.9975946000777185	1.023911400232464	1.28068599989615	322.9718288001603	0.4839964997954666	321.94257090007875	1	1	97	2	nogo_reward	0	1	0	0	1	0	1	0.0	0.0	1	0.2677612998522818	0.4839964997954666	1017.5043415999972	1333.8849666002209	1334.891490700189	1335.8890853002667	1337.4101289999671	1338.4340404001996	1339.446912500076	1340.4761704001576	1341.4896111004057	1342.7702971003018	2020-01-14 11:29:53.429312	1.0431811077197	0.911111816009938	0.556727877101502	1.08824067381118	1.5999089848212	0.556727877101502	-1.0431811077197	0.911111816009938	0.556727877101502	1.5999089848212	0.556727877101502	11.96470193724966	-0.745439668691726	0.2073690928431855	-0.12972784377601387	-0.2707133032662319	0.84095146093505	-0.12972784377601387	10.686560251716163	-0.017108025766346513	0.7283316429253822	-0.4370479877776464	0.5146892368448187	2	wrong	1.0
325.27394879981875	9.027794000227004	go_reward	0.2596945003606379	325.3013955000787	327.53186540026206	330.07152050035086	2.2304699001833797	326.30850210040796	329.0549068003892	333.11775110010046	1.2233632998540998	1.016613699961681	1.2114384002052248	332.11031160037953	0.4369993000291288	331.0883507002144	1	1	98	1	go_reward	1	1	0	1	1	1	1	0.0	0.0	1	0.2596945003606379	0.4369993000291288	1017.5043415999972	1342.805737100076	1343.8128437004052	1345.0362070002593	1346.5592484003864	1347.575862100348	1348.5926923002116	1349.6146532003768	1350.6220927000977	1351.833531100303	2020-01-14 11:29:53.429312	9.00868281784325	5.76432823508539	0.0	5.72641991843913	9.00868281784325	0.0	-9.00868281784325	5.76432823508539	0.0	9.00868281784325	0.0	7.111485518174209	7.220062041431824	5.060585511918638	-0.6864557208775158	4.3674659413617185	8.2497252939571	-0.6864557208775158	5.83334383264071	7.391665807255703	0.1716037658238803	4.416168431297805	-0.042038640256683246	2	wrong	1.0
334.33852390013635	8.67178349988535	go_reward	0.3436928000301122	334.3659706003963	336.2081858003511	338.7443515001795	1.8422151999548078	335.37440990004677	337.7301181000656	341.78815399995085	0.8337759003043175	1.0142334001138806	1.249600100330781	340.7777704000472	0.3718864000402391	339.7477100002578	1	1	99	1	go_reward	1	1	0	1	1	1	0	0.0	1.0	1	0.3436928000301122	0.3718864000402391	1017.5043415999972	1351.8703122003935	1352.878751500044	1353.7125274003483	1355.2344597000629	1356.2486931001768	1357.252051600255	1358.2821120000444	1359.292495599948	1360.5420957002789	2020-01-14 11:29:53.429312	9.44303681241776	6.04353262939202	0.0	6.00781113950479	9.44303681241776	0.0	-9.44303681241776	6.04353262939202	0.0	9.44303681241776	0.0	6.832281123867579	7.654416036006335	5.339789906225268	-0.6864557208775158	4.648857162427378	8.684079288531612	-0.6864557208775158	5.55413943833408	7.826019801830214	0.1716037658238803	4.695372825604435	-0.042038640256683246	2	correct	1.0
343.0505026001483	8.381021399982274	go_punish	0.334687799680978	343.07794930040825	345.06287070037786	347.6077116001396	1.9849213999696076	344.0887894001788	346.58563069999207	350.65168000012625	0.9740813001990318	1.0220809001475573	0.8072907002642751	349.644240700174	0.4615941997617483	348.6239795000291	1	1	100	3	go_punish	1	0	-1	1	1	1	0	0.0	1.0	0	0.334687799680978	0.4615941997617483	1017.5043415999972	1360.5822909004055	1361.593131000176	1362.567212300375	1364.0899722999893	1365.1120532001369	1366.1283211000264	1367.1485823001713	1368.1560216001235	1368.9633123003878	2020-01-14 11:29:53.429312	0.267462701607057	-0.322403952107691	-1.08854739574881	-1.0510947940226	-0.821084694141755	-1.08854739574881	-0.267462701607057	-0.322403952107691	-1.08854739574881	-0.821084694141755	-1.08854739574881	0.322403952107691	-1.521158074804369	-1.0261466752744435	-1.7750031166263258	-2.410048771100012	-1.580042218027905	-1.7750031166263258	-0.955737733425808	-2.4381017047293017	-0.9169436299249298	-1.6705637558952753	-1.1305860360054933	2	correct	1.0
351.46898380015045	8.065514899790287	nogo_reward	0.4154608999378979	351.4964305004104	352.91909230034787	355.4699464002623	1.4226617999374866	352.5007870001717	354.45054360013444	358.5058499001897	0.41830530017614365	1.0194028001278639	1.056095500010997	357.49685520026844	0.360374600160867	356.47822140017513	1	1	101	2	nogo_reward	1	0	1	0	1	0	0	0.0	1.0	0	0.4154608999378979	0.360374600160867	1017.5043415999972	1369.0007721004076	1370.005128600169	1370.4234339003451	1371.9548852001317	1372.9742880002595	1373.9825630001724	1375.0011968002657	1376.010191500187	1377.066287000198	2020-01-14 11:29:53.429312	1.8862189608312	1.45693733490935	0.556727877101502	1.62617720621753	2.4429468379327	0.556727877101502	-1.8862189608312	1.45693733490935	0.556727877101502	2.4429468379327	0.556727877101502	-1.45693733490935	0.09759818441977419	0.7531946117425975	-0.12972784377601387	0.267223229140118	1.68398931404655	-0.12972784377601387	-2.735079020442849	0.8259298273451536	0.7283316429253822	0.10877753112176558	0.5146892368448187	2	correct	1.0
359.5748956999739	8.8452627998779	go_punish	1.0	359.60234240023385	361.6601830003782	364.20096829999227	2.0578406001443454	360.6126577001995	363.1773256002924	367.23712700000044	1.0475253001786768	1.023642699699849	1.2104782001113108	366.2256400003097	0.3860486997291446	365.2065428001803	1	1	102	3	go_punish	1	0	-1	1	0	0	1	1.0	1.0	-1	1.0	0.3860486997291446	1017.5043415999972	1377.106684000231	1378.1169993001968	1379.1645246003754	1380.6816672002897	1381.7053098999895	1382.7108844001775	1383.729981600307	1384.7414685999977	1385.951946800109	2020-01-14 11:29:53.429312	-0.319120041736077	-0.303461438529525	-1.08854739574881	-0.992726018425982	-0.769427354012734	-1.08854739574881	0.319120041736077	-1.08854739574881	-0.303461438529525	-1.08854739574881	-0.769427354012734	-1.96578160907001	-2.107740818147503	-1.0072041616962775	-1.7750031166263258	-2.351679995503394	-1.528384877898884	-1.7750031166263258	-3.2439232946035093	-2.7055644063363564	-0.5978235881888537	-2.4367071995363947	-0.34550007878620825	2	correct	1.0
368.45629859995074	9.654178599827219	nogo_punish	1.0	368.48374530021067	371.05416540009867	373.5890831002033	2.570420099887997	369.48940660012875	372.56846940005187	376.6370785003527	1.5647587999699226	1.0206137001514435	1.500845399685204	375.62479420006287	0.2565266001038253	374.60804140008975	1	1	103	4	nogo_punish	1	-1	0	0	0	1	0	0.0	1.0	0	1.0	0.2565266001038253	1017.5043415999972	1385.988086900208	1386.993748200126	1388.558507000096	1390.0728110000491	1391.0934247002006	1392.112383000087	1393.12913580006	1394.14142010035	1395.6422655000351	2020-01-14 11:29:53.429312	1.08543371481368	-0.990883326968397	-0.345404451225844	-0.945557057804075	-1.43083816603953	-0.345404451225844	-1.08543371481368	-0.345404451225844	-0.990883326968397	-0.345404451225844	-1.43083816603953	0.345404451225844	-0.703187061597746	-1.6946260501351493	-1.0318601721033598	-2.304511034881487	-2.18979568992568	-1.0318601721033598	-0.932737234307655	-1.9624214618133906	-1.2592344002156497	-1.6935642550134284	-1.0329219672250802	2	correct	1.0
378.1510079000145	8.223627999890596	go_punish	1.0	378.17845460027445	379.4627354000694	381.9810783001593	1.2842807997949421	379.18212869996194	380.96795640001085	385.0168637000023	0.28060670010745525	1.0131219001484624	1.3852189001627266	384.0144835002719	0.3211296997033059	382.99546480039123	1	1	104	3	go_punish	1	0	-1	1	0	0	1	0.0	0.0	-1	1.0	0.3211296997033059	1017.5043415999972	1395.6827962002717	1396.6864702999592	1396.9670770000666	1398.472298000008	1399.4854199001566	1400.4998064003885	1401.5188251002692	1402.5212052999996	1403.9064242001623	2020-01-14 11:29:53.429312	-0.350927427931368	-0.303461438529525	-1.1742490701085	-1.08870708705828	-0.823321642177134	-1.1742490701085	0.350927427931368	-1.1742490701085	-0.303461438529525	-1.1742490701085	-0.823321642177134	-1.88007993471032	-2.139548204342794	-1.0072041616962775	-1.860704790986016	-2.447661064135692	-1.582279166063284	-1.860704790986016	-3.158221620243819	-2.7912660806960465	-0.6517178763532537	-2.5224088738960844	-0.34550007878620825	2	wrong	1.0
386.4145363997668	7.895888500381261	go_punish	0.3450796003453433	386.44198310002673	387.8065808000973	390.36743830004696	1.3645977000705898	387.44795410009067	389.34400740033004	393.42278810031723	0.35862670000665275	1.0234308997169137	0.9150835000907591	392.4105100999585	0.2679260000586509	391.3818224002606	1	1	105	3	go_punish	0	-1	0	1	1	1	0	0.0	1.0	-1	0.3450796003453433	0.2679260000586509	1017.5043415999972	1403.946324700024	1404.952295700088	1405.3109224000946	1406.8483490003273	1407.8717799000442	1408.8861640002578	1409.9148516999558	1410.9271297003145	1411.8422132004052	2020-01-14 11:29:53.429312	0.381240519200927	-0.303461438529525	-1.25511705688024	-1.1787753221433	-0.873876537679311	-1.25511705688024	-0.381240519200927	-0.303461438529525	-1.25511705688024	-0.873876537679311	-1.25511705688024	-2.750867566289295	-1.407380257210499	-1.0072041616962775	-1.9415727777577558	-2.537729299220712	-1.632834061565461	-1.9415727777577558	-4.029009251822794	-2.4908935482668575	-1.0835132910563596	-1.6516212423171095	-1.2971556971369231	2	correct	1.0
394.3446573000401	8.386494900099933	nogo_punish	1.0	394.37210400030006	395.9453887999988	398.46441340027366	1.5732847996987402	395.38373120035965	397.4529967000707	401.5263290000147	0.5616575996391475	1.0114167002029717	1.2322699003852904	400.51658810023184	0.2515027001500129	399.4821650004013	1	1	106	4	nogo_punish	1	-1	0	0	0	1	0	0.0	1.0	0	1.0	0.2515027001500129	1017.5043415999972	1411.8764456002973	1412.888072800357	1413.449730399996	1414.957338300068	1415.968755000271	1416.9865066003986	1418.020929700229	1419.030670600012	1420.2629405003972	2020-01-14 11:29:53.429312	1.0763692560401	-0.990883326968397	-0.324538394545826	-0.892237686424875	-1.40090765058593	-0.324538394545826	-1.0763692560401	-0.324538394545826	-0.990883326968397	-0.324538394545826	-1.40090765058593	0.324538394545826	-0.712251520371326	-1.6946260501351493	-1.0109941154233417	-2.251191663502287	-2.15986517447208	-1.0109941154233417	-0.953603290987673	-1.9415554051333725	-1.2293038847620497	-1.6726981983334104	-1.0329219672250802	2	correct	1.0
402.7742745000869	9.516358099877834	nogo_punish	1.0	402.80172120034683	405.4014051002449	407.91534080030385	2.599683899898082	403.79986610030744	406.90549790021043	410.96069160010654	1.6015389999374747	1.0098429000934175	1.3573877001181245	409.9520705002359	0.4758448000065982	408.9288220000452	1	1	107	4	nogo_punish	1	-1	0	0	0	1	0	0.0	1.0	0	1.0	0.4758448000065982	1017.5043415999972	1420.306062800344	1421.3042077003047	1422.9057467002422	1424.4098395002077	1425.419682400301	1426.4331636000425	1427.4564121002331	1428.4650332001038	1429.822420900222	2020-01-14 11:29:53.429312	1.06786619942778	-0.990883326968397	-0.305238562249196	-0.84267142925465	-1.37310476167697	-0.305238562249196	-1.06786619942778	-0.305238562249196	-0.990883326968397	-0.305238562249196	-1.37310476167697	0.305238562249196	-0.7207545769836459	-1.6946260501351493	-0.9916942831267118	-2.201625406332062	-2.13206228556312	-0.9916942831267118	-0.9729031232843031	-1.9222555728367425	-1.2015009958530898	-1.6533983660367804	-1.0329219672250802	2	correct	1.0
412.32838999992236	8.463297599926364	nogo_reward	1.0	412.3558367001823	414.32788420002896	416.8467916003427	1.972047499846667	413.37245779996726	415.83325220039126	419.8868450000879	0.9554264000616968	1.013539399951469	0.9322893000207841	418.8804620001464	0.5421413998119533	417.86042580008495	1	1	108	2	nogo_reward	1	0	1	0	0	1	0	0.0	1.0	1	1.0	0.5421413998119533	1017.5043415999972	1429.8601783001795	1430.8767993999645	1431.8322258000262	1433.3375938003885	1434.35113320034	1435.3647674000822	1436.3848036001436	1437.3911866000851	1438.323475900106	2020-01-14 11:29:53.429312	-1.75752213551529	1.37674681014844	0.556727877101502	1.53853175353409	2.31425001261679	0.556727877101502	1.75752213551529	0.556727877101502	1.37674681014844	0.556727877101502	2.31425001261679	12.319085876158098	-3.546142911926716	0.6730040869816875	-0.12972784377601387	0.17957777645667816	1.55529248873064	-0.12972784377601387	11.0409441906246	-1.0602891334860445	2.4858537784406707	-0.7914319266860824	1.3347081698917567	2	correct	1.0
420.8282397999428	7.841927600093186	nogo_reward	1.0	420.85568650020275	422.3603882002643	424.887245400343	1.5047017000615597	421.8605522001161	423.87518030032504	427.94827500032227	0.49983600014820695	1.012065100017935	0.7493390999736675	426.9348609000443	0.2684554997831583	425.90817299997445	1	1	109	2	nogo_reward	1	0	1	0	0	1	0	0.0	1.0	1	1.0	0.2684554997831583	1017.5043415999972	1438.3600281002	1439.3648938001134	1439.8647298002616	1441.3795219003223	1442.3915870003402	1443.4125145999717	1444.4392025000416	1445.4526166003195	1446.2019557002932	2020-01-14 11:29:53.429312	-1.48035342502396	1.37674681014844	1.11622164335137	2.04974478907545	2.59657506837533	1.11622164335137	1.48035342502396	1.11622164335137	1.37674681014844	1.11622164335137	2.59657506837533	11.75959210990823	-3.2689742014353858	0.6730040869816875	0.42976592247385426	0.6907908119980379	1.8376175444891798	0.42976592247385426	10.481450424374732	-0.5007953672361765	2.7681788341992104	-0.2319381604362143	1.3347081698917567	2	correct	1.0
428.70726729976013	8.137816900387406	nogo_reward	1.0	428.73471400002006	430.072837000247	432.59652760019515	1.3381230002269149	429.7395491003989	431.5796819003298	435.6356169003992	0.3332878998480737	1.016845699865371	1.2369140000082552	434.62413750030066	0.5673620998859406	433.61020570015523	1	1	110	2	nogo_reward	1	0	1	0	0	1	1	1.0	1.0	1	1.0	0.5673620998859406	1017.5043415999972	1446.2390556000173	1447.2438907003962	1447.5771786002442	1449.084023500327	1450.1008692001924	1451.1145473001525	1452.128479100298	1453.1399585003965	1454.3768725004047	2020-01-14 11:29:53.429312	-1.21973698374494	1.37674681014844	1.64206405577139	2.5302702647368	2.86180103951634	1.64206405577139	1.21973698374494	1.64206405577139	1.37674681014844	1.64206405577139	2.86180103951634	11.233749697488209	-3.008357760156366	0.6730040869816875	0.9556083348938741	1.171316287659388	2.1028435156301897	0.9556083348938741	9.955608011954709	0.025047045183843375	3.0334048053402203	0.29390425198380554	1.3347081698917567	2	correct	1.0
436.88441459974274	8.291763599961996	go_punish	1.0	436.91186130000267	438.6698217000811	441.1971555002964	1.7579604000784457	437.9121999000198	440.17283770022925	444.2444222001358	0.7576218000613153	1.0243178000671378	0.959202699828893	443.2399185001847	0.5710908998735249	442.2070626001804	1	1	111	3	go_punish	1	0	-1	1	0	0	0	0.0	1.0	-1	1.0	0.5710908998735249	1017.5043415999972	1454.4162029	1455.416541500017	1456.1741633000784	1457.6771793002265	1458.7014971002936	1459.7114042001776	1460.744260100182	1461.748763800133	1462.707966499962	2020-01-14 11:29:53.429312	-0.200990542393314	-0.436231774675012	-1.25511705688024	-1.26339198874246	-1.05412651448692	-1.25511705688024	0.200990542393314	-1.25511705688024	-0.436231774675012	-1.25511705688024	-1.05412651448692	-1.7992119479385802	-1.98961131880474	-1.1399744978417645	-1.9415727777577558	-2.6223459658198722	-1.81308403837307	-1.9415727777577558	-3.0773536334720792	-2.8721340674677864	-0.8825227486630398	-2.6032768606678243	-0.47827041493169525	2	correct	1.0
445.2110001998951	8.755364399869222	go_reward	0.2443857998587191	445.23844690015505	447.1512273000552	449.70253110025067	1.9127803999001571	446.24543870007585	448.67815160006273	452.75049250014115	0.9057885999793598	1.0243795001879334	1.2433187998831272	451.7399209002032	0.3296520002186298	450.70999180013325	1	1	112	1	go_reward	1	1	0	1	1	1	0	0.0	1.0	1	0.2443857998587191	0.3296520002186298	1017.5043415999972	1462.7427885001523	1463.749780300073	1464.6555689000525	1466.18249320006	1467.206872700248	1468.2143334001305	1469.2442625002004	1470.2548341001384	1471.4981529000215	2020-01-14 11:29:53.429312	9.854396156629	6.30799011945664	0.0	6.27430463539999	9.854396156629	0.0	-9.854396156629	6.30799011945664	0.0	9.854396156629	0.0	6.567823633802959	8.065775380217575	5.604247396289888	-0.6864557208775158	4.915350658322579	9.095438632742852	-0.6864557208775158	5.28968194826946	8.237379146041455	0.1716037658238803	4.9598303156690555	-0.042038640256683246	2	correct	1.0
454.0057966001332	8.990916899871081	go_punish	0.2699179002083838	454.0332433003931	456.55470700003195	459.08614370040584	2.5214636996388435	455.0385075001976	458.0735627999528	462.13458240032185	1.516199499834329	1.012580900453031	0.8895777999423444	461.12180300010357	0.5655668000690639	460.09206710010756	1	1	113	3	go_punish	1	0	-1	1	1	1	1	0.0	0.0	0	0.2699179002083838	0.5655668000690639	1017.5043415999972	1471.5375849003904	1472.5428491001949	1474.0590486000292	1475.57790439995	1476.590485300403	1477.5964087001048	1478.6261446001008	1479.638924000319	1480.5285018002614	2020-01-14 11:29:53.429312	0.232720289648579	-0.436231774675012	-1.33148961349941	-1.34297424370534	-1.09876932385083	-1.33148961349941	-0.232720289648579	-0.436231774675012	-1.33148961349941	-1.09876932385083	-1.33148961349941	0.436231774675012	-1.555900486762847	-1.1399744978417645	-2.017945334376926	-2.7019282207827517	-1.8577268477369802	-2.017945334376926	-0.8419099108584871	-2.7157863344383766	-1.1598858476755298	-1.7843915784625963	-1.3735282537560933	2	wrong	1.0
463.0308610997165	8.29357259999938	go_reward	0.4131105998530984	463.05830779997643	464.3935836004092	466.9478688002563	1.3352758004327825	464.0657422002404	465.92784000001836	470.00910230027523	0.3278414001688361	1.0200288002379239	1.3427780997005812	468.98993170028564	0.2991098002530634	467.9685585000551	1	1	114	1	go_reward	0	0	1	1	1	1	1	0.0	0.0	0	0.4131105998530984	0.2991098002530634	1017.5043415999972	1480.5626493999737	1481.5700838002376	1481.8979252004065	1483.4321816000156	1484.4522104002535	1485.4729001000524	1486.4942733002829	1487.5134439002725	1488.856221999973	2020-01-14 11:29:53.429312	10.2443220639728	6.55869620684881	0.0	6.52690802402225	10.2443220639728	0.0	-10.2443220639728	6.55869620684881	0.0	10.2443220639728	0.0	-6.55869620684881	8.455701287561375	5.854953483682058	-0.6864557208775158	5.167954046944837	9.485364540086652	-0.6864557208775158	-7.836837892382309	8.627305053385253	0.1716037658238803	5.2105364030612265	-0.042038640256683246	2	wrong	1.0
471.3611053000204	9.552343799732625	go_reward	0.2361913998611271	471.38855200028036	473.8663612003437	476.41599779995147	2.477809200063348	472.4028342999517	475.40239940024924	479.4631357002071	1.4635269003920257	1.0135983997022322	1.4777600998058915	478.44981350004684	0.406371499877423	477.43325390014786	1	1	115	1	go_reward	0	0	1	1	1	1	0	1.0	0.0	0	0.2361913998611271	0.406371499877423	1017.5043415999972	1488.8928936002776	1489.907175899949	1491.370702800341	1492.9067410002465	1493.9203393999487	1494.937595500145	1495.954155100044	1496.9674773002043	1498.4452374000102	2020-01-14 11:29:53.429312	9.69387250314868	6.20367451346235	0.0	6.17365592964411	9.69387250314868	0.0	-9.69387250314868	6.20367451346235	0.0	9.69387250314868	0.0	-6.20367451346235	7.905251726737255	5.499931790295598	-0.6864557208775158	4.814701952566699	8.934914979262532	-0.6864557208775158	-7.481816198995849	8.076855492561133	0.1716037658238803	4.855514709674766	-0.042038640256683246	2	wrong	1.0
480.9557233001103	7.882029999979068	go_punish	0.3587968996725976	480.98317000037025	482.3207674003205	484.8756339000537	1.3375973999502548	481.9934312002732	483.85250749997783	487.91591550037253	0.32733620004728436	1.0231264000758529	0.949284499976784	486.91401599999506	0.4940430000424385	485.88685610005643	1	1	116	3	go_punish	1	0	-1	1	1	1	0	0.0	1.0	0	0.3587968996725976	0.4940430000424385	1017.5043415999972	1498.4875116003675	1499.4977728002705	1499.8251090003178	1501.356849099975	1502.379975500051	1503.3911977000537	1504.4183575999923	1505.4202571003698	1506.3695416003466	2020-01-14 11:29:53.429312	0.300945306604902	-0.410326104179413	-1.33148961349941	-1.26756234369067	-1.03054430689451	-1.33148961349941	-0.300945306604902	-0.410326104179413	-1.33148961349941	-1.03054430689451	-1.33148961349941	0.410326104179413	-1.487675469806524	-1.1140688273461654	-2.017945334376926	-2.626516320768082	-1.7895018307806598	-2.017945334376926	-0.867815581354086	-2.6475613174820563	-1.1598858476755298	-1.7584859079669974	-1.3735282537560933	2	correct	1.0
488.87268939986825	8.697402600198984	go_reward	0.4126153998076916	488.9001361001282	490.57400650018815	493.10505660017964	1.6738704000599682	489.91575680021185	492.08028810005646	496.1614027000031	0.6582496999762952	1.024768500123173	1.4361360003240407	495.1464823000132	0.312665699981153	494.12000670004625	1	1	117	1	go_reward	1	1	0	1	1	1	1	0.0	0.0	1	0.4126153998076916	0.312665699981153	1017.5043415999972	1506.4044777001254	1507.420098400209	1508.0783481001854	1509.5846297000537	1510.6093982001769	1511.6243483000435	1512.6508239000104	1513.6657443000004	1515.1018803003244	2020-01-14 11:29:53.429312	9.1810552934744	5.87281217414551	0.0	5.84444549135514	9.1810552934744	0.0	-9.1810552934744	5.87281217414551	0.0	9.1810552934744	0.0	7.003001579114089	7.3924345170629735	5.169069450978758	-0.6864557208775158	4.485491514277728	8.42209776958825	-0.6864557208775158	5.72485989358059	7.564038282886853	0.1716037658238803	4.524652370357925	-0.042038640256683246	2	wrong	1.0
497.6062787999399	8.025566299911816	nogo_punish	0.3022268996573984	497.63372550019983	499.07740360032756	501.63668500026677	1.4436781001277268	498.645437600091	500.61249960027646	504.6998871001414	0.43196600023657084	1.0241853999903014	0.9594046999702641	503.6877503003924	0.3585600000806153	502.649170000106	1	1	118	4	nogo_punish	1	-1	0	0	1	0	0	0.0	1.0	-1	0.3022268996573984	0.3585600000806153	1017.5043415999972	1515.138067100197	1516.1497792000882	1516.5817452003248	1518.1168412002737	1519.141026600264	1520.1535116001032	1521.1920919003896	1522.2042287001386	1523.163633400109	2020-01-14 11:29:53.429312	-1.05988219189604	-0.990883326968397	-0.287363120307649	-0.796538104531336	-1.34724531220369	-0.287363120307649	1.05988219189604	-0.990883326968397	-0.287363120307649	-1.34724531220369	-0.287363120307649	-2.063445677850423	-2.848502968307466	-1.6946260501351493	-0.9738188411851648	-2.155492081608748	-2.10620283608984	-0.9738188411851648	-3.341587363383922	-2.9642623227912366	-0.1157593544837687	-2.3390431307559814	-0.32940176056433224	2	correct	1.0
505.6682405997999	9.737026300281286	nogo_reward	0.6105745998211205	505.69568730005983	508.41209470014985	510.93535180017363	2.71640740009002	506.71015120018285	509.936257299967	513.9734982000663	1.7019434999670011	0.9990945002066383	1.459215400274843	512.9735503001137	0.2570811002515256	511.95391850033764	1	1	119	2	nogo_reward	1	0	1	0	1	0	0	0.0	1.0	0	0.6105745998211205	0.2570811002515256	1017.5043415999972	1523.200028900057	1524.21449280018	1525.916436300147	1527.4405988999642	1528.4396934001709	1529.4582601003349	1530.477891900111	1531.4778398000635	1532.9370552003384	2020-01-14 11:29:53.429312	0.974449308216615	1.37674681014844	2.13679273780695	2.98242686316002	3.11124204602356	2.13679273780695	-0.974449308216615	1.37674681014844	2.13679273780695	3.11124204602356	2.13679273780695	-1.37674681014844	-0.8141714681948109	0.6730040869816875	1.450337016929434	1.6234728860826082	2.35228452213741	1.450337016929434	-2.6548884956819387	1.4942250354360134	2.3083965036308305	0.028587006360855538	2.0947540975502665	2	correct	1.0
515.4378335000947	9.217925899662077	go_reward	1.0	515.4652802003546	517.6294182003475	520.1461346000432	2.1641379999928176	516.4680784000083	519.1351180002092	523.2144758002831	1.1613398003391922	1.0110165998339653	1.4687302997335792	522.1972117000258	0.4337716000154614	521.1747632003388	1	1	120	1	go_reward	1	1	0	1	0	0	0	0.0	1.0	0	1.0	0.4337716000154614	1017.5043415999972	1532.969621800352	1533.9724200000055	1535.1337598003447	1536.6394596002065	1537.6504762000404	1538.679104800336	1539.701553300023	1540.7188174002804	1542.187547700014	2020-01-14 11:29:53.429312	-9.62311256649066	6.15700224167283	0.0	6.13017887035219	9.62311256649066	0.0	9.62311256649066	0.0	6.15700224167283	0.0	9.62311256649066	0.0	-11.411733342902085	5.453259518506077	-0.6864557208775158	4.771224893274779	8.86415504260451	-0.6864557208775158	-1.278141685533499	-1.6170170105875465	9.79471633231454	-1.3481598037875844	6.114963601416147	2	correct	1.0
