onset	duration	trial_type	response_time	cueOnset	targetOnset	fbOnset	cueRT	firstfixOnset	secondfixOnset	waitOnset	firstfixdur	secondfixdur	waitdur	nback_fbOnset	nback_response_time	nback_targetOnset	block	wm	trial	cue	cond	is_common	outcome_go	outcome_nogo	key_correct	key_pressed	is_correct	key_correct_nback	key_pressed_nback	is_correct_nback	outcome	rt	rt_nback	time_scan	time_onset	time_isi1	time_circle	time_isi2	time_feedback	time_same	time_correct	time_iti	time_done	timestamp_scan	DV	Qgo	Qnogo	SV	Wgo	Wnogo	mDV	Qchosen	Qunchosen	Wchosen	Wunchosen	PE	DVC	QgoC	QnogoC	SVC	WgoC	WnogoC	PEC	WchosenC	WunchosenC	QchosenC	QunchosenC	run	outcome_nback	nback_targetResp
0.0	6.883007499855012	nogo_reward	0.4267464000731706	0.024821899831295013	2.3617159998975694	4.9064732999540865	2.3368941000662744	1.0330395000055432	3.880152199883014	5.916600099764764	1.3286764998920262	1.0263211000710726	0.9912292999215424	n/a	1.0	n/a	1	0	61	4	nogo_reward	0	1	0	0	1	0	1	n/a	n/a	1	0.4267464000731706	1.0	580.2110840999521	580.2359059997834	581.2441235999577	582.5728000998497	584.0912362998351	585.1175573999062	n/a	n/a	586.1276841997169	587.1189134996384	2020-01-15 16:21:16.257112	-1.66410690476733	0.0	3.13394962433559	2.9380343336385	1.46984271956825	3.13394962433559	1.66410690476733	0.0	3.13394962433559	1.46984271956825	3.13394962433559	5.01736238540075	-3.034740663664652	-0.23266383787315167	3.0672787297760267	2.3489257754425137	-0.27104354953254184	3.0672787297760267	4.958883620548241	-0.11925274171058708	2.9154879219540732	-0.6163175119289508	3.4509324038318256	2	missed	0.0
6.916698399931192	6.318812200333923	go_punish	1.0	6.941520299762487	8.50538480002433	11.026479599997401	1.5638645002618432	7.943256499711424	10.001666899770498	12.027007199823856	0.5621283003129065	1.024812700226903	1.2333253002725542	n/a	1.0	n/a	1	0	62	1	go_punish	1	0	-1	1	0	0	1	n/a	n/a	-1	1.0	1.0	580.2110840999521	587.1526043997146	588.1543405996636	588.7164688999765	590.2127509997226	591.2375636999495	n/a	n/a	592.238091299776	593.4714166000485	2020-01-15 16:21:16.257112	-2.42182019727753	0.0	-1.12823183593768	-0.0044155423455476	1.29358836133984	-1.12823183593768	2.42182019727753	-1.12823183593768	0.0	-1.12823183593768	1.29358836133984	-3.73999398015779	-3.7924539561748523	-0.23266383787315167	-1.1949027304972433	-0.5935241005415338	-0.4472979077609518	-1.1949027304972433	-3.798472745010299	-2.7173272972165172	1.075126658958323	-1.7445493478666307	0.31698277949623554	2	missed	0.0
13.277030800003558	6.181025700177997	go_reward	1.0	13.301852699834853	15.166672999970615	17.697432999964803	1.8648203001357615	14.30649479990825	16.682047399692237	18.707151199690998	0.8601782000623643	1.015385600272566	0.7757272003218532	n/a	1.0	n/a	1	0	63	3	go_reward	1	1	0	1	0	0	0	n/a	n/a	0	1.0	1.0	580.2110840999521	593.512936799787	594.5175788998604	595.3777570999227	596.8931314996444	597.9085170999169	n/a	n/a	598.9182352996431	599.693962499965	2020-01-15 16:21:16.257112	-6.40814818056176	4.96604182281339	0.0	2.28472059592816	6.40814818056176	0.0	6.40814818056176	0.0	4.96604182281339	0.0	6.40814818056176	0.0	-7.778781939459082	4.733377984940238	-0.06667089455956333	1.6956120377321735	4.667261911460968	-0.06667089455956333	-0.058478764852508885	-1.589095461278837	6.189686478180243	-0.6163175119289508	5.2830246023096255	2	missed	0.0
19.494948000181466	5.826308699790388	go_punish	0.3871173998340964	19.51976990001276	20.860245699994266	23.411262599751353	1.3404757999815047	20.532727600075305	22.391746199689806	24.41513939993456	0.3275180999189615	1.0195164000615478	0.9309391998685896	n/a	1.0	n/a	1	0	64	1	go_punish	1	0	-1	1	1	1	1	n/a	n/a	0	0.3871173998340964	1.0	580.2110840999521	599.7308539999649	600.7438117000274	601.0713297999464	602.6028302996419	603.6223466997035	n/a	n/a	604.6262234998867	605.5571626997553	2020-01-15 16:21:16.257112	4.4639455578621	0.0	-3.13790350031954	-2.61113801254055	1.32604205754256	-3.13790350031954	-4.4639455578621	0.0	-3.13790350031954	1.32604205754256	-3.13790350031954	0.0	3.0933117989647787	-0.23266383787315167	-3.2045743948791037	-3.200246570736536	-0.4148442115582318	-3.2045743948791037	-0.058478764852508885	-0.26305340373627706	-3.356365202701057	-0.6163175119289508	-2.8209207208233047	2	missed	0.0
25.35896399989724	7.194296200294048	nogo_punish	0.52301080012694	25.383785899728537	28.152413599658757	30.70339010003954	2.768627699930221	26.396069899667054	29.678591100033373	31.705225199926645	1.756343699991703	1.024799000006169	0.8728569000959396	n/a	1.0	n/a	1	0	65	2	nogo_punish	1	-1	0	0	1	0	0	n/a	n/a	-1	0.52301080012694	1.0	580.2110840999521	605.5948699996807	606.6071539996192	608.3634976996109	609.8896751999855	610.9144741999917	n/a	n/a	611.9163092998788	612.7891661999747	2020-01-15 16:21:16.257112	-1.81187935536563	-3.13790350031954	0.0	-2.61255333463555	-1.81187935536563	0.0	1.81187935536563	-3.13790350031954	0.0	-1.81187935536563	0.0	-1.73032231577593	-3.182513114262952	-3.370567338192692	-0.06667089455956333	-3.2016618928315363	-3.5527656244664216	-0.06667089455956333	-1.788801080628439	-3.4009748166444673	-0.21846170238151708	-3.754221012248491	0.31698277949623554	2	missed	0.0
32.58865359984338	6.2693522004410625	nogo_reward	0.9743936001323164	32.61347549967468	34.08008309965953	36.63177629979327	1.4666075999848545	33.62158849975094	35.6107896999456	37.64282639976591	0.4584945999085903	1.0209865998476744	1.2400013003498316	n/a	1.0	n/a	1	0	66	4	nogo_reward	1	0	1	0	1	0	0	n/a	n/a	0	0.9743936001323164	1.0	580.2110840999521	612.8245595996268	613.8326725997031	614.2911671996117	615.8218737998977	616.8428603997454	n/a	n/a	617.853910499718	619.0939118000679	2020-01-15 16:21:16.257112	1.0944094834864	2.69465763835894	3.13394962433559	3.99805142805843	4.22835910782199	3.13394962433559	-1.0944094834864	2.69465763835894	3.13394962433559	4.22835910782199	3.13394962433559	-2.69465763835894	-0.27622427541092187	2.461993800485788	3.0672787297760267	3.4089428698624435	2.4874728387211977	3.0672787297760267	-2.7531364032114487	2.639263646543153	2.9154879219540732	2.078340126429989	3.4509324038318256	2	missed	0.0
38.89330370025709	6.0979538997635245	nogo_punish	1.0	38.91812560008839	40.59672309970483	43.123063599690795	1.678597499616444	39.93461509980261	42.10217970004305	44.12517309980467	0.6621079999022186	1.0208838996477425	0.8909064000472426	n/a	1.0	n/a	1	0	67	2	nogo_punish	1	-1	0	0	0	1	1	n/a	n/a	0	1.0	1.0	580.2110840999521	619.1292097000405	620.1456991997547	620.807807199657	622.3132637999952	623.3341476996429	n/a	n/a	624.3362571997568	625.227163599804	2020-01-15 16:21:16.257112	2.6620840342986	-4.00155172982845	0.0	-3.73936984847823	-2.6620840342986	0.0	-2.6620840342986	0.0	-4.00155172982845	0.0	-2.6620840342986	0.0	1.2914502754012782	-4.234215567701602	-0.06667089455956333	-4.328478406674216	-4.402970303399392	-0.06667089455956333	-0.058478764852508885	-1.589095461278837	-2.880545736680117	-0.6163175119289508	-3.6845689503322148	2	missed	0.0
45.0334179000929	6.594087999779731	go_reward	0.2547832997515797	45.058239799924195	47.11264770012349	49.67514259973541	2.054407900199294	46.05816880008206	48.66084840008989	50.6898992001079	1.0544789000414312	1.0142941996455193	0.9624285995960236	n/a	1.0	n/a	1	0	68	3	go_reward	1	1	0	1	1	1	0	n/a	n/a	1	0.2547832997515797	1.0	580.2110840999521	625.2693238998763	626.2692529000342	627.3237318000756	628.871932500042	629.8862266996875	n/a	n/a	630.90098330006	631.8634118996561	2020-01-15 16:21:16.257112	6.3380416960329	4.96604182281339	0.0	1.13523630994995	6.3380416960329	0.0	-6.3380416960329	4.96604182281339	0.0	6.3380416960329	0.0	0.051320562587360286	4.967407937135579	4.733377984940238	-0.06667089455956333	0.5461277517539639	4.597155426932108	-0.06667089455956333	-0.0071582022651486	4.748946234754063	-0.21846170238151708	4.349724310884438	0.31698277949623554	2	missed	0.0
51.6659360001795	6.08151389984414	nogo_punish	1.0	51.690757900010794	53.35037559969351	55.87496079970151	1.6596176996827126	52.69410609966144	54.85527699999511	56.88837239984423	0.6562695000320673	1.0196837997063994	0.883899400010705	n/a	1.0	n/a	1	0	69	2	nogo_punish	1	-1	0	0	0	1	1	n/a	n/a	0	1.0	1.0	580.2110840999521	631.9018419999629	632.9051901996136	633.5614596996456	635.0663610999472	636.0860448996536	n/a	n/a	637.0994564997964	637.9833558998071	2020-01-15 16:21:16.257112	2.68914171019337	-4.00155172982845	0.0	-1.66007879399498	-2.68914171019337	0.0	-2.68914171019337	0.0	-4.00155172982845	0.0	-2.68914171019337	0.0	1.3185079512960483	-4.234215567701602	-0.06667089455956333	-2.249187352190966	-4.430027979294162	-0.06667089455956333	-0.058478764852508885	-1.589095461278837	-2.907603412574887	-0.6163175119289508	-3.6845689503322148	2	missed	0.0
57.781266199890524	6.383636699989438	go_punish	1.0	57.80608809972182	59.368138699792325	61.90053860004991	1.5620506000705063	58.80470429966226	60.87593360012397	62.90882179979235	0.5634344001300633	1.0246049999259412	1.2809029999189079	n/a	1.0	n/a	1	0	70	1	go_punish	1	0	-1	1	0	0	0	n/a	n/a	-1	1.0	1.0	580.2110840999521	638.017172199674	639.0157883996144	639.5792227997445	641.0870177000761	642.111622700002	n/a	n/a	643.1199058997445	644.4008088996634	2020-01-15 16:21:16.257112	-4.444950288229	0.0	-3.13790350031954	-1.13031308596544	1.30704678790946	-3.13790350031954	4.444950288229	-3.13790350031954	0.0	-3.13790350031954	1.30704678790946	-1.73032231577593	-5.815584047126322	-0.23266383787315167	-3.2045743948791037	-1.719421644161426	-0.43383948119133176	-3.2045743948791037	-1.788801080628439	-4.726998961598377	1.088585085527943	-3.754221012248491	0.31698277949623554	2	missed	0.0
64.20630760025233	6.740375899709761	go_punish	0.2859718003310263	64.23112950008363	66.14636249979958	68.71013499982655	1.915232999715954	65.24056420009583	67.68933370010927	69.72837129980326	0.905798299703747	1.0208012997172773	1.2431340999901295	n/a	1.0	n/a	1	0	71	1	go_punish	1	0	-1	1	1	1	0	n/a	n/a	0	0.2859718003310263	1.0	580.2110840999521	644.4422136000358	645.451648300048	646.3574465997517	647.9004178000614	648.9212190997787	n/a	n/a	649.9394553997554	651.1825894997455	2020-01-15 16:21:16.257112	5.33298393637589	0.0	-4.00155172982845	-3.13937542497114	1.33143220654743	-4.00155172982845	-5.33298393637589	0.0	-4.00155172982845	1.33143220654743	-4.00155172982845	0.0	3.9623501774785685	-0.23266383787315167	-4.068222624388014	-3.728483983167126	-0.4094540625533618	-4.068222624388014	-0.058478764852508885	-0.25766325473140705	-4.220013432209967	-0.6163175119289508	-3.6845689503322148	2	missed	0.0
70.98076259996742	7.428120200056583	nogo_reward	1.0	71.00558449979872	73.46199129987508	75.98797489982098	2.4564068000763655	72.02278319979087	74.96442769980058	76.99665719969198	1.4392081000842154	1.0235472000204027	1.4370475001633167	n/a	1.0	n/a	1	0	72	4	nogo_reward	1	0	1	0	0	1	0	n/a	n/a	1	1.0	1.0	580.2110840999521	651.2166685997508	652.233867299743	653.6730753998272	655.1755117997527	656.1990589997731	n/a	n/a	657.2077412996441	658.6447887998074	2020-01-15 16:21:16.257112	0.563992333649888	1.16253551584934	3.13394962433559	1.79187743035493	2.5699572906857	3.13394962433559	-0.563992333649888	3.13394962433559	1.16253551584934	3.13394962433559	2.5699572906857	1.8834127610651596	-0.8066414252474339	0.9298716779761883	3.0672787297760267	1.202768872158944	0.8290710215849082	3.0672787297760267	1.8249339962126507	1.5448541630567532	2.351495588304183	2.5176321124066394	1.4795182953455757	2	missed	0.0
78.4499924001284	6.742033699993044	go_reward	0.399777099955827	78.47481429995969	80.25062769977376	82.79833809984848	1.7758133998140693	79.47620119992644	81.77872380008921	83.81115649966523	0.7744264998473227	1.0196142997592688	1.405691500287503	n/a	1.0	n/a	1	0	73	3	go_reward	0	0	1	1	1	1	0	n/a	n/a	0	0.399777099955827	1.0	580.2110840999521	658.6858983999118	659.6872852998786	660.4617117997259	661.9898079000413	663.0094221998006	n/a	n/a	664.0222405996174	665.4279320999049	2020-01-15 16:21:16.257112	6.47935957708139	4.98461086502331	0.0	3.29333938084778	6.47935957708139	0.0	-6.47935957708139	4.98461086502331	0.0	6.47935957708139	0.0	-4.98461086502331	5.108725818184069	4.751947027150158	-0.06667089455956333	2.7042308226517937	4.738473307980598	-0.06667089455956333	-5.043089629875818	4.8902641158025535	-0.21846170238151708	4.368293353094359	0.31698277949623554	2	missed	0.0
85.23306920006871	6.760201800148934	go_punish	1.0	85.25789109990001	87.68780319998041	90.2123751998879	2.4299121000804007	86.25947909988463	89.19287450006232	91.21231100009754	1.4283241000957787	1.0195006998255849	0.8057818999513984	n/a	1.0	n/a	1	0	74	1	go_punish	0	-1	0	1	0	0	0	n/a	n/a	0	1.0	1.0	580.2110840999521	665.4689751998521	666.4705631998368	667.8988872999325	669.4039586000144	670.42345929984	n/a	n/a	671.4233951000497	672.2291770000011	2020-01-15 16:21:16.257112	-5.31064930491532	0.0	-4.00155172982845	-1.394473901744	1.30909757508687	-4.00155172982845	5.31064930491532	-4.00155172982845	0.0	-4.00155172982845	1.30909757508687	4.00155172982845	-6.681283063812642	-0.23266383787315167	-4.068222624388014	-1.9835824599399863	-0.4317886940139217	-4.068222624388014	3.9430729649759413	-5.590647191107287	1.0906358727053531	-4.6178692417574005	0.31698277949623554	2	missed	0.0
92.02986090024933	7.45426269993186	go_punish	1.0	92.05468280008063	94.58473820006475	97.14616789994761	2.5300553999841213	93.06003799987957	96.10037129977718	98.15544050000608	1.5247002001851797	1.0457966001704335	1.3535050000064075	n/a	1.0	n/a	1	0	75	1	go_punish	1	0	-1	1	0	0	0	n/a	n/a	-1	1.0	1.0	580.2110840999521	672.2657669000328	673.2711220998317	674.7958223000169	676.3114553997293	677.3572519998997	n/a	n/a	678.3665245999582	679.7200295999646	2020-01-15 16:21:16.257112	-3.09762569301778	0.0	-1.79794642629374	-0.670490931063899	1.29967926672404	-1.79794642629374	3.09762569301778	-1.79794642629374	0.0	-1.79794642629374	1.29967926672404	-3.07027938980173	-4.4682594519151015	-0.23266383787315167	-1.8646173208533032	-1.2595994892598852	-0.4412070023767518	-1.8646173208533032	-3.128758154654239	-3.387041887572577	1.081217564342523	-2.4142639382226907	0.31698277949623554	2	missed	0.0
99.52060340018943	6.645233700051904	nogo_reward	1.0	99.54542530002072	101.37210489995778	103.89837209973484	1.8266795999370515	100.55975219979882	102.8768305000849	104.90903359977528	0.8123527001589537	1.021541599649936	1.2816254002973437	n/a	1.0	n/a	1	0	76	4	nogo_reward	1	0	1	0	0	1	0	n/a	n/a	1	1.0	1.0	580.2110840999521	679.7565093999729	680.770836299751	681.5831889999099	683.087914600037	684.109456199687	n/a	n/a	685.1201176997274	686.4017431000248	2020-01-15 16:21:16.257112	1.42846795531835	1.16253551584934	4.10056984948784	3.56410461721058	2.67210189416949	4.10056984948784	-1.42846795531835	4.10056984948784	1.16253551584934	4.10056984948784	2.67210189416949	0.9167925359129097	0.05783419642102805	0.9298716779761883	4.033898954928277	2.9749960590145936	0.9312156250686983	4.033898954928277	0.8583137710604007	2.5114743882090034	2.453640191787973	3.4842523375588894	1.4795182953455757	2	missed	0.0
106.20487280003726	6.564312200061977	nogo_punish	1.0	106.22969469986856	107.7920645000413	110.32052139984444	1.5623698001727462	107.23732260009274	109.3088024999015	111.33253460004926	0.5547418999485672	1.0117188999429345	1.4614722998812795	n/a	1.0	n/a	1	0	77	2	nogo_punish	1	-1	0	0	0	1	0	n/a	n/a	0	1.0	1.0	580.2110840999521	686.4407787998207	687.4484067000449	688.0031485999934	689.5198865998536	690.5316054997966	n/a	n/a	691.5436187000014	693.0050909998827	2020-01-15 16:21:16.257112	2.70052617477001	-4.00155172982845	0.0	-0.796419734281896	-2.70052617477001	0.0	-2.70052617477001	0.0	-4.00155172982845	0.0	-2.70052617477001	0.0	1.3298924158726881	-4.234215567701602	-0.06667089455956333	-1.3855282924778822	-4.441412443870802	-0.06667089455956333	-0.058478764852508885	-1.589095461278837	-2.918987877151527	-0.6163175119289508	-3.6845689503322148	2	missed	0.0
112.8065595002845	7.54863669956103	go_punish	1.0	112.83138140011579	115.37983139976859	117.903765599709	2.548449999652803	113.8435529996641	116.8906763996929	118.91068919980898	1.536278400104493	1.0130892000161111	1.4693288998678327	n/a	1.0	n/a	1	0	78	1	go_punish	1	0	-1	1	0	0	0	n/a	n/a	-1	1.0	1.0	580.2110840999521	693.0424655000679	694.0546370996162	695.5909154997207	697.101760499645	698.1148496996611	n/a	n/a	699.1217732997611	700.591102199629	2020-01-15 16:21:16.257112	-4.80860230588551	0.0	-3.48035892129159	-2.95117095131251	1.32824338459392	-3.48035892129159	4.80860230588551	-3.48035892129159	0.0	-3.48035892129159	1.32824338459392	-1.3878668948038801	-6.179236064782832	-0.23266383787315167	-3.5470298158511535	-3.5402795095084962	-0.4126428845068717	-3.5470298158511535	-1.446345659656389	-5.069454382570427	1.109781682212403	-4.096676433220541	0.31698277949623554	2	missed	0.0
120.390207500197	7.499625700060278	go_punish	1.0	120.41502940002829	122.89308029972017	125.42162039969116	2.4780508996918797	121.41813279967755	124.39802829967812	126.42167990002781	1.4749475000426173	1.0235921000130475	1.492975200060755	n/a	1.0	n/a	1	0	79	1	go_punish	1	0	-1	1	0	0	0	n/a	n/a	-1	1.0	1.0	580.2110840999521	700.6261134999804	701.6292168996297	703.1041643996723	704.6091123996302	705.6327044996433	n/a	n/a	706.6327639999799	708.1257392000407	2020-01-15 16:21:16.257112	-5.52599555838573	0.0	-4.18588725550925	-3.92114160392126	1.34010830287648	-4.18588725550925	5.52599555838573	-4.18588725550925	0.0	-4.18588725550925	1.34010830287648	-0.6823385605862198	-6.896629317283051	-0.23266383787315167	-4.252558150068814	-4.510250162117246	-0.40077796622431183	-4.252558150068814	-0.7408173254387287	-5.774982716788087	1.1216466004949628	-4.802204767438202	0.31698277949623554	2	missed	0.0
127.93035490019247	7.2408290999010205	nogo_punish	0.6949938000179827	127.95517680002376	130.24148409999907	132.79723289981484	2.286307299975306	128.95447429968044	131.7737177000381	133.80621149996296	1.2870098003186285	1.0235151997767389	1.3897943999618292	n/a	1.0	n/a	1	0	80	2	nogo_punish	1	-1	0	0	1	0	0	n/a	n/a	-1	0.6949938000179827	1.0	580.2110840999521	708.1662608999759	709.1655583996326	710.4525681999512	711.9848017999902	713.008316999767	n/a	n/a	714.0172955999151	715.4070899998769	2020-01-15 16:21:16.257112	-2.70521418237783	-4.00155172982845	0.0	-0.40619094813284	-2.70521418237783	0.0	2.70521418237783	-4.00155172982845	0.0	-2.70521418237783	0.0	-0.8666740862670199	-4.075847941275152	-4.234215567701602	-0.06667089455956333	-0.9952995063288261	-4.446100451478622	-0.06667089455956333	-0.9251528511195288	-4.294309643656667	-0.21846170238151708	-4.6178692417574005	0.31698277949623554	2	missed	0.0
135.2074370002374	6.285003499593586	nogo_reward	0.403641200158745	135.2322589000687	136.6108030998148	139.15312759997323	1.378544199746102	136.24962509982288	138.14066619984806	140.1650656000711	0.36117799999192357	1.0124614001251757	1.3521967995911837	n/a	1.0	n/a	1	0	81	4	nogo_reward	1	0	1	0	1	0	0	n/a	n/a	0	0.403641200158745	1.0	580.2110840999521	715.4433430000208	716.460709199775	716.8218871997669	718.3517502998002	719.3642116999254	n/a	n/a	720.3761497000232	721.7283464996144	2020-01-15 16:21:16.257112	-1.82586633298846	1.16253551584934	4.54271382205991	4.30643149422425	2.71684748907145	4.54271382205991	1.82586633298846	1.16253551584934	4.54271382205991	2.71684748907145	4.54271382205991	-1.16253551584934	-3.196500091885782	0.9298716779761883	4.476042927500346	3.7173229360282636	0.9759612199706582	4.476042927500346	-1.221014280701849	1.127752027792613	4.324252119678393	0.5462180039203892	4.859696601556146	2	missed	0.0
141.5304617001675	7.661512499675155	nogo_punish	0.642002200242132	141.5552835999988	144.3145234999247	146.8639430999756	2.7592398999258876	142.55700259981677	145.84473139978945	147.87317449972034	1.7575209001079202	1.0192117001861334	1.3436215999536216	n/a	1.0	n/a	1	0	82	2	nogo_punish	1	-1	0	0	1	0	1	n/a	n/a	-1	0.642002200242132	1.0	580.2110840999521	721.7663676999509	722.7680866997689	724.5256075998768	726.0558154997416	727.0750271999277	n/a	n/a	728.0842585996725	729.4278801996261	2020-01-15 16:21:16.257112	-3.07921037276694	-4.40608421858374	0.0	-2.82613633469566	-3.07921037276694	0.0	3.07921037276694	-4.40608421858374	0.0	-3.07921037276694	0.0	-0.4621415975117298	-4.449844131664262	-4.638748056456892	-0.06667089455956333	-3.4152448928916463	-4.820096641867732	-0.06667089455956333	-0.5206203623642387	-4.6683058340457775	-0.21846170238151708	-5.022401730512691	0.31698277949623554	2	missed	0.0
149.23301400011405	6.820016799960285	nogo_reward	1.0	149.25783589994535	151.62726419977844	154.15179189993069	2.369428299833089	150.26802460011095	153.1419767998159	155.16288630012423	1.3592395996674895	1.0098151001147926	0.9149663997814059	n/a	1.0	n/a	1	0	83	4	nogo_reward	0	1	0	0	0	1	1	n/a	n/a	0	1.0	1.0	580.2110840999521	729.4689199998975	730.4791087000631	731.8383482997306	733.353060899768	734.3628759998828	n/a	n/a	735.3739704000764	736.2889367998578	2020-01-15 16:21:16.257112	2.57938830270114	0.544662394001479	4.54271382205991	1.95178027154767	1.96332551935877	4.54271382205991	-2.57938830270114	4.54271382205991	0.544662394001479	4.54271382205991	1.96332551935877	-4.54271382205991	1.208754543803818	0.3119985561283273	4.476042927500346	1.3626717133516837	0.22243925025797817	4.476042927500346	-4.601192586912418	2.953618360781073	1.744863816977253	3.926396310130959	0.8616451734977145	2	missed	0.0
156.09488689992577	6.359500899910927	go_reward	1.0	156.11970879975706	157.4624553998001	159.96672219969332	1.3427466000430286	157.1284455000423	158.95455999998376	160.98553059995174	0.3340098997578025	1.0121621997095644	1.4936790997162461	n/a	1.0	n/a	1	0	84	3	go_reward	1	1	0	1	0	0	0	n/a	n/a	0	1.0	1.0	580.2110840999521	736.3307928997092	737.3395295999944	737.6735394997522	739.1656440999359	740.1778062996455	n/a	n/a	741.1966146999039	742.6902937996201	2020-01-15 16:21:16.257112	-3.69168383247237	2.30115101712242	0.0	1.49424787181768	3.69168383247237	0.0	3.69168383247237	0.0	2.30115101712242	0.0	3.69168383247237	0.0	-5.062317591369692	2.068487179249268	-0.06667089455956333	0.9051393136216938	1.9507975633715782	-0.06667089455956333	-0.058478764852508885	-1.589095461278837	3.473222130090853	-0.6163175119289508	2.6181337966186553	2	missed	0.0
162.49094290006906	6.719421700108796	go_punish	0.3392511000856757	162.51576479990035	164.56732589984313	167.11779169971123	2.0515610999427736	163.52061869995669	166.0979516999796	168.12577060004696	1.0467071998864412	1.01983999973163	1.1094158999621868	n/a	1.0	n/a	1	0	85	1	go_punish	1	0	-1	1	1	1	0	n/a	n/a	0	0.3392511000856757	1.0	580.2110840999521	742.7268488998525	743.7317027999088	744.7784099997953	746.3090357999317	747.3288757996634	n/a	n/a	748.3368546999991	749.4462705999613	2020-01-15 16:21:16.257112	5.85463533462002	0.0	-4.50976452265122	-4.37015007517879	1.3448708119688	-4.50976452265122	-5.85463533462002	0.0	-4.50976452265122	1.3448708119688	-4.50976452265122	0.0	4.484001575722698	-0.23266383787315167	-4.576435417210783	-4.959258633374776	-0.3960154571319918	-4.576435417210783	-0.058478764852508885	-0.24422464931003707	-4.728226225032737	-0.6163175119289508	-4.192781743154984	2	missed	0.0
169.24919940019026	6.591252000071108	nogo_punish	1.0	169.27402130002156	171.12361550005153	173.66174139967188	1.8495942000299692	170.27893869997934	172.6380567997694	174.66209589969367	0.8446768000721931	1.0236845999024808	1.2031774003989995	n/a	1.0	n/a	1	0	86	2	nogo_punish	0	0	-1	0	0	1	0	n/a	n/a	-1	1.0	1.0	580.2110840999521	749.4851053999737	750.4900227999315	751.3346996000037	752.8491408997215	753.872825499624	n/a	n/a	754.8731799996458	756.0763574000448	2020-01-15 16:21:16.257112	3.26903078135458	-4.60859075722928	0.0	-3.8586073290037	-3.26903078135458	0.0	-3.26903078135458	0.0	-4.60859075722928	0.0	-3.26903078135458	-4.86822581609547	1.8983970224572582	-4.8412545951024315	-0.06667089455956333	-4.447715887199686	-5.009917050455372	-0.06667089455956333	-4.926704580947979	-1.589095461278837	-3.487492483736097	-0.6163175119289508	-4.291607977733044	2	missed	0.0
175.88094240007922	5.970126200001687	go_reward	0.400289099663496	175.90576429991052	177.40815749997273	179.9512736001052	1.5023932000622153	176.9070580000989	178.93710729992017	180.9602131997235	0.501099499873817	1.0141663001850247	0.9156773001886904	n/a	1.0	n/a	1	0	87	3	go_reward	1	1	0	1	1	1	0	n/a	n/a	1	0.400289099663496	1.0	580.2110840999521	756.1168483998626	757.118142100051	757.6192415999249	759.1481913998723	760.1623577000573	n/a	n/a	761.1712972996756	762.0869745998643	2020-01-15 16:21:16.257112	3.64568289340053	2.30115101712242	0.0	0.736382771982307	3.64568289340053	0.0	-3.64568289340053	2.30115101712242	0.0	3.64568289340053	0.0	2.71621136827833	2.275049134503208	2.068487179249268	-0.06667089455956333	0.14727421378632077	1.904796624299738	-0.06667089455956333	2.657732603425821	2.0565874321216926	-0.21846170238151708	1.684833505193469	0.31698277949623554	2	missed	0.0
181.88798720017076	7.4656059998087585	nogo_punish	0.2575970999896526	181.91280910000205	184.76790079986677	187.31858239974827	2.8550916998647153	182.92675649980083	186.29862200003117	188.3316425997764	1.8411443000659347	1.0199603997170925	1.0467725000344217	n/a	1.0	n/a	1	0	88	2	nogo_punish	0	0	-1	0	1	0	1	n/a	n/a	0	0.2575970999896526	1.0	580.2110840999521	762.1238931999542	763.137840599753	764.9789848998189	766.5097060999833	767.5296664997004	n/a	n/a	768.5427266997285	769.5894991997629	2020-01-15 16:21:16.257112	-0.655787833222138	-4.60859075722928	-2.60813779229001	-4.33736541432045	-3.26392562551214	-2.60813779229001	0.655787833222138	-4.60859075722928	-2.60813779229001	-3.26392562551214	-2.60813779229001	4.60859075722928	-2.0264215921194597	-4.8412545951024315	-2.6748086868495737	-4.926473972516436	-5.004811894612931	-2.6748086868495737	4.550111992376771	-4.853021086790977	-2.826599494671527	-5.224908269158231	-2.2911550127937748	2	missed	0.0
189.39179969998077	6.322231700178236	go_punish	0.3993358998559415	189.41662159981206	191.1542007001117	193.69855009997264	1.7375791002996266	190.42013389989734	192.6749653997831	194.69863979984075	0.7340668002143502	1.0235847001895308	1.040213500149548	n/a	1.0	n/a	1	0	89	1	go_punish	0	-1	0	1	1	1	0	n/a	n/a	-1	0.3993358998559415	1.0	580.2110840999521	769.6277056997642	770.6312179998495	771.3652848000638	772.8860494997352	773.9096341999248	n/a	n/a	774.9097238997929	775.9499373999424	2020-01-15 16:21:16.257112	5.82402504571269	0.0	-4.50976452265122	-1.98404009055383	1.31426052306147	-4.50976452265122	-5.82402504571269	0.0	-4.50976452265122	1.31426052306147	-4.50976452265122	-4.86822581609547	4.453391286815369	-0.23266383787315167	-4.576435417210783	-2.5731486487498163	-0.4266257460393219	-4.576435417210783	-4.926704580947979	-0.27483493821736715	-4.728226225032737	-0.6163175119289508	-4.192781743154984	2	missed	0.0
195.75024330010638	6.390101700089872	nogo_reward	0.3419530000537634	195.77506519993767	197.6335338000208	200.17533939983696	1.8584686000831425	196.78967730002478	199.15325569966808	201.18715959973633	0.8438564999960363	1.0220837001688778	0.9780073002912104	n/a	1.0	n/a	1	0	90	4	nogo_reward	1	0	1	0	1	0	0	n/a	n/a	0	0.3419530000537634	1.0	580.2110840999521	775.9861492998898	777.0007613999769	777.844617899973	779.3643397996202	780.3864234997891	n/a	n/a	781.3982436996885	782.3762509999797	2020-01-15 16:21:16.257112	-0.160684591909863	0.544662394001479	2.06401868683565	0.956070748190656	1.90333409492579	2.06401868683565	0.160684591909863	0.544662394001479	2.06401868683565	1.90333409492579	2.06401868683565	-0.544662394001479	-1.5313183508071848	0.3119985561283273	1.9973477922760867	0.3669621899946698	0.16244782582499817	1.9973477922760867	-0.6031411588539879	0.3142386336469529	1.845556984454133	-0.07165511792747181	2.3810014663318855	2	missed	0.0
202.17726780008525	6.963256999850273	nogo_punish	0.3122417000122368	202.20208969991654	204.3792908997275	206.93342879973352	2.177201199810952	203.21657759975642	205.90943680005148	207.93166740005836	1.1627132999710739	1.023991999682039	1.2336792997084558	n/a	1.0	n/a	1	0	91	2	nogo_punish	1	-1	0	0	1	0	0	n/a	n/a	-1	0.3122417000122368	1.0	580.2110840999521	782.4131737998687	783.4276616997086	784.5903749996796	786.1205209000036	787.1445128996857	n/a	n/a	788.1427515000105	789.376430799719	2020-01-15 16:21:16.257112	1.81481931959839	-2.10751517124877	-2.60813779229001	-1.96613512167151	-0.793318472691614	-2.60813779229001	-1.81481931959839	-2.10751517124877	-2.60813779229001	-0.793318472691614	-2.60813779229001	-2.7607106448467	0.44418556070106807	-2.340179009121922	-2.6748086868495737	-2.555243679867496	-2.534204741792406	-2.6748086868495737	-2.819189409699209	-2.382413933970451	-2.826599494671527	-2.723832683177721	-2.2911550127937748	2	missed	0.0
209.18583439989015	6.288448000326753	go_reward	1.0	209.21065629972145	210.60983069986105	213.14698299998417	1.3991744001396	210.21754129976034	212.12332279980183	214.14533809991553	0.392289400100708	1.0236602001823485	1.353766200132668	n/a	1.0	n/a	1	0	92	3	go_reward	0	0	1	1	0	0	0	n/a	n/a	1	1.0	1.0	580.2110840999521	789.4217403996736	790.4286253997125	790.8209147998132	792.334406899754	793.3580670999363	n/a	n/a	794.3564221998677	795.7101884000003	2020-01-15 16:21:16.257112	-5.31962749973473	3.84022996371789	0.0	3.08176922257622	5.31962749973473	0.0	5.31962749973473	0.0	3.84022996371789	0.0	5.31962749973473	5.01736238540075	-6.690261258632051	3.607566125844738	-0.06667089455956333	2.492660664380234	3.5787412306339377	-0.06667089455956333	4.958883620548241	-1.589095461278837	5.101165797353213	-0.6163175119289508	4.157212743214125	2	missed	0.0
215.5118563999422	6.86707070004195	nogo_punish	0.3439527996815741	215.53667829977348	217.47133870003745	220.01068649999797	1.9346604002639651	216.55000119982287	218.99611019995064	221.019737099763	0.9213375002145767	1.014576300047338	1.3840119000524282	n/a	1.0	n/a	1	0	93	2	nogo_punish	1	-1	0	0	1	0	1	n/a	n/a	-1	0.3439527996815741	1.0	580.2110840999521	795.7477623997256	796.761085299775	797.6824227999896	799.2071942999028	800.2217705999501	n/a	n/a	801.2308211997151	802.6148330997676	2020-01-15 16:21:16.257112	0.295309454565241	-3.6467147883143	-2.60813779229001	-3.56975318626478	-2.31282833772476	-2.60813779229001	-0.295309454565241	-3.6467147883143	-2.60813779229001	-2.31282833772476	-2.60813779229001	-1.2215110277811703	-1.0753243043320808	-3.8793786261874517	-2.6748086868495737	-4.158861744460766	-4.053714606825552	-2.6748086868495737	-1.2799897926336792	-3.9019237990035966	-2.826599494671527	-4.263032300243251	-2.2911550127937748	2	missed	0.0
222.4130838001147	5.844221599865705	go_punish	1.0	222.437905699946	223.7842794000171	226.31700300006196	1.3463737000711262	223.45470009976998	225.29312529973686	227.3265665001236	0.3295793002471328	1.0238777003251016	0.9555607996881008	n/a	1.0	n/a	1	0	94	1	go_punish	1	0	-1	1	0	0	0	n/a	n/a	-1	1.0	1.0	580.2110840999521	802.6489897998981	803.6657841997221	803.9953634999692	805.504209399689	806.5280871000141	n/a	n/a	807.5376506000757	808.4932113997638	2020-01-15 16:21:16.257112	-3.23552014624037	-2.60813779229001	-4.50976452265122	-3.57989071215571	-1.27424437641085	-4.50976452265122	3.23552014624037	-4.50976452265122	-2.60813779229001	-4.50976452265122	-1.27424437641085	-0.3584612934442504	-4.606153905137692	-2.840801630163162	-4.576435417210783	-4.168999270351696	-3.0151306455116416	-4.576435417210783	-0.4169400582967593	-6.098859983930057	-1.492706078792367	-5.12608203458017	-2.2911550127937748	2	missed	0.0
228.3029844001867	7.711639099754393	go_reward	0.357229100074619	228.32780630001798	231.100339199882	233.65555860009044	2.772532899864018	229.3355652000755	232.63158199982718	234.65565430000424	1.7647739998064935	1.0239766002632678	1.383791099768132	n/a	1.0	n/a	1	0	95	3	go_reward	1	1	0	1	1	1	0	n/a	n/a	1	0.357229100074619	1.0	580.2110840999521	808.5388903999701	809.5466493000276	811.3114232998341	812.8426660997793	813.8666427000426	n/a	n/a	814.8667383999564	816.2505294997245	2020-01-15 16:21:16.257112	2.68445978683508	3.84022996371789	2.69465763835894	4.0718026700427	5.37911742519402	2.69465763835894	-2.68445978683508	3.84022996371789	2.69465763835894	5.37911742519402	2.69465763835894	1.17713242168286	1.3138260279377583	3.607566125844738	2.6279867437993762	3.482694111846714	3.6382311560932283	2.6279867437993762	1.1186536568303511	3.7900219639151835	2.476195935977423	3.223912451788939	3.0116404178551752	2	missed	0.0
236.05562369991094	6.317040500231087	go_reward	0.4491094001568854	236.08044559974223	237.9344357000664	240.49433230003342	1.853990100324154	237.0902638998814	239.47091759974137	241.49789349967614	0.8441718001849949	1.0234147002920508	0.8995926002971828	n/a	1.0	n/a	1	0	96	3	go_reward	1	1	0	1	1	1	0	n/a	n/a	1	0.4491094001568854	1.0	580.2110840999521	816.2915296996944	817.3013479998335	818.1455198000185	819.6820016996935	820.7054163999856	n/a	n/a	821.7089775996283	822.6085701999255	2020-01-15 16:21:16.257112	3.3355464608126	4.46254457645886	2.69465763835894	4.52632121436676	6.03020409917155	2.69465763835894	-3.3355464608126	4.46254457645886	2.69465763835894	6.03020409917155	2.69465763835894	0.5548178089418903	1.9649127019152781	4.229880738585708	2.6279867437993762	3.937212656170774	4.289317830070758	2.6279867437993762	0.49633904408938134	4.441108637892714	2.476195935977423	3.846227064529909	3.0116404178551752	2	missed	0.0
242.41077820025384	5.999765399843454	nogo_reward	1.0	242.43560010008514	243.94479109998792	246.46023519989103	1.5091909999027848	243.44358139997348	245.44987499993294	247.47359819989651	0.5012097000144422	1.010360199958086	0.9617673000320792	n/a	1.0	n/a	1	0	97	4	nogo_reward	0	1	0	0	0	1	0	n/a	n/a	0	1.0	1.0	580.2110840999521	822.6466842000373	823.6546654999256	824.15587519994	825.6609590998851	826.6713192998432	n/a	n/a	827.6846822998486	828.6464495998807	2020-01-15 16:21:16.257112	0.462306561695802	0.272141256480724	2.06401868683565	0.497989097774086	1.60171212513985	2.06401868683565	-0.462306561695802	2.06401868683565	0.272141256480724	2.06401868683565	1.60171212513985	-2.06401868683565	-0.9083271972015199	0.03947741860757234	1.9973477922760867	-0.09111946042190017	-0.13917414396094174	1.9973477922760867	-2.122497451688159	0.474923225556813	1.383250422758333	1.4477011749066993	0.5891240359769596	2	missed	0.0
248.45003949990496	6.804722400382161	nogo_reward	0.3866885001771152	248.47486139973626	250.48290590010583	253.0373521996662	2.0080445003695786	249.4826623001136	252.01351589988917	254.04630449973047	1.0002435999922454	1.023836299777031	1.2332793003879488	n/a	1.0	n/a	1	0	98	4	nogo_reward	0	1	0	0	1	0	0	n/a	n/a	1	0.3866885001771152	1.0	580.2110840999521	828.6859454996884	829.6937464000657	830.693990000058	832.2245999998413	833.2484362996183	n/a	n/a	834.2573885996826	835.4906679000705	2020-01-15 16:21:16.257112	0.573795452293767	0.272141256480724	1.0128195390335	0.27296185759413	1.58661499132727	1.0128195390335	-0.573795452293767	0.272141256480724	1.0128195390335	1.58661499132727	1.0128195390335	4.745221128920026	-0.7968383066035548	0.03947741860757234	0.9461486444739367	-0.3161467006018562	-0.1542712777735218	0.9461486444739367	4.686742364067517	-0.0024804699515670325	0.7943578366519829	-0.3441762554482268	1.3298023185297354	2	missed	0.0
255.29219180019572	6.8725735996849835	nogo_punish	1.0	255.31701370002702	257.8996926997788	260.4176147999242	2.5826789997518063	256.33079699985683	259.4055522000417	261.4303250997327	1.5688956999219954	1.0120625998824835	0.7592621999792755	n/a	1.0	n/a	1	0	99	2	nogo_punish	1	-1	0	0	0	1	0	n/a	n/a	0	1.0	1.0	580.2110840999521	835.5280977999792	836.541881099809	838.110776799731	839.6166362999938	840.6286988998763	n/a	n/a	841.6414091996849	842.4006713996641	2020-01-15 16:21:16.257112	0.329126871589353	-4.27937463143379	-2.60813779229001	-4.23586835939526	-2.93726466387936	-2.60813779229001	-0.329126871589353	-2.60813779229001	-4.27937463143379	-2.60813779229001	-2.93726466387936	2.60813779229001	-1.041506887307969	-4.512038469306942	-2.6748086868495737	-4.824976917591246	-4.678150932980151	-2.6748086868495737	2.5496590274375013	-4.1972332535688475	-3.1557263662608768	-3.224455304218961	-3.962391851937555	2	missed	0.0
262.1993384002708	6.33433789992705	go_punish	0.3981278999708593	262.2241603001021	263.59942079987377	266.15001250011846	1.3752604997716844	263.24046120001003	265.12641360005364	267.15922199981287	0.3589595998637378	1.023598900064826	1.3992762002162635	n/a	1.0	n/a	1	0	100	1	go_punish	0	-1	0	1	1	1	0	n/a	n/a	-1	0.3981278999708593	1.0	580.2110840999521	842.4352444000542	843.4515452999622	843.8105048998259	845.3374977000058	846.3610966000706	n/a	n/a	847.370306099765	848.7695822999813	2020-01-15 16:21:16.257112	3.40314977264484	-2.60813779229001	-4.6691914571368	-4.24179591210564	-1.26604168449196	-4.6691914571368	-3.40314977264484	-2.60813779229001	-4.6691914571368	-1.26604168449196	-4.6691914571368	-2.26008802380546	2.032516013747518	-2.840801630163162	-4.735862351696364	-4.8309044703016255	-3.0069279535927516	-4.735862351696364	-2.318566788657969	-2.8551371457707972	-4.887653159518317	-3.224455304218961	-4.352208677640564	2	missed	0.0
268.57427300000563	7.7165892999619246	nogo_punish	1.0	268.5990948998369	271.56926289992407	274.09415519982576	2.970168000087142	269.6002931999974	273.08364399988204	275.1035279999487	1.9689696999266744	1.0105111999437213	1.212156199850142	n/a	1.0	n/a	1	0	101	2	nogo_punish	1	-1	0	0	0	1	1	n/a	n/a	0	1.0	1.0	580.2110840999521	848.8101789997891	849.8113772999495	851.7803469998762	853.2947280998342	854.3052392997779	n/a	n/a	855.3146120999008	856.526768299751	2020-01-15 16:21:16.257112	1.83817100852433	-4.27937463143379	-1.12823183593768	-1.93082985539097	-2.96640284446202	-1.12823183593768	-1.83817100852433	-1.12823183593768	-4.27937463143379	-1.12823183593768	-2.96640284446202	1.12823183593768	0.46753724962700804	-4.512038469306942	-1.1949027304972433	-2.519938413586956	-4.707289113562812	-1.1949027304972433	1.069753071085171	-2.7173272972165172	-3.184864546843537	-1.7445493478666307	-3.962391851937555	2	missed	0.0
276.32681140024215	6.019891599658877	go_punish	0.4578225999139249	276.35163330007344	277.78822509991005	280.3286224999465	1.4365917998366058	277.36637239996344	279.30706129968166	281.3464608998038	0.4218526999466121	1.0215612002648413	1.025063999928534	n/a	1.0	n/a	1	0	102	1	go_punish	1	0	-1	1	1	1	1	n/a	n/a	0	0.4578225999139249	1.0	580.2110840999521	856.5627174000256	857.5774564999156	857.9993091998622	859.5181453996338	860.5397065998986	n/a	n/a	861.5575449997559	862.5826089996845	2020-01-15 16:21:16.257112	2.27820977519061	-3.73636962822769	-4.6691914571368	-4.54253575771477	-2.39098168194618	-4.6691914571368	-2.27820977519061	-3.73636962822769	-4.6691914571368	-2.39098168194618	-4.6691914571368	3.73636962822769	0.907576016293288	-3.969033466100842	-4.735862351696364	-5.131644315910756	-4.131867951046972	-4.735862351696364	3.6778908633751812	-3.9800771432250173	-4.887653159518317	-4.352687140156641	-4.352208677640564	2	missed	0.0
282.38819420011714	6.245650900062174	go_reward	1.0	282.41301609994844	283.996008799877	286.5204622996971	1.5829926999285817	283.42279980005696	285.50192759977654	287.52827599970624	0.5732089998200536	1.018534699920565	1.1303910003043711	n/a	1.0	n/a	1	0	103	3	go_reward	1	1	0	1	0	0	0	n/a	n/a	0	1.0	1.0	580.2110840999521	862.6241001999006	863.6338839000091	864.2070928998291	865.7130116997287	866.7315463996492	n/a	n/a	867.7393600996584	868.8697510999627	2020-01-15 16:21:16.257112	-3.62585232595532	4.73797350083915	2.69465763835894	4.74906221309538	6.32050996431426	2.69465763835894	3.62585232595532	2.69465763835894	4.73797350083915	2.69465763835894	6.32050996431426	-2.69465763835894	-4.996486084852642	4.505309662965998	2.6279867437993762	4.159953654899394	4.579623695213468	2.6279867437993762	-2.7531364032114487	1.1055621770801027	6.102048261932743	2.078340126429989	5.054956280335386	2	missed	0.0
288.67304329993203	5.884104600176215	nogo_reward	1.0	288.6978651997633	290.1857753000222	292.7151465998031	1.4879101002588868	289.70649609994143	291.70112930005416	293.73688209988177	0.4792792000807822	1.0140172997489572	0.8450877000577748	n/a	1.0	n/a	1	0	104	4	nogo_reward	1	0	1	0	0	1	0	n/a	n/a	1	1.0	1.0	580.2110840999521	868.9089492997155	869.9175801998936	870.3968593999743	871.9122134000063	872.9262306997553	n/a	n/a	873.9479661998339	874.7930538998917	2020-01-15 16:21:16.257112	-3.28871346560967	2.83803019854081	1.0128195390335	2.85095487978819	4.30153300464318	1.0128195390335	3.28871346560967	1.0128195390335	2.83803019854081	1.0128195390335	4.30153300464318	4.00454284636725	-4.659347224506992	2.605366360667658	0.9461486444739367	2.261846321592204	2.560646735542388	0.9461486444739367	3.946064081514741	-0.5762759222453371	4.083071302261663	0.3965020271045492	3.1550129780370453	2	missed	0.0
294.5985930999741	7.45619810000062	go_reward	1.0	294.6234149998054	297.232540700119	299.75155350007117	2.609125700313598	295.62319519976154	298.7504694997333	300.76187299983576	1.609345500357449	1.001084000337869	1.3177400999702513	n/a	1.0	n/a	1	0	105	3	go_reward	1	1	0	1	0	0	1	n/a	n/a	0	1.0	1.0	580.2110840999521	874.8344990997575	875.8342792997137	877.4436248000711	878.9615535996854	879.9626376000233	n/a	n/a	880.9729570997879	882.2906971997581	2020-01-15 16:21:16.257112	-5.00879499784328	4.73797350083915	1.16253551584934	2.16957298308525	6.17133051369262	1.16253551584934	5.00879499784328	1.16253551584934	4.73797350083915	1.16253551584934	6.17133051369262	-1.16253551584934	-6.379428756740602	4.505309662965998	1.0958646212897767	1.5804644248892639	4.430444244591828	1.0958646212897767	-1.221014280701849	-0.42655994542949704	5.952868811311103	0.5462180039203892	5.054956280335386	2	missed	0.0
302.09621640015393	7.190014599822462	go_reward	0.3093360997736454	302.12103829998523	304.5893145999871	307.13440610002726	2.4682763000018895	303.1303627998568	306.1096434998326	308.1436916999519	1.4589518001303077	1.0247626001946628	1.1673611998558044	n/a	1.0	n/a	1	0	106	3	go_reward	1	1	0	1	1	1	0	n/a	n/a	1	0.3093360997736454	1.0	580.2110840999521	882.3321223999374	883.341446899809	884.8003986999393	886.3207275997847	887.3454901999794	n/a	n/a	888.354775799904	889.5221369997598	2020-01-15 16:21:16.257112	5.56005982758673	4.73797350083915	0.544662394001479	1.06935701026195	6.1047222215882	0.544662394001479	-5.56005982758673	4.73797350083915	0.544662394001479	6.1047222215882	0.544662394001479	0.27938888456159994	4.189426068689408	4.505309662965998	0.47799149944191566	0.4802484520659639	4.363835952487408	0.47799149944191566	0.22091011970909105	4.515626760309363	0.3262006916199619	4.121655988910199	0.8616451734977145	2	missed	0.0
309.3325073001906	7.157969600055367	go_reward	1.0	309.3573292000219	311.5839581997134	314.09504869999364	2.2266289996914566	310.3605724996887	313.0803276998922	315.10934039996937	1.2233857000246644	1.0147210001014173	1.4059584001079202	n/a	1.0	n/a	1	0	107	3	go_reward	0	0	1	1	0	0	1	n/a	n/a	1	1.0	1.0	580.2110840999521	889.568413299974	890.5716565996408	891.7950422996655	893.2914117998444	894.3061327999458	n/a	n/a	895.3204244999215	896.7263829000294	2020-01-15 16:21:16.257112	-5.81552868043999	4.86869081743423	0.544662394001479	3.25443236965318	6.36019107444147	0.544662394001479	5.81552868043999	0.544662394001479	4.86869081743423	0.544662394001479	6.36019107444147	4.472699991399271	-7.186162439337312	4.636026979561078	0.47799149944191566	2.6653238114571938	4.619304805340678	0.47799149944191566	4.414221226546762	-1.044433067277358	6.141729372059953	-0.07165511792747181	5.1856735969304655	2	missed	0.0
316.5295319999568	6.050007000099754	nogo_punish	0.7119833999313414	316.5543538997881	318.10458939988166	320.65536599978805	1.5502355000935495	317.55825799982995	319.64652739977464	321.6674538999795	0.546331400051713	1.008838600013405	0.9369069999083877	n/a	1.0	n/a	1	0	108	2	nogo_punish	0	0	-1	0	1	0	0	n/a	n/a	0	0.7119833999313414	1.0	580.2110840999521	896.7654379997402	897.7693420997821	898.3156734998338	899.8576114997268	900.8664500997402	n/a	n/a	901.8785379999316	902.81544499984	2020-01-15 16:21:16.257112	-2.44880017081379	-4.27937463143379	-0.529765708029531	-0.95056165332167	-2.97856587884332	-0.529765708029531	2.44880017081379	-4.27937463143379	-0.529765708029531	-2.97856587884332	-0.529765708029531	4.27937463143379	-3.8194339297111117	-4.512038469306942	-0.5964366025890944	-1.5396702115176562	-4.719452147944112	-0.5964366025890944	4.220895866581282	-4.567661340122157	-0.7482274104110481	-4.895692143362741	-0.2127829285332955	2	missed	0.0
322.6198396002874	7.290162999648601	nogo_punish	1.0	322.6446615001187	325.35563929984346	327.891777199693	2.7109777997247875	323.6550452997907	326.87086230004206	328.9037604997867	1.7005940000527744	1.0209148996509612	1.0310639999805744	n/a	1.0	n/a	1	0	109	2	nogo_punish	1	-1	0	0	0	1	0	n/a	n/a	0	1.0	1.0	580.2110840999521	902.8557456000708	903.8661293997428	905.5667233997956	907.0819463999942	908.1028612996452	n/a	n/a	909.1148445997388	910.1459085997194	2020-01-15 16:21:16.257112	0.130614970113725	-1.95625827410186	-0.529765708029531	-0.49732699716674	-0.660380678143256	-0.529765708029531	-0.130614970113725	-0.529765708029531	-1.95625827410186	-0.529765708029531	-0.660380678143256	0.529765708029531	-1.240018788783597	-2.1889221119750117	-0.5964366025890944	-1.0864355553627263	-2.4012669472440478	-0.5964366025890944	0.47128694317702213	-2.118861169308368	-0.878842380524773	-1.1460832199584818	-1.6392754946056245	2	missed	0.0
329.9524114001541	6.882187000010276	go_punish	1.0	329.9772332999854	331.9466470000335	334.4590704999863	1.9694137000481078	330.9852758999915	333.44957529986266	335.47289490001265	0.9613711000420153	1.009495200123638	1.386525399983043	n/a	1.0	n/a	1	0	110	1	go_punish	0	-1	0	1	0	0	0	n/a	n/a	0	1.0	1.0	580.2110840999521	910.1883173999375	911.1963599999436	912.1577310999857	913.6606593998148	914.6701545999384	n/a	n/a	915.6839789999648	917.0705043999478	2020-01-15 16:21:16.257112	-4.32540892445538	-1.65799754396722	-4.6691914571368	-2.080998856254	-0.343782532681416	-4.6691914571368	4.32540892445538	-4.6691914571368	-1.65799754396722	-4.6691914571368	-0.343782532681416	4.6691914571368	-5.696042683352702	-1.8906613818403717	-4.735862351696364	-2.670107414449986	-2.084668801782208	-4.735862351696364	4.610712692284292	-6.258286918415637	-0.5622442350629331	-5.28550896906575	-1.3410147644709847	2	missed	0.0
336.8794893999584	7.469286500010526	go_reward	1.0	336.9043112997897	339.6428598999047	342.1747488998807	2.7385486001149957	337.9113284996711	341.15421309974045	343.18815209995944	1.7315314002336208	1.0205358001402374	1.185445699840784	n/a	1.0	n/a	1	0	111	3	go_reward	1	1	0	1	0	0	0	n/a	n/a	0	1.0	1.0	580.2110840999521	917.1153953997418	918.1224125996232	919.8539439998568	921.3652971996926	922.3858329998328	n/a	n/a	923.3992361999116	924.5846818997524	2020-01-15 16:21:16.257112	-3.44764592330285	4.86869081743423	2.96679889483967	4.16527381507683	6.41444481814252	2.96679889483967	3.44764592330285	2.96679889483967	4.86869081743423	2.96679889483967	6.41444481814252	-2.96679889483967	-4.818279682200171	4.636026979561078	2.9001280002801066	3.5761652568808437	4.673558549041728	2.9001280002801066	-3.025277659692179	1.3777034335608331	6.1959831157610035	2.3504813829107194	5.1856735969304655	2	missed	0.0
344.38528040004894	5.60613919980824	nogo_punish	1.0	344.41010229988024	345.6955149997957	348.2257905998267	1.2854126999154687	345.42536449991167	347.21204439969745	349.24516559997585	0.27015049988403916	1.013746200129276	0.7710758997126277	n/a	1.0	n/a	1	0	112	2	nogo_punish	1	-1	0	0	0	1	0	n/a	n/a	0	1.0	1.0	580.2110840999521	924.6211863998324	925.6364485998638	925.9065990997478	927.4231284996496	928.4368746997789	n/a	n/a	929.456249699928	930.2273255996406	2020-01-15 16:21:16.257112	0.397127697168431	-1.95625827410186	-0.265182101600764	-0.273729336065452	-0.662309798769195	-0.265182101600764	-0.397127697168431	-0.265182101600764	-1.95625827410186	-0.265182101600764	-0.662309798769195	0.265182101600764	-0.9735060617288909	-2.1889221119750117	-0.3318529961603273	-0.8628378942614382	-2.403196067869987	-0.3318529961603273	0.2067033367482551	-1.854277562879601	-0.8807715011507121	-0.8814996135297148	-1.6392754946056245	2	missed	0.0
350.02872879989457	6.704936200287193	go_punish	1.0	350.05355069972586	351.75091619975865	354.2903765998781	1.697365500032788	351.05695819994423	353.26655420009047	355.2965597999282	0.6939579998144154	1.0238223997876048	1.4619271000848357	n/a	1.0	n/a	1	0	113	1	go_punish	1	0	-1	1	0	0	0	n/a	n/a	-1	1.0	1.0	580.2110840999521	930.264634799678	931.2680422998964	931.9620002997108	933.4776383000426	934.5014606998302	n/a	n/a	935.5076438998803	936.9695709999652	2020-01-15 16:21:16.257112	-1.787393322925	-1.65799754396722	-2.14416705633134	-1.0284891869863	-0.356773733406337	-2.14416705633134	1.787393322925	-2.14416705633134	-1.65799754396722	-2.14416705633134	-0.356773733406337	-2.72405875976413	-3.158027081822322	-1.8906613818403717	-2.2108379508909035	-1.617597745182286	-2.097660002507129	-2.2108379508909035	-2.782537524616639	-3.733262517610177	-0.5752354357878541	-2.7604845682602908	-1.3410147644709847	2	missed	0.0
356.76949199987575	6.03675110032782	nogo_reward	0.7062550000846386	356.79431389970705	358.23745370004326	360.8100831001067	1.443139800336212	357.7982446998359	359.7894140998833	361.8219391000457	0.4392090002073701	1.0206690002233927	1.009125899989158	n/a	1.0	n/a	1	0	114	4	nogo_reward	1	0	1	0	1	0	0	n/a	n/a	0	0.7062550000846386	1.0	580.2110840999521	937.0053979996592	938.009328799788	938.4485377999954	940.0004981998354	941.0211672000588	n/a	n/a	942.0330231999978	943.042149099987	2020-01-15 16:21:16.257112	1.1451303344374	2.83803019854081	3.22290640786271	3.95017409541584	4.36803674230011	3.22290640786271	-1.1451303344374	2.83803019854081	3.22290640786271	4.36803674230011	3.22290640786271	-2.83803019854081	-0.2255034244599219	2.605366360667658	3.1562355133031463	3.361065537219854	2.6271504731993183	3.1562355133031463	-2.8965089633933188	2.7789412810212735	3.004444705481193	2.221712686611859	3.5398891873589453	2	missed	0.0
362.8481212002225	5.67693329975009	go_reward	0.8099712999537587	362.8729431000538	364.2317156000063	366.78179090004426	1.3587724999524653	363.87261149985704	365.7582402001135	367.790936099831	0.35910410014923855	1.0235506999307518	0.7589402999728918	n/a	1.0	n/a	1	0	115	3	go_reward	1	1	0	1	1	1	0	n/a	n/a	1	0.8099712999537587	1.0	580.2110840999521	943.084027200006	944.0836955998092	944.4427996999584	945.9693243000656	946.9928749999964	n/a	n/a	948.0020201997831	948.760960499756	2020-01-15 16:21:16.257112	4.97719079311988	4.86869081743423	1.30590807603121	1.88420163962881	6.28309886915109	1.30590807603121	-4.97719079311988	4.86869081743423	1.30590807603121	6.28309886915109	1.30590807603121	0.14867156796652026	3.6065570342225586	4.636026979561078	1.2392371814716467	1.2950930814328236	4.542212600050298	1.2392371814716467	0.09019280311401137	4.694003407872253	1.0874463736496929	4.252373305505278	1.6228908555274457	2	missed	0.0
368.57066369988013	7.453495300375039	go_reward	0.2756725000217557	368.5954855997114	371.00396139966324	373.56768060009927	2.408475799951816	369.5900808000007	372.54072050005186	374.56997849978507	1.4138805996625479	1.026960100047404	1.4790024003013968	n/a	1.0	n/a	1	0	116	3	go_reward	1	1	0	1	1	1	0	n/a	n/a	1	0.2756725000217557	1.0	580.2110840999521	948.8065696996636	949.8011648999528	951.2150454996154	952.751804600004	953.7787647000514	n/a	n/a	954.7810625997372	956.2600650000386	2020-01-15 16:21:16.257112	5.14223931568312	4.93438754296954	1.30590807603121	3.61706004350006	6.44814739171433	1.30590807603121	-5.14223931568312	4.93438754296954	1.30590807603121	6.44814739171433	1.30590807603121	0.08297484243121023	3.771605556785798	4.701723705096388	1.2392371814716467	3.0279514853040737	4.707261122613538	1.2392371814716467	0.024496077578701342	4.859051930435493	1.0874463736496929	4.318070031040589	1.6228908555274457	2	missed	0.0
376.06686870008696	6.8006151001900434	nogo_punish	1.0	376.09169059991825	377.8811494000255	380.407090499997	1.7894588001072407	377.09981160005543	379.39578579971567	381.4147654999979	0.7813377999700606	1.0113047002813573	1.4775402001104112	n/a	1.0	n/a	1	0	117	2	nogo_punish	1	-1	0	0	0	1	0	n/a	n/a	0	1.0	1.0	580.2110840999521	956.3027746998704	957.3108957000076	958.0922334999776	959.6068698996678	960.6181745999492	n/a	n/a	961.62584959995	963.1033898000604	2020-01-15 16:21:16.257112	0.523051965204572	-1.95625827410186	-0.139948882326522	-0.157369243180237	-0.663000847531093	-0.139948882326522	-0.523051965204572	-0.139948882326522	-1.95625827410186	-0.139948882326522	-0.663000847531093	0.139948882326522	-0.8475817936927499	-2.1889221119750117	-0.20661977688608535	-0.7464778013762232	-2.4038871166318847	-0.20661977688608535	0.08147011747401312	-1.729044343605359	-0.8814625499126101	-0.7562663942554728	-1.6392754946056245	2	missed	0.0
382.9055959000252	6.7463759002275765	nogo_punish	0.290729499887675	382.9304177998565	384.9109093998559	387.4586859000847	1.9804915999993682	383.9360615997575	386.44082110002626	388.4584715999663	0.9748478000983596	1.017864800058419	1.2183221001178026	n/a	1.0	n/a	1	0	118	2	nogo_punish	1	-1	0	0	1	0	0	n/a	n/a	-1	0.290729499887675	1.0	580.2110840999521	963.1415018998086	964.1471456997097	965.121993499808	966.6519051999784	967.6697700000368	n/a	n/a	968.6695556999184	969.8878778000362	2020-01-15 16:21:16.257112	-0.585915286905161	-1.95625827410186	-0.077273319371291	-0.0939971238076942	-0.663188606276452	-0.077273319371291	0.585915286905161	-1.95625827410186	-0.077273319371291	-0.663188606276452	-0.077273319371291	-2.91196754199361	-1.956549045802483	-2.1889221119750117	-0.14394421393085433	-0.6831056820036804	-2.404074875377244	-0.14394421393085433	-2.970446306846119	-2.252284067555289	-0.2957350217528081	-2.5725757860308107	0.23970946012494454	2	missed	0.0
389.69678310025495	6.283614399842804	nogo_reward	0.2809532000683248	389.72160500008624	391.4907039999963	394.0364442998542	1.7690989999100566	390.7308093998581	393.0113216000609	395.03666599979624	0.7598946001381819	1.0251226997933145	0.9685534001328051	n/a	1.0	n/a	1	0	119	4	nogo_reward	0	1	0	0	1	0	0	n/a	n/a	1	0.2809532000683248	1.0	580.2110840999521	969.9326891000384	970.9418934998102	971.7017880999484	973.222405700013	974.2475283998064	n/a	n/a	975.2477500997484	976.2163034998812	2020-01-15 16:21:16.257112	-0.576179357853566	1.24154594533714	3.22290640786271	1.76442400767584	2.64672705000914	3.22290640786271	0.576179357853566	1.24154594533714	3.22290640786271	2.64672705000914	3.22290640786271	3.77581644006361	-1.9468131167508878	1.0088821074639884	3.1562355133031463	1.1753154494798537	0.9058407809083484	3.1562355133031463	3.717337675211101	1.0576315887303032	3.004444705481193	0.6252284334081892	3.5398891873589453	2	missed	0.0
396.01708379993215	6.420285400003195	nogo_reward	0.2384934001602232	396.04190569976345	397.69615500001225	400.2456426997669	1.6542493002488072	397.04774229973543	399.23292439989746	401.25054109981284	0.6484127002768219	1.012718299869448	1.2116499999538064	n/a	1.0	n/a	1	0	120	4	nogo_reward	1	0	1	0	1	0	0	n/a	n/a	0	0.2384934001602232	1.0	580.2110840999521	976.2529897997156	977.2588263996876	977.9072390999644	979.4440084998496	980.456726799719	n/a	n/a	981.461625199765	982.6732751997188	2020-01-15 16:21:16.257112	1.56985086079601	3.28459713421894	3.22290640786271	3.54777689400638	4.79275726865871	3.22290640786271	-1.56985086079601	3.28459713421894	3.22290640786271	4.79275726865871	3.22290640786271	-3.28459713421894	0.19921710189868813	3.0519332963457884	3.1562355133031463	2.9586683358103936	3.0518709995579183	3.1562355133031463	-3.343075899071449	3.2036618073798735	3.004444705481193	2.6682796222899894	3.5398891873589453	2	missed	0.0
