onset	duration	trial_type	response_time	cueOnset	targetOnset	fbOnset	cueRT	firstfixOnset	secondfixOnset	waitOnset	firstfixdur	secondfixdur	waitdur	nback_fbOnset	nback_response_time	nback_targetOnset	block	wm	trial	cue	cond	is_common	outcome_go	outcome_nogo	key_correct	key_pressed	is_correct	key_correct_nback	key_pressed_nback	is_correct_nback	outcome	rt	rt_nback	time_scan	time_onset	time_isi1	time_circle	time_isi2	time_feedback	time_same	time_correct	time_iti	time_done	timestamp_scan	DV	Qgo	Qnogo	SV	Wgo	Wnogo	mDV	Qchosen	Qunchosen	Wchosen	Wunchosen	PE	DVC	QgoC	QnogoC	SVC	WgoC	WnogoC	PEC	WchosenC	WunchosenC	QchosenC	QunchosenC	run	outcome_nback	nback_targetResp
0.0	9.115653899964173	nogo_punish	0.5903208996169269	0.02925310004502535	2.317070399876684	4.8713528998196125	2.2878172998316586	1.0436436999589205	3.846911999862641	7.917372699826956	1.2734266999177635	1.0244408999569714	1.227534300182242	6.901096299756318	1.0	5.8912558001466095	2	1	61	2	nogo_punish	1	-1	0	0	1	0	1	n/a	0.0	0	0.5903208996169269	1.0	1646.6737561998889	1646.703009299934	1647.7173998998478	1648.9908265997656	1650.5206681997515	1651.5451090997085	1652.5650120000355	1653.5748524996452	1654.5911288997158	1655.818663199898	2020-01-15 16:39:02.717794	-1.0851257320328	-3.30538509785153	-1.95943840275149	-2.52725346739208	-3.04456413478429	-1.95943840275149	1.0851257320328	-3.30538509785153	-1.95943840275149	-3.04456413478429	-1.95943840275149	-1.5628407182439403	-2.455759490930122	-3.5380489357246816	-2.0261092973110535	-3.1163620255880664	-4.785450403885082	-2.0261092973110535	-1.6213194830964492	-4.6336595960631275	-2.177900105133007	-3.9217026097804806	-1.6424556232552545	4	missed	0.0
9.156919799745083	8.065442400052916	nogo_punish	1.0	9.186172899790108	10.691685199737549	13.22824880015105	1.5055122999474406	10.193159400020022	12.208464299794286	16.28362450003624	0.49852579971752675	1.0197845003567636	0.9679907998067847	15.274489699862897	0.5441836998797953	14.246027399785817	2	1	62	2	nogo_punish	1	-1	0	0	0	1	0	0.0	1.0	0	1.0	0.5441836998797953	1646.6737561998889	1655.859929099679	1656.866915599909	1657.3654413996264	1658.8822204996832	1659.90200500004	1660.9197835996747	1661.9482458997518	1662.9573806999251	1663.925371499732	2020-01-15 16:39:02.717794	-0.222463709145203	-2.30480342607061	-1.95943840275149	-1.87883198357309	-1.73697469360629	-1.95943840275149	0.222463709145203	-1.95943840275149	-2.30480342607061	-1.95943840275149	-1.73697469360629	1.95943840275149	-1.593097468042525	-2.537467263943762	-2.0261092973110535	-2.4679405417690763	-3.477860962707082	-2.0261092973110535	1.900959637898981	-3.5485338640303272	-1.9554363959878072	-2.5757559146804407	-1.9878206465743746	4	correct	1.0
17.247657099738717	8.646139100193977	nogo_reward	1.0	17.276910199783742	19.20438880007714	21.73601089976728	1.927478600293398	18.278095900081098	20.71165189985186	24.797989499755204	0.9262928999960423	1.024358999915421	1.125059800222516	23.785890100058168	0.3749416996724903	22.747499799821526	2	1	63	4	nogo_reward	1	0	1	0	0	1	0	0.0	1.0	1	1.0	0.3749416996724903	1646.6737561998889	1663.9506663996726	1664.95185209997	1665.878144999966	1667.3854080997407	1668.4097670996562	1669.4212559997104	1670.459646299947	1671.471745699644	1672.5968054998666	2020-01-15 16:39:02.717794	-0.0009328235198249	0.601392212126031	3.67859970110613	3.21378710247914	3.67953252462595	3.67859970110613	0.0009328235198249	3.67859970110613	0.601392212126031	3.67859970110613	3.67953252462595	1.3387626842946196	-1.3715665824171468	0.3687283742528793	3.6119288065465667	2.6246785442831535	1.938646255525158	3.6119288065465667	1.2802839194421107	2.089504239827293	3.461070822244433	3.0622821891771794	0.9183749916222665	4	correct	1.0
25.938028499949723	8.611966900061816	nogo_punish	1.0	25.96728159999475	27.527726400177926	30.036876800004393	1.560444800183177	26.966405800078064	29.03456320008263	33.0850760997273	0.5613206000998616	1.002313599921763	1.494172400329262	32.084859100170206	0.2800474995747208	31.0531720998697	2	1	64	2	nogo_punish	1	-1	0	0	0	1	1	0.0	0.0	0	1.0	0.2800474995747208	1646.6737561998889	1672.6410377998836	1673.640161999967	1674.2014826000668	1675.7083193999715	1676.7106329998933	1677.7269282997586	1678.758615300059	1679.7588322996162	1681.2530046999454	2020-01-15 16:39:02.717794	0.143178721899681	-2.30480342607061	-1.39791033786848	-1.44940604473384	-1.54108905976816	-1.39791033786848	-0.143178721899681	-1.39791033786848	-2.30480342607061	-1.39791033786848	-1.54108905976816	1.39791033786848	-1.227455036997641	-2.537467263943762	-1.4645812324280434	-2.0385146029298262	-3.2819753288689517	-1.4645812324280434	1.3394315730159712	-2.987005799147317	-1.759550762149677	-2.0142278497974306	-1.9878206465743746	4	wrong	1.0
34.59794549969979	8.101666000205796	go_reward	0.3745865998789668	34.627198599744816	36.19789619976655	38.74945330014452	1.570697600021731	35.63623349973932	37.72964960010722	41.79935330012813	0.5616627000272274	1.0198037000373006	0.9295112998224795	40.78679289994761	0.4725342001765966	39.75985849974677	2	1	65	3	go_reward	0	0	1	1	1	1	0	0.0	1.0	0	0.3745865998789668	0.4725342001765966	1646.6737561998889	1681.3009547996337	1682.3099896996282	1682.8716523996554	1684.403405799996	1685.4232095000334	1686.4336146996357	1687.4605490998365	1688.473109500017	1689.4026207998395	2020-01-15 16:39:02.717794	7.52389522859494	4.59000310063456	0.0	3.15257910000864	7.52389522859494	0.0	-7.52389522859494	4.59000310063456	0.0	7.52389522859494	0.0	-4.59000310063456	6.153261469697618	4.357339262761408	-0.06667089455956333	2.5634705418126535	5.783008959494148	-0.06667089455956333	-4.648481865487068	5.934799767316103	-0.21846170238151708	3.973685588705609	0.31698277949623554	4	correct	1.0
42.74308939976618	8.72607360035181	go_reward	1.0	42.7723424998112	44.67527379980311	47.19785249978304	1.9029312999919057	43.77977930009342	46.17818860011175	50.2552160997875	0.8954944997096845	1.0196638996712863	1.2432000003755093	49.25010159984231	0.4535322999581694	48.215792399831116	2	1	66	3	go_reward	1	1	0	1	0	0	0	0.0	1.0	0	1.0	0.4535322999581694	1646.6737561998889	1689.4460986997	1690.4535354999823	1691.349029999692	1692.8519448000006	1693.871608699672	1694.88954859972	1695.9238577997312	1696.9289722996764	1698.172172300052	2020-01-15 16:39:02.717794	-5.60805836606726	3.17350795266129	0.0	2.27897216391039	5.60805836606726	0.0	5.60805836606726	0.0	3.17350795266129	0.0	5.60805836606726	0.0	-6.9786921249645815	2.9408441147881383	-0.06667089455956333	1.6898636057144039	3.867172096966468	-0.06667089455956333	-0.058478764852508885	-1.589095461278837	5.389596663685743	-0.6163175119289508	3.4904907321575256	4	correct	1.0
51.5111044999212	7.933744600042701	nogo_punish	0.708738200366497	51.54035759996623	53.01767939981073	55.5635661999695	1.4773217998445034	52.54768209997542	54.54840420000255	58.61433260003105	0.46999729983531324	1.0151619999669492	0.8597695999778807	57.60009740013629	0.4543917002156377	56.570895799901336	2	1	67	2	nogo_punish	1	-1	0	0	1	0	0	1.0	0.0	-1	0.708738200366497	0.4543917002156377	1646.6737561998889	1698.214113799855	1699.2214382998643	1699.6914355996996	1701.2221603998914	1702.2373223998584	1703.2446519997902	1704.2738536000252	1705.28808879992	1706.1478583998978	2020-01-15 16:39:02.717794	-0.373820789352045	-2.30480342607061	-1.03677208021878	-1.15208330582857	-1.41059286957083	-1.03677208021878	0.373820789352045	-2.30480342607061	-1.03677208021878	-1.41059286957083	-1.03677208021878	-2.56342239002486	-1.744454548249367	-2.537467263943762	-1.1034429747783434	-1.741191864024556	-3.151479138671622	-1.1034429747783434	-2.621901154877369	-2.999688330849667	-1.255233782600297	-2.921120937999561	-0.7197893007225445	4	wrong	1.0
59.47013039980084	10.003271200228482	nogo_reward	0.3479380998760462	59.49938349984586	62.47145560011268	64.98945950018242	2.9720721002668142	60.50682079978287	63.97812550002709	68.04118129983544	1.9646348003298044	1.0113340001553297	1.4614734002389014	67.0282485997302	0.6593358996324241	65.9991044001656	2	1	68	4	nogo_reward	1	0	1	0	1	0	0	0.0	1.0	0	0.3479380998760462	0.6593358996324241	1646.6737561998889	1706.1731396997347	1707.1805769996718	1709.1452118000016	1710.651881699916	1711.6632157000713	1712.6728606000545	1713.702004799619	1714.7149374997243	1716.1764108999632	2020-01-15 16:39:02.717794	-0.0077457658107154	0.601392212126031	3.89882305447639	3.60304138744236	3.89107728866567	3.89882305447639	0.0077457658107154	0.601392212126031	3.89882305447639	3.89107728866567	3.89882305447639	-0.601392212126031	-1.3783795247080373	0.3687283742528793	3.8321521599168267	3.013932829246374	2.150191019564878	3.8321521599168267	-0.6598709769785399	2.3019818273868333	3.6803613520948733	-0.01492529980291979	4.215805833972626	4	correct	1.0
69.50107599981129	8.676057900301885	go_punish	0.752808999735862	69.53032909985632	71.18459929991513	73.74369690008461	1.6542702000588179	70.5294090998359	72.72395069990307	76.80620170012116	0.6551902000792325	1.0197462001815438	1.4001853000370375	75.79401900013909	0.5142497001215816	74.7632375000976	2	1	69	1	go_punish	1	0	-1	1	1	1	0	0.0	1.0	0	0.752808999735862	0.5142497001215816	1646.6737561998889	1716.2040852997452	1717.2031652997248	1717.858355499804	1719.397706899792	1720.4174530999735	1721.4369936999865	1722.467775200028	1723.47995790001	1724.880143200047	2020-01-15 16:39:02.717794	2.56950009931813	-0.45774671454637	-2.04607731027941	-0.797287163082967	0.523422789038717	-2.04607731027941	-2.56950009931813	-0.45774671454637	-2.04607731027941	0.523422789038717	-2.04607731027941	0.45774671454637	1.198866340420808	-0.6904105524195217	-2.1127482048389736	-1.3863957212789533	-1.217463480062075	-2.1127482048389736	0.39926794969386115	-1.0656726722401202	-2.264539012660927	-1.0740642264753208	-1.7290945307831747	4	correct	1.0
78.20353830000386	9.197394299786538	go_punish	0.3149542002938688	78.23279140004888	81.07641489990056	83.61825389973819	2.843623499851674	79.2515031998048	82.60422739991918	86.65540440008022	1.824911700095754	1.0140264998190105	0.7747812997552046	85.65653409995161	0.9121636999771	84.63106800010428	2	1	70	1	go_punish	1	0	-1	1	1	1	0	0.0	1.0	0	0.3149542002938688	0.9121636999771	1646.6737561998889	1724.9065475999378	1725.9252593996937	1727.7501710997894	1729.277983599808	1730.292010099627	1731.3048241999932	1732.3302902998405	1733.329160599969	1734.1039418997243	2020-01-15 16:39:02.717794	2.76498070836277	-0.347013303592847	-2.04607731027941	-0.612081882216691	0.718903398083361	-2.04607731027941	-2.76498070836277	-0.347013303592847	-2.04607731027941	0.718903398083361	-2.04607731027941	0.347013303592847	1.3943469494654483	-0.5796771414659987	-2.1127482048389736	-1.2011904404126772	-1.0219828710174308	-2.1127482048389736	0.2885345387403381	-0.870192063195476	-2.264539012660927	-0.9633308155217978	-1.7290945307831747	4	correct	1.0
87.42625769972801	8.15031210007146	go_punish	1.0	87.45551079977304	88.84332219976932	91.37427170015872	1.3878113999962807	88.4534787000157	90.3545230999589	94.4182041999884	0.3898434997536242	1.0197486001998186	1.1876186998561025	93.405337099917	0.4756237003020942	92.39276359975361	2	1	71	1	go_punish	0	-1	0	1	0	0	1	1.0	1.0	0	1.0	0.4756237003020942	1646.6737561998889	1734.129266999662	1735.1272348999046	1735.5170783996582	1737.0282792998478	1738.0480279000476	1739.0665197996425	1740.079093299806	1741.0919603998773	1742.2795790997334	2020-01-15 16:39:02.717794	-2.89753416629661	-0.271210503640028	-2.04607731027941	-0.483552414083424	0.851456856017196	-2.04607731027941	2.89753416629661	-2.04607731027941	-0.271210503640028	-2.04607731027941	0.851456856017196	2.04607731027941	-4.268167925193932	-0.5038743415131797	-2.1127482048389736	-1.0726609722794103	-0.8894294130835958	-2.1127482048389736	1.9875985454269012	-3.6351727715582474	0.6329951536356789	-2.662394822208361	0.04577227585620752	4	correct	1.0
95.62195219984278	8.135187400039285	nogo_punish	1.0	95.6512052998878	97.36735459975921	99.88387819984928	1.7161492998714039	96.65645809983835	98.87341379979625	102.9492954001762	0.7108964999208638	1.0104644000530243	0.8370972997508943	101.93663839995861	0.2821649997495115	100.90732409991301	2	1	72	2	nogo_punish	1	-1	0	0	0	1	0	0.0	1.0	0	1.0	0.2821649997495115	1646.6737561998889	1742.3249614997767	1743.3302142997272	1744.041110799648	1745.5471699996851	1746.5576343997382	1747.581080299802	1748.6103945998475	1749.623051600065	1750.460148899816	2020-01-15 16:39:02.717794	1.50172869559318	-2.92805532204871	-1.03677208021878	-2.1822174157877	-2.53850077581196	-1.03677208021878	-1.50172869559318	-1.03677208021878	-2.92805532204871	-1.03677208021878	-2.53850077581196	1.03677208021878	0.13109493669585803	-3.160719159921862	-1.1034429747783434	-2.771325973983686	-4.279387044912752	-1.1034429747783434	0.9782933153662712	-2.625867541497617	-2.756962478193477	-1.6530895921477309	-2.6110725425524746	4	correct	1.0
103.78250900004059	9.390842199790995	nogo_reward	1.0	103.81176210008562	106.33890749979741	108.87552719982341	2.5271453997117987	104.8216166999191	107.85169669985771	111.92789339972683	1.5172907998783103	1.0238304999656975	1.2747109001497847	110.91672019986436	0.4718209998682141	109.88266910007223	2	1	73	4	nogo_reward	1	0	1	0	0	1	0	0.0	1.0	1	1.0	0.4718209998682141	1646.6737561998889	1750.4855182999745	1751.495372899808	1753.0126636996863	1754.5254528997466	1755.5492833997123	1756.5564252999611	1757.5904763997532	1758.6016495996157	1759.8763604997655	2020-01-15 16:39:02.717794	0.895457687187035	0.415417871725113	3.89882305447639	2.41852028563611	3.00336536728935	3.89882305447639	-0.895457687187035	3.89882305447639	0.415417871725113	3.89882305447639	3.00336536728935	1.1185393309243596	-0.47517607171028686	0.18275403385196134	3.8321521599168267	1.8294117274401236	1.2624790981885583	3.8321521599168267	1.0600605660718507	2.309727593197553	2.784903664907833	3.2825055425474394	0.7324006512213486	4	correct	1.0
113.22038749977946	8.70203430019319	nogo_punish	1.0	113.24964059982449	114.89936209982261	117.42858179984614	1.6497214999981225	114.2534115999008	116.40771699976176	120.46394160017371	0.6459504999218098	1.0208648000843823	1.487733299843967	119.45854480005801	0.4052099999971688	118.44031130010262	2	1	74	2	nogo_punish	1	-1	0	0	0	1	1	0.0	0.0	0	1.0	0.4052099999971688	1646.6737561998889	1759.9233967997134	1760.9271677997897	1761.5731182997115	1763.0814731996506	1764.102337999735	1765.1140674999915	1766.132300999947	1767.1376978000626	1768.6254310999066	2020-01-15 16:39:02.717794	1.45311888509537	-2.92805532204871	-0.794083492317476	-1.5824980074784	-2.24720237741285	-0.794083492317476	-1.45311888509537	-0.794083492317476	-2.92805532204871	-0.794083492317476	-2.24720237741285	0.794083492317476	0.08248512619804815	-3.160719159921862	-0.8607543868770393	-2.171606565674386	-3.988088646513642	-0.8607543868770393	0.7356047274649671	-2.383178953596313	-2.465664079794367	-1.4104010042464268	-2.6110725425524746	4	wrong	1.0
121.95357570005558	9.584144799970318	go_punish	0.2964671999216079	121.9828288001006	124.75194009998813	127.31169730005786	2.769111299887527	122.98682289989665	126.28842049976811	130.34893599990755	1.7651172000914812	1.02327680028975	1.2180376001633704	129.33915759995602	0.6622330001555383	128.32725430000573	2	1	75	1	go_punish	0	-1	0	1	1	1	0	1.0	0.0	-1	0.2964671999216079	0.6622330001555383	1646.6737561998889	1768.6565849999895	1769.6605790997855	1771.425696299877	1772.962176699657	1773.9854534999467	1775.0010104998946	1776.012913799845	1777.0226921997964	1778.2407297999598	2020-01-15 16:39:02.717794	2.24010073189461	-0.271210503640028	-1.34938488148599	-0.391296445568676	0.890715850408616	-1.34938488148599	-2.24010073189461	-0.271210503640028	-1.34938488148599	0.890715850408616	-1.34938488148599	-4.597015312455442	0.8694669729972879	-0.5038743415131797	-1.4160557760455532	-0.9804050037646621	-0.8501704186921758	-1.4160557760455532	-4.65549407730795	-0.698379610870221	-1.567846583867507	-0.8875280155689789	-1.0324021019897542	4	wrong	1.0
131.56287320004776	9.098092699889094	nogo_reward	0.5285907997749746	131.5921263000928	134.035780900158	136.5967779001221	2.4436546000652015	132.591807299759	135.57290090015158	139.64354819990695	1.4439736003989765	1.0238769999705255	1.046670800074935	138.6395712997762	0.6727948002517223	137.61061700014398	2	1	76	4	nogo_reward	0	1	0	0	1	0	0	0.0	1.0	1	0.5285907997749746	0.6727948002517223	1646.6737561998889	1778.2658824999817	1779.265563499648	1780.7095371000469	1782.2466571000405	1783.270534100011	1784.2843732000329	1785.313327499665	1786.3173043997958	1787.3639751998708	2020-01-15 16:39:02.717794	-0.63434331511999	0.415417871725113	4.06621311996873	3.15714141937094	3.43186980484874	4.06621311996873	0.63434331511999	0.415417871725113	4.06621311996873	3.43186980484874	4.06621311996873	4.601944513675637	-2.0049770740173116	0.18275403385196134	3.999542225409167	2.5680328611749537	1.6909835357479481	3.999542225409167	4.543465748823128	1.8427743435699029	3.8477514175872134	-0.20089964020383777	4.383195899464966	4	correct	1.0
140.68653750000522	9.2489939997904	nogo_reward	0.2916153999976814	140.71579060005024	143.45885289972648	145.997553399764	2.7430622996762395	141.7256378000602	144.99184279982	149.0426504998468	1.7332150996662676	1.0057105999439955	0.9221340999938548	148.0300674000755	0.497694100253284	147.0128751997836	2	1	77	4	nogo_reward	0	1	0	0	1	0	0	0.0	1.0	1	0.2916153999976814	0.497694100253284	1646.6737561998889	1787.3895467999391	1788.399393999949	1790.1326090996154	1791.665598999709	1792.671309599653	1793.6866313996725	1794.7038235999644	1795.7164066997357	1796.6385407997295	2020-01-15 16:39:02.717794	0.956790340989764	1.75189682704404	4.06621311996873	3.61051787999094	5.02300346095849	4.06621311996873	-0.956790340989764	1.75189682704404	4.06621311996873	5.02300346095849	4.06621311996873	3.26546555835671	-0.41384341790755785	1.5192329891708884	3.999542225409167	3.0214093217949536	3.282117191857698	3.999542225409167	3.206986793504201	3.4339079996796533	3.8477514175872134	1.1355793151150892	4.383195899464966	4	correct	1.0
149.98230759985745	9.276536100078147	nogo_punish	1.0	150.01156069990247	152.48970119981095	155.02371380012482	2.478140499908477	151.02173830009997	154.0033966000192	158.07642909977585	1.467962899710983	1.0203172001056373	1.2116677002047709	157.0632727001796	0.5323487999849021	156.0331390001811	2	1	78	2	nogo_punish	1	-1	0	0	0	1	0	1.0	0.0	0	1.0	0.5323487999849021	1646.6737561998889	1796.6853168997914	1797.6954944999889	1799.1634573996998	1800.677152799908	1801.6974700000137	1802.70689520007	1803.7370289000685	1804.7501852996647	1805.9618529998695	2020-01-15 16:39:02.717794	1.44749960115752	-2.92805532204871	-0.624891060455426	-1.20664048723688	-2.07239066161294	-0.624891060455426	-1.44749960115752	-0.624891060455426	-2.92805532204871	-0.624891060455426	-2.07239066161294	0.624891060455426	0.07686584226019821	-3.160719159921862	-0.6915619550149893	-1.7957490454328662	-3.813276930713732	-0.6915619550149893	0.5664122956029171	-2.213986521734263	-2.290852363994457	-1.2412085723843767	-2.6110725425524746	4	wrong	1.0
159.2830600999298	8.402113200165104	nogo_reward	0.4331628000363707	159.31231319997482	161.16422019992	163.7144570001401	1.8519069999451858	160.32039819983743	162.69491109997034	166.75882739992812	0.8438220000825822	1.01954590016976	0.9555990002118051	165.7567451000216	0.5372740998864174	164.73888859990984	2	1	79	4	nogo_reward	1	0	1	0	1	0	1	0.0	0.0	0	0.4331628000363707	0.5372740998864174	1646.6737561998889	1805.9860693998637	1806.9941543997263	1807.837976399809	1809.3686672998592	1810.388213200029	1811.4126447997987	1812.4305012999105	1813.432583599817	1814.3881826000288	2020-01-15 16:39:02.717794	1.95036741059889	2.58427626186864	4.06621311996873	3.90763456926324	6.01658053056762	4.06621311996873	-1.95036741059889	2.58427626186864	4.06621311996873	6.01658053056762	4.06621311996873	-2.58427626186864	0.5797336517015681	2.3516124239954883	3.999542225409167	3.3185260110672536	4.275694261466828	3.999542225409167	-2.642755026721149	4.4274850692887835	3.8477514175872134	1.9679587499396893	4.383195899464966	4	wrong	1.0
167.73175969999284	9.304619099945285	nogo_punish	1.0	167.76101280003786	170.48706019995757	173.02219739975408	2.7260473999197075	168.77141309995204	172.0023556998931	176.08774129999802	1.7156471000055262	1.01984169986099	0.9778905999851304	175.06878129998222	0.2645609998144209	174.03991039982043	2	1	80	2	nogo_punish	1	-1	0	0	0	1	1	0.0	0.0	0	1.0	0.2645609998144209	1646.6737561998889	1814.4347689999267	1815.445169299841	1817.1608163998465	1818.676111899782	1819.695953599643	1820.7136665997093	1821.742537499871	1822.761497499887	1823.739388099872	2020-01-15 16:39:02.717794	1.45756199109198	-2.92805532204871	-0.503165847645457	-0.95559854353909	-1.96072783873743	-0.503165847645457	-1.45756199109198	-0.503165847645457	-2.92805532204871	-0.503165847645457	-1.96072783873743	0.503165847645457	0.08692823219465806	-3.160719159921862	-0.5698367422050203	-1.5447071017350762	-3.701614107838222	-0.5698367422050203	0.4446870827929481	-2.092261308924294	-2.179189541118947	-1.1194833595744078	-2.6110725425524746	4	wrong	1.0
177.06222750013694	8.953637499827892	go_punish	0.3000958999618888	177.09148060018197	179.66943399980664	182.2046769000592	2.5779533996246755	178.10223119985312	181.19305060012266	185.2382661001759	1.5672027999535203	1.0116262999365517	0.8068519998339525	184.23607379989676	0.320917900186032	183.22358539979905	2	1	81	1	go_punish	1	0	-1	1	1	1	0	0.0	1.0	0	0.3000958999618888	0.320917900186032	1646.6737561998889	1823.7652368000709	1824.775987399742	1826.3431901996955	1827.8668068000115	1828.878433099948	1829.897341599688	1830.9098299997856	1831.9120223000648	1832.7188742998987	2020-01-15 16:39:02.717794	0.48329503608826	-1.46118508266391	-1.34938488148599	-1.56684803302424	-0.866089845397732	-1.34938488148599	-0.48329503608826	-1.46118508266391	-1.34938488148599	-0.866089845397732	-1.34938488148599	1.46118508266391	-0.8873387228090619	-1.6938489205370615	-1.4160557760455532	-2.1559565912202263	-2.606976114498524	-1.4160557760455532	1.402706317811401	-2.455185306676569	-1.567846583867507	-2.0775025945928607	-1.0324021019897542	4	correct	1.0
186.06152899982408	7.934632200282067	go_reward	0.4396438002586365	186.0907820998691	187.42390269972384	189.97073099995032	1.3331205998547375	187.09620309993602	188.9550219997759	193.0317094000054	0.32769959978782026	1.015709000174411	0.9937049001457581	192.0191732998935	0.4560060002841055	190.98954480001703	2	1	82	3	go_reward	1	1	0	1	1	1	0	0.0	1.0	1	0.4396438002586365	0.4560060002841055	1646.6737561998889	1832.764538299758	1833.769959299825	1834.0976588996127	1835.6287781996648	1836.6444871998392	1837.663300999906	1838.6929294997824	1839.7054655998943	1840.69917050004	2020-01-15 16:39:02.717794	5.29031245994813	3.17350795266129	0.0	1.70892317592044	5.29031245994813	0.0	-5.29031245994813	3.17350795266129	0.0	5.29031245994813	0.0	1.8438544327394597	3.9196787010508087	2.9408441147881383	-0.06667089455956333	1.1198146177244537	3.5494261908473383	-0.06667089455956333	1.7853756678869508	3.7012169986692935	-0.21846170238151708	2.5571904407323394	0.31698277949623554	4	correct	1.0
194.03904039971485	8.723899700213678	nogo_punish	1.0	194.06829349975987	196.0234468998392	198.543480999768	1.9551534000793254	195.07591579994187	197.5336648998782	201.579803599976	0.9475310998973328	1.0098160998898038	1.2123895999975502	200.56681270012632	0.3367195995524525	199.55276860017352	2	1	83	2	nogo_punish	1	-1	0	0	0	1	0	1.0	0.0	0	1.0	0.3367195995524525	1646.6737561998889	1840.7420496996488	1841.7496719998308	1842.697203099728	1844.207421099767	1845.217237199657	1846.2265248000624	1847.2405689000152	1848.253559799865	1849.4659493998624	2020-01-15 16:39:02.717794	1.47268075739708	-2.92805532204871	-0.413161013059767	-0.779366571191575	-1.88584177045684	-0.413161013059767	-1.47268075739708	-0.413161013059767	-2.92805532204871	-0.413161013059767	-1.88584177045684	0.413161013059767	0.10204699849975807	-3.160719159921862	-0.4798319076193303	-1.3684751293875612	-3.626728039557632	-0.4798319076193303	0.35468224820725813	-2.002256474338604	-2.104303472838357	-1.0294785249887177	-2.6110725425524746	4	wrong	1.0
202.80807209992759	8.332103800029017	go_reward	0.3810545997694134	202.8373251999726	204.18626089999475	206.74773770011961	1.348935700022139	203.84310870012314	205.72376069985353	209.77850349992514	0.3431521998716107	1.0239770002660862	1.3909255000764915	208.77433650009357	0.6603256002999842	207.76124130003154	2	1	84	3	go_reward	1	1	0	1	1	1	1	1.0	1.0	1	0.3810545997694134	0.6603256002999842	1646.6737561998889	1849.5110813998615	1850.516864900012	1850.8600170998836	1852.3975168997424	1853.4214939000085	1854.4349974999204	1855.4480926999825	1856.452259699814	1857.8431851998905	2020-01-15 16:39:02.717794	6.4998121548703	3.75038087851708	0.0	2.77498693885761	6.4998121548703	0.0	-6.4998121548703	3.75038087851708	0.0	6.4998121548703	0.0	1.26698150688367	5.129178395972978	3.517717040643928	-0.06667089455956333	2.1858783806616238	4.758925885769508	-0.06667089455956333	1.2085027420311611	4.910716693591463	-0.21846170238151708	3.134063366588129	0.31698277949623554	4	correct	1.0
211.1680517997588	8.714022700209625	go_punish	0.3933612001128495	211.19730489980384	213.55400170013309	216.08572679990903	2.356696800329246	212.20460049994313	215.07532580010593	219.144784200005	1.3494012001899591	1.010400999803096	0.7665434000084588	218.13190519995987	0.7956456998363137	217.1048328001052	2	1	85	1	go_punish	1	0	-1	1	1	1	0	0.0	1.0	0	0.3933612001128495	0.7956456998363137	1646.6737561998889	1857.8710610996927	1858.878356699832	1860.227757900022	1861.7490819999948	1862.759482999798	1863.778588999994	1864.8056613998488	1865.818540399894	1866.5850837999023	2020-01-15 16:39:02.717794	1.211510826398	-0.980485737819913	-1.34938488148599	-1.07376505075068	-0.137874055087989	-1.34938488148599	-1.211510826398	-0.980485737819913	-1.34938488148599	-0.137874055087989	-1.34938488148599	0.980485737819913	-0.15912293249932197	-1.2131495756930646	-1.4160557760455532	-1.6628736089466662	-1.878760324188781	-1.4160557760455532	0.9220069729674041	-1.7269695163668262	-1.567846583867507	-1.5968032497488638	-1.0324021019897542	4	correct	1.0
219.91010899981484	8.436995800119348	go_punish	0.3662208998575806	219.93936209985986	221.296191399917	223.84695190005004	1.356829300057143	220.93701579980552	222.8270058999767	226.91452080011345	0.3591756001114845	1.0199460000733325	1.461837099865761	225.90124789997913	0.3124123997986316	224.87214089976624	2	1	86	1	go_punish	1	0	-1	1	1	1	0	1.0	0.0	0	0.3662208998575806	0.3124123997986316	1646.6737561998889	1866.6131182997487	1867.6107719996944	1867.969947599806	1869.5007620998656	1870.520708099939	1871.5458970996551	1872.575004099868	1873.5882770000023	1875.050114099868	2020-01-15 16:39:02.717794	1.63942687011834	-0.695662879248604	-1.34938488148599	-0.778382461698007	0.290041988632349	-1.34938488148599	-1.63942687011834	-0.695662879248604	-1.34938488148599	0.290041988632349	-1.34938488148599	0.695662879248604	0.26879311122101823	-0.9283267171217557	-1.4160557760455532	-1.3674910198939931	-1.4508442804684427	-1.4160557760455532	0.6371841143960951	-1.299053472646488	-1.567846583867507	-1.311980391177555	-1.0324021019897542	4	wrong	1.0
228.394356899895	9.859518900047988	nogo_punish	1.0	228.42360999994003	231.1877052001655	233.72258460009516	2.7640952002254835	229.42456279974385	232.7031056997364	236.7882893998176	1.763142400421657	1.019478900358763	1.4948395001704284	235.77512700017542	0.3277847999706864	234.7417699997311	2	1	87	2	nogo_punish	1	-1	0	0	0	1	0	0.0	1.0	0	1.0	0.3277847999706864	1646.6737561998889	1875.097366199829	1876.0983189996327	1877.8614614000544	1879.3768618996253	1880.396340799984	1881.41552619962	1882.4488832000643	1883.4620455997065	1884.956885099877	2020-01-15 16:39:02.717794	1.48858630494497	-2.92805532204871	-0.344991843505841	-0.650562228003587	-1.83357814845081	-0.344991843505841	-1.48858630494497	-0.344991843505841	-2.92805532204871	-0.344991843505841	-1.83357814845081	0.344991843505841	0.11795254604764804	-3.160719159921862	-0.4116627380654043	-1.2396707861995733	-3.574464417551602	-0.4116627380654043	0.2865130786533321	-1.934087304784678	-2.052039850832327	-0.9613093554347918	-2.6110725425524746	4	correct	1.0
238.279567599762	8.727985800244142	nogo_reward	0.3068237998522818	238.30882069980703	240.48564169974998	243.0384742999447	2.1768209999429473	239.31844169972442	242.01446270011343	246.07467829994835	1.1672000000255593	1.024011599831283	0.9621282001028248	245.0647229999306	0.5196411004289985	244.051782099996	2	1	88	4	nogo_reward	0	1	0	0	1	0	0	0.0	1.0	1	0.3068237998522818	0.5196411004289985	1646.6737561998889	1884.982576899696	1885.9921978996133	1887.1593978996389	1888.6882189000023	1889.7122304998336	1890.7255382998849	1891.7384791998195	1892.7484344998372	1893.71056269994	2020-01-15 16:39:02.717794	0.308678307579762	1.67867506782931	4.06621311996873	2.65855481004392	4.37489142754849	4.06621311996873	-0.308678307579762	1.67867506782931	4.06621311996873	4.37489142754849	4.06621311996873	3.3386873175714396	-1.06195545131756	1.4460112299561585	3.999542225409167	2.0694462518479337	2.634005158447698	3.999542225409167	3.2802085527189306	2.785795966269653	3.8477514175872134	1.0623575559003593	4.383195899464966	4	correct	1.0
247.03518350003287	9.057926800101995	go_punish	0.2532502999529242	247.0644366000779	249.10903650010005	251.66149260010548	2.044599900022149	248.07203899975866	250.63712009973824	254.71645659999922	1.0369975003413856	1.0243725003672353	1.4059068001806736	253.70368519984186	0.6266521001234651	252.67479409975908	2	1	89	1	go_punish	0	-1	0	1	1	1	0	0.0	1.0	-1	0.2532502999529242	0.6266521001234651	1646.6737561998889	1893.7381927999668	1894.7457951996475	1895.782792699989	1897.3108762996271	1898.3352487999944	1899.348550299648	1900.3774413997307	1901.390212799888	1902.7961196000688	2020-01-15 16:39:02.717794	1.90731639043242	-0.515877416365032	-1.34938488148599	-0.589594924730777	0.55793150894643	-1.34938488148599	-1.90731639043242	-0.515877416365032	-1.34938488148599	0.55793150894643	-1.34938488148599	-4.352348399730438	0.5366826315350981	-0.7485412542381837	-1.4160557760455532	-1.178703482926763	-1.1829547601543617	-1.4160557760455532	-4.410827164582947	-1.031163952332407	-1.567846583867507	-1.1321949282939827	-1.0324021019897542	4	correct	1.0
256.13666709978133	8.60456839995436	nogo_punish	0.3335760999470949	256.16592019982636	258.17501679994143	260.7114017000422	2.009096600115072	257.1750706001187	259.6949936999008	263.76492269989103	0.9999461998227162	1.0164080001413822	1.0055658998896888	262.7581726000644	0.5024668998084962	261.72607519989833	2	1	90	2	nogo_punish	1	-1	0	0	1	0	0	0.0	1.0	-1	0.3335760999470949	0.5024668998084962	1646.6737561998889	1902.8396763997152	1903.8488268000076	1904.8487729998303	1906.3687498997897	1907.385157899931	1908.3998313997872	1909.4319287999533	1910.43867889978	1911.4442447996696	2020-01-15 16:39:02.717794	-1.5036078044891	-2.92805532204871	-0.292252621277824	-0.553232760563603	-1.79586042576693	-0.292252621277824	1.5036078044891	-2.92805532204871	-0.292252621277824	-1.79586042576693	-0.292252621277824	-1.9401704940467601	-2.8742415633864216	-3.160719159921862	-0.3589235158373873	-1.1423413187595892	-3.5367466948677215	-0.3589235158373873	-1.998649258899269	-3.384955887045767	-0.510714323659341	-3.544372833977661	0.02473015821841157	4	correct	1.0
264.76710380008444	8.452974099665653	nogo_reward	0.4395399000495672	264.79635690012947	266.77298709983006	269.324057199992	1.976630199700594	265.79700289992616	268.30430290009826	272.3496170998551	0.9759841999039054	1.0197542998937479	0.8997138999400249	271.3404002999887	0.4014538000337779	270.3210852001796	2	1	91	4	nogo_reward	1	0	1	0	1	0	0	0.0	1.0	0	0.4395399000495672	0.4014538000337779	1646.6737561998889	1911.4701131000184	1912.470759099815	1913.446743299719	1914.9780590999871	1915.997813399881	1916.9948414000685	1918.0141564998776	1919.023373299744	1919.923087199684	2020-01-15 16:39:02.717794	1.63563088777414	2.60125976413883	4.06621311996873	3.3505493297634	5.70184400774287	4.06621311996873	-1.63563088777414	2.60125976413883	4.06621311996873	5.70184400774287	4.06621311996873	-2.60125976413883	0.26499712887681803	2.3685959262656784	3.999542225409167	2.761440771567414	3.960957738642078	3.999542225409167	-2.659738528991339	4.112748546464033	3.8477514175872134	1.9849422522098794	4.383195899464966	4	correct	1.0
273.24535159999505	8.063331699930131	nogo_reward	0.6247061998583376	273.2746047000401	274.7058091000656	277.2629400999283	1.4312044000255355	274.28452849993505	276.2424047999084	280.3115679998882	0.421280600130558	1.0205353000199011	1.0263684000819921	279.3069750000718	0.6271696002222598	278.273392399773	2	1	92	4	nogo_reward	1	0	1	0	1	0	0	0.0	1.0	0	0.6247061998583376	0.6271696002222598	1646.6737561998889	1919.948360899929	1920.958284699824	1921.3795652999545	1922.9161609997973	1923.9366962998172	1924.947148599662	1925.9807311999607	1926.985324199777	1928.011692599859	2020-01-15 16:39:02.717794	0.154866307889081	1.72659012787818	4.06621311996873	2.31518618846677	4.22107942785781	4.06621311996873	-0.154866307889081	1.72659012787818	4.06621311996873	4.22107942785781	4.06621311996873	-1.72659012787818	-1.2157674510082408	1.4939262900050283	3.999542225409167	1.7260776302707836	2.480193158757018	3.999542225409167	-1.7850688927306888	2.6319839665789733	3.8477514175872134	1.110272615949229	4.383195899464966	4	correct	1.0
281.3398885997012	8.745848400052864	nogo_reward	1.0	281.36914169974625	283.4277273998596	285.96598620014265	2.0585857001133263	282.38073890004307	284.9430109001696	289.00633590016514	1.046988499816507	1.0229752999730408	1.1086541996339747	287.9922941001132	0.4462562999688089	286.9790952997282	2	1	93	4	nogo_reward	1	0	1	0	0	1	1	0.0	0.0	1	1.0	0.4462562999688089	1646.6737561998889	1928.0428978996351	1929.054495099932	1930.1014835997485	1931.6167671000585	1932.6397424000315	1933.652851499617	1934.666050300002	1935.680092100054	1936.788746299688	2020-01-15 16:39:02.717794	0.733567294375813	1.20315568113803	4.06621311996873	1.67615991214825	3.33264582559292	4.06621311996873	-0.733567294375813	4.06621311996873	1.20315568113803	4.06621311996873	3.33264582559292	0.9511492654320195	-0.6370664645215088	0.9704918432648783	3.999542225409167	1.0870513539522637	1.5917595564921283	3.999542225409167	0.8926705005795106	2.4771176586898935	3.114184123211403	3.4498956080397796	1.5201384606342656	4	wrong	1.0
290.11019450007007	9.122456599958468	nogo_reward	1.0	290.1394476001151	292.7615438997748	295.2794603998775	2.622096299659688	291.1531863999551	294.26579859992466	298.3308866000734	1.6083574998197037	1.0136617999528426	0.931017600000132	297.3123086998239	0.6488709999248385	296.29259420000017	2	1	94	4	nogo_reward	0	1	0	0	0	1	1	1.0	1.0	0	1.0	0.6488709999248385	1646.6737561998889	1936.813203800004	1937.826942599844	1939.4353000996637	1940.9395547998135	1941.9532165997664	1942.966350399889	1943.9860648997128	1945.0046427999623	1945.9356603999624	2020-01-15 16:39:02.717794	0.252456751008598	1.20315568113803	4.19650268196898	2.71366554155852	3.94404593096038	4.19650268196898	-0.252456751008598	4.19650268196898	1.20315568113803	4.19650268196898	3.94404593096038	-4.19650268196898	-1.1181770078887239	0.9704918432648783	4.129831787409416	2.1245569833625337	2.203159661859588	4.129831787409416	-4.254981446821488	2.607407220690143	3.725584228578863	3.580185170040029	1.5201384606342656	4	correct	1.0
299.25626099994406	9.58130839979276	nogo_reward	0.2990125003270805	299.2855140999891	302.0454979999922	304.59670899994717	2.759983900003135	300.29286459973105	303.57591919973515	307.62323800008744	1.7526334002611748	1.0207898002120146	1.243584499694407	306.6176702999512	0.5823874999769032	305.6030779001303	2	1	95	4	nogo_reward	1	0	1	0	1	0	1	1.0	1.0	0	0.2990125003270805	0.5823874999769032	1646.6737561998889	1945.959270299878	1946.96662079962	1948.719254199881	1950.249675399624	1951.270465199836	1952.2768341000192	1953.29142649984	1954.2969941999763	1955.5405786996707	2020-01-15 16:39:02.717794	0.614392588482855	1.20315568113803	2.84588532086706	1.8856514750344	3.46027790934991	2.84588532086706	-0.614392588482855	1.20315568113803	2.84588532086706	3.46027790934991	2.84588532086706	-1.20315568113803	-0.7562411704144668	0.9704918432648783	2.7792144263074965	1.2965429168384137	1.7193916402491183	2.7792144263074965	-1.2616344459905389	1.871182448071073	2.627423618485543	0.5868381692090792	3.1628681003632955	4	correct	1.0
308.8648290000856	8.253315299749374	go_punish	0.2863683998584747	308.8940821001306	310.6640357999131	313.2049222998321	1.7699536997824907	309.8914649998767	312.18468890013196	316.232247099746	0.7725708000364193	1.020233399700146	0.9151503001339734	315.22871309984475	0.4588740998879075	314.2166321999391	2	1	96	1	go_punish	1	0	-1	1	1	1	0	0.0	1.0	0	0.2863683998584747	0.4588740998879075	1646.6737561998889	1955.5678383000195	1956.5652211997656	1957.337791999802	1958.8584451000208	1959.878678499721	1960.890388399828	1961.9024692997336	1962.906003299635	1963.8211535997689	2020-01-15 16:39:02.717794	0.245138814846756	-1.64028150925565	-1.34938488148599	-1.70630149359742	-1.10424606663924	-1.34938488148599	-0.245138814846756	-1.64028150925565	-1.34938488148599	-1.10424606663924	-1.34938488148599	1.64028150925565	-1.125494944050566	-1.8729453471288016	-1.4160557760455532	-2.295410051793406	-2.8451323357400318	-1.4160557760455532	1.581802744403141	-2.693341527918077	-1.567846583867507	-2.2565990211846008	-1.0324021019897542	4	correct	1.0
317.14547709981	8.792430300265323	go_punish	1.0	317.17473019985505	318.9651156999171	321.4865688998252	1.7903855000620297	318.1827528998256	320.4753511999736	324.54582680016756	0.782362800091505	1.0112176998516134	1.421333699952811	323.5328080998736	0.4648217996582389	322.5036849998871	2	1	97	1	go_punish	0	-1	0	1	0	0	0	0.0	1.0	0	1.0	0.4648217996582389	1646.6737561998889	1963.848486399744	1964.8565090997145	1965.638871899806	1967.1491073998625	1968.160325099714	1969.177441199776	1970.2065642997625	1971.2195830000564	1972.6409167000093	2020-01-15 16:39:02.717794	-1.03463448763151	-1.11632481404301	-1.34938488148599	-1.17573198062671	-0.314750393854483	-1.34938488148599	1.03463448763151	-1.34938488148599	-1.11632481404301	-1.34938488148599	-0.314750393854483	1.34938488148599	-2.4052682465288315	-1.3489886519161616	-1.4160557760455532	-1.7648405388226962	-2.055636662955275	-1.4160557760455532	1.290906116633481	-2.938480342764827	-0.5332120962360001	-1.9657023934149407	-0.7993420345467744	4	correct	1.0
325.9855776000768	8.739816199988127	nogo_punish	1.0	326.0148307001218	327.7240070998671	330.2421170999296	1.7091763997452745	327.0245225001124	329.2310365997255	333.27729499991983	0.699484599754669	1.011080500204116	1.477351900190115	332.2604014999231	1.0	331.2520294999706	2	1	98	2	nogo_punish	1	-1	0	0	0	1	0	n/a	0.0	0	1.0	1.0	1646.6737561998889	1972.6885869000107	1973.6982787000013	1974.397763299756	1975.9047927996144	1976.9158732998185	1977.9257856998595	1978.934157699812	1979.9510511998087	1981.4284030999988	2020-01-15 16:39:02.717794	2.46630747041124	-3.32399430459576	-0.292252621277824	-1.72134160054327	-2.75856009168907	-0.292252621277824	-2.46630747041124	-0.292252621277824	-3.32399430459576	-0.292252621277824	-2.75856009168907	0.292252621277824	1.0956737115139183	-3.556658142468912	-0.3589235158373873	-2.3104501587392563	-4.499446360789862	-0.3589235158373873	0.2337738564253151	-1.881348082556661	-2.9770217940705868	-0.9085701332067748	-3.0070115250995246	4	missed	0.0
334.754724400118	9.525440899655223	go_punish	0.2918736999854445	334.783977500163	337.32673209998757	339.8713719998484	2.5427545998245478	335.780582000036	338.8579488997352	342.919516299851	1.5461500999515465	1.0134231001131866	1.3899020999672302	341.9062812998891	0.4999254001304507	340.87866890011355	2	1	99	1	go_punish	0	-1	0	1	1	1	1	0.0	0.0	-1	0.2918736999854445	0.4999254001304507	1646.6737561998889	1981.457733700052	1982.454338199925	1984.0004882998765	1985.531705099624	1986.5451281997373	1987.5524251000024	1988.580037499778	1989.59327249974	1990.9831745997071	2020-01-15 16:39:02.717794	0.776921677064475	-1.11632481404301	-0.936991998923193	-0.85553599511499	-0.160070321858718	-0.936991998923193	-0.776921677064475	-1.11632481404301	-0.936991998923193	-0.160070321858718	-0.936991998923193	-3.75190100205246	-0.5937120818328468	-1.3489886519161616	-1.0036628934827563	-1.4446445533109762	-1.9009565909595099	-1.0036628934827563	-3.810379766904969	-1.749165783137555	-1.15545370130471	-1.7326423259719608	-0.6200092194269574	4	wrong	1.0
344.3262220998297	8.408090200274728	go_reward	0.3057642001658678	344.3554751998747	346.18429580004863	348.7396324998699	1.8288206001739127	345.3493224000558	347.7152629997581	351.801595099736	0.8349733999928048	1.0243695001117885	0.9619703004134408	350.788802700117	0.7353011001832783	349.76438400009624	2	1	100	3	go_reward	1	1	0	1	1	1	0	0.0	1.0	1	0.3057642001658678	0.7353011001832783	1646.6737561998889	1991.0292313997636	1992.0230785999447	1992.8580519999375	1994.389019199647	1995.4133886997588	1996.4381401999851	1997.462558900006	1998.475351299625	1999.4373216000383	2020-01-15 16:39:02.717794	7.20550013959838	4.0873501201238	0.0	3.41115136338063	7.20550013959838	0.0	-7.20550013959838	4.0873501201238	0.0	7.20550013959838	0.0	0.9300122652769502	5.834866380701058	3.854686282250648	-0.06667089455956333	2.8220428051846436	5.464613870497588	-0.06667089455956333	0.8715335004244413	5.616404678319543	-0.21846170238151708	3.471032608194849	0.31698277949623554	4	correct	1.0
352.7603703998029	8.389433899894357	go_punish	1.0	352.78962349984795	354.3452284000816	356.87380990013503	1.555604900233675	353.7990695000626	355.85109349992103	359.93110980000347	0.5461589000190088	1.0227164002139943	1.2479475997388363	358.9278259999119	0.306473399978131	357.9001544001512	2	1	101	1	go_punish	1	0	-1	1	0	0	1	1.0	1.0	-1	1.0	0.306473399978131	1646.6737561998889	1999.4633796997368	2000.4728256999515	2001.0189845999705	2002.52484969981	2003.547566100024	2004.57391060004	2005.6015821998008	2006.6048659998924	2007.8528135996312	2020-01-15 16:39:02.717794	0.651306118461069	-2.0455742820498	-0.936991998923193	-1.89348804456575	-1.58829811738426	-0.936991998923193	-0.651306118461069	-0.936991998923193	-2.0455742820498	-0.936991998923193	-1.58829811738426	-3.931233817172277	-0.7193276404362529	-2.278238119922952	-1.0036628934827563	-2.482596602761736	-3.3291843864850517	-1.0036628934827563	-3.989712582024786	-2.52608746020203	-1.806759819765777	-1.5533095108521437	-1.7285915025535648	4	correct	1.0
361.1951019000262	8.743678499944735	go_reward	0.265030300244689	361.2243550000712	363.0174630000256	365.57391220005184	1.7931079999543726	362.2362273000181	364.5480482997375	368.6259121997282	0.7812357000075281	1.0258639003143344	1.342121300287772	367.62050660001114	0.3530251001939177	366.5915288999679	2	1	102	3	go_reward	0	0	1	1	1	1	1	1.0	1.0	0	0.265030300244689	0.3530251001939177	1646.6737561998889	2007.89811119996	2008.909983499907	2009.6912191999145	2011.2218044996264	2012.2476683999407	2013.2652850998568	2014.2942627999	2015.299668399617	2016.6417896999048	2020-01-15 16:39:02.717794	7.64380194146384	4.29837124682004	0.0	3.81356837856906	7.64380194146384	0.0	-7.64380194146384	4.29837124682004	0.0	7.64380194146384	0.0	-4.29837124682004	6.273168182566518	4.0657074089468885	-0.06667089455956333	3.224459820373074	5.902915672363048	-0.06667089455956333	-4.356850011672549	6.054706480185003	-0.21846170238151708	3.6820537348910896	0.31698277949623554	4	correct	1.0
369.9629627997058	7.635572300292324	nogo_reward	0.1857718997634947	369.9922158997508	371.27681489987276	373.8276100000362	1.2845990001219434	370.9955124999394	372.8077739998698	376.8686124999076	0.28130239993333817	1.0198360001663787	0.759175700135529	375.86565560009353	0.3757591000758111	374.8467468000015	2	1	103	4	nogo_reward	1	0	1	0	1	0	0	0.0	1.0	0	0.1857718997634947	0.3757591000758111	1646.6737561998889	2016.6659720996397	2017.6692686998283	2017.9505710997616	2019.4815301997587	2020.501366199925	2021.5205029998904	2022.5394117999824	2023.5423686997965	2024.301544399932	2020-01-15 16:39:02.717794	-0.0062278005714039	0.871958025971193	2.84588532086706	1.37682941651358	2.83965752029566	2.84588532086706	0.0062278005714039	0.871958025971193	2.84588532086706	2.83965752029566	2.84588532086706	-0.871958025971193	-1.3768615594687257	0.6392941880980413	2.7792144263074965	0.7877208583175938	1.0987712511948684	2.7792144263074965	-0.9304367908237019	1.2505620590168232	2.627423618485543	0.2556405140422422	3.1628681003632955	4	correct	1.0
377.6264515998773	8.189389700070024	nogo_reward	1.0	377.65570469992235	379.23088299995266	381.75102369999513	1.5751783000303021	378.6686391001567	380.72555360011756	384.798640000168	0.5622438997959307	1.025470099877566	1.0464543998243698	383.78522149985633	0.4119225000031292	382.76471949974075	2	1	104	4	nogo_reward	1	0	1	0	0	1	0	0.0	1.0	1	1.0	0.4119225000031292	1646.6737561998889	2024.3294608998112	2025.3423953000456	2025.9046391998415	2027.3993098000064	2028.424779899884	2029.4384756996296	2030.4589776997452	2031.472396200057	2032.5188505998813	2020-01-15 16:39:02.717794	0.4087800301209	0.652917425567575	2.84588532086706	1.04503825663095	2.43710529074616	2.84588532086706	-0.4087800301209	2.84588532086706	0.652917425567575	2.84588532086706	2.43710529074616	2.17147706453369	-0.961853728776422	0.42025358769442334	2.7792144263074965	0.4559296984349638	0.6962190216453681	2.7792144263074965	2.112998299681181	1.256789859588223	2.218643588364643	2.2295678089381092	0.9699002050638106	4	correct	1.0
385.8632466997951	8.681764000095427	nogo_punish	0.2612803997471928	385.89249979984015	387.56718849996105	390.1222860999403	1.674688700120896	386.8961239997295	389.10598259977996	393.17503739986546	0.6710645002315232	1.0163035001603475	1.3992264000701198	392.1708359001202	0.5463130003772676	391.14231080003105	2	1	105	2	nogo_punish	1	-1	0	0	1	0	0	0.0	1.0	-1	0.2612803997471928	0.5463130003772676	1646.6737561998889	2032.566255999729	2033.5698801996184	2034.24094469985	2035.7797387996688	2036.7960422998292	2037.81606699992	2038.844592100009	2039.8487935997543	2041.2480199998245	2020-01-15 16:39:02.717794	-2.25943589798531	-3.32399430459576	-0.250674409688379	-1.21979237507546	-2.51011030767369	-0.250674409688379	2.25943589798531	-3.32399430459576	-0.250674409688379	-2.51011030767369	-0.250674409688379	-1.54423151149971	-3.6300696568826316	-3.556658142468912	-0.31734530424794233	-1.8089009332714463	-4.250996576774482	-0.31734530424794233	-1.602710276352219	-4.099205768952527	-0.4691361120698961	-3.940311816524711	0.06630836980785654	4	correct	1.0
394.59320409968495	9.371807800140232	go_reward	0.3154297000728547	394.62245719973	397.04510319978	399.600240900181	2.4226460000500083	395.62981869978785	398.57667319988786	402.6415264001116	1.41528449999214	1.0235677002931425	1.3527385997585952	401.62911689979956	0.412559200078249	400.61416060011834	2	1	106	3	go_reward	1	1	0	1	1	1	0	0.0	1.0	1	0.3154297000728547	0.412559200078249	1646.6737561998889	2041.2962133996189	2042.3035748996767	2043.7188593996689	2045.2504293997767	2046.27399710007	2047.2879168000072	2048.3028730996884	2049.3152826000005	2050.668021199759	2020-01-15 16:39:02.717794	5.63273333728259	2.98407888525665	0.0	2.62636132495361	5.63273333728259	0.0	-5.63273333728259	2.98407888525665	0.0	5.63273333728259	0.0	2.0332835001441	4.262099578385269	2.751415047383498	-0.06667089455956333	2.0372527667576237	3.8918470681817983	-0.06667089455956333	1.974804735291591	4.0436378760037535	-0.21846170238151708	2.367761373327699	0.31698277949623554	4	correct	1.0
403.989538599737	8.393433200195432	nogo_reward	0.7211910001933575	404.018791699782	405.4664916000329	408.01707790000364	1.447699900250882	405.0298792999238	406.99311179993674	411.0597604997456	0.4366123001091182	1.0239661000669003	1.3524644002318382	410.05446750018746	0.4631074001081288	409.03253909992054	2	1	107	4	nogo_reward	0	1	0	0	1	0	0	1.0	0.0	1	0.7211910001933575	0.4631074001081288	1646.6737561998889	2050.692547899671	2051.7036354998127	2052.140247799922	2053.6668679998256	2054.6908340998925	2055.7062952998094	2056.7282237000763	2057.7335166996345	2059.0859810998663	2020-01-15 16:39:02.717794	-0.315267484680789	0.652917425567575	3.47395605582869	2.27253621752053	3.1586885711479	3.47395605582869	0.315267484680789	0.652917425567575	3.47395605582869	3.1586885711479	3.47395605582869	4.3644449598331745	-1.6859012435781109	0.42025358769442334	3.4072851612691264	1.6834276593245439	1.417802302047108	3.4072851612691264	4.305966194980666	1.5695931098690628	3.255494353447173	0.03659991363862425	3.7909388353249254	4	wrong	1.0
412.40806980011985	8.39377349987626	nogo_reward	0.3861265000887215	412.4373229001649	413.8144578998913	416.3535059001297	1.3771349997264224	413.455712699797	415.33808270003647	419.3904130998999	0.35874520009429034	1.0154232000932097	1.4406833001412451	418.375986199826	1.0	417.3667469001375	2	1	108	4	nogo_reward	0	1	0	0	1	0	0	n/a	0.0	0	0.3861265000887215	1.0	1646.6737561998889	2059.1110791000538	2060.129468899686	2060.48821409978	2062.0118388999254	2063.0272621000186	2064.0405031000264	2065.049742399715	2066.064169299789	2067.50485259993	2020-01-15 16:39:02.717794	1.41810273658684	1.95679074125788	3.47395605582869	3.02156858349086	4.89205879241553	3.47395605582869	-1.41810273658684	1.95679074125788	3.47395605582869	4.89205879241553	3.47395605582869	3.06057164414287	0.04746897768951808	1.7241269033847284	3.4072851612691264	2.4324600252948736	3.151172523314738	3.4072851612691264	3.002092879290361	3.3029633311366933	3.255494353447173	1.3404732293289292	3.7909388353249254	4	missed	0.0
420.82839179970324	9.374726800248027	nogo_reward	0.2896242002025246	420.85764489974827	423.1690294998698	425.7135001998395	2.311384600121528	421.8562508998439	424.7008397001773	428.76339210011065	1.312778600025922	1.0126604996621609	1.4689795998856425	427.7500899001029	0.4107930003665387	426.72888730000705	2	1	109	4	nogo_reward	0	1	0	0	1	0	1	0.0	0.0	1	0.2896242002025246	0.4107930003665387	1646.6737561998889	2067.531401099637	2068.5300070997328	2069.8427856997587	2071.374595900066	2072.3872563997284	2073.402643499896	2074.423846099992	2075.4371482999995	2076.906127899885	2020-01-15 16:39:02.717794	0.194015903615457	1.30612199921076	3.47395605582869	2.05092287213428	3.66797195944415	3.47395605582869	-0.194015903615457	1.30612199921076	3.47395605582869	3.66797195944415	3.47395605582869	3.71124038618999	-1.176617855281865	1.0734581613376084	3.4072851612691264	1.4618143139382935	1.9270856903433582	3.4072851612691264	3.652761621337481	2.0788764981653127	3.255494353447173	0.6898044872818092	3.7909388353249254	4	wrong	1.0
430.2300636	8.638461200054735	go_punish	1.0	430.259316700045	432.1166729000397	434.6492532999255	1.8573561999946833	431.2589178998023	433.6329310000874	437.7008348000236	0.8577550002373755	1.016322299838066	1.1969431000761688	436.688134000171	0.6242916001938283	435.66335409972817	2	1	110	1	go_punish	1	0	-1	1	0	0	0	0.0	1.0	-1	1.0	0.6242916001938283	1646.6737561998889	2076.933072899934	2077.932674099691	2078.7904290999286	2080.3066871999763	2081.3230094998144	2082.337110299617	2083.36189020006	2084.3745909999125	2085.5715340999886	2020-01-15 16:39:02.717794	-0.0284218169547166	-2.0455742820498	-1.92211716907296	-2.55680249051224	-1.89369535211824	-1.92211716907296	0.0284218169547166	-1.92211716907296	-2.0455742820498	-1.92211716907296	-1.89369535211824	-2.94610864702251	-1.3990555758520384	-2.278238119922952	-1.9887880636325233	-3.1459110487082262	-3.6345816212190316	-1.9887880636325233	-3.004587411875019	-3.511212630351797	-2.112157054499757	-2.5384346810019105	-1.7285915025535648	4	correct	1.0
438.8943686997518	9.189537000376731	nogo_reward	0.2867334997281432	438.9236217997968	441.3508728998713	443.8938414999284	2.4272511000745	439.93264470016584	442.8727675001137	446.95791210001335	1.4182281997054815	1.0210739998146892	1.1552467001602054	445.94379899976775	0.3723857002332806	444.9102785000573	2	1	111	4	nogo_reward	1	0	1	0	1	0	1	1.0	1.0	0	0.2867334997281432	0.3723857002332806	1646.6737561998889	2085.5973779996857	2086.6064009000547	2088.02462909976	2089.5465237000026	2090.5675976998173	2091.584034699946	2092.6175551996566	2093.6316682999022	2094.7869150000624	2020-01-15 16:39:02.717794	1.76945572197194	2.37436691271854	3.47395605582869	2.9218320208255	5.24341177780064	3.47395605582869	-1.76945572197194	2.37436691271854	3.47395605582869	5.24341177780064	3.47395605582869	-2.37436691271854	0.39882196307461815	2.1417030748453882	3.4072851612691264	2.332723462629514	3.502525508699848	3.4072851612691264	-2.432845677571049	3.654316316521803	3.255494353447173	1.7580494007895893	3.7909388353249254	4	correct	1.0
448.11193910008296	8.044919499661319	go_punish	1.0	448.141192200128	449.7189529999159	452.2503713001497	1.5777607997879386	449.1538100000471	451.226313999854	455.29568069987	0.56514299986884	1.0240573002956808	0.8904309999193174	454.2875767997466	0.8657293999567628	453.2649236000143	2	1	112	1	go_punish	1	0	-1	1	0	0	1	1.0	1.0	-1	1.0	0.8657293999567628	1646.6737561998889	2094.814948400017	2095.827566199936	2096.392709199805	2097.900070199743	2098.9241275000386	2099.938679799903	2100.9613329996355	2101.969436899759	2102.859867899678	2020-01-15 16:39:02.717794	-0.463239936245167	-2.0455742820498	-2.55461284809553	-3.00594792304097	-2.09137291185036	-2.55461284809553	0.463239936245167	-2.55461284809553	-2.0455742820498	-2.55461284809553	-2.09137291185036	-2.31361296799994	-1.833873695142489	-2.278238119922952	-2.6212837426550935	-3.595056481236956	-3.8322591809511515	-2.6212837426550935	-2.372091732852449	-4.143708309374367	-2.309834614231877	-3.1709303600244807	-1.7285915025535648	4	correct	1.0
456.2034873999655	8.757405899930745	go_reward	0.2509669000282883	456.23274050001055	458.0806156997569	460.6244648997672	1.8478751997463405	457.2374001997523	459.61711650015786	463.6686696000397	0.8432155000045896	1.0073483996093273	1.3214767999015749	462.6561964000575	0.3330689002759754	461.64261610014364	2	1	113	3	go_reward	1	1	0	1	1	1	0	0.0	1.0	1	0.2509669000282883	0.3330689002759754	1646.6737561998889	2102.9064966998994	2103.911156399641	2104.754371899646	2106.2908727000467	2107.298221099656	2108.3163723000325	2109.3299525999464	2110.3424257999286	2111.66390259983	2020-01-15 16:39:02.717794	6.70248047870569	3.6256325952412	0.0	3.35502815299773	6.70248047870569	0.0	-6.70248047870569	3.6256325952412	0.0	6.70248047870569	0.0	1.39172979015955	5.331846719808368	3.392968757368048	-0.06667089455956333	2.7659195948017437	4.961594209604898	-0.06667089455956333	1.333251025307041	5.113385017426853	-0.21846170238151708	3.009315083312249	0.31698277949623554	4	correct	1.0
465.0056595997885	8.174423499964178	go_reward	0.3171338001266122	465.0349126998335	466.843501499854	469.3833980001509	1.808588800020516	466.0316415997222	468.35893950005993	472.43491279985756	0.8118599001318216	1.0244585000909865	0.7744233999401331	471.4222916997969	0.4079034999012947	470.3886859999038	2	1	114	3	go_reward	1	1	0	1	1	1	0	0.0	1.0	1	0.3171338001266122	0.4079034999012947	1646.6737561998889	2111.7086688997224	2112.705397799611	2113.517257699743	2115.032695699949	2116.05715420004	2117.0624421997927	2118.096047899686	2119.1086689997464	2119.8830923996866	2020-01-15 16:39:02.717794	7.33338688300191	4.00468507900379	0.0	3.79547202549807	7.33338688300191	0.0	-7.33338688300191	4.00468507900379	0.0	7.33338688300191	0.0	1.0126773063969603	5.962753124104588	3.7720212411306377	-0.06667089455956333	3.2063634673020838	5.592500613901118	-0.06667089455956333	0.9541985415444514	5.744291421723073	-0.21846170238151708	3.3883675670748388	0.31698277949623554	4	correct	1.0
473.2080564997159	8.227725900243968	go_punish	0.3275894001126289	473.2373095997609	474.57212200015783	477.1243068999611	1.3348124003969133	474.2444889000617	476.1034098998639	480.1752224001102	0.32763310009613633	1.020897000097193	1.2898130998946726	479.1720941998069	0.2347678998485207	478.14294579997613	2	1	115	1	go_punish	1	0	-1	1	1	1	0	0.0	1.0	0	0.3275894001126289	0.2347678998485207	1646.6737561998889	2119.91106579965	2120.9182450999506	2121.2458782000467	2122.777166099753	2123.79806309985	2124.816701999865	2125.845850399696	2126.848978599999	2128.1387916998938	2020-01-15 16:39:02.717794	0.760526314118353	-2.0455742820498	-2.9857069784456	-3.32451134347715	-2.22518066432725	-2.9857069784456	-0.760526314118353	-2.0455742820498	-2.9857069784456	-2.22518066432725	-2.9857069784456	2.0455742820498	-0.6101074447789688	-2.278238119922952	-3.0523778730051636	-3.9136199016731363	-3.966066933428042	-3.0523778730051636	1.9870955171972913	-3.814276125606087	-3.204168680827117	-2.661891793978751	-2.6687241989493646	4	correct	1.0
481.4804885000922	8.38350939983502	nogo_punish	1.0	481.5097416001372	482.98535809991927	485.5216390998103	1.4756164997820633	482.5168854999356	484.50102570001036	488.54478009976447	0.4684725999836701	1.0206133997999132	1.348470900207758	487.5429683001712	0.2860173000954091	486.53068770002574	2	1	116	2	nogo_punish	1	-1	0	0	0	1	0	0.0	1.0	0	1.0	0.2860173000954091	1646.6737561998889	2128.183497800026	2129.1906416998245	2129.659114299808	2131.1747818998992	2132.195395299699	2133.2044438999146	2134.21672450006	2135.2185362996534	2136.567007199861	2020-01-15 16:39:02.717794	2.97866080258893	-3.59291070423867	-0.250674409688379	-2.15940167413116	-3.22933521227731	-0.250674409688379	-2.97866080258893	-0.250674409688379	-3.59291070423867	-0.250674409688379	-3.22933521227731	0.250674409688379	1.6080270436916082	-3.8255745421118217	-0.31734530424794233	-2.7485102323271464	-4.970221481378101	-0.31734530424794233	0.19219564483587012	-1.8397698709672161	-3.4477969146588268	-0.8669919216173299	-3.2759279247424344	4	correct	1.0
489.89273109985515	9.090371900238097	go_punish	0.2782788998447358	489.9219841999002	492.39543349994346	494.94093779986724	2.473449300043285	490.92259120009885	493.92114599980414	497.98025520006195	1.472842299844615	1.0197918000631034	1.0321009000763297	496.97842309996486	0.4031699998304248	495.9485065001063	2	1	117	1	go_punish	1	0	-1	1	1	1	1	0.0	0.0	0	0.2782788998447358	0.4031699998304248	1646.6737561998889	2136.595740399789	2137.5963473999877	2139.0691896998324	2140.594902199693	2141.614693999756	2142.622262699995	2143.6521792998537	2144.654011399951	2145.686112300027	2020-01-15 16:39:02.717794	1.90348440155008	-1.40336393383041	-2.9857069784456	-2.31556764205221	-1.08222257689552	-2.9857069784456	-1.90348440155008	-1.40336393383041	-2.9857069784456	-1.08222257689552	-2.9857069784456	1.40336393383041	0.5328506426527582	-1.6360277717035616	-3.0523778730051636	-2.9046762002481965	-2.8231088459963116	-3.0523778730051636	1.3448851689779011	-2.6713180381743573	-3.204168680827117	-2.019681445759361	-2.6687241989493646	4	wrong	1.0
499.03605649992824	8.171478900127113	nogo_punish	1.0	499.06530959997326	500.4292462999001	502.9430038998835	1.3639366999268532	500.0783266001381	501.9334547999315	505.9925206000921	0.35091969976201653	1.0095490999519825	1.2442679000082535	504.9906045999378	0.2671813000924885	503.96253640018404	2	1	118	2	nogo_punish	1	-1	0	0	0	1	1	0.0	0.0	0	1.0	0.2671813000924885	1646.6737561998889	2145.739065799862	2146.752082800027	2147.103002499789	2148.6072109998204	2149.6167600997724	2150.636292600073	2151.6643607998267	2152.666276799981	2153.9105446999893	2020-01-15 16:39:02.717794	2.69520208549676	-3.59291070423867	-0.217340572011857	-1.52061763436697	-2.91254265750862	-0.217340572011857	-2.69520208549676	-0.217340572011857	-3.59291070423867	-0.217340572011857	-2.91254265750862	0.217340572011857	1.3245683265994381	-3.8255745421118217	-0.28401146657142035	-2.109726192562956	-4.653428926609412	-0.28401146657142035	0.1588618071593481	-1.8064360332906941	-3.131004359890137	-0.8336580839408078	-3.2759279247424344	4	wrong	1.0
507.25261970004067	8.002845000010439	go_reward	0.5020762998610735	507.2818728000857	508.7975726998411	511.33675470016897	1.5156998997554183	508.29336699983105	510.32006220007315	514.3914263001643	0.5042057000100613	1.0166925000958145	0.89329149993182	513.3779671997763	0.3418658999726176	512.3495570998639	2	1	119	3	go_reward	1	1	0	1	1	1	0	0.0	1.0	1	0.5020762998610735	0.3418658999726176	1646.6737561998889	2153.9556289999746	2154.96712319972	2155.47132889973	2156.993818399962	2158.010510900058	2159.0233132997528	2160.051723399665	2161.065182500053	2161.958473999985	2020-01-15 16:39:02.717794	7.72975511160039	4.24371597643859	0.0	4.07883766014361	7.72975511160039	0.0	-7.72975511160039	4.24371597643859	0.0	7.72975511160039	0.0	0.7736464089621595	6.3591213527030686	4.0110521385654385	-0.06667089455956333	3.4897291019476238	5.988868842499598	-0.06667089455956333	0.7151676441096506	6.140659650321553	-0.21846170238151708	3.6273984645096395	0.31698277949623554	4	correct	1.0
515.2806393001229	9.19250209955544	nogo_reward	1.0	515.3098924001679	517.5289905001409	520.0602238997817	2.2190980999730527	516.3107551997527	519.0366031001322	523.1123560001142	1.2182353003881872	1.0236207996495068	1.3900384996090906	522.0999451000239	0.6484810998663306	521.0721673001535	2	1	120	4	nogo_reward	1	0	1	0	0	1	0	1.0	0.0	1	1.0	0.6484810998663306	1646.6737561998889	2161.9836486000568	2162.9845113996416	2164.20274670003	2165.710359300021	2166.7339800996706	2167.7459235000424	2168.773701299913	2169.786112200003	2171.176150699612	2020-01-15 16:39:02.717794	-0.44268041206864	1.5864327233021	3.47395605582869	2.00545287626864	3.91663646789733	3.47395605582869	0.44268041206864	3.47395605582869	1.5864327233021	3.47395605582869	3.91663646789733	1.54340632957206	-1.813314170965962	1.3537688854289485	3.4072851612691264	1.4163443180726536	2.175750198796538	3.4072851612691264	1.484927564719551	1.8848605945498529	3.6981747655158133	2.857638543899739	1.9034155027983357	4	wrong	1.0
