onset	duration	trial_type	response_time	cueOnset	targetOnset	fbOnset	cueRT	firstfixOnset	secondfixOnset	waitOnset	firstfixdur	secondfixdur	waitdur	nback_fbOnset	nback_response_time	nback_targetOnset	block	wm	trial	cue	cond	is_common	outcome_go	outcome_nogo	key_correct	key_pressed	is_correct	key_correct_nback	key_pressed_nback	is_correct_nback	outcome	rt	rt_nback	time_scan	time_onset	time_isi1	time_circle	time_isi2	time_feedback	time_same	time_correct	time_iti	time_done	timestamp_scan	DV	Qgo	Qnogo	SV	Wgo	Wnogo	mDV	Qchosen	Qunchosen	Wchosen	Wunchosen	PE	DVC	QgoC	QnogoC	SVC	WgoC	WnogoC	PEC	WchosenC	WunchosenC	QchosenC	QunchosenC	run	outcome_nback	nback_targetResp
0.0	8.688637999817729	nogo_reward	0.5053123999387026	0.021974400151520967	1.6892464002594352	4.2389151998793295	1.6672720001079142	1.0322684999553076	3.2276204000227153	7.321562400087714	0.6569779003041276	1.0112947998566142	1.3890499998815358	6.314788999967504	0.5149487000890076	5.27315660007298	2	1	1	4	nogo_reward	1	0	1	0	1	0	0	0.0	1.0	0	0.5053123999387026	0.5149487000890076	1056.1742722997442	1056.1962466998957	1057.2065407996995	1057.8635187000036	1059.401892699767	1060.4131874996235	1061.4474288998172	1062.4890612997117	1063.495834699832	1064.8848846997134	2020-01-15 16:29:12.210183	1.2936765182895	0.0	0.0	0.0	1.2936765182895	0.0	-1.2936765182895	0.0	0.0	1.2936765182895	0.0	0.0	-0.07695724060782183	-0.23266383787315167	-0.06667089455956333	-0.5891085581959862	-0.4472097508112918	-0.06667089455956333	-0.058478764852508885	-0.295418942989337	-0.21846170238151708	-0.6163175119289508	0.31698277949623554	3	correct	1.0
8.737423699814599	8.309238099958975	nogo_punish	0.2842900003306567	8.75939809996612	10.685090899932902	13.233490600250661	1.9256927999667823	9.756480699870735	12.21518940012902	16.262602699920535	0.9286102000621668	1.0183012001216412	0.8060335000045598	15.249578299932182	0.551123000215739	14.23742530029267	2	1	2	2	nogo_punish	1	-1	0	0	1	0	0	0.0	1.0	-1	0.2842900003306567	0.551123000215739	1056.1742722997442	1064.9336703997103	1065.930752999615	1066.859363199677	1068.3894616998732	1069.4077628999949	1070.4116976000369	1071.4238505996764	1072.4368749996647	1073.2429084996693	2020-01-15 16:29:12.210183	1.2936765182895	0.0	0.0	0.0	1.2936765182895	0.0	-1.2936765182895	0.0	0.0	1.2936765182895	0.0	-4.86822581609547	-0.07695724060782183	-0.23266383787315167	-0.06667089455956333	-0.5891085581959862	-0.4472097508112918	-0.06667089455956333	-4.926704580947979	-0.295418942989337	-0.21846170238151708	-0.6163175119289508	0.31698277949623554	3	correct	1.0
17.069993599783402	8.170337200164795	nogo_reward	1.0	17.091967999934923	18.447405400220305	20.97365010017552	1.355437400285382	18.104909100104123	19.959590800106525	24.028388999868184	0.3424963001161814	1.0140593000689933	1.2339162002315334	23.01394580025226	0.8873862000182271	21.987115900032222	2	1	3	4	nogo_reward	1	0	1	0	0	1	1	0.0	0.0	1	1.0	0.8873862000182271	1056.1742722997442	1073.266240299679	1074.2791813998483	1074.6216776999645	1076.1338630998507	1077.1479223999197	1078.1613881997764	1079.1882180999964	1080.2026612996124	1081.436577499844	2020-01-15 16:29:12.210183	-1.2936765182895	0.0	0.0	0.0	1.2936765182895	0.0	1.2936765182895	0.0	0.0	0.0	1.2936765182895	5.01736238540075	-2.664310277186822	-0.23266383787315167	-0.06667089455956333	-0.5891085581959862	-0.4472097508112918	-0.06667089455956333	4.958883620548241	-1.589095461278837	1.0752148159079828	-0.6163175119289508	0.31698277949623554	3	wrong	1.0
25.28161319997139	8.532253200188507	nogo_punish	0.4464626000262797	25.30358760012291	27.267094200011343	29.80352650023997	1.963506599888433	26.307679400313646	28.786971100140363	32.84255139995389	0.9594147996976972	1.0165554000996053	0.9932894003575257	31.834904599934816	0.7228924999944866	30.81847900012508	2	1	4	2	nogo_punish	1	-1	0	0	1	0	1	1.0	1.0	-1	0.4464626000262797	0.7228924999944866	1056.1742722997442	1081.477859899867	1082.4819517000578	1083.4413664997555	1084.9612433998846	1085.9777987999842	1086.9927512998693	1088.009176899679	1089.016823699698	1090.0101131000556	2020-01-15 16:29:12.210183	-0.544828868340049	-1.24373370291089	0.0	-1.24373370291089	-0.544828868340049	0.0	0.544828868340049	-1.24373370291089	0.0	-0.544828868340049	0.0	-3.62449211318458	-1.9154626272373707	-1.4763975407840415	-0.06667089455956333	-1.832842261106876	-2.2857151374408406	-0.06667089455956333	-3.682970878037089	-2.133924329618886	-0.21846170238151708	-1.8600512148398407	0.31698277949623554	3	correct	1.0
33.84573539998382	8.441717199981213	go_punish	0.7893852000124753	33.867709800135344	35.264980300329626	37.81136139994487	1.3972705001942813	34.874318200163316	36.787286000326276	40.847465300001204	0.39066210016630976	1.0240753996185958	1.4619617001153529	39.834081599954516	0.7932531000114977	38.816197799984366	2	1	5	1	go_punish	0	-1	0	1	1	1	0	0.0	1.0	-1	0.7893852000124753	0.7932531000114977	1056.1742722997442	1090.0419820998795	1091.0485904999075	1091.4392526000738	1092.9615583000705	1093.985633699689	1094.9904700997286	1096.0083538996987	1097.0217375997454	1098.4836992998607	2020-01-15 16:29:12.210183	1.2936765182895	0.0	0.0	0.0	1.2936765182895	0.0	-1.2936765182895	0.0	0.0	1.2936765182895	0.0	-4.86822581609547	-0.07695724060782183	-0.23266383787315167	-0.06667089455956333	-0.5891085581959862	-0.4472097508112918	-0.06667089455956333	-4.926704580947979	-0.295418942989337	-0.21846170238151708	-0.6163175119289508	0.31698277949623554	3	correct	1.0
42.32924599992111	7.94426759984367	nogo_punish	1.0	42.351220400072634	43.707900600042194	46.22884829994291	1.35668019996956	43.34922440024093	45.21313730021939	49.27016460010782	0.3586761998012662	1.0157109997235239	1.0253233998084852	48.264353699982166	0.8410618999041617	47.24237600015476	2	1	6	2	nogo_punish	0	0	-1	0	0	1	1	1.0	1.0	-1	1.0	0.8410618999041617	1056.1742722997442	1098.5254926998168	1099.5234966999851	1099.8821728997864	1101.3874095999636	1102.403120599687	1103.416648299899	1104.4386259997264	1105.444436899852	1106.4697602996605	2020-01-15 16:29:12.210183	1.7148181472648	-2.04607731027941	0.0	-2.04607731027941	-1.7148181472648	0.0	-1.7148181472648	0.0	-2.04607731027941	0.0	-1.7148181472648	-4.86822581609547	0.3441843883674782	-2.278741148152562	-0.06667089455956333	-2.6351858684753964	-3.4557044163655917	-0.06667089455956333	-4.926704580947979	-1.589095461278837	-1.933279849646317	-0.6163175119289508	-1.7290945307831747	3	correct	1.0
50.32253549993038	8.72448909981199	go_reward	0.2644119998440146	50.3445099000819	52.56717280019075	55.10746640013531	2.222662900108844	51.35094520030543	54.09741530008614	58.1627441002056	1.2162275998853147	1.0100511000491679	0.9062548996882924	57.14441019995138	0.981319099664688	56.12213540030643	2	1	7	3	go_reward	1	1	0	1	1	1	0	0.0	1.0	1	0.2644119998440146	0.981319099664688	1056.1742722997442	1106.518782199826	1107.5252175000496	1108.741445099935	1110.2716875998303	1111.2817386998795	1112.2964077000506	1113.3186824996956	1114.3370163999498	1115.243271299638	2020-01-15 16:29:12.210183	1.2936765182895	0.0	0.0	0.0	1.2936765182895	0.0	-1.2936765182895	0.0	0.0	1.2936765182895	0.0	5.01736238540075	-0.07695724060782183	-0.23266383787315167	-0.06667089455956333	-0.5891085581959862	-0.4472097508112918	-0.06667089455956333	4.958883620548241	-0.295418942989337	-0.21846170238151708	-0.6163175119289508	0.31698277949623554	3	correct	1.0
59.06899010017514	8.629853599704802	nogo_reward	0.2609625002369284	59.09096450032666	60.88145080022491	63.42183700017631	1.790486299898248	60.094197900034715	62.412647100165486	66.47532830014825	0.7872529001901967	1.0091899000108242	1.2454897998832166	65.4614662001843	0.5589165999554098	64.42855990026146	2	1	8	4	nogo_reward	1	0	1	0	1	0	0	0.0	1.0	0	0.2609625002369284	0.5589165999554098	1056.1742722997442	1115.2652368000709	1116.268470199779	1117.055723099969	1118.5869193999097	1119.5961092999205	1120.6028322000057	1121.6357384999285	1122.6496005998924	1123.8950903997757	2020-01-15 16:29:12.210183	0.682861113162592	0.0	1.45416011828744	1.45416011828744	2.13702123145003	1.45416011828744	-0.682861113162592	0.0	1.45416011828744	2.13702123145003	1.45416011828744	0.0	-0.6877726457347298	-0.23266383787315167	1.3874892237278766	0.8650515600914538	0.3961349623492383	1.3874892237278766	-0.058478764852508885	0.547925770171193	1.2356984159059228	-0.6163175119289508	1.7711428977836756	3	correct	1.0
67.74416500004008	8.601055100094527	go_reward	0.6181141999550164	67.7661394001916	69.43137060012668	71.97520750015974	1.6652311999350786	68.768557399977	70.96234309999272	75.0081802001223	0.6628132001496851	1.0128644001670182	1.3590143001638353	74.00554350018501	0.3161674998700619	72.99331520032138	2	1	9	3	go_reward	0	0	1	1	1	1	1	1.0	1.0	0	0.6181141999550164	0.3161674998700619	1056.1742722997442	1123.9404116999358	1124.9428296997212	1125.6056428998709	1127.136615399737	1128.149479799904	1129.1675875000656	1130.1798157999292	1131.1824524998665	1132.5414668000303	2020-01-15 16:29:12.210183	3.59118134973747	1.45416011828744	0.0	1.45416011828744	3.59118134973747	0.0	-3.59118134973747	1.45416011828744	0.0	3.59118134973747	0.0	-1.45416011828744	2.220547590840148	1.2214962804142884	-0.06667089455956333	0.8650515600914538	1.850295080636678	-0.06667089455956333	-1.5126388831399489	2.002085888458633	-0.21846170238151708	0.8378426063584892	0.31698277949623554	3	correct	1.0
76.39149449998513	8.35133930016309	go_reward	0.308394500054419	76.41346890013665	77.96115740016103	80.51012969994918	1.5476885000243783	77.41741920029745	79.48897200031206	83.54650080017745	0.5437381998635828	1.021157699637115	1.218307400122285	82.5400352999568	0.3808860001154244	81.52762260008603	2	1	10	3	go_reward	0	0	1	1	1	1	0	0.0	1.0	0	0.308394500054419	0.3808860001154244	1056.1742722997442	1132.5877411998808	1133.5916915000416	1134.1354296999052	1135.6632443000562	1136.6844019996934	1137.7018948998302	1138.714307599701	1139.7207730999216	1140.939080500044	2020-01-15 16:29:12.210183	2.716923233697	0.909892790210943	0.0	0.909892790210943	2.716923233697	0.0	-2.716923233697	0.909892790210943	0.0	2.716923233697	0.0	-0.909892790210943	1.346289474799678	0.6772289523377913	-0.06667089455956333	0.32078423201495687	0.9760369645962081	-0.06667089455956333	-0.968371555063452	1.127827772418163	-0.21846170238151708	0.29357527828199226	0.31698277949623554	3	correct	1.0
84.78755570016779	9.07372439978667	go_reward	1.0	84.80953010031931	87.09721729997545	89.61347600026056	2.2876871996561476	85.81589249987132	88.61193179991096	92.63989380002022	1.2813248001041302	1.0015442003495991	1.2433607000857592	91.63611110020429	0.3021065997891128	90.6244304003194	2	1	11	3	go_reward	1	1	0	1	0	0	1	1.0	1.0	0	1.0	0.3021065997891128	1056.1742722997442	1140.9838024000635	1141.9901647996155	1143.2714895997196	1144.7862040996552	1145.7877483000048	1146.7987027000636	1147.8103833999485	1148.8141660997644	1150.0575267998502	2020-01-15 16:29:12.210183	-2.2245966275816	0.601392212126031	0.0	0.601392212126031	2.2245966275816	0.0	2.2245966275816	0.0	0.601392212126031	0.0	2.2245966275816	0.0	-3.5952303864789217	0.3687283742528793	-0.06667089455956333	0.012283653930044824	0.48371035848080823	-0.06667089455956333	-0.058478764852508885	-1.589095461278837	2.006134925200083	-0.6163175119289508	0.9183749916222665	3	correct	1.0
93.88755550002679	9.339252399746329	go_punish	0.3646761002019048	93.90952990017831	96.69376910012215	99.23451740015298	2.7842391999438405	94.91927410010271	98.22358480002731	102.29370100004598	1.7744950000194422	1.0109326001256704	0.9550812998786569	101.28117319988087	0.7340322998352349	100.2515119002203	2	1	12	1	go_punish	1	0	-1	1	1	1	0	0.0	1.0	0	0.3646761002019048	0.7340322998352349	1056.1742722997442	1150.0838021999225	1151.093546399847	1152.8680413998663	1154.3978570997715	1155.4087896998972	1156.4257841999645	1157.455445499625	1158.4679732997902	1159.4230545996688	2020-01-15 16:29:12.210183	-0.544828868340049	-1.24373370291089	0.0	-1.24373370291089	-0.544828868340049	0.0	0.544828868340049	-1.24373370291089	0.0	-0.544828868340049	0.0	1.24373370291089	-1.9154626272373707	-1.4763975407840415	-0.06667089455956333	-1.832842261106876	-2.2857151374408406	-0.06667089455956333	1.185254938058381	-2.133924329618886	-0.21846170238151708	-1.8600512148398407	0.31698277949623554	3	correct	1.0
103.27143639978021	8.939753000158817	nogo_punish	0.3521826001815498	103.29341079993173	105.71136920014396	108.26603810023516	2.4179584002122283	104.29934079991654	107.23838490014896	111.3052012999542	1.4120284002274275	1.0276532000862062	0.9279625001363456	110.2923975000158	0.7020566998980939	109.27049160003662	2	1	13	2	nogo_punish	1	-1	0	0	1	0	0	0.0	1.0	-1	0.3521826001815498	0.7020566998980939	1056.1742722997442	1159.467683099676	1160.4736130996607	1161.8856414998882	1163.4126571998931	1164.4403103999794	1165.4447638997808	1166.46666979976	1167.4794735996984	1168.4074360998347	2020-01-15 16:29:12.210183	-0.710853936638377	-2.04607731027941	-1.24373370291089	-2.59311858439688	-1.95458763954927	-1.24373370291089	0.710853936638377	-2.04607731027941	-1.24373370291089	-1.95458763954927	-1.24373370291089	-2.82214850581606	-2.081487695535699	-2.278741148152562	-1.3104045974704532	-3.182227142592866	-3.6954739086500616	-1.3104045974704532	-2.880627270668569	-3.5436831008281073	-1.462195405292407	-2.662394822208361	-0.9267509234146544	3	correct	1.0
112.23552179988474	8.453250099904835	nogo_reward	1.0	112.25749620003626	114.03382810018957	116.55663349991664	1.776331900153309	113.2681539002806	115.53884640010074	119.60691739991307	0.7656741999089718	1.017787099815905	1.1038289000280201	118.5988342999483	0.3544548000209033	117.57112260023132	2	1	14	4	nogo_reward	1	0	1	0	0	1	0	0.0	1.0	1	1.0	0.3544548000209033	1056.1742722997442	1168.4317684997804	1169.4424262000248	1170.2081003999338	1171.713118699845	1172.7309057996608	1173.7453948999755	1174.7731065996925	1175.7811896996573	1176.8850185996853	2020-01-15 16:29:12.210183	-0.352870325198619	0.0	1.45416011828744	0.909892790210943	1.80703044348606	1.45416011828744	0.352870325198619	1.45416011828744	0.0	1.45416011828744	1.80703044348606	3.5632022671133097	-1.7235040840959408	-0.23266383787315167	1.3874892237278766	0.32078423201495687	0.0661441743852682	1.3874892237278766	3.5047235022608008	-0.1349353429913971	1.588568741104543	0.8378426063584892	0.31698277949623554	3	correct	1.0
120.73336119996384	9.259208799805492	go_reward	1.0	120.75533560011536	123.49397960025817	126.01269590016454	2.7386440001428127	121.75856820028275	124.99955089995638	129.04630509996787	1.735411399975419	1.0131450002081692	0.9682392999529839	128.04276029998437	0.2712421002797782	127.02931450027972	2	1	15	3	go_reward	1	1	0	1	0	0	0	0.0	1.0	0	1.0	0.2712421002797782	1056.1742722997442	1176.9296078998595	1177.932840500027	1179.6682519000024	1181.1738231997006	1182.1869681999087	1183.203586800024	1184.2170325997286	1185.220577399712	1186.188816699665	2020-01-15 16:29:12.210183	-2.11580085381135	0.601392212126031	0.0	0.415417871725113	2.11580085381135	0.0	2.11580085381135	0.0	0.601392212126031	0.0	2.11580085381135	0.0	-3.4864346127086723	0.3687283742528793	-0.06667089455956333	-0.17369068647087316	0.3749145847105584	-0.06667089455956333	-0.058478764852508885	-1.589095461278837	1.8973391514298332	-0.6163175119289508	0.9183749916222665	3	correct	1.0
130.03687920002267	8.278754999861121	go_reward	0.6692920001223683	130.0588536001742	131.39410579996184	133.9492804999461	1.3352521997876465	131.0655332999304	132.92456830013543	136.984844900202	0.32857250003144145	1.024712199810665	1.3527636998333037	135.9815847002901	0.56130490032956	134.95426069991663	2	1	16	3	go_reward	1	1	0	1	1	1	0	0.0	1.0	1	0.6692920001223683	0.56130490032956	1056.1742722997442	1186.2331258999184	1187.2398055996746	1187.568378099706	1189.0988405998796	1190.1235527996903	1191.1285329996608	1192.1558570000343	1193.1591171999462	1194.5118808997795	2020-01-15 16:29:12.210183	2.04829858125279	0.601392212126031	0.0	0.297736708756601	2.04829858125279	0.0	-2.04829858125279	0.601392212126031	0.0	2.04829858125279	0.0	4.415970173274719	0.677664822355468	0.3687283742528793	-0.06667089455956333	-0.29137184943938516	0.30741231215199805	-0.06667089455956333	4.35749140842221	0.4592031199739528	-0.21846170238151708	-0.01492529980291979	0.31698277949623554	3	correct	1.0
138.3423901000058	8.875996199902602	go_punish	1.0	138.3643645001573	140.3658485999331	142.90426710015163	2.00148409977578	139.3758320002819	141.88036719989032	145.96008069999493	0.9900165996511987	1.0238999002613127	1.2802800000649768	144.95287410030141	0.3215731000527739	143.91795139992632	2	1	17	1	go_punish	1	0	-1	1	0	0	0	0.0	1.0	-1	1.0	0.3215731000527739	1056.1742722997442	1194.5386367999015	1195.550104300026	1196.5401208996773	1198.0546394996345	1199.0785393998958	1200.0922236996705	1201.1271464000456	1202.1343529997391	1203.414632999804	2020-01-15 16:29:12.210183	-0.123687239364748	-0.802343607368522	0.0	-0.802343607368522	0.123687239364748	0.0	0.123687239364748	0.0	-0.802343607368522	0.0	0.123687239364748	-4.86822581609547	-1.4943209982620698	-1.0350074452416735	-0.06667089455956333	-1.391452165564508	-1.617199029736044	-0.06667089455956333	-4.926704580947979	-1.589095461278837	-0.09477446301676908	-0.6163175119289508	-0.4853608278722864	3	correct	1.0
147.26323240017518	8.223399599548202	go_reward	0.2788650002330541	147.2852068003267	149.1317269001156	151.7030663001351	1.8465200997889042	148.283373599872	150.67058320017532	154.7484110002406	0.8483533002436161	1.0324830999597907	0.7601953996343127	153.74557830020785	0.2992229997180402	152.72019460005686	2	1	18	3	go_reward	1	1	0	1	1	1	1	1.0	1.0	1	0.2788650002330541	0.2992229997180402	1056.1742722997442	1203.459479100071	1204.4576458996162	1205.3059991998598	1206.8448554999195	1207.8773385998793	1208.894466899801	1209.919850599952	1210.9226832999848	1211.682878699619	2020-01-15 16:29:12.210183	4.11628769954181	1.86957799001255	0.0	1.6743834716577	4.11628769954181	0.0	-4.11628769954181	1.86957799001255	0.0	4.11628769954181	0.0	3.1477843953882	2.7456539406444884	1.6369141521393984	-0.06667089455956333	1.085274913461714	2.375401430441018	-0.06667089455956333	3.089305630535691	2.5271922382629732	-0.21846170238151708	1.2532604780835992	0.31698277949623554	3	correct	1.0
155.53000529995188	8.14415689976886	go_reward	1.0	155.5519797001034	157.38202919997275	159.8997912001796	1.8300494998693466	156.56099070003256	158.88921769987792	162.94330660020933	0.8210384999401867	1.010573500301689	0.7528299996629357	161.93041829997674	0.3676893999800086	160.91724070021883	2	1	19	3	go_reward	1	1	0	1	0	0	0	0.0	1.0	0	1.0	0.3676893999800086	1056.1742722997442	1211.7262519998476	1212.7352629997768	1213.556301499717	1215.063489999622	1216.0740634999238	1217.091512999963	1218.104690599721	1219.1175788999535	1219.8704088996165	2020-01-15 16:29:12.210183	-5.39282224184077	2.66178961725499	0.0	2.53144297399073	5.39282224184077	0.0	5.39282224184077	0.0	2.66178961725499	0.0	5.39282224184077	0.0	-6.763456000738092	2.429125779381838	-0.06667089455956333	1.9423344157947438	3.6519359727399783	-0.06667089455956333	-0.058478764852508885	-1.589095461278837	5.174360539459253	-0.6163175119289508	2.9787723967512254	3	correct	1.0
163.70630839979276	9.013095899950713	nogo_reward	0.3405726999044418	163.72828279994428	166.30678489990532	168.85271630017087	2.5785020999610424	164.73950970033184	167.83788700029254	171.9030315000564	1.567275199573487	1.014829299878329	0.8383471998386085	170.89559890003875	0.3249416002072394	169.8776646000333	2	1	20	4	nogo_reward	1	0	1	0	1	0	0	0.0	1.0	0	0.3405726999044418	0.3249416002072394	1056.1742722997442	1219.9025550996885	1220.913782000076	1222.4810571996495	1224.0121593000367	1225.026988599915	1226.0519368997775	1227.069871199783	1228.0773037998006	1228.9156509996392	2020-01-15 16:29:12.210183	0.10249622011772	0.0	2.36405290849838	2.05555233041347	2.4665491286161	2.36405290849838	-0.10249622011772	0.0	2.36405290849838	2.4665491286161	2.36405290849838	0.0	-1.268137538779602	-0.23266383787315167	2.2973820139388166	1.4664437722174837	0.7256628595153083	2.2973820139388166	-0.058478764852508885	0.877453667337263	2.145591206116863	-0.6163175119289508	2.6810356879946156	3	correct	1.0
172.77518770005554	8.604197999928147	go_reward	0.3313472997397184	172.79716210020706	174.3591547999531	176.91449890006334	1.5619926997460425	173.795149799902	175.89643440023065	179.95132940029725	0.564005000051111	1.0180644998326898	1.4500306998379529	178.9370504003018	0.3611222002655267	177.9174693999812	2	1	21	3	go_reward	1	1	0	1	1	1	1	1.0	1.0	1	0.3313472997397184	0.3611222002655267	1056.1742722997442	1228.9714343999512	1229.9694220996462	1230.5334270996973	1232.0707066999748	1233.0887711998075	1234.0917416997254	1235.111322700046	1236.1256017000414	1237.5756323998794	2020-01-15 16:29:12.210183	4.85908291170275	2.66178961725499	0.0	1.64157456433722	4.85908291170275	0.0	-4.85908291170275	2.66178961725499	0.0	4.85908291170275	0.0	2.35557276814576	3.488449152805428	2.429125779381838	-0.06667089455956333	1.0524660061412336	3.1181966426019576	-0.06667089455956333	2.297094003293251	3.269987450423913	-0.21846170238151708	2.045472105326039	0.31698277949623554	3	correct	1.0
181.40524110011756	7.93153759976849	go_punish	0.5852359002456069	181.42721550026909	182.70817130012438	185.2504810001701	1.2809557998552918	182.4276781999506	184.23256279993802	188.3058446003124	0.2804931001737714	1.0179182002320886	1.052908499725163	187.28613810008392	0.5640935003757477	186.25950320018455	2	1	22	1	go_punish	1	0	-1	1	1	1	0	0.0	1.0	0	0.5852359002456069	0.5640935003757477	1056.1742722997442	1237.6014878000133	1238.6019504996948	1238.8824435998686	1240.4068350996822	1241.4247532999143	1242.4337754999287	1243.460410399828	1244.4801169000566	1245.5330253997818	2020-01-15 16:29:12.210183	0.90052543782874	-0.802343607368522	-1.24373370291089	-1.79077497702836	-0.343208265082151	-1.24373370291089	-0.90052543782874	-0.802343607368522	-1.24373370291089	-0.343208265082151	-1.24373370291089	0.802343607368522	-0.4701083210685819	-1.0350074452416735	-1.3104045974704532	-2.379883535224346	-2.0840945341829427	-1.3104045974704532	0.743864842516013	-1.9323037263609881	-1.462195405292407	-1.4186611192974727	-0.9267509234146544	3	correct	1.0
189.36319679999724	8.304022899828851	go_punish	0.3436103998683393	189.38517120014876	190.88481529988348	193.44265670003392	1.4996440997347236	190.3831533002667	192.42290390003473	196.4929702002555	0.5016619996167719	1.0197527999991962	1.1962238997220993	195.4807470003143	0.3292693002149462	194.46042110025883	2	1	23	1	go_punish	1	0	-1	1	1	1	0	0.0	1.0	0	0.3436103998683393	0.3292693002149462	1056.1742722997442	1245.559443499893	1246.557425600011	1247.0590875996277	1248.597176199779	1249.616928999778	1250.634693400003	1251.6550193000585	1252.6672424999997	1253.8634663997218	2020-01-15 16:29:12.210183	1.45947165164704	-0.54704127411747	-1.24373370291089	-1.19229433217424	0.21573794873615	-1.24373370291089	-1.45947165164704	-0.54704127411747	-1.24373370291089	0.21573794873615	-1.24373370291089	0.54704127411747	0.0888378927497182	-0.7797051119906218	-1.3104045974704532	-1.7814028903702264	-1.5251483203646419	-1.3104045974704532	0.48856250926496114	-1.3733575125426871	-1.462195405292407	-1.163358786046421	-0.9267509234146544	3	correct	1.0
197.69618480000645	8.363191899843514	go_punish	0.4716292000375688	197.71815920015797	199.2059309002941	201.75268879998475	1.4877717001361361	198.71371580008417	200.73294740030542	204.81180249992758	0.49221510020993264	1.019741399679333	1.2695486000739038	203.7994744000025	0.4362207003869116	202.77158039994538	2	1	24	1	go_punish	1	0	-1	1	1	1	1	1.0	1.0	0	0.4716292000375688	0.4362207003869116	1056.1742722997442	1253.8924314999022	1254.8879880998284	1255.3802032000383	1256.9072197000496	1257.926961099729	1258.9458526996896	1259.9737466997467	1260.9860747996718	1262.2556233997457	2020-01-15 16:29:12.210183	1.79245412073009	-0.389950724805723	-1.24373370291089	-0.835474015473812	0.548720417819196	-1.24373370291089	-1.79245412073009	-0.389950724805723	-1.24373370291089	0.548720417819196	-1.24373370291089	0.389950724805723	0.42182036183276805	-0.6226145626788747	-1.3104045974704532	-1.4245825736697981	-1.1921658512815958	-1.3104045974704532	0.3314719599532141	-1.040375043459641	-1.462195405292407	-1.0062682367346738	-0.9267509234146544	3	correct	1.0
206.1029445999302	8.702074499800801	nogo_punish	1.0	206.12491900008172	207.85783010022692	210.37564630014822	1.732911100145202	207.12326889997348	209.36230560019612	213.4273259001784	0.7345612002534381	1.0133406999520957	1.3996675997041166	212.41451720008627	0.322564700152725	211.38555990019813	2	1	25	2	nogo_punish	1	-1	0	0	0	1	0	0.0	1.0	0	1.0	0.322564700152725	1056.1742722997442	1262.299191299826	1263.2975411997177	1264.032102399971	1265.5365778999403	1266.5499185998924	1267.5598321999423	1268.5887894998305	1269.6015981999226	1271.0012657996267	2020-01-15 16:29:12.210183	1.4211468346355	-2.59311858439688	-1.24373370291089	-2.98306930920261	-2.66488053754639	-1.24373370291089	-1.4211468346355	-1.24373370291089	-2.59311858439688	-1.24373370291089	-2.66488053754639	1.24373370291089	0.050513075738178204	-2.8257824222700316	-1.3104045974704532	-3.5721778673985964	-4.405766806647182	-1.3104045974704532	1.185254938058381	-2.832829164189727	-2.883342239927907	-1.8600512148398407	-2.2761358049006444	3	correct	1.0
214.8291966998952	9.5864614001473	nogo_reward	0.0647029997780919	214.8511711000467	217.61601429991424	220.16782130021602	2.764843199867528	215.8528777998872	219.14292160002492	223.21982110012323	1.7631365000270307	1.0248997001910993	1.2178114000707865	222.2160807000473	0.451611999887973	221.18806060031056	2	1	26	4	nogo_reward	0	1	0	0	1	0	0	0.0	1.0	1	0.0647029997780919	0.451611999887973	1056.1742722997442	1271.025443399791	1272.0271500996314	1273.7902865996584	1275.317193899769	1276.3420935999602	1277.3623329000548	1278.3903529997915	1279.3940933998674	1280.6119047999382	2020-01-15 16:29:12.210183	-0.336290341616496	0.0	2.36405290849838	1.32531066193606	2.02776256688189	2.36405290849838	0.336290341616496	0.0	2.36405290849838	2.02776256688189	2.36405290849838	5.01736238540075	-1.7069241005138178	-0.23266383787315167	2.2973820139388166	0.7362021037400738	0.28687629778109813	2.2973820139388166	4.958883620548241	0.4386671056030529	2.145591206116863	-0.6163175119289508	2.6810356879946156	3	correct	1.0
224.45775289973244	9.309783900156617	nogo_punish	1.0	224.47972729988396	227.00581640005112	229.5336803998798	2.5260891001671553	225.47984360018745	228.51882170001045	232.57721860008292	1.5259727998636663	1.0148586998693645	1.2122925999576637	231.56735440017655	0.7478109002113342	230.5389356999658	2	1	27	2	nogo_punish	0	0	-1	0	0	1	1	0.0	0.0	-1	1.0	0.7478109002113342	1056.1742722997442	1280.6539995996282	1281.6541158999316	1283.1800886997953	1284.6930939997546	1285.707952699624	1286.71320799971	1287.7416266999207	1288.751490899827	1289.9637834997848	2020-01-15 16:29:12.210183	1.38300112983932	-2.59311858439688	-0.802343607368522	-2.02776834764806	-2.18534473720784	-0.802343607368522	-1.38300112983932	-0.802343607368522	-2.59311858439688	-0.802343607368522	-2.18534473720784	-4.065882208726948	0.012367370941998246	-2.8257824222700316	-0.8690145019280853	-2.6168769058440464	-3.9262310063086314	-0.8690145019280853	-4.124360973579456	-2.391439068647359	-2.403806439589357	-1.4186611192974727	-2.2761358049006444	3	wrong	1.0
233.8117407001555	9.0489512998613	go_reward	0.3099607997573912	233.83371510030702	236.26855179993413	238.82669589994475	2.4348366996271125	234.8404796998948	237.79911260027438	241.87370500015095	1.4280721000393441	1.0275832996703684	1.0089614000173697	240.8614600999283	0.7381413001567125	239.8435224001296	2	1	28	3	go_reward	1	1	0	1	1	1	0	0.0	1.0	1	0.3099607997573912	0.7381413001567125	1056.1742722997442	1290.0079874000512	1291.014751999639	1292.4428240996783	1293.9733849000186	1295.000968199689	1296.0177946998738	1297.0357323996725	1298.0479772998951	1299.0569386999125	2020-01-15 16:29:12.210183	5.91965984682111	3.18566847399468	0.0	2.57451295932411	5.91965984682111	0.0	-5.91965984682111	3.18566847399468	0.0	5.91965984682111	0.0	1.8316939114060697	4.549026087923789	2.9530046361215283	-0.06667089455956333	1.9854044011281236	4.178773577720318	-0.06667089455956333	1.7732151465535608	4.3305643855422735	-0.21846170238151708	2.5693509620657293	0.31698277949623554	3	correct	1.0
242.9016962000169	8.935900600161403	go_reward	0.3489628001116216	242.9236706001684	244.7786631002091	247.33795379986987	1.8549925000406802	243.93381300009787	246.31361859990284	250.38058510003611	0.8448501001112163	1.0243351999670267	1.478986100293696	249.37813490023836	0.6384454998187721	248.35116480011493	2	1	29	3	go_reward	1	1	0	1	1	1	0	0.0	1.0	1	0.3489628001116216	0.6384454998187721	1056.1742722997442	1299.0979428999126	1300.108085299842	1300.9529353999533	1302.487890899647	1303.512226099614	1304.5254370998591	1305.5524071999826	1306.5548573997803	1308.033843500074	2020-01-15 16:29:12.210183	6.60919978930419	3.54825305784187	0.0	3.16101089586523	6.60919978930419	0.0	-6.60919978930419	3.54825305784187	0.0	6.60919978930419	0.0	1.46910932755888	5.238566030406869	3.315589219968718	-0.06667089455956333	2.571902337669244	4.868313520203398	-0.06667089455956333	1.410630562706371	5.0201043280253534	-0.21846170238151708	2.931935545912919	0.31698277949623554	3	correct	1.0
251.863745899871	8.698665699921548	go_punish	0.2628419999964535	251.8857203000225	254.0657800002955	256.60786870028824	2.1800597002729774	252.89492079988122	255.5866364003159	259.6630170000717	1.1708592004142702	1.0212322999723256	0.9213689998723567	258.65412170020863	0.5091174002736807	257.6264488003219	2	1	30	1	go_punish	1	0	-1	1	1	1	0	0.0	1.0	0	0.2628419999964535	0.5091174002736807	1056.1742722997442	1308.0599925997667	1309.0691930996254	1310.2400523000397	1311.76090870006	1312.7821410000324	1313.800721100066	1314.8283939999528	1315.837289299816	1316.7586582996882	2020-01-15 16:29:12.210183	2.00182451404299	-0.288432741356342	-1.24373370291089	-0.610053521265497	0.7580908111321	-1.24373370291089	-2.00182451404299	-0.288432741356342	-1.24373370291089	0.7580908111321	-1.24373370291089	0.288432741356342	0.6311907551456681	-0.5210965792294937	-1.3104045974704532	-1.199162079461483	-0.9827954579686918	-1.3104045974704532	0.22995397650383312	-0.8310046501467371	-1.462195405292407	-0.9047502532852928	-0.9267509234146544	3	correct	1.0
260.61415460007265	9.27940919995308	go_reward	0.2885509002953768	260.6361290002242	263.1055892002769	265.66106810001656	2.4694602000527084	261.6404757001437	264.645330700092	268.72026500012726	1.4651135001331568	1.0157373999245465	1.1952732000499964	267.7074862001464	0.3298713997937739	266.6734965001235	2	1	31	3	go_reward	1	1	0	1	1	1	1	1.0	1.0	1	0.2885509002953768	0.3298713997937739	1056.1742722997442	1316.8104012999684	1317.814747999888	1319.279861500021	1320.8196029998362	1321.8353403997608	1322.8477687998677	1323.8817584998906	1324.8945372998714	1326.0898104999214	2020-01-15 16:29:12.210183	7.08089522897155	3.80888926310638	0.0	3.55233191813476	7.08089522897155	0.0	-7.08089522897155	3.80888926310638	0.0	7.08089522897155	0.0	1.2084731222943699	5.7102614700742285	3.576225425233228	-0.06667089455956333	2.9632233599387736	5.340008959870758	-0.06667089455956333	1.149994357441861	5.491799767692713	-0.21846170238151708	3.192571751177429	0.31698277949623554	3	correct	1.0
269.93650159984827	9.306020600255579	nogo_punish	1.0	269.9584759999998	272.30054929992184	274.82871850021183	2.342073299922049	270.9580673002638	273.8069858001545	277.8758386000991	1.3424819996580482	1.0217327000573277	1.3886580001562834	276.85671079996973	0.5422088000923395	275.8343202001415	2	1	32	2	nogo_punish	0	0	-1	0	0	1	0	0.0	1.0	-1	1.0	0.5422088000923395	1056.1742722997442	1326.132748299744	1327.132339600008	1328.474821599666	1329.9812580998987	1331.002990799956	1332.0085924998857	1333.030983099714	1334.0501108998433	1335.4387688999996	2020-01-15 16:29:12.210183	0.70559711426331	-2.59311858439688	-1.79077497702836	-2.6892612396502	-2.49637209129167	-1.79077497702836	-0.70559711426331	-1.79077497702836	-2.59311858439688	-1.79077497702836	-2.49637209129167	-3.07745083906711	-0.6650366446340119	-2.8257824222700316	-1.8574458715879234	-3.278369797846186	-4.237258360392461	-1.8574458715879234	-3.1359296039196187	-3.379870438307197	-2.714833793673187	-2.4070924889573106	-2.2761358049006444	3	correct	1.0
279.28462339984253	8.598955899942666	nogo_punish	1.0	279.30659779999405	281.1664722999558	283.69576360005885	1.8598744999617338	280.31685779988766	282.6812036000192	286.7404304998927	0.8496145000681281	1.014560000039637	1.165123200044036	285.72748140012845	0.5848036999814212	284.70990939997137	2	1	33	2	nogo_punish	0	0	-1	0	0	1	0	0.0	1.0	-1	1.0	0.5848036999814212	1056.1742722997442	1335.4808700997382	1336.4911300996318	1337.3407445997	1338.8554758997634	1339.870035899803	1340.8841816997156	1341.9017536998726	1342.9147027996369	1344.079825999681	2020-01-15 16:29:12.210183	0.250978722035385	-2.59311858439688	-2.43602803508514	-3.1170491704902	-2.68700675712052	-2.43602803508514	-0.250978722035385	-2.43602803508514	-2.59311858439688	-2.43602803508514	-2.68700675712052	-2.43219778101033	-1.119655036861937	-2.8257824222700316	-2.5026989296447035	-3.706157728686186	-4.427893026221311	-2.5026989296447035	-2.490676545862839	-4.025123496363977	-2.905468459502037	-3.0523455470140908	-2.2761358049006444	3	correct	1.0
287.92688830010593	8.320851599797606	nogo_punish	0.8213462000712752	287.94886270025745	289.4114081999287	291.96445369999856	1.4625454996712506	288.9520618002862	290.9477368001826	295.02046320028603	0.4593463996425271	1.0167168998159468	1.249251099769026	294.0021317000503	0.5727061000652611	292.9729681001047	2	1	34	2	nogo_punish	0	0	-1	0	1	0	1	0.0	0.0	0	0.8213462000712752	0.5727061000652611	1056.1742722997442	1344.1231350000016	1345.1263341000304	1345.585680499673	1347.1220090999268	1348.1387259997427	1349.147240399849	1350.1764039997945	1351.1947355000302	1352.4439865997992	2020-01-15 16:29:12.210183	0.0699551122922261	-2.59311858439688	-2.88155132575323	-3.41242553739889	-2.811596213461	-2.88155132575323	-0.0699551122922261	-2.59311858439688	-2.88155132575323	-2.811596213461	-2.88155132575323	2.59311858439688	-1.3006786466050957	-2.8257824222700316	-2.9482222203127937	-4.001534095594876	-4.552482482561792	-2.9482222203127937	2.534639819544371	-4.4006916747398375	-3.100013028134747	-3.2094360963258306	-2.5645685462569947	3	wrong	1.0
296.28971019992605	8.341116200201213	nogo_punish	0.3936971998773515	296.31168460007757	298.1648861002177	300.7077035000548	1.8532015001401305	297.32056500017643	299.6933891000226	303.76377109996974	0.8443211000412703	1.0143144000321627	0.8890297003090382	302.75068910000846	0.3996505998075008	301.72205269988626	2	1	35	2	nogo_punish	1	-1	0	0	1	0	1	0.0	0.0	-1	0.3936971998773515	0.3996505998075008	1056.1742722997442	1352.4859568998218	1353.4948372999206	1354.339158399962	1355.8676613997668	1356.881975799799	1357.8963249996305	1358.9249613997526	1359.938043399714	1360.827073100023	2020-01-15 16:29:12.210183	1.43289023240679	-1.73933560629171	-2.88155132575323	-2.38327217484979	-1.44866109334643	-2.88155132575323	-1.43289023240679	-1.73933560629171	-2.88155132575323	-1.44866109334643	-2.88155132575323	-3.1288902098037603	0.06225647350946817	-1.9719994441648616	-2.9482222203127937	-2.9723807330457763	-3.1895473624472217	-2.9482222203127937	-3.1873689746562692	-3.037756554625267	-3.100013028134747	-2.355653118220661	-2.5645685462569947	3	wrong	1.0
304.6547626997342	9.368260600138683	nogo_reward	0.2808690001256764	304.6767370998857	307.0999838002026	309.6423182999715	2.423246700316895	305.6787577001378	308.63159399991855	312.6921037998982	1.421226100064814	1.0107243000529706	1.3528939001262188	311.6802413999103	0.2969883000478148	310.6506989002228	2	1	36	4	nogo_reward	1	0	1	0	1	0	0	0.0	1.0	0	0.2808690001256764	0.2969883000478148	1056.1742722997442	1360.85100939963	1361.853029999882	1363.2742560999468	1364.8058662996627	1365.8165905997157	1366.824971199967	1367.8545136996545	1368.8663760996424	1370.2192699997686	2020-01-15 16:29:12.210183	1.70988618924242	1.45416011828744	2.36405290849838	2.35328903917007	4.0739390977408	2.36405290849838	-1.70988618924242	1.45416011828744	2.36405290849838	4.0739390977408	2.36405290849838	-1.45416011828744	0.3392524303450981	1.2214962804142884	2.2973820139388166	1.7641804809740838	2.3330528286400076	2.2973820139388166	-1.5126388831399489	2.484843636461963	2.145591206116863	0.8378426063584892	2.6810356879946156	3	correct	1.0
314.0474950000644	8.855704300105572	nogo_reward	1.0	314.0694694002159	315.87671989994124	318.4149476001039	1.8072504997253418	315.0890424000097	317.3916762000881	321.4589464999733	0.787677499931533	1.0232714000158012	1.4662272003481576	320.44934489997104	0.5452884002588689	319.42037390032783	2	1	37	4	nogo_reward	1	0	1	0	0	1	0	0.0	1.0	1	1.0	0.5452884002588689	1056.1742722997442	1370.24374169996	1371.263314699754	1372.0509921996854	1373.5659484998323	1374.589219899848	1375.594646200072	1376.6236171997152	1377.6332187997175	1379.0994460000657	2020-01-15 16:29:12.210183	-0.683290926673674	0.909892790210943	2.36405290849838	1.54553401530632	3.04734383517206	2.36405290849838	0.683290926673674	2.36405290849838	0.909892790210943	2.36405290849838	3.04734383517206	2.6533094769023697	-2.053924685570996	0.6772289523377913	2.2973820139388166	0.9564254571103338	1.3064575660712683	2.2973820139388166	2.594830712049861	0.7749574472195431	2.828882132790543	1.7477353965694293	1.2268755697071785	3	correct	1.0
322.94770300015807	7.848097599577159	go_reward	0.347594500053674	322.9696774003096	324.3851115000434	326.9292334001509	1.4154340997338295	323.976009900216	325.90584190003574	329.9585966998711	0.4091015998274088	1.0233915001151672	0.8591783000156283	328.9563946998678	0.5683435001410544	327.94528970029205	2	1	38	3	go_reward	1	1	0	1	1	1	0	0.0	1.0	1	0.347594500053674	0.5683435001410544	1056.1742722997442	1379.1439497000538	1380.1502821999602	1380.5593837997876	1382.08011419978	1383.103505699895	1384.1195620000362	1385.130666999612	1386.1328689996153	1386.992047299631	2020-01-15 16:29:12.210183	7.41697093394761	4.00236581166191	0.0	3.82597750053052	7.41697093394761	0.0	-7.41697093394761	4.00236581166191	0.0	7.41697093394761	0.0	1.0149965737388396	6.046337175050288	3.7697019737887585	-0.06667089455956333	3.236868942334534	5.676084664846818	-0.06667089455956333	0.9565178088863306	5.827875472668773	-0.21846170238151708	3.3860482997329595	0.31698277949623554	3	correct	1.0
330.82149549992755	9.349870100151747	go_punish	0.6520207999274135	330.84346990007907	333.1806386001408	335.7212151000276	2.3371687000617385	331.8528940998949	334.71184469992295	338.7715723998847	1.327744500245899	1.0093704001046717	1.4217676003461293	337.76343970000744	0.8134798002429307	336.7401545001194	2	1	39	1	go_punish	1	0	-1	1	1	1	0	0.0	1.0	0	0.6520207999274135	0.8134798002429307	1056.1742722997442	1387.0177421998233	1388.027166399639	1389.354910899885	1390.8861169996671	1391.8954873997718	1392.9144267998636	1393.9377119997516	1394.9458446996289	1396.367612299975	2020-01-15 16:29:12.210183	2.13931305480341	-0.220102796459774	-1.24373370291089	-0.460918338945288	0.89557935189252	-1.24373370291089	-2.13931305480341	-0.220102796459774	-1.24373370291089	0.89557935189252	-1.24373370291089	0.220102796459774	0.768679295906088	-0.4527666343329257	-1.3104045974704532	-1.050026897141274	-0.8453069172082718	-1.3104045974704532	0.16162403160726513	-0.693516109386317	-1.462195405292407	-0.8364203083887248	-0.9267509234146544	3	correct	1.0
340.2144113997929	9.107875500340015	go_reward	0.3807757003232837	340.2363857999444	342.2819002000615	344.83611229993403	2.0455144001170993	341.23565299995244	343.8124094000086	347.8668277002871	1.0462472001090646	1.0237028999254107	1.4774335999973118	346.8539444003254	0.3170445999130606	345.8426288999617	2	1	40	3	go_reward	1	1	0	1	1	1	1	0.0	0.0	1	0.3807757003232837	0.3170445999130606	1056.1742722997442	1396.4106580996886	1397.4099252996966	1398.4561724998057	1399.9866816997528	1401.0103845996782	1402.016901199706	1403.0282167000696	1404.0411000000313	1405.5185336000286	2020-01-15 16:29:12.210183	7.66466263501917	4.15001652685387	0.0	4.02485427901312	7.66466263501917	0.0	-7.66466263501917	4.15001652685387	0.0	7.66466263501917	0.0	0.8673458585468801	6.294028876121848	3.917352688980718	-0.06667089455956333	3.4357457208171334	5.9237763659183775	-0.06667089455956333	0.8088670936943712	6.075567173740333	-0.21846170238151708	3.533699014924919	0.31698277949623554	3	wrong	1.0
349.3654466997832	9.44919790001586	nogo_punish	0.2739856000989675	349.3874210999347	352.3466906999238	354.8883019001223	2.9592695999890566	350.3958070999943	353.8675863998942	357.9373576999642	1.9508835999295115	1.020715500228107	0.8992612999863923	356.9287260998972	0.8443780997768044	355.90328609989933	2	1	41	2	nogo_punish	0	0	-1	0	1	0	0	0.0	1.0	0	0.2739856000989675	0.8443780997768044	1056.1742722997442	1405.561693399679	1406.5700793997385	1408.520962999668	1410.0418586996384	1411.0625741998665	1412.0775583996435	1413.1029983996414	1414.1116299997084	1415.0108912996948	2020-01-15 16:29:12.210183	0.414636904208243	-2.46915844319043	-2.88155132575323	-2.98700906409849	-2.46691442154498	-2.88155132575323	-0.414636904208243	-2.46915844319043	-2.88155132575323	-2.46691442154498	-2.88155132575323	2.46915844319043	-0.9559968546890789	-2.7018222810635817	-2.9482222203127937	-3.5761176222944764	-4.2078006906457714	-2.9482222203127937	2.410679678337921	-4.056009882823817	-3.100013028134747	-3.0854759551193807	-2.5645685462569947	3	correct	1.0
358.8585192998871	8.33636590000242	go_reward	0.2963843001052737	358.88049370003864	360.5662811002694	363.12620529998094	1.6857874002307653	359.87871500011533	362.1020590001717	366.16773890005425	0.687566100154072	1.0241462998092175	1.0491206999868155	365.1532477000728	0.5195201998576522	364.1411562003193	2	1	42	3	go_reward	1	1	0	1	1	1	1	1.0	1.0	1	0.2963843001052737	0.5195201998576522	1056.1742722997442	1415.0547659997828	1416.0529872998595	1416.7405534000136	1418.276331299916	1419.3004775997251	1420.3154285000635	1421.327519999817	1422.3420111997984	1423.3911318997853	2020-01-15 16:29:12.210183	7.85254046960606	4.26542941735246	0.0	4.17414835309898	7.85254046960606	0.0	-7.85254046960606	4.26542941735246	0.0	7.85254046960606	0.0	0.7519329680482896	6.4819067107087385	4.0327655794793085	-0.06667089455956333	3.5850397949029937	6.111654200505268	-0.06667089455956333	0.6934542031957807	6.263445008327223	-0.21846170238151708	3.6491119054235095	0.31698277949623554	3	correct	1.0
367.22063439991325	7.978627000004053	go_punish	0.3567514000460505	367.2426088000648	368.61092639993876	371.1338378000073	1.3683175998739898	368.2519537000919	370.1291290000081	374.1929041999392	0.358972699846845	1.0047087999992073	1.0283316001296043	373.1803752002306	0.4041736000217497	372.15056669991463	2	1	43	1	go_punish	1	0	-1	1	1	1	0	0.0	1.0	0	0.3567514000460505	0.4041736000217497	1056.1742722997442	1423.416881099809	1424.426225999836	1424.785198699683	1426.3034012997523	1427.3081100997515	1428.3248389996588	1429.3546474999748	1430.3671764996834	1431.395508099813	2020-01-15 16:29:12.210183	2.23295169375438	-0.172485597588946	-1.24373370291089	-0.358388614056715	0.989217990843489	-1.24373370291089	-2.23295169375438	-0.172485597588946	-1.24373370291089	0.989217990843489	-1.24373370291089	0.172485597588946	0.8623179348570582	-0.4051494354620977	-1.3104045974704532	-0.9474971722527012	-0.7516682782573028	-1.3104045974704532	0.11400683273643711	-0.599877470435348	-1.462195405292407	-0.7888031095178968	-0.9267509234146544	3	correct	1.0
375.24147540004924	7.862969299778342	nogo_punish	0.6196745000779629	375.26344980020076	376.5640318002552	379.0990699999966	1.300582000054419	376.25940999994054	378.0918288999237	382.14859060011804	0.30462180031463504	1.0072411000728607	0.9778284998610616	381.13408200023696	0.6415822999551892	380.10818680003285	2	1	44	2	nogo_punish	1	-1	0	0	1	0	0	0.0	1.0	-1	0.6196745000779629	0.6415822999551892	1056.1742722997442	1431.437722099945	1432.4336822996847	1432.7383040999994	1434.266101199668	1435.2733422997408	1436.282459099777	1437.3083542999811	1438.3228628998622	1439.3006913997233	2020-01-15 16:29:12.210183	1.60443148712102	-1.70082986999036	-2.88155132575323	-2.12552696885664	-1.27711983863221	-2.88155132575323	-1.60443148712102	-1.70082986999036	-2.88155132575323	-1.27711983863221	-2.88155132575323	-3.16739594610511	0.23379772822369804	-1.9334937078635115	-2.9482222203127937	-2.7146355270526263	-3.018006107733002	-2.9482222203127937	-3.225874710957619	-2.866215299911047	-3.100013028134747	-2.3171473819193107	-2.5645685462569947	3	correct	1.0
383.1318443999628	7.9141143001616	go_punish	0.8514766003936529	383.1538188001143	384.7242172001861	387.263539200183	1.570398400071781	384.16164330020547	386.2600925001316	390.28567459993064	0.5625738999806345	1.0034467000514269	0.7822585003452787	389.2815578998998	1.0	388.2711390000768	2	1	45	1	go_punish	1	0	-1	1	1	1	1	n/a	0.0	-1	0.8514766003936529	1.0	1056.1742722997442	1439.3280910998585	1440.3359155999497	1440.8984894999303	1442.4343647998758	1443.4378114999272	1444.445411299821	1445.455830199644	1446.4599468996748	1447.24220540002	2020-01-15 16:29:12.210183	2.29876211583664	-0.138285817596941	-1.24373370291089	-0.28554795450136	1.05502841292575	-1.24373370291089	-2.29876211583664	-0.138285817596941	-1.24373370291089	1.05502841292575	-1.24373370291089	0.138285817596941	0.9281283569393179	-0.3709496554700927	-1.3104045974704532	-0.8746565126973462	-0.6858578561750419	-1.3104045974704532	0.07980705274443212	-0.5340670483530872	-1.462195405292407	-0.7546033295258918	-0.9267509234146544	3	missed	0.0
391.0919800000265	9.54897559992969	go_reward	0.286137799732387	391.11395440017805	393.6717429002747	396.2175524001941	2.557788500096649	392.1250926000066	395.2021975000389	399.27296209987253	1.5466503002680838	1.0153549001552165	1.3899679002352059	398.25978500023484	0.4669374004006386	397.23080460028723	2	1	46	3	go_reward	1	1	0	1	1	1	0	0.0	1.0	1	0.286137799732387	0.4669374004006386	1056.1742722997442	1447.2882266999222	1448.2993648997508	1449.8460152000189	1451.376469799783	1452.3918246999383	1453.4050769000314	1454.434057299979	1455.4472343996167	1456.837202299852	2020-01-15 16:29:12.210183	7.99861927962958	4.35754652847289	0.0	4.2893541620756	7.99861927962958	0.0	-7.99861927962958	4.35754652847289	0.0	7.99861927962958	0.0	0.6598158569278603	6.627985520732258	4.124882690599738	-0.06667089455956333	3.700245603879614	6.257733010528788	-0.06667089455956333	0.6013370920753514	6.409523818350743	-0.21846170238151708	3.741229016543939	0.31698277949623554	3	correct	1.0
400.68353299982846	7.9337210999801755	go_reward	0.5979054002091289	400.70550739998	402.08088129991665	404.6307912003249	1.375373899936676	401.7192965000868	403.6085105999375	407.6877230000682	0.36158479982987046	1.0222806003873757	0.9515054998919368	406.6684125000611	0.575596499722451	405.6451404001564	2	1	47	3	go_reward	1	1	0	1	1	1	0	0.0	1.0	1	0.5979054002091289	0.575596499722451	1056.1742722997442	1456.8797796997242	1457.893568799831	1458.2551535996608	1459.7827828996817	1460.805063500069	1461.8194126999006	1462.8426847998053	1463.8619952998124	1464.8135007997043	2020-01-15 16:29:12.210183	8.11466283272977	4.43242379645404	0.0	4.38038430371624	8.11466283272977	0.0	-8.11466283272977	4.43242379645404	0.0	8.11466283272977	0.0	0.5849385889467102	6.744029073832449	4.199759958580888	-0.06667089455956333	3.7912757455202537	6.3737765636289785	-0.06667089455956333	0.5264598240942013	6.525567371450934	-0.21846170238151708	3.816106284525089	0.31698277949623554	3	correct	1.0
408.64301350014284	9.405602399725467	go_punish	1.0	408.66498790029436	411.2787552000955	413.795947200153	2.613767299801111	409.6670725001022	412.7838110001758	416.8430977999235	1.6116826999932528	1.012136199977249	1.2274925000963322	415.8285051002167	0.4270918997935951	414.8097411002964	2	1	48	1	go_punish	1	0	-1	1	0	0	0	0.0	1.0	-1	1.0	0.4270918997935951	1056.1742722997442	1464.8392602000386	1465.8413447998464	1467.4530274998397	1468.95808329992	1469.9702194998972	1470.9840134000406	1472.002777399961	1473.0173700996677	1474.244862599764	2020-01-15 16:29:12.210183	-0.50780095204406	-1.3567960598233	-1.24373370291089	-1.4760363693176	-0.735932750866831	-1.24373370291089	0.50780095204406	-1.24373370291089	-1.3567960598233	-1.24373370291089	-0.735932750866831	-3.62449211318458	-1.8784347109413817	-1.5894598976964516	-1.3104045974704532	-2.065144927513586	-2.476819019967623	-1.3104045974704532	-3.682970878037089	-2.832829164189727	-0.954394453248348	-1.8600512148398407	-1.0398132803270643	3	correct	1.0
418.0938225998543	9.846054499968886	go_reward	0.3200554000213742	418.11579700000584	420.87965229991823	423.43205070029944	2.763855299912393	419.11077490029857	422.4171625999734	426.47625089995563	1.7688773996196687	1.0148881003260612	1.4856006000190973	425.4732075999491	0.4990941998548805	424.4446821999736	2	1	49	3	go_reward	1	1	0	1	1	1	1	1.0	1.0	1	0.3200554000213742	0.4990941998548805	1056.1742722997442	1474.29006929975	1475.2850472000428	1477.0539245996624	1478.5914348997176	1479.6063230000436	1480.6189544997178	1481.6474798996933	1482.6505231996998	1484.136123799719	2020-01-15 16:29:12.210183	8.20858849271844	4.49426856085993	0.0	4.45379673421238	8.20858849271844	0.0	-8.20858849271844	4.49426856085993	0.0	8.20858849271844	0.0	0.5230938245408199	6.8379547338211175	4.261604722986778	-0.06667089455956333	3.864688176016394	6.467702223617647	-0.06667089455956333	0.46461505968831096	6.619493031439602	-0.21846170238151708	3.877951048930979	0.31698277949623554	3	correct	1.0
427.9664211999625	9.03508700011298	go_punish	0.0816901996731758	427.988395600114	430.05106650013477	432.5925746001303	2.0626709000207484	428.99718580022454	431.5725324000232	435.6420066999269	1.0538806999102235	1.0200422001071274	1.3814759003000745	434.63867100002244	0.560805699788034	433.6099413000047	2	1	50	1	go_punish	1	0	-1	1	1	1	1	0.0	0.0	0	0.0816901996731758	0.560805699788034	1056.1742722997442	1484.1626678998582	1485.1714580999687	1486.225338799879	1487.7468046997674	1488.7668468998745	1489.784213599749	1490.8129432997666	1491.816278999671	1493.1977548999712	2020-01-15 16:29:12.210183	0.958649972891135	-1.3567960598233	-2.04607731027941	-2.23847174273898	-1.08742733738828	-2.04607731027941	-0.958649972891135	-1.3567960598233	-2.04607731027941	-1.08742733738828	-2.04607731027941	1.3567960598233	-0.4119837860061869	-1.5894598976964516	-2.1127482048389736	-2.8275803009349665	-2.828313606489072	-2.1127482048389736	1.298317294970791	-2.6765227986671167	-2.264539012660927	-1.9731135717522508	-1.7290945307831747	3	wrong	1.0
437.0437767999247	8.597608000040054	nogo_punish	0.4034384000115096	437.0657512000762	438.62718160031363	441.15560670010746	1.561430400237441	438.0739875002764	440.149131400045	444.19358969992027	0.5531941000372171	1.0064753000624478	1.46976950019598	443.1809804001823	0.6330715999938548	442.1687580998987	2	1	51	2	nogo_punish	1	-1	0	0	1	0	0	0.0	1.0	-1	0.4034384000115096	0.6330715999938548	1056.1742722997442	1493.2400234998204	1494.2482598000206	1494.8014539000578	1496.3234036997892	1497.3298789998516	1498.3430303996429	1499.3552526999265	1500.3678619996645	1501.8376314998604	2020-01-15 16:29:12.210183	0.495158747569497	-2.47179611243342	-2.88155132575323	-2.82600338344341	-2.38639257818373	-2.88155132575323	-0.495158747569497	-2.47179611243342	-2.88155132575323	-2.38639257818373	-2.88155132575323	-2.3964297036620503	-0.8754750113278249	-2.7044599503065716	-2.9482222203127937	-3.4151119416393962	-4.127278847284522	-2.9482222203127937	-2.4549084685145592	-3.975488039462567	-3.100013028134747	-3.0881136243623706	-2.5645685462569947	3	correct	1.0
445.6668393998407	9.23663550009951	go_punish	0.2274778997525572	445.6888137999922	448.4151798998937	450.9739153999833	2.7263660999014974	446.7043526000341	449.9523396999575	454.0262490999887	1.7108272998596021	1.0215757000257781	0.899200200102996	453.01403889991343	0.3541347999125719	451.9855190999806	2	1	52	1	go_punish	1	0	-1	1	1	1	1	1.0	1.0	0	0.2274778997525572	0.3541347999125719	1056.1742722997442	1501.8630860997364	1502.8786248997783	1504.589452199638	1506.1266119997017	1507.1481876997275	1508.1597913997248	1509.1883111996576	1510.200521399733	1511.099721599836	2020-01-15 16:29:12.210183	1.78603255295144	-0.896360456178287	-2.04607731027941	-1.51119772003641	-0.260044757327969	-2.04607731027941	-1.78603255295144	-0.896360456178287	-2.04607731027941	-0.260044757327969	-2.04607731027941	0.896360456178287	0.41539879405411817	-1.1290242940514386	-2.1127482048389736	-2.100306278232396	-2.000931026428761	-2.1127482048389736	0.837881691325778	-1.849140218606806	-2.264539012660927	-1.5126779681072378	-1.7290945307831747	3	correct	1.0
454.9287058999762	8.851509700063616	nogo_reward	0.6893671001307666	454.9506803001277	457.4303685999473	459.9764149002731	2.4796882998195997	455.9503828003071	458.96057670004666	463.0279322001152	1.4799857996401897	1.0158382002264261	0.7742578000761569	462.014631500002	0.5304758003912866	460.98631250020117	2	1	53	4	nogo_reward	1	0	1	0	1	0	0	0.0	1.0	0	0.6893671001307666	0.5304758003912866	1056.1742722997442	1511.124952599872	1512.1246551000513	1513.6046408996915	1515.1348489997908	1516.1506872000173	1517.1605847999454	1518.1889037997462	1519.2022044998594	1519.9764622999355	2020-01-15 16:29:12.210183	0.644884116979081	0.909892790210943	2.96544512062442	2.52067910466241	3.6103292376035	2.96544512062442	-0.644884116979081	0.909892790210943	2.96544512062442	3.6103292376035	2.96544512062442	-0.909892790210943	-0.7257496419182409	0.6772289523377913	2.8987742260648566	1.931570546466424	1.8694429685027083	2.8987742260648566	-0.968371555063452	2.021233776324663	2.746983418242903	0.29357527828199226	3.2824279001206556	3	correct	1.0
463.8249391000718	8.11517750006169	nogo_punish	0.3782878001220524	463.8469135002233	465.41644950024784	467.9612704999747	1.5695360000245273	464.85366540029645	466.9370846003294	471.00800260016695	0.5627840999513865	1.0241858996453175	0.954088400118053	470.0049860002473	0.6306736003607512	468.9861113000661	2	1	54	2	nogo_punish	1	-1	0	0	1	0	0	0.0	1.0	-1	0.3782878001220524	0.6306736003607512	1056.1742722997442	1520.0211857999675	1521.0279377000406	1521.590721799992	1523.1113569000736	1524.135542799719	1525.1603835998103	1526.1792582999915	1527.1822748999111	1528.1363633000292	2020-01-15 16:29:12.210183	-0.20295688674947	-2.9669022467308	-2.88155132575323	-3.26662772306487	-3.0845082125027	-2.88155132575323	0.20295688674947	-2.9669022467308	-2.88155132575323	-3.0845082125027	-2.88155132575323	-1.9013235693646702	-1.5735906456467919	-3.1995660846039518	-2.9482222203127937	-3.855736281260856	-4.8253944816034915	-2.9482222203127937	-1.959802334217179	-4.673603673781537	-3.100013028134747	-3.5832197586597507	-2.5645685462569947	3	correct	1.0
471.9862012001686	7.971737299580127	go_reward	0.3469567000865936	472.0081756003201	473.44563460024074	475.99721619999036	1.4374589999206364	473.0136013003066	474.9836667999625	479.042456000112	0.432033299934119	1.0135494000278413	0.9374568997882307	478.0283725000918	0.8236674997024238	477.0062339003198	2	1	55	3	go_reward	1	1	0	1	1	1	0	0.0	1.0	1	0.3469567000865936	0.8236674997024238	1056.1742722997442	1528.1824479000643	1529.1878736000508	1529.619906899985	1531.1579390997067	1532.1714884997346	1533.180506200064	1534.202644799836	1535.2167282998562	1536.1541851996444	2020-01-15 16:29:12.210183	8.28586818919212	4.54607154877771	0.0	4.51405907587152	8.28586818919212	0.0	-8.28586818919212	4.54607154877771	0.0	8.28586818919212	0.0	0.47129083662303994	6.915234430294799	4.313407710904558	-0.06667089455956333	3.924950517675534	6.544981920091328	-0.06667089455956333	0.41281207177053103	6.696772727913284	-0.21846170238151708	3.929754036848759	0.31698277949623554	3	correct	1.0
480.001506799832	8.199200100265443	go_reward	1.0	480.0234811999835	481.50047780014575	484.0287927002646	1.4769966001622379	481.03065189998597	483.0154611002654	487.08570950012654	0.4698259001597762	1.0133315999992192	1.13697180012241	486.0757665000856	0.5011265999637544	485.04662110004574	2	1	56	3	go_reward	1	1	0	1	0	0	0	0.0	1.0	0	1.0	0.5011265999637544	1056.1742722997442	1536.1977534997277	1537.2049241997302	1537.67475009989	1539.1897334000096	1540.2030650000088	1541.22089339979	1542.2500387998298	1543.2599817998707	1544.3969535999931	2020-01-15 16:29:12.210183	-8.35037407547172	4.59000310063456	0.0	4.56429488541659	8.35037407547172	0.0	8.35037407547172	0.0	4.59000310063456	0.0	8.35037407547172	0.0	-9.721007834369042	4.357339262761408	-0.06667089455956333	3.975186327220604	6.609487806370928	-0.06667089455956333	-0.058478764852508885	-1.589095461278837	8.131912373090202	-0.6163175119289508	4.9069858801307955	3	correct	1.0
488.2275307001546	8.917023299727589	go_punish	0.898424900136888	488.2495051003061	490.2322966000065	492.7784450002946	1.9827914997003973	489.2580483001659	491.76906160032377	495.8238447001204	0.9742482998406103	1.0093833999708295	1.342683699913323	494.8205897002483	0.4549942999146878	493.79777680011466	2	1	57	1	go_punish	1	0	-1	1	1	1	0	0.0	1.0	0	0.898424900136888	0.4549942999146878	1056.1742722997442	1544.4237774000503	1545.43232059991	1546.4065688997507	1547.943333900068	1548.9527173000388	1549.9720490998589	1550.9948619999925	1551.9981169998646	1553.340800699778	2020-01-15 16:29:12.210183	2.26942292984593	-0.626373349664627	-2.04607731027941	-1.07490463670685	0.223345619566519	-2.04607731027941	-2.26942292984593	-0.626373349664627	-2.04607731027941	0.223345619566519	-2.04607731027941	0.626373349664627	0.8987891709486082	-0.8590371875377787	-2.1127482048389736	-1.6640131949028363	-1.517540649534273	-2.1127482048389736	0.5678945848121181	-1.3657498417123182	-2.264539012660927	-1.242690861593578	-1.7290945307831747	3	correct	1.0
497.17283090017736	8.586553399916738	nogo_reward	1.0	497.1948053003289	498.8839054000564	501.4047814998776	1.6891000997275114	498.2130929999987	500.3902022000402	504.4600494001063	0.6708124000576845	1.0145792998373508	1.321309300139319	503.44644819991663	0.7059570997953415	502.4178638001904	2	1	58	4	nogo_reward	1	0	1	0	0	1	0	0.0	1.0	1	1.0	0.7059570997953415	1056.1742722997442	1553.369077600073	1554.387365299743	1555.0581776998006	1556.5644744997844	1557.5790537996218	1558.5921360999346	1559.6207204996608	1560.6343216998505	1561.9556309999898	2020-01-15 16:29:12.210183	0.165866909741636	0.601392212126031	2.96544512062442	1.67582357730656	2.79957821088278	2.96544512062442	-0.165866909741636	2.96544512062442	0.601392212126031	2.96544512062442	2.79957821088278	2.0519172647763297	-1.2047668491556858	0.3687283742528793	2.8987742260648566	1.0867150191105739	1.0586919417819882	2.8987742260648566	1.9934384999238208	1.376349659345583	2.581116508501263	2.3491276086954693	0.9183749916222665	3	correct	1.0
505.8057669000698	8.931655900087435	nogo_punish	1.0	505.8277413002213	507.7435399000535	510.26301550026983	1.9157985998322147	506.8380320002327	509.25165760004893	513.2969595002942	0.9055078998208046	1.0113579002209008	1.4624377000145614	512.2805236000568	1.0	511.2722163000144	2	1	59	2	nogo_punish	1	-1	0	0	0	1	0	n/a	0.0	0	1.0	1.0	1056.1742722997442	1562.0020135999655	1563.012304299977	1563.9178121997977	1565.4259298997931	1566.437287800014	1567.4464885997586	1568.454795899801	1569.4712318000384	1570.933669500053	2020-01-15 16:29:12.210183	0.670969800789604	-3.30538509785153	-2.88155132575323	-3.56220143255609	-3.55252112654283	-2.88155132575323	-0.670969800789604	-2.88155132575323	-3.30538509785153	-2.88155132575323	-3.55252112654283	2.88155132575323	-0.6996639581077179	-3.5380489357246816	-2.9482222203127937	-4.151309990752076	-5.293407395643622	-2.9482222203127937	2.8230725609007212	-4.470646787032067	-3.770982828924347	-3.497868837682181	-2.9884023183552944	3	missed	0.0
514.7626215000637	9.827984400093555	nogo_reward	1.0	514.7845959002152	517.621729100123	520.1514673000202	2.8371331999078393	515.8034757003188	519.1365952002816	523.1974748000503	1.8182533998042345	1.014872099738568	1.4151055002585053	522.1843697000295	0.5349289001896977	521.1549066002483	2	1	60	4	nogo_reward	1	0	1	0	0	1	1	0.0	0.0	1	1.0	0.5349289001896977	1056.1742722997442	1570.9588681999594	1571.977748000063	1573.7960013998672	1575.3108675000258	1576.3257395997643	1577.3291788999925	1578.3586419997737	1579.3717470997944	1580.786852600053	2020-01-15 16:29:12.210183	0.0323242120164407	0.601392212126031	3.38086299234953	2.62422186184794	3.34853878033309	3.38086299234953	-0.0323242120164407	3.38086299234953	0.601392212126031	3.38086299234953	3.34853878033309	1.6364993930512197	-1.3383095468808812	0.3687283742528793	3.3141920977899666	2.0351133036519538	1.6076525112322984	3.3141920977899666	1.5780206281987108	1.791767531070693	3.130077077951573	2.7645454804205793	0.9183749916222665	3	wrong	1.0
