onset	duration	trial_type	response_time	cueOnset	targetOnset	fbOnset	cueRT	firstfixOnset	secondfixOnset	waitOnset	firstfixdur	secondfixdur	waitdur	nback_fbOnset	nback_response_time	nback_targetOnset	block	wm	trial	cue	cond	is_common	outcome_go	outcome_nogo	key_correct	key_pressed	is_correct	key_correct_nback	key_pressed_nback	is_correct_nback	outcome	rt	rt_nback	time_scan	time_onset	time_isi1	time_circle	time_isi2	time_feedback	time_same	time_correct	time_iti	time_done	timestamp_scan	DV	Qgo	Qnogo	SV	Wgo	Wnogo	mDV	Qchosen	Qunchosen	Wchosen	Wunchosen	PE	DVC	QgoC	QnogoC	SVC	WgoC	WnogoC	PEC	WchosenC	WunchosenC	QchosenC	QunchosenC	run	outcome_nback	nback_targetResp
0.0	6.862260099966079	nogo_reward	0.6715567000210285	0.05124460021033883	2.0426847003400326	4.589063500054181	1.9914401001296937	1.0578515003435314	3.5723721999675178	5.592409300152212	0.9848331999965012	1.0166913000866629	1.3210954000242054	n/a	1.0	n/a	1	0	1	4	nogo_reward	1	0	1	0	1	0	0	n/a	n/a	0	0.6715567000210285	1.0	109.28084119968116	109.3320857998915	110.3386927000247	111.3235259000212	112.85321339964868	113.86990469973534	n/a	n/a	114.87325049983338	116.19434589985758	2020-01-15 16:13:25.319639	1.2936765182895	0.0	0.0	0.0	1.2936765182895	0.0	-1.2936765182895	0.0	0.0	1.2936765182895	0.0	0.0	-0.07695724060782183	-0.23266383787315167	-0.06667089455956333	-0.5891085581959862	-0.4472097508112918	-0.06667089455956333	-0.058478764852508885	-0.295418942989337	-0.21846170238151708	-0.6163175119289508	0.31698277949623554	1	missed	0.0
6.908277499955133	6.513823799788966	go_reward	0.4068522998131811	6.959522100165472	8.43342810031028	11.003435099963099	1.473906000144808	7.964873900171355	9.97904830006884	12.011353600304574	0.4685542001389251	1.024386799894259	1.4619922996498644	n/a	1.0	n/a	1	0	2	3	go_reward	1	1	0	1	1	1	0	n/a	n/a	1	0.4068522998131811	1.0	109.28084119968116	116.24036329984663	117.24571509985252	117.71426929999144	119.25988949975	120.28427629964426	n/a	n/a	121.29219479998574	122.7541870996356	2020-01-15 16:13:25.319639	1.2936765182895	0.0	0.0	0.0	1.2936765182895	0.0	-1.2936765182895	0.0	0.0	1.2936765182895	0.0	5.01736238540075	-0.07695724060782183	-0.23266383787315167	-0.06667089455956333	-0.5891085581959862	-0.4472097508112918	-0.06667089455956333	4.958883620548241	-0.295418942989337	-0.21846170238151708	-0.6163175119289508	0.31698277949623554	1	missed	0.0
13.464449599850923	7.421112900134176	nogo_punish	0.353209899738431	13.515694200061262	16.022129000164554	18.579837400000542	2.5064348001032926	14.516473399940878	17.560321200173362	19.579314600210637	1.505655600223676	1.01951619982718	1.3574924999848008	n/a	1.0	n/a	1	0	3	2	nogo_punish	0	0	-1	0	1	0	0	n/a	n/a	0	0.353209899738431	1.0	109.28084119968116	122.79653539974242	123.79731459962204	125.30297019984572	126.84116239985453	127.8606785996817	n/a	n/a	128.8601557998918	130.2176482998766	2020-01-15 16:13:25.319639	1.2936765182895	0.0	0.0	0.0	1.2936765182895	0.0	-1.2936765182895	0.0	0.0	1.2936765182895	0.0	0.0	-0.07695724060782183	-0.23266383787315167	-0.06667089455956333	-0.5891085581959862	-0.4472097508112918	-0.06667089455956333	-0.058478764852508885	-0.295418942989337	-0.21846170238151708	-0.6163175119289508	0.31698277949623554	1	missed	0.0
20.926084499806166	6.252606200054288	go_reward	0.5685662999749184	20.977329100016505	22.768813400063664	25.309458800125867	1.7914843000471592	21.987561299931258	24.295059600379318	26.31352990027517	0.7812521001324058	1.0143991997465491	0.9164053997956216	n/a	1.0	n/a	1	0	4	3	go_reward	1	1	0	1	1	1	1	n/a	n/a	1	0.5685662999749184	1.0	109.28084119968116	130.25817029969767	131.26840249961242	132.04965459974483	133.57590080006048	134.59029999980703	n/a	n/a	135.59437109995633	136.51077649975196	2020-01-15 16:13:25.319639	4.14561997378257	2.69465763835894	0.0	2.69465763835894	4.14561997378257	0.0	-4.14561997378257	2.69465763835894	0.0	4.14561997378257	0.0	2.32270474704181	2.7749862148852484	2.461993800485788	-0.06667089455956333	2.1055490801629535	2.404733704681778	-0.06667089455956333	2.264225982189301	2.5565245125037332	-0.21846170238151708	2.078340126429989	0.31698277949623554	1	missed	0.0
27.216286899987608	6.440510199870914	go_punish	0.280872100032866	27.267531500197947	28.959494600072503	31.489634100347757	1.691963099874556	28.270281000062823	30.48027650034055	32.49442210001871	0.6892136000096798	1.0093576000072062	1.2136196000501513	n/a	1.0	n/a	1	0	5	1	go_punish	1	0	-1	1	1	1	0	n/a	n/a	0	0.280872100032866	1.0	109.28084119968116	136.5483726998791	137.551122199744	138.24033579975367	139.7611177000217	140.77047530002892	n/a	n/a	141.77526329969987	142.98888289975002	2020-01-15 16:13:25.319639	1.2936765182895	0.0	0.0	0.0	1.2936765182895	0.0	-1.2936765182895	0.0	0.0	1.2936765182895	0.0	0.0	-0.07695724060782183	-0.23266383787315167	-0.06667089455956333	-0.5891085581959862	-0.4472097508112918	-0.06667089455956333	-0.058478764852508885	-0.295418942989337	-0.21846170238151708	-0.6163175119289508	0.31698277949623554	1	missed	0.0
33.700020799878985	6.064095800276846	go_reward	0.3320344001986086	33.75126540008932	35.10835490003228	37.64482840010896	1.3570894999429584	34.75355949997902	36.61917420011014	38.65682499995455	0.3547954000532627	1.0256541999988258	1.1585362004116178	n/a	1.0	n/a	1	0	6	3	go_reward	1	1	0	1	1	1	1	n/a	n/a	1	0.3320344001986086	1.0	109.28084119968116	143.0321065997705	144.03440069966018	144.38919609971344	145.9000153997913	146.92566959979013	n/a	n/a	147.93766619963571	149.09620240004733	2020-01-15 16:13:25.319639	5.37937629975411	3.85719315420829	0.0	3.85719315420829	5.37937629975411	0.0	-5.37937629975411	3.85719315420829	0.0	5.37937629975411	0.0	1.16016923119246	4.0087425408567885	3.624529316335138	-0.06667089455956333	3.2680845960123035	3.638490030653318	-0.06667089455956333	1.1016904663399512	3.7902808384752733	-0.21846170238151708	3.240875642279339	0.31698277949623554	1	missed	0.0
39.800213399808854	5.830675400327891	nogo_reward	0.984417799860239	39.85145800001919	41.14986569993198	43.700917300302535	1.2984076999127865	40.86899420013651	42.680620500352234	44.71210260037333	0.28087149979546666	1.0202967999503016	0.9700307999737561	n/a	1.0	n/a	1	0	7	4	nogo_reward	1	0	1	0	1	0	0	n/a	n/a	0	0.984417799860239	1.0	109.28084119968116	149.13229919970036	150.14983539981768	150.43070689961314	151.9614617000334	152.9817584999837	n/a	n/a	153.9929438000545	154.96297460002825	2020-01-15 16:13:25.319639	1.2936765182895	0.0	0.0	0.0	1.2936765182895	0.0	-1.2936765182895	0.0	0.0	1.2936765182895	0.0	0.0	-0.07695724060782183	-0.23266383787315167	-0.06667089455956333	-0.5891085581959862	-0.4472097508112918	-0.06667089455956333	-0.058478764852508885	-0.295418942989337	-0.21846170238151708	-0.6163175119289508	0.31698277949623554	1	missed	0.0
45.664139499887824	6.370310400146991	nogo_reward	1.0	45.71538410009816	47.55339080002159	50.08421810017899	1.838006699923426	46.709510900080204	49.06851310003549	51.08295190008354	0.8438798999413848	1.0157050001434982	1.0027426001616107	n/a	1.0	n/a	1	0	8	4	nogo_reward	1	0	1	0	0	1	0	n/a	n/a	1	1.0	1.0	109.28084119968116	154.99622529977933	155.99035209976137	156.83423199970275	158.34935429971665	159.36505929986015	n/a	n/a	160.3637930997647	161.36653569992632	2020-01-15 16:13:25.319639	-1.2936765182895	0.0	0.0	0.0	1.2936765182895	0.0	1.2936765182895	0.0	0.0	0.0	1.2936765182895	5.01736238540075	-2.664310277186822	-0.23266383787315167	-0.06667089455956333	-0.5891085581959862	-0.4472097508112918	-0.06667089455956333	4.958883620548241	-1.589095461278837	1.0752148159079828	-0.6163175119289508	0.31698277949623554	1	missed	0.0
52.07359059993178	6.570960300043225	go_reward	0.2871114001609385	52.124835200142115	53.787179599981755	56.33450390025973	1.6623443998396397	53.12763000000268	55.31966090016067	57.342729300260544	0.6595495999790728	1.014843000099063	1.3530661999247968	n/a	1.0	n/a	1	0	9	3	go_reward	1	1	0	1	1	1	0	n/a	n/a	1	0.2871114001609385	1.0	109.28084119968116	161.40567639982328	162.40847119968385	163.06802079966292	164.60050209984183	165.6153450999409	n/a	n/a	166.6235704999417	167.9766366998665	2020-01-15 16:13:25.319639	5.95929636081651	4.40185554820976	0.0	4.40185554820976	5.95929636081651	0.0	-5.95929636081651	4.40185554820976	0.0	5.95929636081651	0.0	0.6155068371909902	4.5886626019191885	4.169191710336608	-0.06667089455956333	3.8127469900137734	4.218410091715718	-0.06667089455956333	0.5570280723384813	4.370200899537673	-0.21846170238151708	3.785538036280809	0.31698277949623554	1	missed	0.0
58.68344860011712	7.547803999856114	nogo_reward	1.0	58.734693200327456	61.50950810033828	64.03393519995734	2.774814900010824	59.736138300038874	63.02043460030109	65.04390180017799	1.773369800299406	1.013500599656254	1.238595400005579	n/a	1.0	n/a	1	0	10	4	nogo_reward	1	0	1	0	0	1	1	n/a	n/a	1	1.0	1.0	109.28084119968116	168.01553440000862	169.01697949972004	170.79034930001944	172.30127579998225	173.3147763996385	n/a	n/a	174.32474299985915	175.56333839986473	2020-01-15 16:13:25.319639	1.24369530293532	0.0	2.69465763835894	2.69465763835894	1.45096233542362	2.69465763835894	-1.24369530293532	2.69465763835894	0.0	2.69465763835894	1.45096233542362	2.32270474704181	-0.12693845596200193	-0.23266383787315167	2.6279867437993762	2.1055490801629535	-0.28992393367717173	2.6279867437993762	2.264225982189301	1.1055621770801027	1.232500633042103	2.078340126429989	0.31698277949623554	1	missed	0.0
66.26897969981655	7.2024030000903	nogo_reward	1.0	66.3202243000269	68.75064019998536	71.27019610023123	2.4304158999584615	67.32924380013719	70.25578790018335	72.27954150037843	1.4213963998481631	1.0144082000478818	1.2430857997387648	n/a	1.0	n/a	1	0	11	4	nogo_reward	1	0	1	0	0	1	0	n/a	n/a	1	1.0	1.0	109.28084119968116	175.60106549970806	176.61008499981835	178.03148139966652	179.5366290998645	180.5510372999124	n/a	n/a	181.5603827000596	182.80346849979836	2020-01-15 16:13:25.319639	2.33501000866246	0.0	3.85719315420829	3.85719315420829	1.52218314554583	3.85719315420829	-2.33501000866246	3.85719315420829	0.0	3.85719315420829	1.52218314554583	1.16016923119246	0.9643762497651382	-0.23266383787315167	3.7905222596487262	3.2680845960123035	-0.2187031235549619	3.7905222596487262	1.1016904663399512	2.2680976929294525	1.3037214431643127	3.240875642279339	0.31698277949623554	1	missed	0.0
73.5144377001561	7.173076299950509	go_reward	0.3328205998986959	73.56568230036643	75.98061020020396	78.53132450021803	2.4149278998375223	74.56453850027174	77.51132980035615	79.52885620016605	1.4160716999322176	1.0199946998618827	1.2099024001508951	n/a	1.0	n/a	1	0	12	3	go_reward	0	0	1	1	1	1	0	n/a	n/a	0	0.3328205998986959	1.0	109.28084119968116	182.8465235000476	183.8453796999529	185.26145139988512	186.7921710000373	187.8121656998992	n/a	n/a	188.8096973998472	190.0195997999981	2020-01-15 16:13:25.319639	6.25006544667416	4.67399680469049	0.0	4.67399680469049	6.25006544667416	0.0	-6.25006544667416	4.67399680469049	0.0	6.25006544667416	0.0	-4.67399680469049	4.8794316877768384	4.441332966817338	-0.06667089455956333	4.084888246494504	4.509179177573368	-0.06667089455956333	-4.7324755695429985	4.660969985395323	-0.21846170238151708	4.05767929276154	0.31698277949623554	1	missed	0.0
80.7248172997497	6.3073381003924	go_punish	0.3777279001660645	80.77606189996004	82.34056850010526	84.87193370005116	1.5645066001452221	81.79367360007015	83.87101520039138	85.86997070023787	0.5468949000351131	1.0009184996597753	1.2134293001145693	n/a	1.0	n/a	1	0	13	1	go_punish	1	0	-1	1	1	1	0	n/a	n/a	0	0.3777279001660645	1.0	109.28084119968116	190.0569030996412	191.0745147997513	191.62140969978643	193.15185640007255	194.15277489973232	n/a	n/a	195.15081189991903	196.3642412000336	2020-01-15 16:13:25.319639	1.2936765182895	0.0	0.0	0.0	1.2936765182895	0.0	-1.2936765182895	0.0	0.0	1.2936765182895	0.0	0.0	-0.07695724060782183	-0.23266383787315167	-0.06667089455956333	-0.5891085581959862	-0.4472097508112918	-0.06667089455956333	-0.058478764852508885	-0.295418942989337	-0.21846170238151708	-0.6163175119289508	0.31698277949623554	1	missed	0.0
87.06666490016502	7.053135299589513	nogo_reward	1.0	87.11790950037536	89.41561549995095	91.94514970015734	2.2977059995755837	88.13416610006243	90.91976210009307	92.95376399997619	1.2814493998885155	1.0253876000642776	1.2172807999886857	n/a	1.0	n/a	1	0	14	4	nogo_reward	1	0	1	0	0	1	0	n/a	n/a	1	1.0	1.0	109.28084119968116	196.39875070005652	197.4150072997436	198.6964566996321	200.20060329977423	201.2259908998385	n/a	n/a	202.23460519965735	203.45188599964604	2020-01-15 16:13:25.319639	2.84441473560302	0.0	4.40185554820976	4.40185554820976	1.55744081260674	4.40185554820976	-2.84441473560302	4.40185554820976	0.0	4.40185554820976	1.55744081260674	0.6155068371909902	1.473780976705698	-0.23266383787315167	4.335184653650196	3.8127469900137734	-0.18344545649405175	4.335184653650196	0.5570280723384813	2.812760086930923	1.3389791102252229	3.785538036280809	0.31698277949623554	1	missed	0.0
94.1587797999382	6.443750100210309	go_reward	0.308772100135684	94.21002440014854	96.18860730016604	98.74146870011464	1.9785829000175	95.22239370038733	97.71326870005575	99.75475320033729	0.9662135997787118	1.028200000058888	0.899021300021559	n/a	1.0	n/a	1	0	15	3	go_reward	0	0	1	1	1	1	0	n/a	n/a	0	0.308772100135684	1.0	109.28084119968116	203.4908655998297	204.5032349000685	205.4694484998472	206.9941098997369	208.0223098997958	n/a	n/a	209.03559440001845	209.93461570004	2020-01-15 16:13:25.319639	3.55185447831246	2.12271172651341	0.0	2.12271172651341	3.55185447831246	0.0	-3.55185447831246	2.12271172651341	0.0	3.55185447831246	0.0	-2.12271172651341	2.181220719415138	1.8900478886402585	-0.06667089455956333	1.5336031683174238	1.8109682092116681	-0.06667089455956333	-2.181190491365919	1.9627590170336229	-0.21846170238151708	1.5063942145844593	0.31698277949623554	1	missed	0.0
100.64082009997219	7.430312300100923	nogo_reward	1.0	100.69206470018253	103.30426610028371	105.82282530004159	2.612201400101185	101.69507730007172	104.80869860015812	106.83241860009733	1.6091888002119958	1.0141266998834624	1.2899584001861228	n/a	1.0	n/a	1	0	16	4	nogo_reward	1	0	1	0	0	1	1	n/a	n/a	1	1.0	1.0	109.28084119968116	209.9729058998637	210.97591849975288	212.58510729996487	214.0895397998393	215.10366649972275	n/a	n/a	216.1132597997785	217.4032181999646	2020-01-15 16:13:25.319639	3.09792816270682	0.0	4.67399680469049	4.67399680469049	1.57606864198367	4.67399680469049	-3.09792816270682	4.67399680469049	0.0	4.67399680469049	1.57606864198367	0.3433655807102598	1.7272944038094982	-0.23266383787315167	4.6073259101309265	4.084888246494504	-0.16481762711712178	4.6073259101309265	0.2848868158577509	3.0849013434116532	1.357606939602153	4.05767929276154	0.31698277949623554	1	missed	0.0
108.10733989998698	6.924977799877524	nogo_reward	1.0	108.15858450019732	110.71824289998042	113.24643310019746	2.5596583997831033	109.17330940021205	112.22277150023729	114.24552879994735	1.5449334997683764	1.0236615999601781	0.8380335001274943	n/a	1.0	n/a	1	0	17	4	nogo_reward	1	0	1	0	0	1	0	n/a	n/a	1	1.0	1.0	109.28084119968116	217.43942569987848	218.4541505998932	219.9990840996616	221.50361269991845	222.52727429987863	n/a	n/a	223.5263699996285	224.364403499756	2020-01-15 16:13:25.319639	3.23094079593918	0.0	4.81736936487236	4.81736936487236	1.58642856893317	4.81736936487236	-3.23094079593918	4.81736936487236	0.0	4.81736936487236	1.58642856893317	0.19999302052838974	1.860307037041858	-0.23266383787315167	4.750698470312797	4.228260806676374	-0.15445770016762173	4.750698470312797	0.14151425567588086	3.2282739035935233	1.3679668665516531	4.20105185294341	0.31698277949623554	1	missed	0.0
115.06480629974979	6.822796500287922	go_punish	0.9925954998470844	115.11605089996013	117.3268083003349	119.88479580031708	2.2107574003747743	116.11504490021616	118.86379630025479	120.8885051002726	1.2117634001187412	1.0209995000622882	1.0503422999754548	n/a	1.0	n/a	1	0	18	1	go_punish	1	0	-1	1	1	1	0	n/a	n/a	0	0.9925954998470844	1.0	109.28084119968116	224.3968920996413	225.39588609989733	226.60764950001607	228.14463749993595	229.16563699999824	n/a	n/a	230.16934629995376	231.2196885999292	2020-01-15 16:13:25.319639	1.2936765182895	0.0	0.0	0.0	1.2936765182895	0.0	-1.2936765182895	0.0	0.0	1.2936765182895	0.0	0.0	-0.07695724060782183	-0.23266383787315167	-0.06667089455956333	-0.5891085581959862	-0.4472097508112918	-0.06667089455956333	-0.058478764852508885	-0.295418942989337	-0.21846170238151708	-0.6163175119289508	0.31698277949623554	1	missed	0.0
121.92372820014134	6.957064599730046	go_punish	1.0	121.97497280035168	123.97508400026709	126.49218300031495	2.000111199915409	122.98049510037526	125.47770899999887	127.49236860033125	0.9945888998918235	1.0144740003160848	1.4396687997504785	n/a	1.0	n/a	1	0	19	1	go_punish	1	0	-1	1	0	0	0	n/a	n/a	-1	1.0	1.0	109.28084119968116	231.25581400003284	232.26133630005643	233.25592519994825	234.75855019968003	235.77302419999612	n/a	n/a	236.7732098000124	238.2128785997629	2020-01-15 16:13:25.319639	-1.2936765182895	0.0	0.0	0.0	1.2936765182895	0.0	1.2936765182895	0.0	0.0	0.0	1.2936765182895	-4.86822581609547	-2.664310277186822	-0.23266383787315167	-0.06667089455956333	-0.5891085581959862	-0.4472097508112918	-0.06667089455956333	-4.926704580947979	-1.589095461278837	1.0752148159079828	-0.6163175119289508	0.31698277949623554	1	missed	0.0
128.91684019984677	6.533400600310415	nogo_punish	0.3760514999739826	128.9680848000571	130.53636529995129	133.09580550016835	1.568280499894172	129.97315330011773	132.07153449999169	134.10482740029693	0.5632119998335554	1.0242710001766682	1.3966580000706017	n/a	1.0	n/a	1	0	20	2	nogo_punish	1	-1	0	0	1	0	0	n/a	n/a	-1	0.3760514999739826	1.0	109.28084119968116	238.24892599973828	239.2539944997989	239.81720649963245	241.35237569967285	242.37664669984952	n/a	n/a	243.3856685999781	244.7823266000487	2020-01-15 16:13:25.319639	1.2936765182895	0.0	0.0	0.0	1.2936765182895	0.0	-1.2936765182895	0.0	0.0	1.2936765182895	0.0	-4.86822581609547	-0.07695724060782183	-0.23266383787315167	-0.06667089455956333	-0.5891085581959862	-0.4472097508112918	-0.06667089455956333	-4.926704580947979	-0.295418942989337	-0.21846170238151708	-0.6163175119289508	0.31698277949623554	1	missed	0.0
135.48578860005367	6.856827499810549	nogo_punish	1.0	135.537033200264	137.47262499993667	140.00712350010872	1.9355917996726646	136.55023430008444	138.98716789996251	141.00876840017733	0.9223906998522295	1.0199556001462042	1.3850922998972237	n/a	1.0	n/a	1	0	21	2	nogo_punish	1	-1	0	0	0	1	0	n/a	n/a	0	1.0	1.0	109.28084119968116	244.81787439994517	245.8310754997656	246.75346619961783	248.26800909964368	249.28796469978988	n/a	n/a	250.2896095998585	251.67470189975572	2020-01-15 16:13:25.319639	1.28202549038645	-2.60813779229001	0.0	-2.60813779229001	-1.28202549038645	0.0	-1.28202549038645	0.0	-2.60813779229001	0.0	-1.28202549038645	0.0	-0.08860826851087178	-2.840801630163162	-0.06667089455956333	-3.1972463504859965	-3.0229117594872417	-0.06667089455956333	-0.058478764852508885	-1.589095461278837	-1.500487192767967	-0.6163175119289508	-2.2911550127937748	1	missed	0.0
142.37858479982242	5.927718100138065	go_punish	0.3448148001916706	142.42982940003276	143.91373990010467	146.46053980011493	1.4839105000719144	143.44457680033523	145.449843400158	147.47290950035676	0.46916309976944603	1.0106963999569416	0.8846379998140605	n/a	1.0	n/a	1	0	22	1	go_punish	1	0	-1	1	1	1	0	n/a	n/a	0	0.3448148001916706	1.0	109.28084119968116	251.71067059971392	252.7254180000164	253.19458109978584	254.73068459983915	255.7413809997961	n/a	n/a	256.7537507000379	257.638388699852	2020-01-15 16:13:25.319639	3.93425009419356	0.0	-2.60813779229001	-2.60813779229001	1.32611230190356	-2.60813779229001	-3.93425009419356	0.0	-2.60813779229001	1.32611230190356	-2.60813779229001	0.0	2.5636163352962384	-0.23266383787315167	-2.6748086868495737	-3.1972463504859965	-0.4147739671972317	-2.6748086868495737	-0.058478764852508885	-0.26298315937527694	-2.826599494671527	-0.6163175119289508	-2.2911550127937748	1	missed	0.0
148.34095609979704	5.7725630002096295	nogo_reward	1.0	148.39220070000738	149.73681880021468	152.25179890030995	1.344618100207299	149.40826980024576	151.23101510014385	153.26514700008556	0.3285489999689162	1.0207838001661003	0.8996167001314461	n/a	1.0	n/a	1	0	23	4	nogo_reward	0	1	0	0	0	1	0	n/a	n/a	0	1.0	1.0	109.28084119968116	257.67304189968854	258.6891109999269	259.01765999989584	260.511856299825	261.5326400999911	n/a	n/a	262.5459881997667	263.44560489989817	2020-01-15 16:13:25.319639	3.30393938577379	0.0	4.89637979436016	4.89637979436016	1.59244040858636	4.89637979436016	-3.30393938577379	4.89637979436016	0.0	4.89637979436016	1.59244040858636	-4.89637979436016	1.9333056268764681	-0.23266383787315167	4.829708899800597	4.3072712361641745	-0.14844586051443187	4.829708899800597	-4.954858559212669	3.3072843330813235	1.3739787062048427	4.28006228243121	0.31698277949623554	1	missed	0.0
154.1479243999347	7.011758700013161	nogo_punish	1.0	154.19916900014505	156.64016910037026	159.15635060006753	2.44100010022521	155.20611939998344	158.14632320031524	160.1620174003765	1.4340497003868222	1.010027399752289	1.04891029978171	n/a	1.0	n/a	1	0	24	2	nogo_punish	1	-1	0	0	0	1	0	n/a	n/a	0	1.0	1.0	109.28084119968116	263.4800101998262	264.4869605996646	265.9210103000514	267.4271643999964	268.4371917997487	n/a	n/a	269.44285860005766	270.49176889983937	2020-01-15 16:13:25.319639	1.30103563601322	-2.60813779229001	0.0	-1.12823183593768	-1.30103563601322	0.0	-1.30103563601322	0.0	-2.60813779229001	0.0	-1.30103563601322	0.0	-0.06959812288410183	-2.840801630163162	-0.06667089455956333	-1.7173403941336662	-3.0419219051140116	-0.06667089455956333	-0.058478764852508885	-1.589095461278837	-1.519497338394737	-0.6163175119289508	-2.2911550127937748	1	missed	0.0
161.1964112999849	6.752489199861884	nogo_reward	1.0	161.24765590019524	163.10537420026958	165.64178970037028	1.857718300074339	162.26175650022924	164.6177886002697	166.64074699999765	0.8436177000403404	1.0240011001005769	1.3593981000594795	n/a	1.0	n/a	1	0	25	4	nogo_reward	1	0	1	0	0	1	1	n/a	n/a	1	1.0	1.0	109.28084119968116	270.5284970998764	271.5425976999104	272.38621539995074	273.89862979995087	274.92263090005144	n/a	n/a	275.9215881996788	277.2809862997383	2020-01-15 16:13:25.319639	0.808226933362488	0.0	2.24699925785973	2.24699925785973	1.43877232449724	2.24699925785973	-0.808226933362488	2.24699925785973	0.0	2.24699925785973	1.43877232449724	2.7703631275410197	-0.5624068255348339	-0.23266383787315167	2.1803283633001667	1.657890699663744	-0.3021139446035519	2.1803283633001667	2.7118843626885107	0.6579037965808932	1.220310622115723	1.6306817459307794	0.31698277949623554	1	missed	0.0
167.98325729975477	6.191626500338316	go_punish	0.6587749999016523	168.0345018999651	169.40755930030718	171.96539520006627	1.373057400342077	169.0470683001913	170.94355700025335	172.9774099001661	0.36049100011587143	1.021838199812919	1.248718500137329	n/a	1.0	n/a	1	0	26	1	go_punish	1	0	-1	1	1	1	0	n/a	n/a	0	0.6587749999016523	1.0	109.28084119968116	277.31534309964627	278.3279094998725	278.68840049998835	280.2243981999345	281.24623639974743	n/a	n/a	282.25825109984726	283.5069695999846	2020-01-15 16:13:25.319639	3.91523994856679	0.0	-2.60813779229001	-1.12823183593768	1.30710215627678	-2.60813779229001	-3.91523994856679	0.0	-2.60813779229001	1.30710215627678	-2.60813779229001	0.0	2.5446061896694685	-0.23266383787315167	-2.6748086868495737	-1.7173403941336662	-0.43378411282401186	-2.6748086868495737	-0.058478764852508885	-0.2819933050020571	-2.826599494671527	-0.6163175119289508	-2.2911550127937748	1	missed	0.0
174.2156775998883	5.651853600051254	go_reward	1.0	174.26692220009863	175.621612300165	178.14665320003405	1.3546901000663638	175.2784458999522	177.1269305003807	179.15991950035095	0.34316640021279454	1.0197226996533573	0.7588562997989357	n/a	1.0	n/a	1	0	27	3	go_reward	1	1	0	1	0	0	0	n/a	n/a	0	1.0	1.0	109.28084119968116	283.5477633997798	284.55928709963337	284.90245349984616	286.40777170006186	287.4274943997152	n/a	n/a	288.4407607000321	289.19961699983105	2020-01-15 16:13:25.319639	-2.4031204214819	1.03918664015187	0.0	1.03918664015187	2.4031204214819	0.0	2.4031204214819	0.0	1.03918664015187	0.0	2.4031204214819	0.0	-3.773754180379222	0.8065228022787182	-0.06667089455956333	0.4500780819558837	0.6622341523811082	-0.06667089455956333	-0.058478764852508885	-1.589095461278837	2.184658719100383	-0.6163175119289508	1.3561694196481056	1	missed	0.0
179.90748010016978	7.342570499982742	go_reward	0.282770300284028	179.95872470038012	182.28767850017175	184.8171369000338	2.328953799791634	180.95901370001963	183.80992980021983	185.83358650002629	1.3286648001521257	1.007207099813968	1.4677087003365727	n/a	1.0	n/a	1	0	28	3	go_reward	1	1	0	1	1	1	0	n/a	n/a	1	0.282770300284028	1.0	109.28084119968116	289.2395659000613	290.2398548997008	291.5685196998529	293.090770999901	294.09797809971496	n/a	n/a	295.11442769970745	296.582136400044	2020-01-15 16:13:25.319639	2.37148048746599	1.03918664015187	0.0	0.539801348008913	2.37148048746599	0.0	-2.37148048746599	1.03918664015187	0.0	2.37148048746599	0.0	3.9781757452488797	1.000846728568668	0.8065228022787182	-0.06667089455956333	-0.04930721018707318	0.630594218365198	-0.06667089455956333	3.919696980396371	0.7823850261871528	-0.21846170238151708	0.4228691282229191	0.31698277949623554	1	missed	0.0
187.2841118001379	6.813817499671131	go_punish	0.2964822999201715	187.33535640034825	189.19568950030953	191.73673250013962	1.8603330999612808	188.35224780021235	190.72678819997236	192.74969730013981	0.8434417000971735	1.0099443001672626	1.3994765998795629	n/a	1.0	n/a	1	0	29	1	go_punish	1	0	-1	1	1	1	0	n/a	n/a	0	0.2964822999201715	1.0	109.28084119968116	296.6161976000294	297.6330889998935	298.4765306999907	300.0076293996535	301.0175736998208	n/a	n/a	302.030538499821	303.43001509970054	2020-01-15 16:13:25.319639	3.90717754230512	0.0	-2.60813779229001	-0.529765708029531	1.29903975001511	-2.60813779229001	-3.90717754230512	0.0	-2.60813779229001	1.29903975001511	-2.60813779229001	0.0	2.536543783407798	-0.23266383787315167	-2.6748086868495737	-1.1188742662255171	-0.44184651908568173	-2.6748086868495737	-0.058478764852508885	-0.290055711263727	-2.826599494671527	-0.6163175119289508	-2.2911550127937748	1	missed	0.0
194.13778259977698	7.537567000370473	go_reward	0.5766957998275757	194.18902719998732	196.90490780025726	199.45674840034917	2.7158806002699407	195.19595540035516	198.43182709999382	200.45623939996585	1.7089523999021026	1.024921300355345	1.2703548003919423	n/a	1.0	n/a	1	0	30	3	go_reward	1	1	0	1	1	1	1	n/a	n/a	1	0.5766957998275757	1.0	109.28084119968116	303.4698683996685	304.4767966000363	306.1857489999384	307.712668299675	308.73758960003033	n/a	n/a	309.737080599647	311.00743540003896	2020-01-15 16:13:25.319639	4.70765793227396	3.23445898636786	0.0	2.98917493714543	4.70765793227396	0.0	-4.70765793227396	3.23445898636786	0.0	4.70765793227396	0.0	1.78290339903289	3.337024173376638	3.001795148494708	-0.06667089455956333	2.4000663789494436	2.9667716631731675	-0.06667089455956333	1.724424634180381	3.1185624709951227	-0.21846170238151708	2.618141474438909	0.31698277949623554	1	missed	0.0
201.7203345000744	6.9721176996827126	go_punish	0.3888648999854922	201.77157910028473	203.94457190018147	206.49018360022455	2.172992799896747	202.78145760018378	205.47978790011257	207.49914420023566	1.1631142999976873	1.0103957001119852	1.244552599731776	n/a	1.0	n/a	1	0	31	1	go_punish	1	0	-1	1	1	1	1	n/a	n/a	0	0.3888648999854922	1.0	109.28084119968116	311.0524202999659	312.06229879986495	313.22541309986264	314.76062909979373	315.7710247999057	n/a	n/a	316.7799853999168	318.0245379996486	2020-01-15 16:13:25.319639	3.90384344270457	0.0	-2.60813779229001	-0.265182101600764	1.29570565041456	-2.60813779229001	-3.90384344270457	0.0	-2.60813779229001	1.29570565041456	-2.60813779229001	0.0	2.5332096838072484	-0.23266383787315167	-2.6748086868495737	-0.8542906597967501	-0.4451806186862317	-2.6748086868495737	-0.058478764852508885	-0.29338981086427696	-2.826599494671527	-0.6163175119289508	-2.2911550127937748	1	missed	0.0
208.72817200003192	5.846216700039804	nogo_punish	1.0	208.77941660024226	210.29179840022698	212.80943110026413	1.5123817999847233	209.78995020035654	211.79934200039133	213.82249470008537	0.5018481998704374	1.0100890998728005	0.8031386001966894	n/a	1.0	n/a	1	0	32	2	nogo_punish	1	-1	0	0	0	1	0	n/a	n/a	0	1.0	1.0	109.28084119968116	318.0602577999234	319.0707914000377	319.57263959990814	321.0801832000725	322.0902722999453	n/a	n/a	323.10333589976653	323.9064744999632	2020-01-15 16:13:25.319639	1.30909804227489	-2.60813779229001	0.0	-0.529765708029531	-1.30909804227489	0.0	-1.30909804227489	0.0	-2.60813779229001	0.0	-1.30909804227489	0.0	-0.06153571662243196	-2.840801630163162	-0.06667089455956333	-1.1188742662255171	-3.049984311375682	-0.06667089455956333	-0.058478764852508885	-1.589095461278837	-1.5275597446564069	-0.6163175119289508	-2.2911550127937748	1	missed	0.0
214.6090891999193	5.959276400040778	nogo_punish	1.0	214.66033380012965	216.0467525999993	218.58074810029933	1.3864187998696593	215.65608960017562	217.56312820035964	219.59498180029914	0.39066299982368946	1.0176198999396888	1.0246283998712897	n/a	1.0	n/a	1	0	33	2	nogo_punish	1	-1	0	0	0	1	0	n/a	n/a	0	1.0	1.0	109.28084119968116	323.9411749998108	324.9369307998568	325.32759379968047	326.8439694000408	327.8615892999805	n/a	n/a	328.8758229999803	329.9004513998516	2020-01-15 16:13:25.319639	1.31243214187544	-2.60813779229001	0.0	-0.265182101600764	-1.31243214187544	0.0	-1.31243214187544	0.0	-2.60813779229001	0.0	-1.31243214187544	0.0	-0.05820161702188176	-2.840801630163162	-0.06667089455956333	-0.8542906597967501	-3.0533184109762317	-0.06667089455956333	-0.058478764852508885	-1.589095461278837	-1.530893844256957	-0.6163175119289508	-2.2911550127937748	1	missed	0.0
220.61014339979738	5.866081700194627	go_reward	0.3900802000425756	220.66138800000772	222.09236330026766	224.64396600006148	1.430975300259945	221.66660490026698	223.62914650002494	225.65949350036686	0.42575840000068865	1.0148195000365376	0.867976199835482	n/a	1.0	n/a	1	0	34	3	go_reward	1	1	0	1	1	1	0	n/a	n/a	1	0.3900802000425756	1.0	109.28084119968116	329.9422291996889	330.94744609994814	331.3732044999488	332.9099876997061	333.92480719974265	n/a	n/a	334.940334700048	335.8083108998835	2020-01-15 16:13:25.319639	5.68720558571179	4.15171045299477	0.0	4.02476831400716	5.68720558571179	0.0	-5.68720558571179	4.15171045299477	0.0	5.68720558571179	0.0	0.8656519324059797	4.316571826814468	3.9190466151216183	-0.06667089455956333	3.4356597558111734	3.9463193166109978	-0.06667089455956333	0.8071731675534708	4.098110124432953	-0.21846170238151708	3.5353929410658194	0.31698277949623554	1	missed	0.0
226.51297939987853	7.05854760017246	nogo_reward	1.0	226.56422400008887	229.15114870015532	231.6754885003902	2.5869247000664473	227.57881230022758	230.6560133001767	232.68541679996997	1.5723363999277353	1.019475200213492	0.9373548002913594	n/a	1.0	n/a	1	0	35	4	nogo_reward	1	0	1	0	0	1	0	n/a	n/a	1	1.0	1.0	109.28084119968116	335.84506519977003	336.85965349990875	338.4319898998365	339.9368544998579	340.95632970007136	n/a	n/a	341.96625799965113	342.9036127999425	2020-01-15 16:13:25.319639	2.27889414528369	0.0	3.80597858762764	3.80597858762764	1.52708444234394	3.80597858762764	-2.27889414528369	3.80597858762764	0.0	3.80597858762764	1.52708444234394	1.21138379777311	0.9082603863863683	-0.23266383787315167	3.7393076930680764	3.2168700294316537	-0.21380182675685178	3.7393076930680764	1.152905032920601	2.2168831263488027	1.308622739962423	3.189661075698689	0.31698277949623554	1	missed	0.0
233.61252749990672	6.699982000049204	nogo_reward	1.0	233.66377210011706	235.44060380011797	237.95272780023515	1.776831700000912	234.6734704002738	236.94935479993006	238.96118960017338	0.7671333998441696	1.0033730003050891	1.4025644999928772	n/a	1.0	n/a	1	0	36	4	nogo_reward	0	1	0	0	0	1	0	n/a	n/a	0	1.0	1.0	109.28084119968116	342.9446132997982	343.95431159995496	344.72144499979913	346.2301959996112	347.2335689999163	n/a	n/a	348.24203079985455	349.6445952998474	2020-01-15 16:13:25.319639	2.87579924162631	0.0	4.44028213066976	4.44028213066976	1.56448288904345	4.44028213066976	-2.87579924162631	4.44028213066976	0.0	4.44028213066976	1.56448288904345	-4.44028213066976	1.505165482728988	-0.23266383787315167	4.373611236110197	3.851173572473774	-0.1764033800573419	4.373611236110197	-4.498760895522269	2.8511866693909234	1.346021186661933	3.8239646187408094	0.31698277949623554	1	missed	0.0
240.35102760000154	6.137617299798876	nogo_reward	1.0	240.40227220021188	242.26413509994745	244.77944030007347	1.86186289973557	241.40450490033254	243.77551760012284	245.7783782002516	0.8596301996149123	1.0039226999506354	0.7615112997591496	n/a	1.0	n/a	1	0	37	4	nogo_reward	1	0	1	0	0	1	1	n/a	n/a	1	1.0	1.0	109.28084119968116	349.68311339989305	350.6853461000137	351.5449762996286	353.056358799804	354.06028149975464	n/a	n/a	355.0592193999328	355.8207306996919	2020-01-15 16:13:25.319639	0.603714986729713	0.0	2.02848164524057	2.02848164524057	1.42476665851085	2.02848164524057	-0.603714986729713	2.02848164524057	0.0	2.02848164524057	1.42476665851085	2.98888074016018	-0.7669187721676088	-0.23266383787315167	1.9618107506810067	1.4393730870445838	-0.31611961058994176	1.9618107506810067	2.930401975307671	0.439386183961733	1.2063049561293329	1.4121641333116193	0.31698277949623554	1	missed	0.0
246.5347743001766	7.3785489997827085	nogo_punish	1.0	246.58601890038693	248.949292300269	251.46369040012365	2.3632733998820754	247.59193779993802	250.4510294003412	252.47552209999412	1.3573545003309846	1.0126609997824403	1.4890458001755178	n/a	1.0	n/a	1	0	38	2	nogo_punish	1	-1	0	0	0	1	0	n/a	n/a	0	1.0	1.0	109.28084119968116	355.8668601000681	356.8727789996192	358.23013349995017	359.7318706000224	360.7445315998048	n/a	n/a	361.7563632996753	363.2454090998508	2020-01-15 16:13:25.319639	1.31379566364946	-2.60813779229001	0.0	-0.139948882326522	-1.31379566364946	0.0	-1.31379566364946	0.0	-2.60813779229001	0.0	-1.31379566364946	0.0	-0.056838095247861764	-2.840801630163162	-0.06667089455956333	-0.7290574405225082	-3.0546819327502517	-0.06667089455956333	-0.058478764852508885	-1.589095461278837	-1.532257366030977	-0.6163175119289508	-2.2911550127937748	1	missed	0.0
253.95423980010673	6.750821599736867	go_punish	0.2654842999763787	254.00548440031707	255.7968788002617	258.3539482001215	1.791394399944636	255.01555510004982	257.3343843999318	259.3660329999402	0.7813237002118854	1.019563800189701	1.390273000113723	n/a	1.0	n/a	1	0	39	1	go_punish	1	0	-1	1	1	1	0	n/a	n/a	0	0.2654842999763787	1.0	109.28084119968116	363.28632559999824	364.296396299731	365.0777199999429	366.615225599613	367.6347893998027	n/a	n/a	368.6468741996214	370.0371471997351	2020-01-15 16:13:25.319639	3.90247992093055	0.0	-2.60813779229001	-0.139948882326522	1.29434212864054	-2.60813779229001	-3.90247992093055	0.0	-2.60813779229001	1.29434212864054	-2.60813779229001	0.0	2.5318461620332284	-0.23266383787315167	-2.6748086868495737	-0.7290574405225082	-0.4465441404602517	-2.6748086868495737	-0.058478764852508885	-0.29475333263829695	-2.826599494671527	-0.6163175119289508	-2.2911550127937748	1	missed	0.0
260.7460556998849	6.167484799865633	nogo_punish	1.0	260.79730030009523	262.4544589002616	264.9728491003625	1.6571586001663832	261.8019293001853	263.95321810012683	265.9858606001362	0.6525296000763205	1.0196310002356768	0.9789244998246431	n/a	1.0	n/a	1	0	40	2	nogo_punish	1	-1	0	0	0	1	1	n/a	n/a	0	1.0	1.0	109.28084119968116	370.0781414997764	371.08277049986646	371.7353000999428	373.234059299808	374.2536903000437	n/a	n/a	375.2667017998174	376.245626299642	2020-01-15 16:13:25.319639	1.31433924679619	-2.60813779229001	0.0	-0.077273319371291	-1.31433924679619	0.0	-1.31433924679619	0.0	-2.60813779229001	0.0	-1.31433924679619	0.0	-0.05629451210113179	-2.840801630163162	-0.06667089455956333	-0.6663818775672772	-3.055225515896982	-0.06667089455956333	-0.058478764852508885	-1.589095461278837	-1.532800949177707	-0.6163175119289508	-2.2911550127937748	1	missed	0.0
266.9507920001634	6.267518199980202	go_punish	0.3249377002939582	267.00203660037374	268.5864532003179	271.1365782003849	1.584416599944177	268.01852959999815	270.1146352002397	272.13874120032415	0.567923600319773	1.0219430001451997	1.1308136000297964	n/a	1.0	n/a	1	0	41	1	go_punish	1	0	-1	1	1	1	1	n/a	n/a	0	0.3249377002939582	1.0	109.28084119968116	376.2828778000549	377.2993707996793	377.8672943999991	379.3954763999209	380.4174194000661	n/a	n/a	381.4195824000053	382.5503960000351	2020-01-15 16:13:25.319639	3.90193633778382	0.0	-2.60813779229001	-0.077273319371291	1.29379854549382	-2.60813779229001	-3.90193633778382	0.0	-2.60813779229001	1.29379854549382	-2.60813779229001	0.0	2.531302578886498	-0.23266383787315167	-2.6748086868495737	-0.6663818775672772	-0.4470877236069719	-2.6748086868495737	-0.058478764852508885	-0.29529691578501716	-2.826599494671527	-0.6163175119289508	-2.2911550127937748	1	missed	0.0
273.2536458000541	7.7712745000608265	go_punish	0.5851935995742679	273.3048904002644	276.07625540019944	278.6171910003759	2.771364999935031	274.3100304999388	277.60741250030696	279.6321702003479	1.7662249002606245	1.0097785000689328	1.4439946999773383	n/a	1.0	n/a	1	0	42	1	go_punish	1	0	-1	1	1	1	0	n/a	n/a	0	0.5851935995742679	1.0	109.28084119968116	382.5857315999456	383.59087169962	385.3570965998806	386.8882536999881	387.89803220005706	n/a	n/a	388.91301140002906	390.3570061000064	2020-01-15 16:13:25.319639	3.90173439599806	0.0	-2.60813779229001	-0.0443866433542704	1.29359660370805	-2.60813779229001	-3.90173439599806	0.0	-2.60813779229001	1.29359660370805	-2.60813779229001	0.0	2.531100637100738	-0.23266383787315167	-2.6748086868495737	-0.6334952015502566	-0.44728966539274184	-2.6748086868495737	-0.058478764852508885	-0.2954988575707871	-2.826599494671527	-0.6163175119289508	-2.2911550127937748	1	missed	0.0
281.0665488000959	6.001312599983066	go_punish	1.0	281.11779340030625	282.6186497001908	285.1443318002857	1.5008562998845605	282.11715280031785	284.12452189996844	286.1579907000996	0.5014968998729614	1.0198099003172842	0.9611153001897037	n/a	1.0	n/a	1	0	43	1	go_punish	0	-1	0	1	0	0	1	n/a	n/a	0	1.0	1.0	109.28084119968116	390.3986345999874	391.397993999999	391.899490899872	393.4053630996496	394.4251729999669	n/a	n/a	395.4388318997808	396.3999471999705	2020-01-15 16:13:25.319639	-3.90167351804558	0.0	-2.60813779229001	-0.0264069846961848	1.29353572575557	-2.60813779229001	3.90167351804558	-2.60813779229001	0.0	-2.60813779229001	1.29353572575557	2.60813779229001	-5.272307276942902	-0.23266383787315167	-2.6748086868495737	-0.615515542892171	-0.44735054334522184	-2.6748086868495737	2.5496590274375013	-4.1972332535688475	1.0750740233740528	-3.224455304218961	0.31698277949623554	1	missed	0.0
287.11921190004796	5.901122999843153	go_reward	0.5910903001204133	287.1704565002583	288.52227160008624	291.1027482999488	1.3518150998279452	288.18699900014326	290.07279340038076	292.11290520010516	0.3352725999429822	1.0299548995680539	0.9586742999962894	n/a	1.0	n/a	1	0	44	3	go_reward	1	1	0	1	1	1	0	n/a	n/a	1	0.5910903001204133	1.0	109.28084119968116	396.45129769993946	397.4678401998244	397.8031127997674	399.3536346000619	400.38358949963	n/a	n/a	401.3937463997863	402.3524206997826	2020-01-15 16:13:25.319639	6.13511141705093	4.56943070800864	0.0	4.50075629392984	6.13511141705093	0.0	-6.13511141705093	4.56943070800864	0.0	6.13511141705093	0.0	0.44793167739211004	4.764477658153608	4.336766870135488	-0.06667089455956333	3.9116477357338533	4.394225147950138	-0.06667089455956333	0.3894529125396011	4.546015955772093	-0.21846170238151708	3.953113196079689	0.31698277949623554	1	missed	0.0
293.0585113000125	6.752098899800274	nogo_reward	1.0	293.10975590022286	294.9260183000006	297.44483570009476	1.8162623997777132	294.1226383000612	296.43056710017845	298.456052900292	0.8033799999393523	1.0142685999163064	1.4058018997311592	n/a	1.0	n/a	1	0	45	4	nogo_reward	0	1	0	0	0	1	0	n/a	n/a	0	1.0	1.0	109.28084119968116	402.390597099904	403.4034794997424	404.20685949968174	405.7114082998596	406.7256768997759	n/a	n/a	407.73689409997314	409.1426959997043	2020-01-15 16:13:25.319639	2.17631363387913	0.0	3.69604214381077	3.69604214381077	1.51972850993164	3.69604214381077	-2.17631363387913	3.69604214381077	0.0	3.69604214381077	1.51972850993164	-3.69604214381077	0.8056798749818082	-0.23266383787315167	3.6293712492512062	3.1069335856147835	-0.2211577591691518	3.6293712492512062	-3.7545209086632787	2.106946682531933	1.3012668075501228	3.079724631881819	0.31698277949623554	1	missed	0.0
299.8548456998542	7.6709567001088885	go_reward	0.3798988000489771	299.90609030006453	302.6264210003428	305.17141279997304	2.720330700278282	300.9138511000201	304.15651420038193	306.18664380023256	1.7125699003227055	1.0148985995911062	1.390403199940863	n/a	1.0	n/a	1	0	46	3	go_reward	1	1	0	1	1	1	1	n/a	n/a	1	0.3798988000489771	1.0	109.28084119968116	409.1869314997457	410.1946922997013	411.907262200024	413.4373554000631	414.4522539996542	n/a	n/a	415.4674849999137	416.8578881998546	2020-01-15 16:13:25.319639	6.35421729776622	4.77289755041057	0.0	4.73429012831379	6.35421729776622	0.0	-6.35421729776622	4.77289755041057	0.0	6.35421729776622	0.0	0.2444648349901799	4.983583538868898	4.540233712537418	-0.06667089455956333	4.1451815701178045	4.613331028665428	-0.06667089455956333	0.18598607013767102	4.765121836487383	-0.21846170238151708	4.15658003848162	0.31698277949623554	1	missed	0.0
307.5614269999787	7.050056799780577	go_punish	0.6769888000562787	307.61267160018906	309.65756750013685	312.19926880020654	2.0448958999477895	308.6184755000286	311.1870091003366	313.20429050037643	1.039092000108269	1.0122596998699578	1.458437899593207	n/a	1.0	n/a	1	0	47	1	go_punish	1	0	-1	1	1	1	0	n/a	n/a	0	0.6769888000562787	1.0	109.28084119968116	416.8935127998702	417.89931669970974	418.938408699818	420.46785030001774	421.4801099998877	n/a	n/a	422.4851317000576	423.9435695996508	2020-01-15 16:13:25.319639	2.42176291950885	0.0	-1.12823183593768	-0.0162140565532491	1.29353108357117	-1.12823183593768	-2.42176291950885	0.0	-1.12823183593768	1.29353108357117	-1.12823183593768	0.0	1.0511291606115283	-0.23266383787315167	-1.1949027304972433	-0.6053226147492353	-0.44735518552962183	-1.1949027304972433	-0.058478764852508885	-0.2955643777076671	-1.346693538319197	-0.6163175119289508	-0.8112490564414444	1	missed	0.0
314.6505720000714	7.487266900017914	nogo_punish	1.0	314.70181660028175	317.18429889995605	319.700828100089	2.4824822996743023	315.7099514002912	318.68971090018755	320.70528990030294	1.4743474996648729	1.0111171999014346	1.4837935999967158	n/a	1.0	n/a	1	0	48	2	nogo_punish	1	-1	0	0	0	1	0	n/a	n/a	0	1.0	1.0	109.28084119968116	423.9826577999629	424.99079259997234	426.4651400996372	427.9705520998687	428.98166929977015	n/a	n/a	429.9861310999841	431.4699246999808	2020-01-15 16:13:25.319639	1.31454118858195	-2.60813779229001	0.0	-0.0443866433542704	-1.31454118858195	0.0	-1.31454118858195	0.0	-2.60813779229001	0.0	-1.31454118858195	0.0	-0.05609257031537185	-2.840801630163162	-0.06667089455956333	-0.6334952015502566	-3.055427457682742	-0.06667089455956333	-0.058478764852508885	-1.589095461278837	-1.5330028909634672	-0.6163175119289508	-2.2911550127937748	1	missed	0.0
322.1770246000961	6.077706499956491	nogo_punish	1.0	322.22826920030644	323.6581533001736	326.18356849998236	1.429884099867138	323.2301255003549	325.1631793002598	327.19647590024397	0.4280277998186648	1.0203891997225583	1.1094998000189662	n/a	1.0	n/a	1	0	49	2	nogo_punish	1	-1	0	0	0	1	0	n/a	n/a	0	1.0	1.0	109.28084119968116	431.5091103999876	432.5109667000361	432.93899449985474	434.44402049994096	435.4644096996635	n/a	n/a	436.47731709992513	437.5868168999441	2020-01-15 16:13:25.319639	1.31460206653443	-2.60813779229001	0.0	-0.0264069846961848	-1.31460206653443	0.0	-1.31460206653443	0.0	-2.60813779229001	0.0	-1.31460206653443	0.0	-0.05603169236289185	-2.840801630163162	-0.06667089455956333	-0.615515542892171	-3.055488335635222	-0.06667089455956333	-0.058478764852508885	-1.589095461278837	-1.5330637689159472	-0.6163175119289508	-2.2911550127937748	1	missed	0.0
328.3010486997664	6.177598800044507	go_reward	0.6405162997543812	328.35229329997674	330.02856180025265	332.582918500062	1.67626850027591	329.356922400184	331.55963970022276	333.58201540028676	0.6716394000686705	1.023278799839261	0.9478766997344792	n/a	1.0	n/a	1	0	50	3	go_reward	1	1	0	1	1	1	0	n/a	n/a	1	0.6405162997543812	1.0	109.28084119968116	437.6331344996579	438.63776359986514	439.3094029999338	440.8404808999039	441.8637596997432	n/a	n/a	442.8628565999679	443.8107332997024	2020-01-15 16:13:25.319639	6.46752443540414	4.87766268849566	0.0	4.85521107789841	6.46752443540414	0.0	-6.46752443540414	4.87766268849566	0.0	6.46752443540414	0.0	0.13969969690508943	5.096890676506819	4.644998850622509	-0.06667089455956333	4.266102519702424	4.726638166303348	-0.06667089455956333	0.08122093205258055	4.8784289741253035	-0.21846170238151708	4.26134517656671	0.31698277949623554	1	missed	0.0
334.51496540009975	6.77275989996275	nogo_punish	1.0	334.5662100003101	337.04433290008456	339.55050620017573	2.478122899774462	335.56058640033	338.5494342003949	340.5654812003486	1.4837464997545453	1.0010719997808337	0.7734886999242576	n/a	1.0	n/a	1	0	51	2	nogo_punish	1	-1	0	0	0	1	1	n/a	n/a	0	1.0	1.0	109.28084119968116	443.84705119999126	444.8414276000112	446.3251740997657	447.83027540007606	448.8313473998569	n/a	n/a	449.84632240002975	450.619811099954	2020-01-15 16:13:25.319639	1.31460670871884	-2.60813779229001	0.0	-0.0162140565532491	-1.31460670871884	0.0	-1.31460670871884	0.0	-2.60813779229001	0.0	-1.31460670871884	0.0	-0.05602705017848186	-2.840801630163162	-0.06667089455956333	-0.6053226147492353	-3.0554929778196316	-0.06667089455956333	-0.058478764852508885	-1.589095461278837	-1.533068411100357	-0.6163175119289508	-2.2911550127937748	1	missed	0.0
341.3258369998075	5.674692400265485	nogo_reward	1.0	341.37708160001785	342.748995500151	345.2639672001824	1.3719139001331655	342.39009190024814	344.25449500000104	346.27716330019757	0.3589035999028738	1.0094722001813352	0.7746107000857592	n/a	1.0	n/a	1	0	52	4	nogo_reward	0	1	0	0	0	1	0	n/a	n/a	0	1.0	1.0	109.28084119968116	450.657922799699	451.6709330999293	452.0298366998322	453.5353361996822	454.54480839986354	n/a	n/a	455.55800449987873	456.3326151999645	2020-01-15 16:13:25.319639	0.284842248061574	0.0	1.6880253546548	1.6880253546548	1.40318310659323	1.6880253546548	-0.284842248061574	1.6880253546548	0.0	1.6880253546548	1.40318310659323	-1.6880253546548	-1.0857915108357479	-0.23266383787315167	1.6213544600952368	1.098916796458814	-0.3377031625075617	1.6213544600952368	-1.746504119507309	0.09892989337596303	1.1847214042117131	1.0717078427258493	0.31698277949623554	1	missed	0.0
347.03536089975387	6.496310700196716	go_punish	0.2905651996843517	347.0866054999642	348.82787070004275	351.3786478000693	1.7412652000785442	348.1029688003473	350.35902380011976	352.39737679995596	0.7249018996954533	1.0196239999495447	1.1855394002049593	n/a	1.0	n/a	1	0	53	1	go_punish	1	0	-1	1	1	1	0	n/a	n/a	0	0.2905651996843517	1.0	109.28084119968116	456.36744669964537	457.38381000002846	458.1087118997239	459.6398649998009	460.65948899975047	n/a	n/a	461.6782179996371	462.8637573998421	2020-01-15 16:13:25.319639	2.42177861119598	0.0	-1.12823183593768	-0.0102449003863781	1.29354677525829	-1.12823183593768	-2.42177861119598	0.0	-1.12823183593768	1.29354677525829	-1.12823183593768	0.0	1.051144852298658	-0.23266383787315167	-1.1949027304972433	-0.5993534585823643	-0.4473394938425017	-1.1949027304972433	-0.058478764852508885	-0.29554868602054696	-1.346693538319197	-0.6163175119289508	-0.8112490564414444	1	missed	0.0
353.5680772997439	6.955690300092101	nogo_punish	0.6602803003042936	353.61932189995423	355.54319859994575	358.07754310034215	1.9238766999915242	354.63576090009883	357.0578691000119	359.08228760026395	0.9074376998469234	1.0196740003302693	1.4927245997823775	n/a	1.0	n/a	1	0	54	2	nogo_punish	0	0	-1	0	1	0	0	n/a	n/a	0	0.6602803003042936	1.0	109.28084119968116	462.9001630996354	463.91660209978	464.8240397996269	466.33871029969305	467.3583843000233	n/a	n/a	468.3631287999451	469.8558533997275	2020-01-15 16:13:25.319639	-1.31459101703171	-2.60813779229001	0.0	-0.0102449003863781	-1.31459101703171	0.0	1.31459101703171	-2.60813779229001	0.0	-1.31459101703171	0.0	2.60813779229001	-2.685224775929032	-2.840801630163162	-0.06667089455956333	-0.5993534585823643	-3.055477286132502	-0.06667089455956333	2.5496590274375013	-2.903686478310547	-0.21846170238151708	-3.224455304218961	0.31698277949623554	1	missed	0.0
360.56244770018384	7.858967499807477	nogo_punish	0.4080520998686552	360.6136923003942	363.5674971002154	366.12924650032073	2.953804799821228	361.60958879999816	365.10533370031044	367.1379948002286	1.957908300217241	1.0239128000102937	1.334664999973029	n/a	1.0	n/a	1	0	55	2	nogo_punish	1	-1	0	0	1	0	0	n/a	n/a	-1	0.4080520998686552	1.0	109.28084119968116	469.89453350007534	470.8904299996793	472.84833829989657	474.3861748999916	475.4100877000019	n/a	n/a	476.4188359999098	477.7535009998828	2020-01-15 16:13:25.319639	0.165336008027176	-1.12823183593768	0.0	-0.0066451846562855	0.165336008027176	0.0	-0.165336008027176	-1.12823183593768	0.0	0.165336008027176	0.0	-3.73999398015779	-1.205297750870146	-1.3608956738108315	-0.06667089455956333	-0.5957537428522717	-1.5755502610736158	-0.06667089455956333	-3.798472745010299	-1.423759453251661	-0.21846170238151708	-1.7445493478666307	0.31698277949623554	1	missed	0.0
368.4603458000347	7.2799400999210775	go_reward	0.2866158001124859	368.51159040024504	371.3339688000269	373.86964499996975	2.8223783997818828	369.5051524001173	372.86205270001665	374.87606590008363	1.8288163999096128	1.007592299953103	0.9154646000824869	n/a	1.0	n/a	1	0	56	3	go_reward	1	1	0	1	1	1	0	n/a	n/a	1	0.2866158001124859	1.0	109.28084119968116	477.7924315999262	478.7859935997985	480.6148099997081	482.1428938996978	483.1504861996509	n/a	n/a	484.1569070997648	485.0723716998473	2020-01-15 16:13:25.319639	6.52895771641524	4.93422150738621	0.0	4.92076472095486	6.52895771641524	0.0	-6.52895771641524	4.93422150738621	0.0	6.52895771641524	0.0	0.08314087801453951	5.1583239575179185	4.7015576695130585	-0.06667089455956333	4.3316561627588746	4.788071447314448	-0.06667089455956333	0.024662113162030624	4.939862255136403	-0.21846170238151708	4.317903995457259	0.31698277949623554	1	missed	0.0
375.775879799854	7.258141499944088	nogo_reward	0.3929812000133097	375.82712440006435	378.59445610037073	381.1401103003882	2.7673317003063858	376.83272609999403	380.11932650022214	382.14290790027	1.7617300003767014	1.0207838001660434	0.9423579997384195	n/a	1.0	n/a	1	0	57	4	nogo_reward	1	0	1	0	1	0	0	n/a	n/a	0	0.3929812000133097	1.0	109.28084119968116	485.1079655997455	486.1135672996752	487.8752973000519	489.4001676999033	490.42095150006935	n/a	n/a	491.4237490999512	492.3661070996896	2020-01-15 16:13:25.319639	0.516566228150355	0.0	0.834717938718412	0.834717938718412	1.35128416686877	0.834717938718412	-0.516566228150355	0.0	0.834717938718412	1.35128416686877	0.834717938718412	0.0	-0.8540675307469668	-0.23266383787315167	0.7680470441588487	0.24560938052242587	-0.38960210223202174	0.7680470441588487	-0.058478764852508885	-0.237811294410067	0.616256236336895	-0.6163175119289508	1.1517007182146477	1	missed	0.0
383.0796093000099	6.591129799839109	go_reward	1.0	383.13085390022025	385.16634210012853	387.6933364002034	2.0354881999082863	384.12660269998014	386.67374800005933	388.7061701002531	1.0397394001483917	1.0195884001440731	1.015813599806279	n/a	1.0	n/a	1	0	58	3	go_reward	1	1	0	1	0	0	1	n/a	n/a	0	1.0	1.0	109.28084119968116	492.4116950999014	493.4074438996613	494.4471832998097	495.9545891997405	496.97417759988457	n/a	n/a	497.98701129993424	499.0028248997405	2020-01-15 16:13:25.319639	-6.56366595267065	4.96604182281339	0.0	4.95775365776501	6.56366595267065	0.0	6.56366595267065	0.0	4.96604182281339	0.0	6.56366595267065	0.0	-7.934299711567972	4.733377984940238	-0.06667089455956333	4.368645099569024	4.822779683569858	-0.06667089455956333	-0.058478764852508885	-1.589095461278837	6.345204250289133	-0.6163175119289508	5.2830246023096255	1	missed	0.0
389.7083411999047	6.098306499887201	nogo_reward	1.0	389.759585800115	391.3193651000038	393.84813000028953	1.5597792998887599	390.7677671001292	392.8262162003666	394.85430290037766	0.5515979998745593	1.0219137999229133	1.003589399624559	n/a	1.0	n/a	1	0	59	4	nogo_reward	1	0	1	0	0	1	1	n/a	n/a	1	1.0	1.0	109.28084119968116	499.0404269997962	500.0486082998104	500.60020629968494	502.1070574000478	503.1289711999707	n/a	n/a	504.1351441000588	505.1387334996834	2020-01-15 16:13:25.319639	-0.491157022427862	0.0	0.834717938718412	0.439291985976641	1.32587496114627	0.834717938718412	0.491157022427862	0.834717938718412	0.0	0.834717938718412	1.32587496114627	4.182644446682338	-1.861790781325184	-0.23266383787315167	0.7680470441588487	-0.1498165722193452	-0.4150113079545219	0.7680470441588487	4.12416568182983	-0.754377522560425	1.107413258764753	0.21840042678946125	0.31698277949623554	1	missed	0.0
395.8408737001009	6.3358069998213296	go_punish	0.6829304001294076	395.8921183003112	397.45861300034454	399.9975799000822	1.5664947000333314	396.8960298001766	398.98593660024926	401.0005105002783	0.5625832001679214	1.01164329983294	1.2274147998542162	n/a	1.0	n/a	1	0	60	1	go_punish	1	0	-1	1	1	1	0	n/a	n/a	0	0.6829304001294076	1.0	109.28084119968116	505.1729594999924	506.1768709998578	506.7394542000257	508.2667777999304	509.27842109976336	n/a	n/a	510.2813516999595	511.5087664998137	2020-01-15 16:13:25.319639	2.42179967990255	0.0	-1.12823183593768	-0.0066451846562855	1.29356784396486	-1.12823183593768	-2.42179967990255	0.0	-1.12823183593768	1.29356784396486	-1.12823183593768	0.0	1.051165921005228	-0.23266383787315167	-1.1949027304972433	-0.5957537428522717	-0.4473184251359319	-1.1949027304972433	-0.058478764852508885	-0.29552761731397714	-1.346693538319197	-0.6163175119289508	-0.8112490564414444	1	missed	0.0
