onset	duration	trial_type	response_time	cueOnset	targetOnset	fbOnset	cueRT	firstfixOnset	secondfixOnset	waitOnset	firstfixdur	secondfixdur	waitdur	nback_fbOnset	nback_response_time	nback_targetOnset	block	wm	trial	cue	cond	is_common	outcome_go	outcome_nogo	key_correct	key_pressed	is_correct	key_correct_nback	key_pressed_nback	is_correct_nback	outcome	rt	rt_nback	time_scan	time_onset	time_isi1	time_circle	time_isi2	time_feedback	time_same	time_correct	time_iti	time_done	timestamp_scan	DV	Qgo	Qnogo	SV	Wgo	Wnogo	mDV	Qchosen	Qunchosen	Wchosen	Wunchosen	PE	DVC	QgoC	QnogoC	SVC	WgoC	WnogoC	PEC	WchosenC	WunchosenC	QchosenC	QunchosenC	run	outcome_nback	nback_targetResp
0.0	6.917268800025354	nogo_punish	1.0	0.06138399997144006	2.424396099988371	4.952884699974675	2.363012100016931	1.0638626999862026	3.9269161999982316	5.950874299975112	1.3605334000021685	1.0259684999764431	1.0277785000216824	n/a	1.0	n/a	1	0	1	2	nogo_punish	0	0	-1	0	0	1	0	n/a	n/a	-1	1.0	1.0	85.51184680001461	85.57323079998605	86.57570950000081	87.93624290000298	89.43876300001284	90.46473149998928	n/a	n/a	91.46272109998972	92.4904996000114	2019-12-21 09:19:54.941065	0.509301239133896	0.0	0.0	0.0	-0.509301239133896	0.0	-0.509301239133896	0.0	0.0	0.0	-0.509301239133896	-36.9339801066733	-7.017079672347823	-2.8723924278380655	3.1021203737281726	0.8883362639538134	-1.8024991727693394	3.1021203737281726	-36.42451169563664	-2.858729235694492	4.15835043665334	1.4626047969826872	-1.2328768510925705	1	missed	0.0
6.961813900008551	6.845763899997124	go_reward	0.4641216000018175	7.023197899979991	8.830089299997795	11.391854599991348	1.806891400017804	8.026724600000307	10.36708009999711	12.399947399972007	0.8033646999974877	1.024774499994237	1.4690144000051077	n/a	1.0	n/a	1	0	2	3	go_reward	1	1	0	1	1	1	0	n/a	n/a	1	0.4641216000018175	1.0	85.51184680001461	92.5350446999946	93.53857140001492	94.3419361000124	95.87892690001172	96.90370140000596	n/a	n/a	97.91179419998662	99.38080859999172	2019-12-21 09:19:54.941065	-0.509301239133896	0.0	0.0	0.0	-0.509301239133896	0.0	0.509301239133896	0.0	0.0	-0.509301239133896	0.0	25.9678555990398	-8.035682150615614	-2.8723924278380655	3.1021203737281726	0.8883362639538134	-1.8024991727693394	3.1021203737281726	26.47732401007646	-3.3680304748283882	4.667651675787236	1.4626047969826872	-1.2328768510925705	1	missed	0.0
13.84228710000751	7.707724800013239	nogo_punish	1.0	13.90367109997895	16.87894129997585	19.395546599989757	2.975270199996899	14.919830499973614	18.37365579998003	20.400794699991835	1.959110800002236	1.0218908000097287	1.2106012000003545	n/a	1.0	n/a	1	0	3	2	nogo_punish	1	-1	0	0	0	1	1	n/a	n/a	0	1.0	1.0	85.51184680001461	99.41551789999356	100.43167729998822	102.39078809999046	103.88550259999464	104.90739340000437	n/a	n/a	105.91264150000644	107.1232427000068	2019-12-21 09:19:54.941065	2.01225847032534	0.0	-3.23156285074341	-3.23156285074341	-5.24382132106875	-3.23156285074341	-2.01225847032534	-3.23156285074341	0.0	-3.23156285074341	-5.24382132106875	3.23156285074341	-5.514122441156378	-2.8723924278380655	-0.1294424770152376	-2.343226586789597	-6.537019254704193	-0.1294424770152376	3.7410312617800727	-6.090292086437902	-0.5761696452815137	-1.768958053760723	-1.2328768510925705	1	missed	0.0
21.587292600015644	6.647771399992067	nogo_reward	1.0	21.648676599987084	23.50723239997751	26.04890279998655	1.8585557999904267	22.658094499987797	25.024402799986987	27.057443099998636	0.8491378999897137	1.0244999999995628	1.2390048999805146	n/a	1.0	n/a	1	0	4	4	nogo_reward	1	0	1	0	0	1	0	n/a	n/a	1	1.0	1.0	85.51184680001461	107.1605234000017	108.1699413000024	109.01907919999212	110.5362496000016	111.56074960000116	n/a	n/a	112.56928990001325	113.80829479999376	2019-12-21 09:19:54.941065	0.509301239133896	0.0	0.0	0.0	-0.509301239133896	0.0	-0.509301239133896	0.0	0.0	0.0	-0.509301239133896	25.9678555990398	-7.017079672347823	-2.8723924278380655	3.1021203737281726	0.8883362639538134	-1.8024991727693394	3.1021203737281726	26.47732401007646	-2.858729235694492	4.15835043665334	1.4626047969826872	-1.2328768510925705	1	missed	0.0
28.274175000027753	7.247692299977643	go_reward	0.3705458000185899	28.335558999999193	30.634837499994305	33.176752899977146	2.2992784999951112	29.347122399980435	32.16634069997235	34.190161199978306	1.2877151000138696	1.0104122000047937	1.3930900999985312	n/a	1.0	n/a	1	0	5	3	go_reward	0	0	1	1	1	1	0	n/a	n/a	0	0.3705458000185899	1.0	85.51184680001461	113.8474058000138	114.85896919999504	116.14668430000891	117.67818749998696	118.68859969999176	n/a	n/a	119.70200799999292	121.09509809999145	2019-12-21 09:19:54.941065	4.94220832145013	2.14512338317599	0.0	2.14512338317599	4.94220832145013	0.0	-4.94220832145013	2.14512338317599	0.0	4.94220832145013	0.0	-2.14512338317599	-2.5841725900315886	-0.7272690446620755	3.1021203737281726	3.033459647129803	3.6490103878146862	3.1021203737281726	-1.6356549721393276	2.0834790857556373	4.667651675787236	3.607728180158677	-1.2328768510925705	1	missed	0.0
35.55662380001739	6.30751159999636	nogo_reward	0.4101927999872714	35.61800779998883	37.54616599998553	40.076289699994945	1.9281581999967017	36.624944299983326	39.066668399987975	41.09391559998039	0.9212217000022065	1.0096213000069696	0.8316038000047996	n/a	1.0	n/a	1	0	6	4	nogo_reward	1	0	1	0	1	0	1	n/a	n/a	0	0.4101927999872714	1.0	85.51184680001461	121.12985460000344	122.13679109999794	123.05801280000014	124.57851520000258	125.58813650000955	n/a	n/a	126.605762399995	127.4373661999998	2019-12-21 09:19:54.941065	0.651961555098137	0.0	2.14512338317599	2.14512338317599	2.79708493827413	2.14512338317599	-0.651961555098137	0.0	2.14512338317599	2.79708493827413	2.14512338317599	0.0	-6.874419356383581	-2.8723924278380655	5.247243756904163	3.033459647129803	1.5038870046386865	5.247243756904163	0.5094684110366623	-0.06164429742036237	6.812775058963226	1.4626047969826872	0.9122465320834194	1	missed	0.0
41.898541200003834	6.4396733000175885	nogo_punish	1.0	41.959925199975274	43.63220029999502	46.17172329997993	1.6722751000197462	42.959235399990575	45.1478671999939	47.180543199996464	0.6729649000044446	1.023856099986034	1.2190552999963984	n/a	1.0	n/a	1	0	7	2	nogo_punish	0	0	-1	0	0	1	0	n/a	n/a	-1	1.0	1.0	85.51184680001461	127.47177199998988	128.47108220000518	129.14404710000963	130.6597140000085	131.68357009999454	n/a	n/a	132.69239000001107	133.91144530000747	2019-12-21 09:19:54.941065	1.85934334178733	0.0	-2.91932018874771	-2.91932018874771	-4.77866353053503	-2.91932018874771	-1.85934334178733	-2.91932018874771	0.0	-2.91932018874771	-4.77866353053503	-34.01465991792559	-5.667037569694388	-2.8723924278380655	0.1828001849804628	-2.0309839247938966	-6.071861464170473	0.1828001849804628	-33.50519150688893	-5.778049424442202	-0.11101185474779385	-1.4567153917650226	-1.2328768510925705	1	missed	0.0
48.37047030002577	6.523018299980322	nogo_reward	0.28747999999905	48.43185429999721	49.99687579998863	52.54504279998946	1.565021499991417	49.43471289999434	51.52408569998806	53.5471864999854	0.5621628999942914	1.0209571000013966	1.4076860999921337	n/a	1.0	n/a	1	0	8	4	nogo_reward	1	0	1	0	1	0	1	n/a	n/a	0	0.28747999999905	1.0	85.51184680001461	133.94370110001182	134.94655970000895	135.50872260000324	137.03593250000267	138.05688960000407	n/a	n/a	139.0590333	140.46671939999214	2019-12-21 09:19:54.941065	0.343392734950924	0.0	2.14512338317599	1.94762844483832	2.48851611812692	2.14512338317599	-0.343392734950924	0.0	2.14512338317599	2.48851611812692	2.14512338317599	0.0	-7.182988176530794	-2.8723924278380655	5.247243756904163	2.8359647087921336	1.1953181844914766	5.247243756904163	0.5094684110366623	-0.37021311756757225	6.812775058963226	1.4626047969826872	0.9122465320834194	1	missed	0.0
54.932456900016376	7.768437299993849	go_punish	1.0	54.993840899987816	57.84365169997909	60.3630576999858	2.8498107999912747	56.00610579998465	59.348015599971404	61.36279619997367	1.8375458999944385	1.0150421000143979	1.3994820000079926	n/a	1.0	n/a	1	0	9	1	go_punish	1	0	-1	1	0	0	0	n/a	n/a	-1	1.0	1.0	85.51184680001461	140.50568770000243	141.51795259999926	143.3554984999937	144.859862399986	145.8749045000004	n/a	n/a	146.87464299998828	148.27412499999627	2019-12-21 09:19:54.941065	0.509301239133896	0.0	0.0	0.0	-0.509301239133896	0.0	-0.509301239133896	0.0	0.0	0.0	-0.509301239133896	-36.9339801066733	-7.017079672347823	-2.8723924278380655	3.1021203737281726	0.8883362639538134	-1.8024991727693394	3.1021203737281726	-36.42451169563664	-2.858729235694492	4.15835043665334	1.4626047969826872	-1.2328768510925705	1	missed	0.0
62.73875270001008	6.229180199996335	nogo_punish	1.0	62.80013669998152	64.13078539998969	66.66747719998239	1.3306487000081688	63.80313249997562	65.6468007999938	67.67015029999311	0.32765290001407266	1.020676399988588	1.3591665999847464	n/a	1.0	n/a	1	0	10	2	nogo_punish	1	-1	0	0	0	1	0	n/a	n/a	0	1.0	1.0	85.51184680001461	148.31198349999613	149.31497929999023	149.6426322000043	151.1586476000084	152.179323999997	n/a	n/a	153.18199710000772	154.54116369999247	2019-12-21 09:19:54.941065	3.22622144838908	0.0	-5.8714553184412	-5.8714553184412	-9.09767676683028	-5.8714553184412	-3.22622144838908	-5.8714553184412	0.0	-5.8714553184412	-9.09767676683028	5.8714553184412	-4.300159463092639	-2.8723924278380655	-2.769334944713027	-4.9831190544873865	-10.390874700465723	-2.769334944713027	6.380923729477862	-8.730184554135691	-4.430025091043043	-4.408850521458513	-1.2328768510925705	1	missed	0.0
69.0036087000044	7.059696200012695	nogo_punish	1.0	69.06499269997585	71.58592669997597	74.10267429999658	2.520934000000125	70.06946529998095	73.08144279997214	75.11557929997798	1.5164613999950234	1.0212315000244416	1.0091096000105608	n/a	1.0	n/a	1	0	11	2	nogo_punish	1	-1	0	0	0	1	0	n/a	n/a	0	1.0	1.0	85.51184680001461	154.57683949999046	155.58131209999556	157.09777349999058	158.59328959998675	159.6145211000112	n/a	n/a	160.6274260999926	161.63653570000315	2019-12-21 09:19:54.941065	2.95207979964355	0.0	-5.30889217069487	-5.30889217069487	-8.26097197033842	-5.30889217069487	-2.95207979964355	-5.30889217069487	0.0	-5.30889217069487	-8.26097197033842	5.30889217069487	-4.574301111838168	-2.8723924278380655	-2.2067717969666973	-4.420555906741057	-9.554169903973865	-2.2067717969666973	5.8183605817315325	-8.167621406389362	-3.5933202945511846	-3.8462873737121828	-1.2328768510925705	1	missed	0.0
76.10232820000965	6.964701399992919	go_reward	0.4387915999977849	76.16371219998109	78.18258819999755	80.7304891999811	2.018876000016462	77.17572909998125	79.71257649999461	81.73966599997948	1.0068591000162996	1.017912699986482	1.388747599994531	n/a	1.0	n/a	1	0	12	3	go_reward	1	1	0	1	1	1	0	n/a	n/a	1	0.4387915999977849	1.0	85.51184680001461	161.6755589999957	162.68757589999586	163.69443500001216	165.22442330000922	166.2423359999957	n/a	n/a	167.2515127999941	168.64026039998862	2019-12-21 09:19:54.941065	4.43614456296524	1.94762844483832	0.0	1.94762844483832	4.43614456296524	0.0	-4.43614456296524	1.94762844483832	0.0	4.43614456296524	0.0	24.020227154201482	-3.090236348516478	-0.9247639829997454	3.1021203737281726	2.8359647087921336	3.142946629329797	3.1021203737281726	24.529695565238143	1.577415327270748	4.667651675787236	3.4102332418210075	-1.2328768510925705	1	missed	0.0
83.10459830000764	6.593831200007116	nogo_reward	0.4368198000011034	83.16598229997908	84.96149419998983	87.51210599998012	1.7955119000107516	84.18074409998371	86.49244899998303	88.51639239999349	0.7807501000061166	1.0196569999970961	1.2434210999927018	n/a	1.0	n/a	1	0	13	4	nogo_reward	1	0	1	0	1	0	0	n/a	n/a	0	0.4368198000011034	1.0	85.51184680001461	168.6778290999937	169.69259089999832	170.47334100000444	172.00429579999764	173.02395279999473	n/a	n/a	174.0282392000081	175.2716603000008	2019-12-21 09:19:54.941065	0.0662580730935555	0.0	2.14512338317599	1.76998140130877	2.21138145626955	2.14512338317599	-0.0662580730935555	0.0	2.14512338317599	2.21138145626955	2.14512338317599	0.0	-7.460122838388163	-2.8723924278380655	5.247243756904163	2.6583176652625835	0.9181835226341066	5.247243756904163	0.5094684110366623	-0.6473477794249423	6.812775058963226	1.4626047969826872	0.9122465320834194	1	missed	0.0
89.73353660001885	6.944505899999086	nogo_reward	0.358965999999782	89.79492059999029	92.28543369998806	94.82645039999628	2.49051309999777	90.80137789997389	93.80636919999961	95.8396947999718	1.4840558000141755	1.0200811999966675	0.8997317000175826	n/a	1.0	n/a	1	0	14	4	nogo_reward	1	0	1	0	1	0	0	n/a	n/a	0	0.358965999999782	1.0	85.51184680001461	175.3067674000049	176.3132246999885	177.79728050000267	179.31821600001422	180.33829720001089	n/a	n/a	181.3515415999864	182.251273300004	2019-12-21 09:19:54.941065	-0.182885997352667	0.0	2.14512338317599	1.61003700805517	1.96223738582333	2.14512338317599	0.182885997352667	0.0	2.14512338317599	1.96223738582333	2.14512338317599	0.0	-7.709266908834385	-2.8723924278380655	5.247243756904163	2.4983732720089833	0.6690394521878866	5.247243756904163	0.5094684110366623	-0.8964918498711623	6.812775058963226	1.4626047969826872	0.9122465320834194	1	missed	0.0
96.7125072000199	7.2274771000084	nogo_reward	0.2995472000038717	96.77389119999134	99.54583999997703	102.08255219997955	2.7719487999856938	97.78992929999367	101.06721959999416	103.08459739998219	1.7559106999833602	1.0153325999853848	0.9167709000175535	n/a	1.0	n/a	1	0	15	4	nogo_reward	1	0	1	0	1	0	1	n/a	n/a	0	0.2995472000038717	1.0	85.51184680001461	182.28573800000595	183.30177610000828	185.05768679999164	186.57906640000877	187.59439899999416	n/a	n/a	188.5964441999968	189.51321510001435	2019-12-21 09:19:54.941065	-0.407081888751447	0.0	2.14512338317599	1.46589664435524	1.73804149442455	2.14512338317599	0.407081888751447	0.0	2.14512338317599	1.73804149442455	2.14512338317599	0.0	-7.9334628002331655	-2.8723924278380655	5.247243756904163	2.3542329083090534	0.4448435607891066	5.247243756904163	0.5094684110366623	-1.1206877412699423	6.812775058963226	1.4626047969826872	0.9122465320834194	1	missed	0.0
103.98234500002582	7.599113299977034	go_reward	0.6981077999807894	104.04372899999726	106.59825509999064	109.16525449999608	2.5545260999933816	105.05261709998015	108.13988319999771	110.16394759999818	1.5456380000104843	1.025371299998369	1.4788946999761095	n/a	1.0	n/a	1	0	16	3	go_reward	1	1	0	1	1	1	0	n/a	n/a	1	0.6981077999807894	1.0	85.51184680001461	189.55557580001187	190.56446389999476	192.11010190000525	193.65173000001232	194.6771013000107	n/a	n/a	195.6757944000128	197.1546890999889	2019-12-21 09:19:54.941065	9.43287241816235	3.91510478448477	0.0	3.91510478448477	9.43287241816235	0.0	-9.43287241816235	3.91510478448477	0.0	9.43287241816235	0.0	22.052750814555033	1.9064915066806325	1.0427123566467045	3.1021203737281726	4.803441048438583	8.139674484526907	3.1021203737281726	22.562219225591694	6.574143182467859	4.667651675787236	5.377709581467457	-1.2328768510925705	1	missed	0.0
111.61265820002882	6.360833899991121	go_punish	0.6645443999732379	111.67404220000026	113.72190249999403	116.26450119999939	2.047860299993772	112.66905169998063	115.24399179997272	117.27067019999959	1.0528508000134025	1.0205094000266683	0.7642058999917936	n/a	1.0	n/a	1	0	17	1	go_punish	1	0	-1	1	1	1	0	n/a	n/a	0	0.6645443999732379	1.0	85.51184680001461	197.18588900001487	198.18089849999524	199.23374930000864	200.75583859998733	201.776348000014	n/a	n/a	202.7825170000142	203.546722900006	2019-12-21 09:19:54.941065	-2.01225847032534	0.0	-3.23156285074341	-3.23156285074341	-5.24382132106875	-3.23156285074341	2.01225847032534	0.0	-3.23156285074341	-5.24382132106875	-3.23156285074341	0.0	-9.538639381807059	-2.8723924278380655	-0.1294424770152376	-2.343226586789597	-6.537019254704193	-0.1294424770152376	0.5094684110366623	-8.102550556763243	1.436088825043826	1.4626047969826872	-4.464439701835981	1	missed	0.0
118.01255190002848	6.4101676999998745	go_reward	0.3928582000080496	118.07393589999992	119.86757179998676	122.4284933999879	1.793635899986839	119.0869560999854	121.40395929999067	123.4282224999915	0.7806157000013627	1.0245340999972257	1.0558811000082926	n/a	1.0	n/a	1	0	18	3	go_reward	1	1	0	1	1	1	1	n/a	n/a	1	0.3928582000080496	1.0	85.51184680001461	203.58578270001453	204.5988029	205.37941860000137	206.91580610000528	207.9403402000025	n/a	n/a	208.94006930000612	209.9959504000144	2019-12-21 09:19:54.941065	13.9692297565617	5.70278883606949	0.0	5.70278883606949	13.9692297565617	0.0	-13.9692297565617	5.70278883606949	0.0	13.9692297565617	0.0	20.26506676297031	6.442848845079983	2.8303964082314246	3.1021203737281726	6.591125100023303	12.676031822926257	3.1021203737281726	20.77453517400697	11.110500520867209	4.667651675787236	7.165393633052178	-1.2328768510925705	1	missed	0.0
124.4621624000138	5.978298500005593	nogo_punish	1.0	124.52354639998524	125.92526839999482	128.45524999999907	1.4017220000095847	125.53467619998264	127.44061999997939	129.46426819998308	0.3905922000121791	1.0146300000196788	1.0375767000077474	n/a	1.0	n/a	1	0	19	2	nogo_punish	0	0	-1	0	0	1	0	n/a	n/a	-1	1.0	1.0	85.51184680001461	210.03539319999985	211.04652299999725	211.43711520000943	212.952466799994	213.96709680001368	n/a	n/a	214.9761149999977	216.01369170000544	2019-12-21 09:19:54.941065	2.70789120536906	0.0	-4.80498985625781	-4.80498985625781	-7.51288106162687	-4.80498985625781	-2.70789120536906	-4.80498985625781	0.0	-4.80498985625781	-7.51288106162687	-32.12899025041549	-4.818489706112658	-2.8723924278380655	-1.7028694825296378	-3.916653592303997	-8.806078995262313	-1.7028694825296378	-31.61952183937883	-7.663719091952302	-2.845229385839634	-3.342385059275123	-1.2328768510925705	1	missed	0.0
130.47299430001294	6.551553700002842	go_punish	1.0	130.53437829998438	132.09910389999274	134.62520539999244	1.5647256000083587	131.53678919997762	133.6042420999729	135.62381809999346	0.5623147000151221	1.020963300019531	1.462113899993767	n/a	1.0	n/a	1	0	20	1	go_punish	1	0	-1	1	0	0	0	n/a	n/a	-1	1.0	1.0	85.51184680001461	216.046225099999	217.04863599999223	217.61095070000735	219.11608889998752	220.13705220000705	n/a	n/a	221.13566490000807	222.59777880000183	2019-12-21 09:19:54.941065	1.54710067979162	0.0	-3.23156285074341	-2.91932018874771	-4.77866353053503	-3.23156285074341	-1.54710067979162	-3.23156285074341	0.0	-3.23156285074341	-4.77866353053503	-33.702417255929895	-5.979280231690098	-2.8723924278380655	-0.1294424770152376	-2.0309839247938966	-6.071861464170473	-0.1294424770152376	-33.19294884489323	-6.090292086437902	-0.11101185474779385	-1.768958053760723	-1.2328768510925705	1	missed	0.0
137.05704520002476	6.475366799975717	nogo_reward	0.759440399997402	137.1184291999962	138.5710288999835	141.11595799998028	1.452599699987303	138.1106864999747	140.10171679998166	142.12478799998644	0.46034240000881255	1.0142411999986223	1.4690079999854788	n/a	1.0	n/a	1	0	21	4	nogo_reward	0	1	0	0	1	0	0	n/a	n/a	1	0.759440399997402	1.0	85.51184680001461	222.6302760000108	223.6225332999893	224.0828756999981	225.61356359999627	226.6278047999949	n/a	n/a	227.63663480000105	229.10564279998653	2019-12-21 09:19:54.941065	-0.609020127126456	0.0	2.14512338317599	1.33587841139019	1.53610325604954	2.14512338317599	0.609020127126456	0.0	2.14512338317599	1.53610325604954	2.14512338317599	25.9678555990398	-8.135401038608174	-2.8723924278380655	5.247243756904163	2.2242146753440033	0.24290532241409668	5.247243756904163	26.47732401007646	-1.3226259796449522	6.812775058963226	1.4626047969826872	0.9122465320834194	1	missed	0.0
143.5760335000232	7.449035600002418	go_reward	0.3035175999975763	143.63741749999463	146.2619109999796	148.80341779999435	2.6244934999849647	144.644266599993	147.79280249998556	149.80679669999515	1.6176443999866024	1.0106153000087943	1.2796564000018975	n/a	1.0	n/a	1	0	22	3	go_reward	0	0	1	1	1	1	0	n/a	n/a	0	0.3035175999975763	1.0	85.51184680001461	229.14926430000924	230.1561134000076	231.7737577999942	233.30464930000016	234.31526460000896	n/a	n/a	235.31864350000976	236.59829990001165	2019-12-21 09:19:54.941065	18.0915575981752	7.32862987367833	0.0	7.32862987367833	18.0915575981752	0.0	-18.0915575981752	7.32862987367833	0.0	18.0915575981752	0.0	-7.32862987367833	10.565176686693482	4.456237445840264	3.1021203737281726	8.216966137632143	16.798359664539756	3.1021203737281726	-6.8191614626416674	15.232828362480708	4.667651675787236	8.791234670661018	-1.2328768510925705	1	missed	0.0
151.06276890001027	6.505432700010715	go_reward	0.5176700000010896	151.1241528999817	152.78471069998338	155.33677049999824	1.6605578000016692	152.1276192999794	154.3203502999968	156.34562949999236	0.657091400003992	1.0164202000014484	1.2839561000000685	n/a	1.0	n/a	1	0	23	3	go_reward	1	1	0	1	1	1	0	n/a	n/a	1	0.5176700000010896	1.0	85.51184680001461	236.63599969999632	237.639466099994	238.296557499998	239.8321971000114	240.84861730001285	n/a	n/a	241.85747630000697	243.14143240000703	2019-12-21 09:19:54.941065	16.3896671992635	6.66352526559246	0.0	6.66352526559246	16.3896671992635	0.0	-16.3896671992635	6.66352526559246	0.0	16.3896671992635	0.0	19.30433033344734	8.863286287781781	3.7911328377543945	3.1021203737281726	7.551861529546273	15.096469265628055	3.1021203737281726	19.813798744484	13.530937963569007	4.667651675787236	8.126130062575147	-1.2328768510925705	1	missed	0.0
157.60087110000316	7.157415200024843	go_punish	1.0	157.6622550999746	160.07642449997363	162.5986381999974	2.4141693999990252	158.65525809998508	161.58212069998262	163.6060662999807	1.4211663999885502	1.0165175000147713	1.2136040000187336	n/a	1.0	n/a	1	0	24	1	go_punish	1	0	-1	1	0	0	0	n/a	n/a	-1	1.0	1.0	85.51184680001461	243.1741018999892	244.16710489999969	245.58827129998824	247.09396749999723	248.110485000012	n/a	n/a	249.11791309999532	250.33151710001405	2019-12-21 09:19:54.941065	2.94679372733917	0.0	-6.15088303949111	-5.8714553184412	-9.09767676683028	-6.15088303949111	-2.94679372733917	-6.15088303949111	0.0	-6.15088303949111	-9.09767676683028	-30.783097067182194	-4.579587184142548	-2.8723924278380655	-3.0487626657629376	-4.9831190544873865	-10.390874700465723	-3.0487626657629376	-30.273628656145533	-9.009612275185603	-4.430025091043043	-4.688278242508423	-1.2328768510925705	1	missed	0.0
164.8025763000187	6.729836299986346	go_punish	1.0	164.86396029999014	167.20349449999048	169.7324265999778	2.339534200000344	165.8755378999922	168.70918029997847	170.7326131999726	1.3279565999982879	1.0232462999993288	0.8611834000038812	n/a	1.0	n/a	1	0	25	1	go_punish	1	0	-1	1	0	0	0	n/a	n/a	-1	1.0	1.0	85.51184680001461	250.37580710000475	251.3873847000068	252.7153413000051	254.22102709999308	255.2442733999924	n/a	n/a	256.2444599999872	257.1056433999911	2019-12-21 09:19:54.941065	4.20471654508437	0.0	-8.7907755071889	-8.54045502143827	-12.9954920522733	-8.7907755071889	-4.20471654508437	-8.7907755071889	0.0	-8.7907755071889	-12.9954920522733	-28.143204599484402	-3.321664366397348	-2.8723924278380655	-5.688655133460728	-7.652118757484456	-14.288689985908745	-5.688655133460728	-27.63373618844774	-11.649504742883392	-8.327840376486066	-7.328170710206214	-1.2328768510925705	1	missed	0.0
171.5671141000057	6.406884199997876	nogo_punish	1.0	171.62849809997715	173.3271351000003	175.86543389997678	1.6986370000231545	172.6360418999975	174.84463469998445	176.87031439997372	0.691093200002797	1.0207991999923252	1.1650679000013042	n/a	1.0	n/a	1	0	26	2	nogo_punish	1	-1	0	0	0	1	0	n/a	n/a	0	1.0	1.0	85.51184680001461	257.14034489999176	258.1478887000121	258.8389819000149	260.35648149999906	261.3772806999914	n/a	n/a	262.38216119998833	263.54722909998964	2019-12-21 09:19:54.941065	3.99310916398936	0.0	-7.58473169042681	-7.58473169042681	-11.5778408544162	-7.58473169042681	-3.99310916398936	-7.58473169042681	0.0	-7.58473169042681	-11.5778408544162	7.58473169042681	-3.5332717474923583	-2.8723924278380655	-4.482611316698637	-6.696395426472996	-12.871038788051644	-4.482611316698637	8.094200101463471	-10.443460926121302	-6.910189178628964	-6.122126893444122	-1.2328768510925705	1	missed	0.0
178.0068299000268	7.085645199986175	nogo_reward	0.3631599999789614	178.06821389999823	180.6452649999992	183.17731869997806	2.577051100000972	179.0764059999783	182.1675265999802	184.19163529999787	1.5688590000208933	1.009792099997867	0.962223799986532	n/a	1.0	n/a	1	0	27	4	nogo_reward	1	0	1	0	1	0	0	n/a	n/a	0	0.3631599999789614	1.0	85.51184680001461	263.58006070001284	264.5882527999929	266.1571118000138	267.6793733999948	268.68916549999267	n/a	n/a	269.7034821000125	270.665705899999	2019-12-21 09:19:54.941065	4.66042727644628	2.14512338317599	2.14512338317599	3.36361441169578	6.80555065962228	2.14512338317599	-4.66042727644628	2.14512338317599	2.14512338317599	6.80555065962228	2.14512338317599	-2.14512338317599	-2.8659536350354378	-0.7272690446620755	5.247243756904163	4.251950675649593	5.512352725986837	5.247243756904163	-1.6356549721393276	3.9468214239277875	6.812775058963226	3.607728180158677	0.9122465320834194	1	missed	0.0
185.13515929999994	6.3177272000175435	go_reward	0.7078894999867771	185.19654329997138	186.6326446999738	189.16189339998527	1.4361014000024284	186.19378899998264	188.14798099998734	190.17139059997862	0.4388556999911657	1.0139123999979347	1.3428799000103027	n/a	1.0	n/a	1	0	28	3	go_reward	1	1	0	1	1	1	0	n/a	n/a	1	0.7078894999867771	1.0	85.51184680001461	270.708390099986	271.70563579999725	272.1444914999884	273.65982780000195	274.6737401999999	n/a	n/a	275.68323739999323	277.02611730000353	2019-12-21 09:19:54.941065	20.3095207957804	8.20952946541497	0.0	8.20952946541497	20.3095207957804	0.0	-20.3095207957804	8.20952946541497	0.0	20.3095207957804	0.0	17.75832613362483	12.783139884298683	5.337137037576905	3.1021203737281726	9.097865729368785	19.016322862144957	3.1021203737281726	18.26779454466149	17.450791560085907	4.667651675787236	9.672134262397657	-1.2328768510925705	1	missed	0.0
191.48715280002216	5.96990709999227	nogo_reward	0.4917259000067133	191.5485367999936	193.06461399997352	195.60948479999206	1.516077199979918	192.56520439998712	194.5858388999768	196.6184311999823	0.499409599986393	1.0236459000152536	0.9000127000035718	n/a	1.0	n/a	1	0	29	4	nogo_reward	0	1	0	0	1	0	1	n/a	n/a	1	0.4917259000067133	1.0	85.51184680001461	277.0603836000082	278.07705120000173	278.5764607999881	280.0976856999914	281.12133160000667	n/a	n/a	282.1302779999969	283.0302907000005	2019-12-21 09:19:54.941065	3.99006738055988	1.94762844483832	2.14512338317599	3.06003946982322	6.13519076373587	2.14512338317599	-3.99006738055988	1.94762844483832	2.14512338317599	6.13519076373587	2.14512338317599	24.020227154201482	-3.5363135309218383	-0.9247639829997454	5.247243756904163	3.9483757337770333	4.841992830100427	5.247243756904163	24.529695565238143	3.2764615280413776	6.812775058963226	3.4102332418210075	0.9122465320834194	1	missed	0.0
197.49563710001524	6.538048299989953	go_reward	0.3291465000074822	197.55702109998668	199.12235909997253	201.68310639998526	1.565337999985843	198.56052159998217	200.6592907999875	202.68847079999978	0.5618374999903608	1.0238155999977607	1.40659859997686	n/a	1.0	n/a	1	0	30	3	go_reward	1	1	0	1	1	1	1	n/a	n/a	1	0.3291465000074822	1.0	85.51184680001461	283.0688679000013	284.0723683999968	284.63420589998714	286.1711376000021	287.1949531999999	n/a	n/a	288.2003176000144	289.60691619999125	2019-12-21 09:19:54.941065	23.8752092668045	9.61697491679981	0.0	9.61697491679981	23.8752092668045	0.0	-23.8752092668045	9.61697491679981	0.0	23.8752092668045	0.0	16.35088068223999	16.34882835532278	6.744582488961745	3.1021203737281726	10.505311180753624	22.582011333169056	3.1021203737281726	16.86034909327665	21.016480031110007	4.667651675787236	11.079579713782497	-1.2328768510925705	1	missed	0.0
204.07234150002478	6.654971799987834	go_punish	1.0	204.13372549999622	206.3587185999786	208.88836459998856	2.2249930999823846	205.1402433999756	207.87393719999818	209.8977123999794	1.218475200003013	1.0144273999903817	0.8909849000046393	n/a	1.0	n/a	1	0	31	1	go_punish	1	0	-1	1	0	0	0	n/a	n/a	-1	1.0	1.0	85.51184680001461	289.6455723000108	290.6520901999902	291.8705653999932	293.3857840000128	294.4002114000032	n/a	n/a	295.409559199994	296.30054409999866	2019-12-21 09:19:54.941065	5.3364159458268	0.0	-11.1803474891361	-10.9558728957489	-16.5167634349629	-11.1803474891361	-5.3364159458268	-11.1803474891361	0.0	-11.1803474891361	-16.5167634349629	-25.753632617537203	-2.1899649656549185	-2.8723924278380655	-8.078227115407927	-10.067536631795086	-17.809961368598344	-8.078227115407927	-25.244164206500542	-14.039076724830592	-11.849111759175663	-9.717742692153413	-1.2328768510925705	1	missed	0.0
210.76010530002532	6.008589199977052	go_punish	1.0	210.82148929999676	212.38557319997926	214.90516089997254	1.5640838999825064	211.82388269997318	213.89131539998925	215.91460779999034	0.5616905000060797	1.0138454999832902	0.915470699983473	n/a	1.0	n/a	1	0	32	1	go_punish	1	0	-1	1	0	0	0	n/a	n/a	-1	1.0	1.0	85.51184680001461	296.33333610001137	297.3357294999878	297.8974199999939	299.40316220000386	300.41700769998715	n/a	n/a	301.42645460000494	302.3419252999884	2019-12-21 09:19:54.941065	6.35561371388275	0.0	-13.3454448776961	-13.1439443468723	-19.7010585915788	-13.3454448776961	-6.35561371388275	-13.3454448776961	0.0	-13.3454448776961	-19.7010585915788	-23.588535228977204	-1.170767197598968	-2.8723924278380655	-10.243324503967926	-12.255608082918485	-20.994256525214244	-10.243324503967926	-23.079066817940543	-16.204174113390593	-15.033406915791563	-11.882840080713413	-1.2328768510925705	1	missed	0.0
216.80220080001163	6.38121749999118	nogo_reward	0.7585273000004236	216.86358479998307	218.70991479998338	221.2452212999924	1.8463300000003073	217.86003209999762	220.24059619999025	222.24665739998454	0.8498826999857556	1.0046251000021584	0.9981448999897111	n/a	1.0	n/a	1	0	33	4	nogo_reward	1	0	1	0	1	0	0	n/a	n/a	0	0.7585273000004236	1.0	85.51184680001461	302.3754315999977	303.37187890001223	304.221761599998	305.75244300000486	306.757068100007	n/a	n/a	307.75850419999915	308.75664909998886	2019-12-21 09:19:54.941065	8.83839387836639	3.91510478448477	2.14512338317599	4.9315675778172	10.9835172615424	2.14512338317599	-8.83839387836639	3.91510478448477	2.14512338317599	10.9835172615424	2.14512338317599	-3.91510478448477	1.3120129668846712	1.0427123566467045	5.247243756904163	5.819903841771013	9.690319327906955	5.247243756904163	-3.4056363734481074	8.124788025847907	6.812775058963226	5.377709581467457	0.9122465320834194	1	missed	0.0
223.2259501000226	5.8850071000051685	go_reward	0.6865612000110559	223.28733409999404	224.63984449999407	227.19485419997363	1.3525104000000283	224.29641389998142	226.17121089997818	228.20423089998076	0.3434306000126526	1.023643299995456	0.9681103000184521	n/a	1.0	n/a	1	0	34	3	go_reward	1	1	0	1	1	1	0	n/a	n/a	1	0.6865612000110559	1.0	85.51184680001461	308.79918090000865	309.808260699996	310.1516913000087	311.6830576999928	312.70670099998824	n/a	n/a	313.71607769999537	314.6841880000138	2019-12-21 09:19:54.941065	27.1217815081532	10.8994621069207	0.0	10.8994621069207	27.1217815081532	0.0	-27.1217815081532	10.8994621069207	0.0	27.1217815081532	0.0	15.068393492119101	19.59540059667148	8.027069679082635	3.1021203737281726	11.787798370874514	25.828583574517758	3.1021203737281726	15.577861903155764	24.263052272458708	4.667651675787236	12.362066903903386	-1.2328768510925705	1	missed	0.0
229.1455755000061	6.459588199999416	nogo_punish	1.0	229.20695949997753	230.70177189999959	233.2102414999972	1.494812400022056	230.21163549998892	232.20674080000026	234.22887089999858	0.4901364000106696	1.0035006999969482	1.4376767999783624	n/a	1.0	n/a	1	0	35	2	nogo_punish	1	-1	0	0	0	1	0	n/a	n/a	0	1.0	1.0	85.51184680001461	314.71880629999214	315.7234823000035	316.2136187000142	317.71858760001487	318.7220883000118	n/a	n/a	319.7407177000132	321.17839449999155	2019-12-21 09:19:54.941065	3.64583529151124	0.0	-6.86695641587232	-6.86695641587232	-10.5127917073836	-6.86695641587232	-3.64583529151124	-6.86695641587232	0.0	-6.86695641587232	-10.5127917073836	6.86695641587232	-3.880545619970478	-2.8723924278380655	-3.764836042144147	-5.9786201519185065	-11.805989641019044	-3.764836042144147	7.376424826908982	-9.725685651566812	-5.845140031596364	-5.404351618889633	-1.2328768510925705	1	missed	0.0
235.6381332000019	6.696647600008873	nogo_reward	0.3007309999957215	235.69951719997334	237.35780959998374	239.89866379997693	1.6582924000103958	236.70189199998276	238.8788283999893	240.90302439997322	0.6559176000009757	1.0198353999876417	1.493140400008997	n/a	1.0	n/a	1	0	36	4	nogo_reward	1	0	1	0	1	0	0	n/a	n/a	0	0.3007309999957215	1.0	85.51184680001461	321.21136399998795	322.2137387999974	322.86965639999835	324.3906752000039	325.41051059999154	n/a	n/a	326.41487119998783	327.9080115999968	2019-12-21 09:19:54.941065	7.78907410045755	3.55766545289349	2.14512338317599	4.487266582996	9.93419748363355	2.14512338317599	-7.78907410045755	3.55766545289349	2.14512338317599	9.93419748363355	2.14512338317599	-3.55766545289349	0.26269318897583194	0.6852730250554244	5.247243756904163	5.375602846949813	8.640999549998106	5.247243756904163	-3.0481970418568274	7.0754682479390585	6.812775058963226	5.020270249876177	0.9122465320834194	1	missed	0.0
242.37043730000732	6.660912099992856	go_punish	1.0	242.43182129997876	244.4202064999845	246.9590759999992	1.9883852000057232	243.43649109997205	245.93553699998301	247.95936919999076	0.9837154000124428	1.0235390000161715	1.1333641999808606	n/a	1.0	n/a	1	0	37	1	go_punish	1	0	-1	1	0	0	0	n/a	n/a	-1	1.0	1.0	85.51184680001461	327.9436680999934	328.94833789998665	329.9320532999991	331.4473837999976	332.4709228000138	n/a	n/a	333.47121600000537	334.60458019998623	2019-12-21 09:19:54.941065	7.27443393945102	0.0	-15.3090417354323	-15.1279837162607	-22.5834756748833	-15.3090417354323	-7.27443393945102	-15.3090417354323	0.0	-15.3090417354323	-22.5834756748833	-21.624938371241	-0.25194697203069794	-2.8723924278380655	-12.206921361704127	-14.239647452306885	-23.876673608518743	-12.206921361704127	-21.11546996020434	-18.167770971126792	-17.915823999096062	-13.846436938449614	-1.2328768510925705	1	missed	0.0
249.0663809000107	6.756879900000058	nogo_reward	0.3029674999997951	249.12776489998214	251.5705207999854	254.11326999997254	2.442755900003249	250.1432555999782	253.1016038999951	255.12527719998621	1.4272652000071844	1.0116660999774467	0.7593675999959828	n/a	1.0	n/a	1	0	38	4	nogo_reward	1	0	1	0	1	0	1	n/a	n/a	0	0.3029674999997951	1.0	85.51184680001461	334.63961169999675	335.6551023999928	337.0823676	338.6134507000097	339.62511679998715	n/a	n/a	340.6371240000008	341.3964915999968	2019-12-21 09:19:54.941065	6.84454669146039	3.23587804566401	2.14512338317599	4.08677398585687	8.98967007463639	2.14512338317599	-6.84454669146039	3.23587804566401	2.14512338317599	8.98967007463639	2.14512338317599	-3.23587804566401	-0.6818342200213285	0.36348561782594446	5.247243756904163	4.975110249810683	7.696472141000946	5.247243756904163	-2.7264096346273474	6.130940838941898	6.812775058963226	4.698482842646698	0.9122465320834194	1	missed	0.0
255.85680900001898	6.288922899984755	nogo_reward	0.9266741999890656	255.91819299999042	257.68528439998045	260.241198099975	1.7670913999900222	256.9198785999906	259.2211941999849	261.26049979997333	0.7654057999898214	1.0200038999901153	0.9466161000018474	n/a	1.0	n/a	1	0	39	4	nogo_reward	1	0	1	0	1	0	0	n/a	n/a	0	0.9266741999890656	1.0	85.51184680001461	341.43003980000503	342.43172540000523	343.19713119999506	344.7330409999995	345.7530448999896	n/a	n/a	346.77234659998794	347.7189626999898	2019-12-21 09:19:54.941065	5.99353814166841	2.94591541944536	2.14512338317599	3.72543424448549	8.1386615248444	2.14512338317599	-5.99353814166841	2.94591541944536	2.14512338317599	8.1386615248444	2.14512338317599	-2.94591541944536	-1.5328427698133078	0.07352299160729459	5.247243756904163	4.613770508439304	6.845463591208956	5.247243756904163	-2.436447008408698	5.279932289149908	6.812775058963226	4.408520216428047	0.9122465320834194	1	missed	0.0
262.181032100023	6.84797909998457	go_punish	1.0	262.24241609999444	264.09759219997795	266.6368584999873	1.8551760999835096	263.25773649997427	265.6135208999913	267.6364726999891	0.8398557000036817	1.0233375999960117	1.4539224999899147	n/a	1.0	n/a	1	0	40	1	go_punish	1	0	-1	1	0	0	0	n/a	n/a	-1	1.0	1.0	85.51184680001461	347.75426290000905	348.7695832999889	349.60943899999256	351.1253677000059	352.1487053000019	n/a	n/a	353.1483195000037	354.6022419999936	2019-12-21 09:19:54.941065	8.10360051218024	0.0	-17.0915805739969	-16.928731107947	-25.1951810861772	-17.0915805739969	-8.10360051218024	-17.0915805739969	0.0	-17.0915805739969	-25.1951810861772	-19.842399532676403	0.5772196006985215	-2.8723924278380655	-13.989460200268727	-16.040394843993187	-26.488379019812644	-13.989460200268727	-19.332931121639742	-19.950309809691394	-20.527529410389963	-15.628975777014213	-1.2328768510925705	1	missed	0.0
269.06921410001814	5.868137499986915	go_reward	0.4048716000106651	269.1305980999896	270.48070639997604	273.0362997999764	1.3501082999864593	270.1315372999816	272.01252299998305	274.03641899998183	0.34916909999446943	1.0237767999933567	0.962316599994665	n/a	1.0	n/a	1	0	41	3	go_reward	1	1	0	1	1	1	0	n/a	n/a	1	0.4048716000106651	1.0	85.51184680001461	354.6424449000042	355.6433840999962	355.99255319999065	357.52436979999766	358.548146599991	n/a	n/a	359.54826579999644	360.5105823999911	2019-12-21 09:19:54.941065	30.0805457700534	12.0691518323756	0.0	12.0691518323756	30.0805457700534	0.0	-30.0805457700534	12.0691518323756	0.0	30.0805457700534	0.0	13.898703766664202	22.55416485857168	9.196759404537534	3.1021203737281726	12.957488096329413	28.787347836417958	3.1021203737281726	14.408172177700864	27.221816534358908	4.667651675787236	13.531756629358286	-1.2328768510925705	1	missed	0.0
274.97157300001714	5.764805399987324	go_punish	1.0	275.0329569999886	276.33012649999	278.86035279999487	1.2971695000014165	276.04936479998287	277.8458664999926	279.8696002999787	0.2807617000071332	1.014486300002261	0.9281620999972233	n/a	1.0	n/a	1	0	42	1	go_punish	1	0	-1	1	0	0	1	n/a	n/a	-1	1.0	1.0	85.51184680001461	360.5448038000032	361.5612115999975	361.8419733000046	363.3577133000072	364.3721996000095	n/a	n/a	365.3814470999933	366.3096091999905	2019-12-21 09:19:54.941065	8.85260887816306	0.0	-18.7112699465116	-18.5646556170081	-27.5638788246746	-18.7112699465116	-8.85260887816306	-18.7112699465116	0.0	-18.7112699465116	-27.5638788246746	-18.222710160161704	1.3262279666813424	-2.8723924278380655	-15.609149572783426	-17.676319353054286	-28.857076758310043	-15.609149572783426	-17.713241749125043	-21.569999182206093	-22.896227148887363	-17.24866514952891	-1.2328768510925705	1	missed	0.0
280.77495610000915	6.926412700006097	nogo_punish	1.0	280.8363400999806	282.88000109998393	285.4095845999837	2.0436610000033397	281.8389866999933	284.3859179999854	286.4086960999994	1.0410143999906154	1.0236665999983074	1.354056699987268	n/a	1.0	n/a	1	0	43	2	nogo_punish	0	0	-1	0	0	1	0	n/a	n/a	-1	1.0	1.0	85.51184680001461	366.3481868999952	367.3508335000079	368.39184789999854	369.8977648	370.9214313999983	n/a	n/a	371.920542900014	373.2745996000013	2019-12-21 09:19:54.941065	3.33608719835767	0.0	-6.22317869794866	-6.22317869794866	-9.55926589630633	-6.22317869794866	-3.33608719835767	-6.22317869794866	0.0	-6.22317869794866	-9.55926589630633	-30.71080140872464	-4.190293713124048	-2.8723924278380655	-3.121058324220487	-5.334842433994846	-10.852463829941774	-3.121058324220487	-30.20133299768798	-9.081907933643151	-4.891614220519094	-4.760573900965973	-1.2328768510925705	1	missed	0.0
287.7348756000284	6.402941099979159	nogo_reward	0.8287094999977853	287.7962595999998	289.6907997999806	292.24324529999285	1.8945401999807814	288.79187039998936	291.2303881999979	293.2554653999978	0.898929399991232	1.0128570999949602	0.9437352999811992	n/a	1.0	n/a	1	0	44	4	nogo_reward	1	0	1	0	1	0	0	n/a	n/a	0	0.8287094999977853	1.0	85.51184680001461	373.3081064000144	374.303717200004	375.2026465999952	376.7422350000125	377.75509210000746	n/a	n/a	378.7673122000124	379.7110474999936	2019-12-21 09:19:54.941065	5.22606655952084	2.68438767287503	2.14512338317599	3.39911898524378	7.37118994269684	2.14512338317599	-5.22606655952084	2.68438767287503	2.14512338317599	7.37118994269684	2.14512338317599	-2.68438767287503	-2.3003143519608784	-0.18800475496303548	5.247243756904163	4.287455249197594	6.077992009061397	5.247243756904163	-2.174919261838368	4.512460707002347	6.812775058963226	4.146992469857717	0.9122465320834194	1	missed	0.0
294.17086460001883	7.036746500001698	nogo_reward	0.5500773999956436	294.23224859999027	296.7013902999752	299.23365149999154	2.4691416999849025	295.22822049999377	298.2232296000002	300.2380229999835	1.473169799981406	1.0104218999913428	1.030972100008455	n/a	1.0	n/a	1	0	45	4	nogo_reward	1	0	1	0	1	0	0	n/a	n/a	0	0.5500773999956436	1.0	85.51184680001461	379.7440954000049	380.7400673000084	382.2132370999898	383.7350764000148	384.74549830000615	n/a	n/a	385.7498697999981	386.7808419000066	2019-12-21 09:19:54.941065	4.53328545369772	2.44828943637509	2.14512338317599	3.10416395401107	6.67840883687371	2.14512338317599	-4.53328545369772	2.44828943637509	2.14512338317599	6.67840883687371	2.14512338317599	-2.44828943637509	-2.9930954577839985	-0.4241029914629757	5.247243756904163	3.992500217964883	5.385210903238267	5.247243756904163	-1.9388210253384275	3.819679601179218	6.812775058963226	3.910894233357777	0.9122465320834194	1	missed	0.0
301.28034040000057	6.444355000014184	go_reward	0.4146623999986332	301.341724399972	302.8096808999835	305.3767993999936	1.4679565000114962	302.3393753999844	304.3545101999771	306.38613979998627	0.47030549999908544	1.0222892000165302	1.3999395999999251	n/a	1.0	n/a	1	0	46	3	go_reward	1	1	0	1	1	1	0	n/a	n/a	1	0.4146623999986332	1.0	85.51184680001461	386.8535711999866	387.85122219999903	388.3215276999981	389.8663569999917	390.8886462000082	n/a	n/a	391.8979866000009	393.2979262000008	2019-12-21 09:19:54.941065	32.7794952396847	13.1369276687635	0.0	13.1369276687635	32.7794952396847	0.0	-32.7794952396847	13.1369276687635	0.0	32.7794952396847	0.0	12.830927930276301	25.253114328202983	10.264535240925435	3.1021203737281726	14.025263932717314	31.486297306049256	3.1021203737281726	13.340396341312964	29.920766003990206	4.667651675787236	14.599532465746186	-1.2328768510925705	1	missed	0.0
307.7630282000173	6.084309600002598	go_reward	0.3971959000045899	307.8244121999887	309.1872789999761	311.7220808999846	1.362866799987387	308.82744539997657	310.6982715999766	312.7311574999767	0.359833599999547	1.023809300007997	1.1775643000146374	n/a	1.0	n/a	1	0	47	3	go_reward	1	1	0	1	1	1	0	n/a	n/a	1	0.3971959000045899	1.0	85.51184680001461	393.33625900000334	394.3392921999912	394.6991257999907	396.2101183999912	397.2339276999992	n/a	n/a	398.2430042999913	399.42056860000594	2019-12-21 09:19:54.941065	35.24368246742	14.1125390665837	0.0	14.1125390665837	35.24368246742	0.0	-35.24368246742	14.1125390665837	0.0	35.24368246742	0.0	11.8553165324561	27.717301555938285	11.240146638745635	3.1021203737281726	15.000875330537514	33.95048453378456	3.1021203737281726	12.364784943492763	32.38495323172551	4.667651675787236	15.575143863566387	-1.2328768510925705	1	missed	0.0
313.88987160002586	7.667046199989215	nogo_reward	0.305339799990179	313.9512555999973	316.73015809999197	319.2683233999997	2.778902499994672	314.96959459999925	318.2628120999725	320.2685215999955	1.7605634999927133	1.0055113000271945	1.3497801999910166	n/a	1.0	n/a	1	0	48	4	nogo_reward	0	1	0	0	1	0	0	n/a	n/a	1	0.305339799990179	1.0	85.51184680001461	399.4631024000119	400.48144140001386	402.2420049000066	403.7746588999871	404.7801702000143	n/a	n/a	405.7803684000101	407.1301486000011	2019-12-21 09:19:54.941065	3.90734732329029	2.23495382185222	2.14512338317599	2.83731387705226	6.05247070646628	2.14512338317599	-3.90734732329029	2.23495382185222	2.14512338317599	6.05247070646628	2.14512338317599	23.732901777187582	-3.619033588191428	-0.6374386059858455	5.247243756904163	3.7256501410060734	4.759272772830837	5.247243756904163	24.242370188224243	3.1937414707717875	6.812775058963226	3.697558618834907	0.9122465320834194	1	missed	0.0
321.593855300016	6.551552499993704	go_punish	0.3118230999971274	321.65523929998744	323.39372439999715	325.9512918999826	1.7384851000097115	322.66019359999336	324.9303958999808	326.96319159999257	0.7335308000037912	1.0208960000018124	1.2436001999885775	n/a	1.0	n/a	1	0	49	1	go_punish	1	0	-1	1	1	1	0	n/a	n/a	0	0.3118230999971274	1.0	85.51184680001461	407.16708610000205	408.172040400008	408.90557120001176	410.4422426999954	411.4631386999972	n/a	n/a	412.4750384000072	413.71863859999576	2019-12-21 09:19:54.941065	-9.52987557598515	0.0	-20.1843449895228	-20.0522207282487	-29.7142205655079	-20.1843449895228	9.52987557598515	0.0	-20.1843449895228	-29.7142205655079	-20.1843449895228	0.0	-17.056256487466868	-2.8723924278380655	-17.082224615794626	-19.163884464294885	-31.007418499143345	-17.082224615794626	0.5094684110366623	-32.57294980120239	-15.516693313735562	1.4626047969826872	-21.41722184061537	1	missed	0.0
328.18507240002515	6.652491099986889	go_reward	0.6404044000082649	328.2464563999966	330.2231495999731	332.78454869997216	1.9766931999765234	329.2533440999978	331.759336499992	333.7896204999998	0.9698054999753367	1.0252121999801602	1.1093269999836934	n/a	1.0	n/a	1	0	50	3	go_reward	1	1	0	1	1	1	0	n/a	n/a	1	0.6404044000082649	1.0	85.51184680001461	413.7583032000112	414.7651909000124	415.7349963999877	417.2711833000066	418.2963954999868	n/a	n/a	419.3014673000144	420.4107942999981	2019-12-21 09:19:54.941065	37.4955490878551	15.00472749764	0.0	15.00472749764	37.4955490878551	0.0	-37.4955490878551	15.00472749764	0.0	37.4955490878551	0.0	10.963128101399802	29.969168176373387	12.132335069801934	3.1021203737281726	15.893063761593814	36.20235115421966	3.1021203737281726	11.472596512436464	34.63681985216061	4.667651675787236	16.467332294622686	-1.2328768510925705	1	missed	0.0
334.87224150000833	6.950795000011624	go_punish	0.274082299991278	334.93362549997977	337.11149429998477	339.65326129997266	2.177868800005001	335.9497246999818	338.6317413999932	340.6555604999885	1.1617696000029696	1.0215198999794666	1.2288600000028964	n/a	1.0	n/a	1	0	51	1	go_punish	1	0	-1	1	1	1	1	n/a	n/a	0	0.274082299991278	1.0	85.51184680001461	420.4454722999944	421.4615714999964	422.6233410999994	424.1435882000078	425.16510809998726	n/a	n/a	426.1674073000031	427.396267300006	2019-12-21 09:19:54.941065	-6.74929926630223	0.0	-20.1843449895228	-18.1745540034587	-26.933644255825	-20.1843449895228	6.74929926630223	0.0	-20.1843449895228	-26.933644255825	-20.1843449895228	0.0	-14.275680177783947	-2.8723924278380655	-17.082224615794626	-17.286217739504885	-28.226842189460445	-17.082224615794626	0.5094684110366623	-29.792373491519495	-15.516693313735562	1.4626047969826872	-21.41722184061537	1	missed	0.0
341.8612360000261	6.288562199973967	nogo_punish	0.8986327000020538	341.92261999999755	343.2670029999863	345.81772439999617	1.3443829999887384	342.93904569998267	344.803359499987	346.82720929998317	0.327957300003618	1.0143649000091841	1.3839728999883505	n/a	1.0	n/a	1	0	52	2	nogo_punish	1	-1	0	0	1	0	0	n/a	n/a	-1	0.8986327000020538	1.0	85.51184680001461	427.43446680001216	428.4508924999973	428.7788498000009	430.3152063000016	431.3295712000108	n/a	n/a	432.3390560999978	433.7230289999861	2019-12-21 09:19:54.941065	-4.56247690297009	0.0	-8.8767487142664	-8.8767487142664	-13.4392256172365	-8.8767487142664	4.56247690297009	0.0	-8.8767487142664	-13.4392256172365	-8.8767487142664	-36.9339801066733	-12.088857814451808	-2.8723924278380655	-5.774628340538227	-7.988412450312587	-14.732423550871944	-5.774628340538227	-36.42451169563664	-16.297954852930992	-4.209097038479164	1.4626047969826872	-10.10962556535897	1	missed	0.0
348.18484200001694	7.283609400008629	nogo_punish	1.0	348.2462259999884	351.0140156999987	353.55235959999845	2.7677897000103258	349.2500165999809	352.5289398999885	354.5677587999963	1.763999100017827	1.0234197000099812	0.9620766000007279	n/a	1.0	n/a	1	0	53	2	nogo_punish	0	0	-1	0	0	1	0	n/a	n/a	-1	1.0	1.0	85.51184680001461	433.758072800003	434.7618633999955	436.5258625000133	438.0407867000031	439.06420640001306	n/a	n/a	440.0796056000109	441.0416822000116	2019-12-21 09:19:54.941065	11.2967559227589	-3.23156285074341	-8.8767487142664	-11.2766205823029	-20.1735046370253	-8.8767487142664	-11.2967559227589	-8.8767487142664	-3.23156285074341	-8.8767487142664	-20.1735046370253	-28.057231392406905	3.7703750112771814	-6.103955278581475	-5.774628340538227	-10.388284318349086	-21.466702570660743	-5.774628340538227	-27.547762981370244	-11.735477949960892	-15.505852961238062	-7.414143917283713	-4.464439701835981	1	missed	0.0
355.5059434000286	7.067959199979725	nogo_punish	1.0	355.56732740000007	358.3090976999956	360.8267273999809	2.741770299995551	356.5744388999883	359.8150971999858	361.8389508999826	1.7346588000073098	1.0116301999950679	0.7963356999972007	n/a	1.0	n/a	1	0	54	2	nogo_punish	1	-1	0	0	0	1	1	n/a	n/a	0	1.0	1.0	85.51184680001461	441.0791742000147	442.0862857000029	443.8209445000102	445.3269440000004	446.3385741999955	n/a	n/a	447.3507976999972	448.1471333999944	2019-12-21 09:19:54.941065	12.0622718716815	-3.23156285074341	-11.2766205823029	-13.4492192726157	-23.3388924539845	-11.2766205823029	-12.0622718716815	-11.2766205823029	-3.23156285074341	-11.2766205823029	-23.3388924539845	11.2766205823029	4.535890960199781	-6.103955278581475	-8.174500208574727	-12.560883008661886	-24.632090387619943	-8.174500208574727	11.786088993339563	-14.135349817997392	-18.671240778197262	-9.814015785320214	-4.464439701835981	1	missed	0.0
362.6096922000288	6.348374599998351	go_punish	1.0	362.67107620000024	364.2287271999812	366.7551550999924	1.5576509999809787	363.6811471999972	365.73524699997506	367.76771869999357	0.5475799999840092	1.0199081000173464	1.2517321000050288	n/a	1.0	n/a	1	0	55	1	go_punish	0	-1	0	1	0	0	0	n/a	n/a	0	1.0	1.0	85.51184680001461	448.18292300001485	449.1929940000118	449.74057399999583	451.24709379998967	452.267001900007	n/a	n/a	453.2795655000082	454.5312976000132	2019-12-21 09:19:54.941065	4.25706121726934	0.0	-20.1843449895228	-16.4885822582477	-24.4414062067921	-20.1843449895228	-4.25706121726934	-20.1843449895228	0.0	-20.1843449895228	-24.4414062067921	20.1843449895228	-3.2693196942123786	-2.8723924278380655	-17.082224615794626	-15.600245994293886	-25.734604140427543	-17.082224615794626	20.69381340055946	-23.043074225217293	-19.77375453100486	-18.72174019254011	-1.2328768510925705	1	missed	0.0
368.99291720002657	6.759715199994389	nogo_reward	0.3090483999985736	369.054301199998	371.48453299998073	374.0301387999789	2.430231799982721	370.0561106999812	373.0154688999755	375.0394753999717	1.4284222999995109	1.0146699000034118	0.7745410000206903	n/a	1.0	n/a	1	0	56	4	nogo_reward	0	1	0	0	1	0	0	n/a	n/a	1	0.3090483999985736	1.0	85.51184680001461	454.5661480000126	455.5679574999958	456.99637979999534	458.5273156999901	459.5419855999935	n/a	n/a	460.5513221999863	461.325863200007	2019-12-21 09:19:54.941065	8.79279399806136	4.1871355382634	2.14512338317599	4.74079757955732	10.9379173812374	2.14512338317599	-8.79279399806136	4.1871355382634	2.14512338317599	10.9379173812374	2.14512338317599	21.780720060776403	1.2664130865796412	1.3147431104253342	5.247243756904163	5.629133843511133	9.644719447601956	5.247243756904163	22.290188471813064	8.079188145542908	6.812775058963226	5.649740335246086	0.9122465320834194	1	missed	0.0
375.79246770002646	6.286018599988893	go_reward	0.5521449999941979	375.8538516999979	377.2894530999766	379.82303029997274	1.4356013999786796	376.8681250999798	378.80029569999897	380.8259865999862	0.4213279999967767	1.0227345999737736	1.3138837000005879	n/a	1.0	n/a	1	0	57	3	go_reward	1	1	0	1	1	1	0	n/a	n/a	1	0.5521449999941979	1.0	85.51184680001461	461.3656985000125	462.3799718999944	462.8012998999912	464.3121425000136	465.33487709998735	n/a	n/a	466.3378334000008	467.6517171000014	2019-12-21 09:19:54.941065	39.5552164380512	15.8213377595999	0.0	15.8213377595999	39.5552164380512	0.0	-39.5552164380512	15.8213377595999	0.0	39.5552164380512	0.0	10.146517839439902	32.02883552656948	12.948945331761834	3.1021203737281726	16.709674023553713	38.26201850441576	3.1021203737281726	10.655986250476564	36.69648720235671	4.667651675787236	17.283942556582588	-1.2328768510925705	1	missed	0.0
382.11927750002366	6.179863600002079	go_reward	0.3138512000150513	382.1806614999951	384.0216925999848	386.573634499975	1.8410310999897206	383.18596169998636	385.55273819999996	387.58578449999914	0.8357308999984525	1.0208962999750497	0.7747405999980401	n/a	1.0	n/a	1	0	58	3	go_reward	0	0	1	1	1	1	0	n/a	n/a	0	0.3138512000150513	1.0	85.51184680001461	467.6925083000097	468.697808500001	469.5335393999994	471.0645850000146	472.0854812999896	n/a	n/a	473.09763130001375	473.8723719000118	2019-12-21 09:19:54.941065	41.4407419426804	16.5694162727626	0.0	16.5694162727626	41.4407419426804	0.0	-41.4407419426804	16.5694162727626	0.0	41.4407419426804	0.0	-16.5694162727626	33.91436103119868	13.697023844924534	3.1021203737281726	17.457752536716413	40.14754400904496	3.1021203737281726	-16.059947861725938	38.58201270698591	4.667651675787236	18.032021069745287	-1.2328768510925705	1	missed	0.0
388.33739500000956	6.119935499998974	go_reward	0.4846434999781195	388.398778999981	389.76096079999115	392.3079619999917	1.3621818000101484	389.40190559998155	391.2826988999732	393.31571579998126	0.3590552000096068	1.025263100018492	1.202998699998716	n/a	1.0	n/a	1	0	59	3	go_reward	1	1	0	1	1	1	1	n/a	n/a	1	0.4846434999781195	1.0	85.51184680001461	473.9106257999956	474.91375239999616	475.27280760000576	476.7945456999878	477.8198088000063	n/a	n/a	478.8275625999959	480.0305612999946	2019-12-21 09:19:54.941065	37.7168359420034	15.1101745832261	0.0	15.1101745832261	37.7168359420034	0.0	-37.7168359420034	15.1101745832261	0.0	37.7168359420034	0.0	10.857681015813702	30.190455030521683	12.237782155388034	3.1021203737281726	15.998510847179913	36.42363800836796	3.1021203737281726	11.367149426850364	34.85810670630891	4.667651675787236	16.572779380208786	-1.2328768510925705	1	missed	0.0
394.49366990002454	7.7534138999762945	go_reward	0.9809141000150704	394.555053899996	397.2686207999941	399.8137373999926	2.7135668999981135	395.55949399998644	398.7887129999872	400.8127617999853	1.7091268000076525	1.0250244000054067	1.495705999986967	n/a	1.0	n/a	1	0	60	3	go_reward	1	1	0	1	1	1	1	n/a	n/a	1	0.9809141000150704	1.0	85.51184680001461	480.0669007000106	481.07134080000105	482.7804676000087	484.3005598000018	485.3255842000072	n/a	n/a	486.3246085999999	487.8203145999869	2019-12-21 09:19:54.941065	39.807163773555	15.9370547022722	0.0	15.9370547022722	39.807163773555	0.0	-39.807163773555	15.9370547022722	0.0	39.807163773555	0.0	10.030800896767602	32.28078286207328	13.064662274434134	3.1021203737281726	16.825390966226013	38.51396583991956	3.1021203737281726	10.540269307804264	36.94843453786051	4.667651675787236	17.399659499254888	-1.2328768510925705	1	missed	0.0
