onset	duration	trial_type	response_time	cueOnset	targetOnset	fbOnset	cueRT	firstfixOnset	secondfixOnset	waitOnset	firstfixdur	secondfixdur	waitdur	nback_fbOnset	nback_response_time	nback_targetOnset	block	wm	trial	cue	cond	is_common	outcome_go	outcome_nogo	key_correct	key_pressed	is_correct	key_correct_nback	key_pressed_nback	is_correct_nback	outcome	rt	rt_nback	time_scan	time_onset	time_isi1	time_circle	time_isi2	time_feedback	time_same	time_correct	time_iti	time_done	timestamp_scan	DV	Qgo	Qnogo	SV	Wgo	Wnogo	mDV	Qchosen	Qunchosen	Wchosen	Wunchosen	PE	DVC	QgoC	QnogoC	SVC	WgoC	WnogoC	PEC	WchosenC	WunchosenC	QchosenC	QunchosenC	run	outcome_nback	nback_targetResp
0.0	9.542670199996792	nogo_reward	0.2337221000052523	0.009695400018472355	2.9833859000063967	5.539527200017119	2.9736904999879243	1.0252309000065907	4.514599500020495	8.590058200003341	1.958154999999806	1.0249276999966241	0.9623074000119232	7.589759199996706	0.5165065999899525	6.559868600015989	2	1	61	4	nogo_reward	0	1	0	0	1	0	0	0.0	1.0	1	0.2337221000052523	0.5165065999899525	1631.038740299991	1631.0484357000096	1632.0639711999977	1634.0221261999975	1635.5533398000116	1636.5782675000082	1637.598608900007	1638.6284994999878	1639.6287984999944	1640.5911059000064	2019-12-21 09:45:40.473253	1.05286522295496	1.13198156273021	9.58332698694571	7.19628310980931	10.6361922099007	9.58332698694571	-1.05286522295496	1.13198156273021	9.58332698694571	10.6361922099007	9.58332698694571	24.83587403630959	-6.473515688526758	-1.7404108651078556	12.685447360673884	8.084619373763124	9.342994276265257	12.685447360673884	25.34534244734625	7.777462974206209	14.250978662732948	2.5945863597128973	8.35045013585314	4	correct	1.0
9.5890165999881	9.265297000005376	go_reward	0.6925072000012733	9.598712000006572	12.068920899997693	14.614620500011597	2.470208899991121	10.594129100005603	13.590825200022891	17.645771900017508	1.47479179999209	1.0237952999887057	1.2182370999944396	16.64114690001611	0.3634045000071637	15.628015399998048	2	1	62	3	go_reward	1	1	0	1	1	1	0	0.0	1.0	1	0.6925072000012733	0.3634045000071637	1631.038740299991	1640.6374522999977	1641.6328693999967	1643.1076611999888	1644.629565500014	1645.6533608000027	1646.6667556999892	1647.6798872000072	1648.6845122000086	1649.902749300003	2019-12-21 09:45:40.473253	8.29141441507761	4.60502313147432	1.4506148336139	4.06044382895149	9.74202924869151	1.4506148336139	-8.29141441507761	4.60502313147432	1.4506148336139	9.74202924869151	1.4506148336139	21.362832467565482	0.7650335035958911	1.732630703636255	4.552735207342073	4.948780092905303	8.448831315056067	4.552735207342073	21.872300878602143	6.883300012997019	6.118266509401137	6.067627928457007	0.21773798252132948	4	correct	1.0
18.877953599992907	8.916310000000522	nogo_reward	0.2166111000115052	18.88764900001138	20.73291780002205	23.279457700002467	1.8452688000106718	19.899163900001668	22.265011000010418	26.335484400013456	0.8337539000203833	1.0144466999920496	1.4684745999984443	25.3222137000123	0.280959099996835	24.29450839999481	2	1	63	4	nogo_reward	0	1	0	0	1	0	1	1.0	1.0	1	0.2166111000115052	0.280959099996835	1631.038740299991	1649.9263893000025	1650.9379041999928	1651.7716581000132	1653.3037513000015	1654.3181979999936	1655.333248699986	1656.3609540000034	1657.3742247000046	1658.842699300003	2019-12-21 09:45:40.473253	5.65714888475467	3.46257324420624	9.58332698694571	8.82001208131094	15.2404758717004	9.58332698694571	-5.65714888475467	3.46257324420624	9.58332698694571	15.2404758717004	9.58332698694571	22.50528235483356	-1.8692320267270484	0.5901808163681745	12.685447360673884	9.708348345264755	13.947277938064957	12.685447360673884	23.01475076587022	12.381746636005909	14.250978662732948	4.925178041188927	8.35045013585314	4	correct	1.0
27.837572999997064	8.84219490000396	go_reward	0.6228300999791827	27.847268400015537	29.835663800011616	32.3907402000043	1.9883953999960795	28.85158020001859	31.36619749999977	35.446037000016304	0.9840835999930277	1.024542700004531	1.2434263000031933	34.43290810001804	0.3126015000161715	33.402768200001674	2	1	64	3	go_reward	1	1	0	1	1	1	1	1.0	1.0	1	0.6228300999791827	0.3126015000161715	1631.038740299991	1658.8860087000066	1659.8903205000097	1660.8744041000027	1662.4049377999909	1663.4294804999954	1664.4415084999928	1665.4716484000091	1666.4847773000074	1667.7282036000106	2019-12-21 09:45:40.473253	12.9553354698792	6.48393027102402	1.4506148336139	6.04516964055034	14.4059503034931	1.4506148336139	-12.9553354698792	6.48393027102402	1.4506148336139	14.4059503034931	1.4506148336139	19.48392532801578	5.428954558397482	3.6115378431859546	4.552735207342073	6.933505904504154	13.112752369857656	4.552735207342073	19.99339373905244	11.547221067798608	6.118266509401137	7.946535068006707	0.21773798252132948	4	correct	1.0
36.72001299998351	9.340493800002605	go_reward	0.1969443999987561	36.72970840000198	39.54843680001818	42.10048809999739	2.818728400016198	37.73118400000408	41.07969850001996	45.13947039999789	1.8172528000141028	1.0207895999774337	0.9307318000066971	44.126596900023515	0.3242752999940421	43.1071671000102	2	1	65	3	go_reward	0	0	1	1	1	1	0	0.0	1.0	0	0.1969443999987561	0.3242752999940421	1631.038740299991	1667.768448699993	1668.7699242999952	1670.5871771000093	1672.118438800011	1673.1392283999885	1674.1459074000013	1675.1653372000146	1676.178210699989	1677.1089424999957	2019-12-21 09:45:40.473253	17.0354636407582	8.13271215333181	1.4506148336139	7.78210601139576	18.4860784743721	1.4506148336139	-17.0354636407582	8.13271215333181	1.4506148336139	18.4860784743721	1.4506148336139	-8.13271215333181	9.50908272927648	5.260319725493744	4.552735207342073	8.670442275349574	17.192880540736656	4.552735207342073	-7.623243742295147	15.627349238677608	6.118266509401137	9.595316950314496	0.21773798252132948	4	correct	1.0
46.10253780000471	9.615271599992639	go_reward	0.3718013000034261	46.112233200023184	48.882596400013654	51.43460120001714	2.77036319999047	47.121215000021266	50.41381190001289	54.48418210001569	1.7613813999923877	1.0207893000042532	1.2433227000001352	53.472578100016335	0.4840423999994527	52.441432699997904	2	1	66	3	go_reward	0	0	1	1	1	1	1	0.0	0.0	0	0.3718013000034261	0.4840423999994527	1631.038740299991	1677.1509735000143	1678.1599553000124	1679.9213367000048	1681.452552200004	1682.4733415000082	1683.480172999989	1684.5113184000074	1685.5229224000068	1686.766245100007	2019-12-21 09:45:40.473253	14.7014931572749	7.12488768403341	1.4506148336139	6.84769173633503	16.1521079908888	1.4506148336139	-14.7014931572749	7.12488768403341	1.4506148336139	16.1521079908888	1.4506148336139	-7.12488768403341	7.175112245793182	4.252495256195344	4.552735207342073	7.736028000288843	14.858910057253357	4.552735207342073	-6.615419272996747	13.29337875519431	6.118266509401137	8.587492481016097	0.21773798252132948	4	wrong	1.0
55.7438994999975	9.005583999998635	go_punish	1.0	55.75359490001597	57.91814019999606	60.43864580002287	2.164545299980091	56.756442400015885	59.42407000000844	63.46899480000161	1.1616977999801748	1.014575800014427	1.2901841000129934	62.465461600019125	0.5549274999939371	61.452471700002434	2	1	67	1	go_punish	1	0	-1	1	0	0	0	0.0	1.0	-1	1.0	0.5549274999939371	1631.038740299991	1686.792335200007	1687.795182700007	1688.9568804999872	1690.4628102999995	1691.477386100014	1692.4912119999935	1693.5042019000102	1694.5077350999927	1695.7979192000057	2019-12-21 09:45:40.473253	4.89466330153271	0.0	-13.0547450444405	-12.745824436393	-17.9494083459733	-13.0547450444405	-4.89466330153271	-13.0547450444405	0.0	-13.0547450444405	-17.9494083459733	-23.8792350622328	-2.631717609949008	-2.8723924278380655	-9.952624670712327	-11.857488172439187	-19.242606279608744	-9.952624670712327	-23.36976665119614	-15.913474280134992	-13.281756670186063	-11.592140247457813	-1.2328768510925705	4	correct	1.0
64.79311189998407	8.68488270000671	go_reward	0.491334199992707	64.80280730000254	66.54318780000926	69.08852030002186	1.7403805000067223	65.80981090001319	68.07084490000898	72.12850150000327	0.7333768999960739	1.0176754000128767	1.3591885000059847	71.11510840000119	0.3486517000128515	70.1017468000066	2	1	68	3	go_reward	1	1	0	1	1	1	1	1.0	1.0	1	0.491334199992707	0.3486517000128515	1631.038740299991	1695.8415475999936	1696.8485512000043	1697.5819281000004	1699.1095852	1700.127260600013	1701.1404870999977	1702.1538486999923	1703.1672417999944	1704.5264303000004	2019-12-21 09:45:40.473253	12.6938584510539	6.25798423938489	1.4506148336139	6.04188523430523	14.1444732846678	1.4506148336139	-12.6938584510539	6.25798423938489	1.4506148336139	14.1444732846678	1.4506148336139	19.70987135965491	5.167477539572182	3.3855918115468246	4.552735207342073	6.930221498259043	12.851275351032356	4.552735207342073	20.219339770691573	11.285744048973308	6.118266509401137	7.720589036367578	0.21773798252132948	4	correct	1.0
73.50480709999101	8.684073799988255	nogo_reward	0.2463010000064969	73.51450250000948	75.38819480000552	77.93682850000937	1.873692299996037	74.52276059999735	76.92535990002239	81.00206830000411	0.865434200008167	1.0114685999869835	1.196507999993628	79.98927670001308	0.3271042999986093	78.9611931999973	2	1	69	4	nogo_reward	1	0	1	0	1	0	0	0.0	1.0	0	0.2463010000064969	0.3271042999986093	1631.038740299991	1704.5532428000006	1705.5615008999885	1706.4269350999966	1707.9641002000135	1708.9755688000005	1709.9999334999884	1711.0280170000042	1712.0408085999952	1713.2373165999888	2019-12-21 09:45:40.473253	9.68331096621624	5.49829168618834	9.58332698694571	10.2448629966246	19.2666379531619	9.58332698694571	-9.68331096621624	5.49829168618834	9.58332698694571	19.2666379531619	9.58332698694571	-5.49829168618834	2.156930054734522	2.6258992583502745	12.685447360673884	11.133199260578413	17.973440019526457	12.685447360673884	-4.9888232751516774	16.407908717467407	14.250978662732948	6.960896483171027	8.35045013585314	4	correct	1.0
82.21322449998115	7.731634600000689	nogo_reward	0.6783354000071995	82.22291989999962	83.58307670001545	86.1243162000028	1.3601568000158295	83.22490480000874	85.1046251000082	89.17993230000161	0.3581719000067096	1.0196910999945885	0.7746221999987029	88.16532470000698	0.4934881000081077	87.14191659999801	2	1	70	4	nogo_reward	1	0	1	0	1	0	0	0.0	1.0	0	0.6783354000071995	0.4934881000081077	1631.038740299991	1713.2616601999907	1714.2636450999998	1714.6218170000066	1716.1433653999993	1717.163056499994	1718.1806568999891	1719.204064999998	1720.2186725999927	1720.9932947999914	2019-12-21 09:45:40.473253	7.30039078823035	4.8224416188908	9.58332698694571	9.04013001060447	16.8837177751761	9.58332698694571	-7.30039078823035	4.8224416188908	9.58332698694571	16.8837177751761	9.58332698694571	-4.8224416188908	-0.22599012325136858	1.9500491910527349	12.685447360673884	9.928466274558284	15.590519841540655	12.685447360673884	-4.312973207854138	14.024988539481607	14.250978662732948	6.285046415873488	8.35045013585314	4	correct	1.0
89.98789859999692	8.642032200004678	nogo_punish	1.0	89.9975940000154	91.66750010001147	94.18332800001394	1.6699060999960693	91.00548550000553	93.16218970000068	97.24297069999761	0.6620146000059322	1.0211383000132628	1.3966555000224616	96.2297190999966	0.2758017999876756	95.20078020001552	2	1	71	2	nogo_punish	1	-1	0	0	0	1	0	0.0	1.0	0	1.0	0.2758017999876756	1631.038740299991	1721.0363343000065	1722.0442257999966	1722.7062404000026	1724.2009299999918	1725.222068300005	1726.2395205000066	1727.2684593999877	1728.2817109999887	1729.6783665000112	2019-12-21 09:45:40.473253	4.5409729475225	-1.93851245932806	-2.3174569680859	-3.22689349260603	-6.8584299156084	-2.3174569680859	-4.5409729475225	-2.3174569680859	-1.93851245932806	-2.3174569680859	-6.8584299156084	2.3174569680859	-2.9854079639592186	-4.810904887166125	0.7846634056422728	-2.338557228652217	-8.151627849243843	0.7846634056422728	2.826925379122562	-5.176186203780392	-2.1907782398211637	-0.8548521711032127	-3.1713893104206305	4	correct	1.0
98.67348430000129	7.95290340000065	go_reward	0.329682599985972	98.68317970001976	100.19008840000629	102.73841380002	1.5069086999865249	99.69010140001797	101.7210869000121	105.767898499995	0.4999869999883231	1.0173269000079017	0.8681846000254154	104.75450480001768	0.5401357999944594	103.74232360001793	2	1	72	3	go_reward	1	1	0	1	1	1	0	0.0	1.0	1	0.329682599985972	0.5401357999944594	1631.038740299991	1729.7219200000109	1730.728841700009	1731.2288286999974	1732.7598272000032	1733.777154100011	1734.781063900009	1735.7932451000088	1736.806638799986	1737.6748234000115	2019-12-21 09:45:40.473253	16.876776867804	7.96949796547769	1.4506148336139	7.80420811041835	18.3273917014179	1.4506148336139	-16.876776867804	7.96949796547769	1.4506148336139	18.3273917014179	1.4506148336139	17.99835763356211	9.350395956322282	5.097105537639624	4.552735207342073	8.692544374372163	17.034193767782455	4.552735207342073	18.507826044598772	15.468662465723407	6.118266509401137	9.432102762460378	0.21773798252132948	4	correct	1.0
106.66650029999437	7.80080959998304	nogo_punish	1.0	106.67619570001284	108.00506900000642	110.5248109000097	1.3288732999935746	107.67622370002232	109.51607040001568	113.56141769999522	0.3288452999840956	1.008740499994019	0.9155876000006629	112.55685049999761	0.385048199997982	111.54245979999564	2	1	73	2	nogo_punish	1	-1	0	0	0	1	1	1.0	1.0	0	1.0	0.385048199997982	1631.038740299991	1737.714936000004	1738.7149640000134	1739.0438092999975	1740.5548107000068	1741.5635512000008	1742.5812000999867	1743.5955907999887	1744.6001579999863	1745.515745599987	2019-12-21 09:45:40.473253	4.38951898086745	-1.93851245932806	-2.14219873866813	-2.99105376337277	-6.53171771953558	-2.14219873866813	-4.38951898086745	-2.14219873866813	-1.93851245932806	-2.14219873866813	-6.53171771953558	2.14219873866813	-3.136861930614268	-4.810904887166125	0.9599216350600428	-2.1027174994189566	-7.824915653171024	0.9599216350600428	2.6516671497047923	-5.000927974362622	-1.8640660437483438	-0.6795939416854426	-3.1713893104206305	4	correct	1.0
114.4916566000029	9.413403099984635	nogo_reward	0.1925671999924816	114.50135200002137	116.8477836000095	119.37800660001858	2.3464315999881364	115.51201550001883	118.36641070002247	122.42075940000382	1.3357680999906734	1.0115958999961094	1.4939957000021877	121.40804810001305	0.3961631999991368	120.39536379999481	2	1	74	4	nogo_reward	1	0	1	0	1	0	0	0.0	1.0	0	0.1925671999924816	0.3961631999991368	1631.038740299991	1745.5400923000125	1746.55075580001	1747.8865239000006	1749.4051510000136	1750.4167469000097	1751.434104099986	1752.4467884000042	1753.459499699995	1754.953495399997	2019-12-21 09:45:40.473253	5.2482525893024	4.24080064223222	9.58332698694571	7.99972052902515	14.8315795762481	9.58332698694571	-5.2482525893024	4.24080064223222	9.58332698694571	14.8315795762481	9.58332698694571	-4.24080064223222	-2.2781283221793185	1.368408214394155	12.685447360673884	8.888056792978963	13.538381642612656	12.685447360673884	-3.731332231195558	11.972850340553608	14.250978662732948	5.703405439214908	8.35045013585314	4	correct	1.0
123.93092519999482	8.136673400003929	go_punish	1.0	123.94062060001329	125.37730500000202	127.90364350000186	1.436684399988735	124.95110180001961	126.88806520000799	130.94325070001673	0.4262031999824103	1.0155782999938765	1.134043300000485	129.9294560000128	0.6886534999939613	128.9067776000013	2	1	75	1	go_punish	1	0	-1	1	0	0	0	0.0	1.0	-1	1.0	0.6886534999939613	1631.038740299991	1754.9793609000044	1755.9898421000107	1756.4160452999931	1757.926805499999	1758.942383799993	1759.9455178999924	1760.968196300004	1761.9819910000078	1763.1160343000083	2019-12-21 09:45:40.473253	5.29608688845052	0.0	-14.018911744345	-13.7398877621021	-19.3149986327956	-14.018911744345	-5.29608688845052	-14.018911744345	0.0	-14.018911744345	-19.3149986327956	-22.915068362328302	-2.230294023031198	-2.8723924278380655	-10.916791370616828	-12.851551498148286	-20.608196566431044	-10.916791370616828	-22.40559995129164	-16.877640980039494	-14.647346957008363	-12.556306947362314	-1.2328768510925705	4	correct	1.0
132.09144459999516	8.470387100009248	nogo_reward	0.2892396999814082	132.10114000001363	133.94625680000195	136.49066790001257	1.8451167999883182	133.11201320000714	135.4649817000029	139.56252400000858	0.8342435999948066	1.025686200009659	1.0090031000142972	138.54954870001552	0.406632800004445	137.5108821000033	2	1	76	4	nogo_reward	0	1	0	0	1	0	1	0.0	0.0	1	0.2892396999814082	0.406632800004445	1631.038740299991	1763.1398803000047	1764.1507534999982	1764.984997099993	1766.503721999994	1767.5294082000037	1768.5496223999944	1769.5882890000066	1770.6012642999997	1771.610267400014	2019-12-21 09:45:40.473253	3.4777862221599	3.73938863241731	9.58332698694571	7.09958605129053	13.0611132091056	9.58332698694571	-3.4777862221599	3.73938863241731	9.58332698694571	13.0611132091056	9.58332698694571	22.22846696662249	-4.048594689321819	0.8669962045792445	12.685447360673884	7.987922315244344	11.767915275470155	12.685447360673884	22.737935377659152	10.202383973411107	14.250978662732948	5.201993429399997	8.35045013585314	4	wrong	1.0
140.59214259998407	8.414767400012352	go_punish	1.0	140.60183800000254	142.4102733000184	144.939718500013	1.8084353000158444	141.60806270001945	143.91591010001162	147.9860345000052	0.8022105999989435	1.0238084000013714	1.0305709000097067	146.9815942000132	0.6584392999939155	145.95308000000682	2	1	77	1	go_punish	1	0	-1	1	0	0	1	1.0	1.0	-1	1.0	0.6584392999939155	1631.038740299991	1771.6405782999936	1772.6468030000106	1773.4490136000095	1774.9546504000027	1775.978458800004	1776.991820299998	1778.0203345000043	1779.0247747999963	1780.055345700006	2019-12-21 09:45:40.473253	5.66317026638355	0.0	-14.9096972971967	-14.6569172010946	-20.5728675635803	-14.9096972971967	-5.66317026638355	-14.9096972971967	0.0	-14.9096972971967	-20.5728675635803	-22.024282809476603	-1.8632106450981682	-2.8723924278380655	-11.807576923468527	-13.768580937140786	-21.866065497215743	-11.807576923468527	-21.514814398439942	-17.768426532891194	-15.905215887793062	-13.447092500214014	-1.2328768510925705	4	correct	1.0
149.03290059999563	8.553716199996416	go_punish	1.0	149.0425960000141	151.08963860000972	153.61990620000893	2.0470425999956205	150.0519746000066	152.6048652000029	156.67578109999909	1.037664000003133	1.015041000006022	0.9205311000114307	155.6629868000166	0.4856976000010036	154.63384680001786	2	1	78	1	go_punish	1	0	-1	1	0	0	0	0.0	1.0	-1	1.0	0.4856976000010036	1631.038740299991	1780.0813363000052	1781.0907148999977	1782.1283789000008	1783.643605499994	1784.6586465	1785.672587100009	1786.7017271000077	1787.7145213999902	1788.6350525000016	2019-12-21 09:45:40.473253	6.00018257989036	0.0	-15.7354017429135	-15.5057158537706	-21.7355843228039	-15.7354017429135	-6.00018257989036	-15.7354017429135	0.0	-15.7354017429135	-21.7355843228039	-21.198578363759804	-1.5261983315913579	-2.8723924278380655	-12.633281369185326	-14.617379589816785	-23.028782256439342	-12.633281369185326	-20.689109952723143	-18.594130978607993	-17.06793264701666	-14.272796945930812	-1.2328768510925705	4	correct	1.0
157.63119250000432	8.273835499974894	nogo_punish	1.0	157.6408879000228	159.203448000015	161.70943109999666	1.5625600999921971	158.63865030001057	160.70635360002098	164.7496234000139	0.5647977000044193	1.0030774999756886	1.165099999983795	163.7365854000093	0.5364592999976594	162.71809800001233	2	1	79	2	nogo_punish	1	-1	0	0	0	1	0	0.0	1.0	0	1.0	0.5364592999976594	1631.038740299991	1788.679628200014	1789.6773906000017	1790.242188300006	1791.745093900012	1792.7481713999878	1793.7568383000034	1794.7753257000004	1795.788363700005	1796.9534636999888	2019-12-21 09:45:40.473253	4.25458072985316	-1.93851245932806	-1.98620249263893	-2.78056654342625	-6.24078322249209	-1.98620249263893	-4.25458072985316	-1.98620249263893	-1.93851245932806	-1.98620249263893	-6.24078322249209	1.98620249263893	-3.2718001816285582	-4.810904887166125	1.1159178810892427	-1.8922302794724368	-7.533981156127533	1.1159178810892427	2.495670903675592	-4.844931728333422	-1.573131546704854	-0.5235976956562427	-3.1713893104206305	4	correct	1.0
165.94819619998452	9.206454300001951	go_reward	0.4313417999946978	165.957891600003	168.5011253000123	171.05656090000457	2.5432337000092957	166.96542270001396	170.03233450002176	174.1176706000117	1.5357025999983307	1.0242263999828083	1.0466752999932396	173.09912680002185	0.4448887000035029	172.07147980001196	2	1	80	3	go_reward	1	1	0	1	1	1	0	0.0	1.0	1	0.4313417999946978	0.4448887000035029	1631.038740299991	1796.996631899994	1798.004163000005	1799.5398656000034	1801.0710748000129	1802.0953011999957	1803.110220100003	1804.137867100013	1805.1564109000028	1806.203086199996	2019-12-21 09:45:40.473253	20.5388821728056	9.47143385302584	1.4506148336139	9.34835405827327	21.9894970064195	1.4506148336139	-20.5388821728056	9.47143385302584	1.4506148336139	21.9894970064195	1.4506148336139	16.49642174601396	13.012501261323882	6.5990414251877745	4.552735207342073	10.236690322227084	20.696299072784058	4.552735207342073	17.005890157050622	19.130767770725008	6.118266509401137	10.934038650008526	0.21773798252132948	4	correct	1.0
175.1983324000032	8.352914499992039	go_reward	1.0	175.20802780002168	176.7038579000216	179.22031870001297	1.495830099999921	176.20572030000085	178.20992019999562	182.27973820001375	0.4981376000207547	1.0103985000173452	1.281204099999968	181.26678790000778	0.3089209000172559	180.2376591000068	2	1	81	3	go_reward	1	1	0	1	0	0	0	0.0	1.0	0	1.0	0.3089209000172559	1631.038740299991	1806.2467681000128	1807.244460599992	1807.7425982000127	1809.2486604999867	1810.259059000004	1811.276399399998	1812.305528199999	1813.3184785000049	1814.5996826000048	2019-12-21 09:45:40.473253	-23.7537388342581	10.7929947136757	1.4506148336139	10.7049347746236	25.204353667872	1.4506148336139	23.7537388342581	1.4506148336139	10.7929947136757	1.4506148336139	25.204353667872	-1.4506148336139	-31.280119745739817	7.920602285837635	4.552735207342073	11.593271038577415	23.911155734236555	4.552735207342073	-0.9411464225772377	-1.4081144020805922	29.872005343659236	2.913219630596587	9.56011786258313	4	correct	1.0
183.57475119997957	8.789260800025886	nogo_reward	0.2686190999811515	183.58444659999805	185.55284200000483	188.08939269999996	1.9683954000067843	184.58518970001046	187.06885130002092	191.1300480000209	0.96765229999437	1.020541399979038	1.2436594000030254	190.1270360000201	0.6291958999936469	189.10825650001084	2	1	82	4	nogo_reward	0	1	0	0	1	0	0	0.0	1.0	1	0.2686190999811515	0.6291958999936469	1631.038740299991	1814.6231868999892	1815.6239300000016	1816.591582299996	1818.107591600012	1819.128132999991	1820.146996800002	1821.1657763000112	1822.168788300012	1823.412447700015	2019-12-21 09:45:40.473253	7.86032538230442	5.76482766243656	9.58332698694571	8.77779865888908	17.4436523692501	9.58332698694571	-7.86032538230442	5.76482766243656	9.58332698694571	17.4436523692501	9.58332698694571	20.20302793660324	0.3339444708227015	2.8924352345984947	12.685447360673884	9.666134922842895	16.150454435614655	12.685447360673884	20.712496347639902	14.584923133555607	14.250978662732948	7.227432459419248	8.35045013585314	4	correct	1.0
192.40633009999874	8.447348499990767	nogo_punish	1.0	192.4160255000172	194.335447300022	196.86144380000792	1.919421800004784	193.41336370000522	195.84090840001613	199.90099530000566	0.9220836000167765	1.020535399991786	0.9623787000023185	198.88801429999899	0.394183799973689	197.8692729000179	2	1	83	2	nogo_punish	1	-1	0	0	0	1	0	0.0	1.0	0	1.0	0.394183799973689	1631.038740299991	1823.4547658000083	1824.4521039999963	1825.374187600013	1826.8796487000072	1827.900184099999	1828.908013200009	1829.92675459999	1830.9397355999968	1831.902114299999	2019-12-21 09:45:40.473253	4.13395835669878	-1.93851245932806	-1.84692651539947	-2.59212915218508	-5.98088487209825	-1.84692651539947	-4.13395835669878	-1.84692651539947	-1.93851245932806	-1.84692651539947	-5.98088487209825	1.84692651539947	-3.3924225547829385	-4.810904887166125	1.2551938583287026	-1.7037928882312667	-7.274082805733693	1.2551938583287026	2.356394926436132	-4.705655751093962	-1.313233196311014	-0.38432171841678286	-3.1713893104206305	4	correct	1.0
200.87978809999163	8.191639500001202	go_punish	1.0	200.8894835000101	202.67847740001184	205.2008782000048	1.788993900001742	201.89831900000013	204.1847964000192	208.25386320002167	0.7801584000117145	1.0160817999856135	0.8272597999896334	207.24830780000798	0.5133620999986306	206.21615600000973	2	1	84	1	go_punish	1	0	-1	1	0	0	0	0.0	1.0	-1	1.0	0.5133620999986306	1631.038740299991	1831.9282238000012	1832.9370592999912	1833.717217700003	1835.2235367000103	1836.239618499996	1837.2548963000008	1838.287048099999	1839.2926035000128	1840.1198633000024	2019-12-21 09:45:40.473253	6.31077199090259	0.0	-16.503194849869	-16.2938822969426	-22.8139668407716	-16.503194849869	-6.31077199090259	-16.503194849869	0.0	-16.503194849869	-22.8139668407716	-20.430785256804302	-1.215608920579128	-2.8723924278380655	-13.401074476140828	-15.405546032988784	-24.107164774407043	-13.401074476140828	-19.92131684576764	-19.361924085563494	-18.14631516498436	-15.040590052886314	-1.2328768510925705	4	correct	1.0
209.11715809997963	8.675734999997303	go_reward	1.0	209.1268534999981	210.78238610000722	213.3212965000132	1.65553260000911	210.12454000001935	212.29709180002124	216.36680980000574	0.6578460999878644	1.0242046999919694	1.435778699989669	215.3623057000225	0.8107194000040181	214.3398319999976	2	1	85	3	go_reward	1	1	0	1	0	0	0	0.0	1.0	0	1.0	0.8107194000040181	1631.038740299991	1840.1655937999892	1841.1632803000105	1841.8211263999983	1843.3358321000123	1844.3600368000043	1845.3785722999887	1846.4010460000136	1847.4055500999968	1848.8413287999865	2019-12-21 09:45:40.473253	-22.1343489810721	10.7929947136757	1.27968038391349	9.44155347808079	23.4140293649856	1.27968038391349	22.1343489810721	1.27968038391349	10.7929947136757	1.27968038391349	23.4140293649856	-1.27968038391349	-29.660729892553817	7.920602285837635	4.381800757641662	10.329889742034604	22.120831431350155	4.381800757641662	-0.7702119728768277	-1.5790488517810022	28.081681040772835	2.742285180896177	9.56011786258313	4	correct	1.0
217.81610100000398	9.121013500000117	nogo_reward	0.2839892000192776	217.82579640002245	220.40647340001328	222.96499840001366	2.5806769999908283	218.82974270000727	221.9454280000066	226.0000192000009	1.57673070000601	1.019570400007069	0.9467907000216655	224.983953600022	1.0	223.97500380000588	2	1	86	4	nogo_reward	1	0	1	0	1	0	0	n/a	0.0	1	0.2839892000192776	1.0	1631.038740299991	1848.8645367000136	1849.8684829999984	1851.4452137000044	1852.9841682999977	1854.0037387000048	1855.013744099997	1856.022693900013	1857.038759499992	1857.9855502000137	2019-12-21 09:45:40.473253	11.6904625763683	7.53682287270232	9.58332698694571	10.2467943777802	21.273789563314	9.58332698694571	-11.6904625763683	7.53682287270232	9.58332698694571	21.273789563314	9.58332698694571	-7.53682287270232	4.164081664886583	4.664430444864255	12.685447360673884	11.135130641734014	19.980591629678557	12.685447360673884	-7.027354461665658	18.415060327619507	14.250978662732948	8.999427669685007	8.35045013585314	4	missed	0.0
226.98242879999452	9.07989749999274	go_reward	1.0	226.992124200013	229.50979660000326	232.04884500001253	2.5176723999902606	227.98852519999537	231.02517580002336	235.0953259000089	1.5212714000078904	1.0236691999891718	0.9766957999968326	234.08067590001178	0.6990997999964748	233.0634663999956	2	1	87	3	go_reward	0	0	1	1	0	0	1	0.0	0.0	1	1.0	0.6990997999964748	1631.038740299991	1858.030864500004	1859.0272654999865	1860.5485368999944	1862.0639161000145	1863.0875853000036	1864.1022066999867	1865.119416200003	1866.1340662	1867.1107619999968	2019-12-21 09:45:40.473253	-20.7400988479842	10.7929947136757	1.13198156273021	8.35068898192657	21.8720804107144	1.13198156273021	20.7400988479842	1.13198156273021	10.7929947136757	1.13198156273021	21.8720804107144	24.83587403630959	-28.266479759465916	7.920602285837635	4.234101936458383	9.239025245880384	20.578882477078956	4.234101936458383	25.34534244734625	-1.7267476729642823	26.539732086501637	2.5945863597128973	9.56011786258313	4	wrong	1.0
236.08529809999118	8.505637099995965	nogo_reward	0.3964180999901145	236.09499350000965	237.66942489999929	240.20818320001126	1.5744313999896349	237.1081833000062	239.19783540000208	243.25790850000362	0.5612415999930818	1.0103478000091854	1.3427221000019927	242.24337599999853	0.3756897999846842	241.2258272000181	2	1	88	4	nogo_reward	1	0	1	0	1	0	1	1.0	1.0	0	0.3964180999901145	0.3756897999846842	1631.038740299991	1867.1337338000008	1868.1469235999973	1868.7081651999904	1870.2365756999932	1871.2469235000024	1872.2645675000092	1873.2821162999896	1874.2966487999947	1875.6393708999967	2019-12-21 09:45:40.473253	15.0467559658572	9.09108118760537	9.58332698694571	11.5360926756141	24.6300829528029	9.58332698694571	-15.0467559658572	9.09108118760537	9.58332698694571	24.6300829528029	9.58332698694571	-9.09108118760537	7.5203750543754815	6.218688759767305	12.685447360673884	12.424428939567914	23.336885019167458	12.685447360673884	-8.581612776568708	21.771353717108408	14.250978662732948	10.553685984588057	8.35045013585314	4	correct	1.0
244.61779550000233	9.004729899985023	go_punish	1.0	244.6274909000208	247.05680630001007	249.57638450001855	2.429315399989264	245.63577970000938	248.55155170001694	252.6163569000205	1.4210266000006868	1.0248328000016045	1.0158638999853338	251.6037766000086	0.3366014999919571	250.5909372000026	2	1	89	1	go_punish	1	0	-1	1	0	0	0	0.0	1.0	-1	1.0	0.3366014999919571	1631.038740299991	1875.666231200012	1876.6745200000005	1878.0955466000012	1879.590292000008	1880.6151248000097	1881.6296774999937	1882.6425168999997	1883.6550972000116	1884.670961099997	2019-12-21 09:45:40.473253	6.59806303923384	0.0	-17.219284683264	-17.0279906396428	-23.8173477224979	-17.219284683264	-6.59806303923384	-17.219284683264	0.0	-17.219284683264	-23.8173477224979	-19.714695423409303	-0.9283178722478782	-2.8723924278380655	-14.117164309535827	-16.139654375688984	-25.110545656133343	-14.117164309535827	-19.205227012372642	-20.078013918958494	-19.149696046710663	-15.756679886281313	-1.2328768510925705	4	correct	1.0
253.66554869999527	8.637018899986288	nogo_punish	1.0	253.67524410001374	255.73169090002216	258.2491937000018	2.056446800008416	254.68550540000479	257.2369845000212	261.31873920001135	1.0461855000173728	1.012209199980589	0.9935237999886795	260.30540850001853	0.4305126999970525	259.2715436000144	2	1	90	2	nogo_punish	1	-1	0	0	0	1	0	0.0	1.0	0	1.0	0.4305126999970525	1631.038740299991	1884.7139844000048	1885.724245699996	1886.7704312000133	1888.2757248000123	1889.287933999993	1890.3102839000055	1891.3441488000096	1892.3574795000025	1893.3510032999911	2019-12-21 09:45:40.473253	4.02577539662643	-1.93851245932806	-1.72219719162616	-2.42291326392575	-5.74797258825259	-1.72219719162616	-4.02577539662643	-1.72219719162616	-1.93851245932806	-1.72219719162616	-5.74797258825259	1.72219719162616	-3.5006055148552884	-4.810904887166125	1.3799231821020126	-1.5345769999719368	-7.0411705218880325	1.3799231821020126	2.2316656026628223	-4.5809264273206525	-1.0803209124653534	-0.25959239464347283	-3.1713893104206305	4	correct	1.0
262.3475026999947	8.742409800004452	go_reward	1.0	262.3571981000132	264.70197150000604	267.23780850000935	2.344773399992846	263.3629859000214	266.2178873000089	270.29351240000733	1.3389855999846532	1.0199212000004536	0.8060955000103149	269.28067430001124	0.5326140999968629	268.2470026000233	2	1	91	3	go_reward	1	1	0	1	0	0	0	0.0	1.0	0	1.0	0.5326140999968629	1631.038740299991	1893.3959384000043	1894.4017262000125	1895.7407117999971	1897.2566276	1898.2765488000005	1899.2857429000144	1900.3194146000023	1901.3322526999984	1902.1383482000087	2019-12-21 09:45:40.473253	-20.5334299665416	10.7929947136757	3.46257324420624	9.86552387083962	23.9960032107478	3.46257324420624	20.5334299665416	3.46257324420624	10.7929947136757	3.46257324420624	23.9960032107478	-3.46257324420624	-28.05981087802332	7.920602285837635	6.564693617934413	10.753860134793435	22.702805277112358	6.564693617934413	-2.9531048331695775	0.6038440085117478	28.66365488653504	4.925178041188927	9.56011786258313	4	correct	1.0
271.1314341999823	8.164200100000016	nogo_punish	1.0	271.1411296000008	272.5399069999985	275.0708591000009	1.398777399997698	272.1503478999948	274.0510227000052	278.1180011999968	0.3895591000036802	1.019836399995711	1.1873285000040141	277.1132570000193	0.4392951000190805	276.0882303999972	2	1	92	2	nogo_punish	1	-1	0	0	0	1	1	1.0	1.0	0	1.0	0.4392951000190805	1631.038740299991	1902.179869899992	1903.189088199986	1903.5786472999896	1905.0897629999963	1906.109599399992	1907.1269706999883	1908.1519973000104	1909.156741499988	1910.344069999992	2019-12-21 09:45:40.473253	3.92842838115577	-1.93851245932806	-1.61015259681972	-2.27049266357794	-5.53858097797549	-1.61015259681972	-3.92842838115577	-1.61015259681972	-1.93851245932806	-1.61015259681972	-5.53858097797549	1.61015259681972	-3.5979525303259483	-4.810904887166125	1.4919677769084527	-1.3821563996241268	-6.831778911610934	1.4919677769084527	2.119621007856382	-4.468881832514212	-0.8709293021882543	-0.1475477998370327	-3.1713893104206305	4	correct	1.0
279.32175459997916	7.969602400000895	nogo_reward	0.3380168000003323	279.33144999999763	280.8005536000128	283.35135690000607	1.4691036000151598	280.3406951000218	282.3315998000037	286.41695680000726	0.45985849999101447	1.01975710000238	0.8840955999912694	285.4042181000118	0.3547656000009738	284.3758756000025	2	1	93	4	nogo_reward	1	0	1	0	1	0	0	0.0	1.0	0	0.3380168000003323	0.3547656000009738	1631.038740299991	1910.3701902999887	1911.3794354000129	1911.839293900004	1913.3703400999948	1914.3900971999972	1915.4146158999936	1916.442958400003	1917.4556970999984	1918.3397926999896	2019-12-21 09:45:40.473253	12.0830745588959	7.9995294223206	9.58332698694571	10.2123473020246	21.6664015458416	9.58332698694571	-12.0830745588959	7.9995294223206	9.58332698694571	21.6664015458416	9.58332698694571	-7.9995294223206	4.556693647414182	5.127136994482534	12.685447360673884	11.100683565978414	20.373203612206158	12.685447360673884	-7.490061011283937	18.807672310147108	14.250978662732948	9.462134219303287	8.35045013585314	4	correct	1.0
287.3155695000023	9.308181200001627	nogo_reward	0.2739644999965094	287.3252649000208	290.07163429999537	292.6130074000105	2.746369399974583	288.32825839999737	291.6033661999977	295.67347490001725	1.743375899998	1.0096412000127657	0.9599712000051568	294.6598601000153	0.390892099996563	293.6295858000233	2	1	94	4	nogo_reward	1	0	1	0	1	0	0	0.0	1.0	0	0.2739644999965094	0.390892099996563	1631.038740299991	1918.364005200012	1919.3669986999885	1921.1103745999865	1922.6421064999888	1923.6517477000016	1924.6683261000144	1925.6986004000064	1926.7122152000084	1927.6721864000135	2019-12-21 09:45:40.473253	9.52642609803572	7.05831945308609	9.58332698694571	9.06721088232302	19.1097530849814	9.58332698694571	-9.52642609803572	7.05831945308609	9.58332698694571	19.1097530849814	9.58332698694571	-7.05831945308609	2.0000451865540025	4.185927025248025	12.685447360673884	9.955547146276833	17.816555151345955	12.685447360673884	-6.548851042049428	16.251023849286906	14.250978662732948	8.520924250068777	8.35045013585314	4	correct	1.0
296.6505908999825	9.588946000003943	go_punish	1.0	296.66028630000096	299.43020960001763	301.96958720000134	2.7699233000166714	297.66856140000186	300.94605389999924	305.01557479999656	1.7616482000157703	1.0235333000021	1.2336575000083485	304.00284590001684	0.3238623000215739	302.9837083000168	2	1	95	1	go_punish	1	0	-1	1	0	0	0	0.0	1.0	-1	1.0	0.3238623000215739	1631.038740299991	1927.699026599992	1928.707301699993	1930.4689499000087	1931.9847941999903	1933.0083274999924	1934.022448600008	1935.041586200008	1936.0543150999877	1937.287972599996	2019-12-21 09:45:40.473253	6.86473801716741	0.0	-17.8890596250361	-17.7137421876205	-24.7537976422035	-17.8890596250361	-6.86473801716741	-17.8890596250361	0.0	-17.8890596250361	-24.7537976422035	-19.044920481637202	-0.6616428943143084	-2.8723924278380655	-14.786939251307928	-16.825405923666686	-26.046995575838945	-14.786939251307928	-18.53545207060054	-20.747788860730594	-20.086145966416264	-16.426454828053412	-1.2328768510925705	4	correct	1.0
306.28277239997965	8.0388468000167	go_reward	0.2694183000130579	306.2924677999981	307.8281556000004	310.38033220000216	1.535687800002279	307.2905674000217	309.3563136000014	313.4415869000079	0.5375881999786998	1.0240186000007725	0.8897277000069153	312.42814850001014	0.3528017999778967	311.39676640002335	2	1	96	3	go_reward	1	1	0	1	1	1	0	0.0	1.0	1	0.2694183000130579	0.3528017999778967	1631.038740299991	1937.3312080999892	1938.3293077000128	1938.8668958999915	1940.3950538999925	1941.4190724999933	1942.4355067000145	1943.4668888000012	1944.480327199999	1945.370054900006	2019-12-21 09:45:40.473253	19.3603754231556	10.7929947136757	3.03985238327603	8.73593392605987	22.4002278064316	3.03985238327603	-19.3603754231556	10.7929947136757	3.03985238327603	22.4002278064316	3.03985238327603	15.174860885364101	11.83399451167388	7.920602285837635	6.141972757004202	9.624270190013684	21.107029872796158	6.141972757004202	15.684329296400763	19.541498570737108	7.707504059063266	12.255599510658387	1.8069755321834593	4	correct	1.0
314.36426919998485	9.300569700018741	go_reward	1.0	314.3739646000033	316.80926999999815	319.33052560000215	2.4353053999948315	315.37285149999684	318.3155781000098	322.36138270000856	1.4364185000013094	1.0149474999923314	1.313151600013498	321.3572984000209	0.2869824999943375	320.3456087000088	2	1	97	3	go_reward	0	0	1	1	0	0	0	0.0	1.0	1	1.0	0.2869824999943375	1631.038740299991	1945.4127048999944	1946.411591799988	1947.8480102999893	1949.354318400001	1950.3692658999933	1951.384349	1952.396038700012	1953.4001229999997	1954.7132746000132	2019-12-21 09:45:40.473253	-22.6030996180401	11.9590468628491	3.03985238327603	10.2166958601377	25.6429520013161	3.03985238327603	22.6030996180401	3.03985238327603	11.9590468628491	3.03985238327603	25.6429520013161	22.92800321576377	-30.12948052952182	9.086654435011035	6.141972757004202	11.105032124091514	24.349754067680657	6.141972757004202	23.43747162680043	0.18112314758153758	30.310603677103337	4.502457180258717	10.72617001175653	4	correct	1.0
323.69146169998567	7.954338600015262	go_punish	1.0	323.70115710000414	325.0542563000056	327.59327979999966	1.3530992000014521	324.7110093000233	326.56977560001565	330.6303971000018	0.34324699998228425	1.0235041999840178	1.0250986000176	329.618034400017	0.3948807000124361	328.6027003000204	2	1	98	1	go_punish	1	0	-1	1	0	0	0	0.0	1.0	-1	1.0	0.3948807000124361	1631.038740299991	1954.7398973999952	1955.7497496000144	1956.0929965999967	1957.6085159000068	1958.6320200999908	1959.6414406000115	1960.656774700008	1961.669137399993	1962.6942360000105	2019-12-21 09:45:40.473253	7.11310507525267	0.0	-18.5172081944707	-18.3560933704624	-25.6303132697234	-18.5172081944707	-7.11310507525267	-18.5172081944707	0.0	-18.5172081944707	-25.6303132697234	-18.416771912202602	-0.4132758362290483	-2.8723924278380655	-15.415087820742528	-17.467757106508586	-26.923511203358842	-15.415087820742528	-17.90730350116594	-21.375937430165195	-20.96266159393616	-17.054603397488012	-1.2328768510925705	4	correct	1.0
331.6696644999904	9.37470049998933	nogo_reward	0.6132599000120535	331.6793599000089	334.1193155000217	336.6559842000138	2.4399556000128086	332.6907660000145	335.63529669999843	339.70150890000536	1.4285495000071933	1.020687500015356	1.3525514999928419	338.69655730002	0.369472600024892	337.6740954999989	2	1	99	4	nogo_reward	1	0	1	0	1	0	0	0.0	1.0	0	0.6132599000120535	0.369472600024892	1631.038740299991	1962.7181002	1963.7295063000056	1965.1580558000128	1966.6740369999895	1967.694724500005	1968.71283579999	1969.735297600011	1970.7402491999965	1972.0928006999893	2019-12-21 09:45:40.473253	7.31679211640987	6.24531861239664	9.58332698694571	8.07470705068872	16.9001191033556	9.58332698694571	-7.31679211640987	6.24531861239664	9.58332698694571	16.9001191033556	9.58332698694571	-6.24531861239664	-0.20958879507184847	3.3729261845585747	12.685447360673884	8.963043314642535	15.606921169720156	12.685447360673884	-5.735850201359978	14.041389867661108	14.250978662732948	7.707923409379328	8.35045013585314	4	correct	1.0
341.0867572999848	9.083528699993622	nogo_punish	1.0	341.0964527000033	343.3881564000044	345.91051230000494	2.291703700001108	342.1049542000112	344.8910221999979	348.96775890002095	1.283202199993184	1.019490100007033	1.212222499975951	347.9571441000153	0.357575200003339	346.9280529000098	2	1	100	2	nogo_punish	1	-1	0	0	0	1	0	0.0	1.0	0	1.0	0.357575200003339	1631.038740299991	1972.1351929999944	1973.1436945000023	1974.4268966999955	1975.929762499989	1976.949252599996	1977.966793200001	1978.9958844000064	1980.006499200012	1981.218721699988	2019-12-21 09:45:40.473253	3.8405446373252	-1.93851245932806	-1.50919509146287	-2.13278247376981	-5.34973972878806	-1.50919509146287	-3.8405446373252	-1.50919509146287	-1.93851245932806	-1.50919509146287	-5.34973972878806	1.50919509146287	-3.685836274156518	-4.810904887166125	1.5929252822653026	-1.2444462098159965	-6.642937662423503	1.5929252822653026	2.0186635024995323	-4.367924327157362	-0.6820880530008235	-0.046590294480182814	-3.1713893104206305	4	correct	1.0
350.1972632999825	8.54227980002156	go_punish	1.0	350.206958700001	351.97983270001737	354.4949196999953	1.7728740000163725	351.21472210000525	353.4957789000182	357.5412254999976	0.7651106000121217	0.9991407999771127	1.2080130000249483	356.5283658000119	0.4143381000030786	355.5143297000034	2	1	101	1	go_punish	0	-1	0	1	0	0	0	0.0	1.0	0	1.0	0.4143381000030786	1631.038740299991	1981.245698999992	1982.2534623999964	1983.0185730000085	1984.5345192000093	1985.5336599999864	1986.5530699999945	1987.567106100003	1988.5799657999887	1989.7879788000137	2019-12-21 09:45:40.473253	7.34515530100135	0.0	-19.1078202829052	-18.9593637977163	-26.4529755839066	-19.1078202829052	-7.34515530100135	-19.1078202829052	0.0	-19.1078202829052	-26.4529755839066	19.1078202829052	-0.181225610480368	-2.8723924278380655	-16.00569990917703	-18.071027533762486	-27.746173517542044	-16.00569990917703	19.617288693941862	-21.966549518599695	-21.785323908119363	-17.645215485922513	-1.2328768510925705	4	correct	1.0
358.7830598999865	7.711770699999988	nogo_punish	1.0	358.79275530000496	360.1611454000233	362.6954931000073	1.3683901000183596	359.80072960001417	361.6757061000096	365.7454820999992	0.3604158000091502	1.0197869999976774	0.7590439000057358	364.73232710000616	0.3724219000141602	363.702192099998	2	1	102	2	nogo_punish	1	-1	0	0	0	1	1	1.0	1.0	0	1.0	0.3724219000141602	1631.038740299991	1989.831495599996	1990.8394699000053	1991.1998857000144	1992.7144464000007	1993.7342333999984	1994.740932399989	1995.7710673999973	1996.7842223999903	1997.543266299996	2019-12-21 09:45:40.473253	3.76094689180248	-1.93851245932806	-1.41795143309427	-2.00798796983006	-5.17889832489675	-1.41795143309427	-3.76094689180248	-1.41795143309427	-1.93851245932806	-1.41795143309427	-5.17889832489675	1.41795143309427	-3.765434019679238	-4.810904887166125	1.6841689406339027	-1.1196517058762465	-6.4720962585321935	1.6841689406339027	1.9274198441309323	-4.276680668788762	-0.5112466491095136	0.04465336388841723	-3.1713893104206305	4	correct	1.0
366.52262069997914	8.626967400021613	go_punish	1.0	366.5323160999976	368.19604599999775	370.7216064000097	1.6637299000001349	367.5392020000145	369.70184870000253	373.7682998000239	0.6568439999832663	1.019757700007176	1.3909836999953313	372.7662701000229	0.7527335000049789	371.7368540000173	2	1	103	1	go_punish	0	-1	0	1	0	0	1	1.0	1.0	0	1.0	0.7527335000049789	1631.038740299991	1997.5710563999887	1998.5779423000056	1999.2347862999889	2000.7405889999936	2001.7603467000008	2002.7755943000084	2003.805010400014	2004.807040100015	2006.1980238000103	2019-12-21 09:45:40.473253	6.82442969244526	0.0	-17.7259603488569	-17.5888152005796	-24.5503900413021	-17.7259603488569	-6.82442969244526	-17.7259603488569	0.0	-17.7259603488569	-24.5503900413021	17.7259603488569	-0.7019512190364585	-2.8723924278380655	-14.623839975128728	-16.700478936625785	-25.843587974937545	-14.623839975128728	18.235428759893562	-20.584689584551395	-19.882738365514864	-16.263355551874213	-1.2328768510925705	4	correct	1.0
375.1760942999972	8.911894099990377	go_punish	1.0	375.1857897000157	377.0386454999973	379.562186099997	1.8528557999816258	376.1945472000225	378.5482788000086	382.6179481000006	0.844098299974803	1.013907299988432	1.479735700005449	381.60473079999815	0.3567581000097561	380.5758651000217	2	1	104	1	go_punish	1	0	-1	1	0	0	0	0.0	1.0	-1	1.0	0.3567581000097561	1631.038740299991	2006.2245300000068	2007.2332875000136	2008.0773857999884	2009.5870190999997	2010.600926399988	2011.6146054000128	2012.6434710999893	2013.6566883999917	2015.1364240999972	2019-12-21 09:45:40.473253	6.36403824712469	0.0	-16.4933053482761	-16.3662942087294	-22.8573435954007	-16.4933053482761	-6.36403824712469	-16.4933053482761	0.0	-16.4933053482761	-22.8573435954007	-20.440674758397204	-1.1623426643570278	-2.8723924278380655	-13.391184974547926	-15.477957944775586	-24.150541529036143	-13.391184974547926	-19.931206347360543	-19.352034583970593	-18.189691919613463	-15.030700551293412	-1.2328768510925705	4	correct	1.0
384.1333167999985	8.2541672999796	go_reward	1.0	384.143012200017	385.4766516000093	388.0066311999981	1.3336393999923075	385.14945190001185	386.992516800005	391.0444441000004	0.32719969999743626	1.0141143999931046	1.3527353999961633	390.03334850000124	0.2839988999767229	389.0186511000213	2	1	105	3	go_reward	0	0	1	1	0	0	0	0.0	1.0	1	1.0	0.2839988999767229	1631.038740299991	2015.181752500008	2016.188192200003	2016.5153919000004	2018.031257099996	2019.0453714999892	2020.0573914000124	2021.0720887999923	2022.0831843999915	2023.4359197999877	2019-12-21 09:45:40.473253	-22.3256872940111	11.9590468628491	5.13429709324109	11.5154926643437	27.4599843872522	5.13429709324109	22.3256872940111	5.13429709324109	11.9590468628491	5.13429709324109	27.4599843872522	20.833558505798713	-29.85206820549282	9.086654435011035	8.236417466969263	12.403828928297514	26.166786453616755	8.236417466969263	21.343026916835374	2.2755678575465974	32.12763606303943	6.596901890223776	10.72617001175653	4	correct	1.0
392.4296568999996	8.430064799991897	go_reward	0.2399253000039607	392.4393523000181	394.00171840001735	396.5567502000197	1.5623660999992808	393.44810400001006	395.532322900021	399.6261247000077	0.5536144000072909	1.024427299998706	1.2432924000022467	398.6072233000018	0.4687298000208102	397.5689781999977	2	1	106	3	go_reward	1	1	0	1	1	1	0	0.0	1.0	1	0.2399253000039607	0.4687298000208102	1631.038740299991	2023.4780926000092	2024.4868443000012	2025.0404587000085	2026.571063200012	2027.5954905000108	2028.6077184999888	2029.645963599993	2030.6648649999988	2031.908157400001	2019-12-21 09:45:40.473253	22.0874317424348	11.9590468628491	6.96691663415682	12.6578267707769	29.0543483765916	6.96691663415682	-22.0874317424348	11.9590468628491	6.96691663415682	29.0543483765916	6.96691663415682	14.008808736190701	14.56105083095308	9.086654435011035	10.069037007884992	13.546163034730714	27.761150442956158	10.069037007884992	14.518277147227364	26.195619140897108	11.634568309944056	13.421651659831786	5.734039783064249	4	correct	1.0
400.90243699998246	8.426252400008025	go_reward	0.5977517999999691	400.9121324000009	402.3568952000062	404.9022928000197	1.4447628000052646	401.919954100013	403.876897600014	407.9574789000037	0.43694109999319153	1.0253952000057325	1.3809059000052457	406.9443595000198	0.3525009999866597	405.91719520001766	2	1	107	3	go_reward	1	1	0	1	1	1	1	1.0	1.0	1	0.5977517999999691	0.3525009999866597	1631.038740299991	2031.950872699992	2032.958694400004	2033.3956354999973	2034.915637900005	2035.9410331000108	2036.9559355000088	2037.983099800011	2038.9962191999948	2040.3771251	2019-12-21 09:45:40.473253	24.5222424691451	12.9907917541075	6.96691663415682	13.6653924312913	31.489159103302	6.96691663415682	-24.5222424691451	12.9907917541075	6.96691663415682	31.489159103302	6.96691663415682	12.977063844932301	16.995861557663382	10.118399326269435	10.069037007884992	14.553728695245114	30.195961169666557	10.069037007884992	13.486532255968964	28.630429867607507	11.634568309944056	14.453396551090187	5.734039783064249	4	correct	1.0
409.3540104999847	9.588223200000357	nogo_reward	0.273547899996629	409.3637059000032	411.8580447999998	414.40394570000376	2.494338899996592	410.3828497000218	413.3898055000177	417.4611112000132	1.4751950999780092	1.014140199986059	1.4908178999903612	416.4481604000032	0.4809162000019569	415.417750399997	2	1	108	4	nogo_reward	0	1	0	0	1	0	0	0.0	1.0	1	0.273547899996629	0.4809162000019569	1631.038740299991	2040.4024461999943	2041.4215900000129	2042.896785099991	2044.4285458000088	2045.4426859999949	2046.456490699988	2047.4869006999943	2048.4998515000043	2049.9906693999947	2019-12-21 09:45:40.473253	5.40340986562067	5.54179699269484	9.58332698694571	7.21281816572873	14.9867368525664	9.58332698694571	-5.40340986562067	5.54179699269484	9.58332698694571	14.9867368525664	9.58332698694571	20.42605860634496	-2.122971045861048	2.6694045648567744	12.685447360673884	8.101154429682543	13.693538918930956	12.685447360673884	20.93552701738162	12.128007616871908	14.250978662732948	7.004401789677527	8.35045013585314	4	correct	1.0
418.9875453999848	9.194680300017808	nogo_punish	1.0	418.9972408000033	421.7010332000207	424.2311529000001	2.7037924000173916	419.9914988999956	423.216643299995	427.28734170002303	1.7095343000250978	1.0145096000051126	0.904579399998056	426.2743442000067	0.5105309000064153	425.24612340002227	2	1	109	2	nogo_punish	0	0	-1	0	0	1	0	0.0	1.0	-1	1.0	0.5105309000064153	1631.038740299991	2050.0359810999944	2051.0302391999867	2052.739773500012	2054.255383599986	2055.269893199991	2056.2848637000134	2057.313084499998	2058.326082000014	2059.230661400012	2019-12-21 09:45:40.473253	3.68862354533369	-1.93851245932806	-1.3352391735214	-1.89456141767264	-5.02386271885509	-1.3352391735214	-3.68862354533369	-1.3352391735214	-1.93851245932806	-1.3352391735214	-5.02386271885509	-35.5987409331519	-3.837757366148028	-4.810904887166125	1.7668812002067726	-1.0062251537188267	-6.317060652490534	1.7668812002067726	-35.08927252211524	-4.193968409215892	-0.3562110430678542	0.12736562346128721	-3.1713893104206305	4	correct	1.0
428.2227423999866	8.308688099990832	nogo_punish	1.0	428.2324378000051	430.014751400013	432.5490136000151	1.7823136000079103	429.23423600001865	431.5278225000077	435.5883543000093	0.7805153999943286	1.0211911000073997	0.9527715999865904	434.58419930000696	0.4026078000024427	433.56506180000747	2	1	110	2	nogo_punish	1	-1	0	0	0	1	0	0.0	1.0	0	1.0	0.4026078000024427	1631.038740299991	2059.271178099996	2060.2729763000098	2061.053491700004	2062.566562799999	2063.587753900006	2064.6038020999986	2065.622939599998	2066.6270946000004	2067.579866199987	2019-12-21 09:45:40.473253	4.36088460729499	-1.93851245932806	-3.19855077577889	-3.72967809185213	-7.55943538307388	-3.19855077577889	-4.36088460729499	-3.19855077577889	-1.93851245932806	-3.19855077577889	-7.55943538307388	3.19855077577889	-3.1654963041867283	-4.810904887166125	-0.0964304020507174	-2.841341827898317	-8.852633316709323	-0.0964304020507174	3.7080191868155525	-6.057280011473383	-2.8917837072866437	-1.7359459787962028	-3.1713893104206305	4	correct	1.0
436.5742865999928	9.263886500004446	nogo_punish	1.0	436.58398200001125	438.806611200009	441.3328430000113	2.2226291999977548	437.5808363000108	440.31304639999894	444.3829188999955	1.225774899998214	1.0197966000123415	1.4649496000201907	443.3791679000135	0.4690932999947108	442.3516250000105	2	1	111	2	nogo_punish	1	-1	0	0	0	1	1	1.0	1.0	0	1.0	0.4690932999947108	1631.038740299991	2067.6227223000024	2068.619576600002	2069.8453515	2071.35178669999	2072.3715833000024	2073.3903653000016	2074.4179082000046	2075.4216591999866	2076.886608800007	2019-12-21 09:45:40.473253	4.2271808918314	-1.93851245932806	-2.94995186720524	-3.45512765847991	-7.17713275903664	-2.94995186720524	-4.2271808918314	-2.94995186720524	-1.93851245932806	-2.94995186720524	-7.17713275903664	2.94995186720524	-3.2992000196503186	-4.810904887166125	0.15216850652293257	-2.566791394526097	-8.470330692672084	0.15216850652293257	3.459420278241902	-5.808681102899732	-2.509481083249404	-1.4873470702225529	-3.1713893104206305	4	correct	1.0
445.86552219997975	8.992818099999567	go_punish	1.0	445.8752175999982	447.88122840001665	450.41590230001	2.00601080001843	446.8822059000088	449.39248619999876	453.47712150000757	0.9990225000078681	1.023416100011218	1.3909141999902204	452.45826919999695	0.3435955999884754	451.4299950000134	2	1	112	1	go_punish	1	0	-1	1	0	0	0	0.0	1.0	-1	1.0	0.3435955999884754	1631.038740299991	2076.9139578999893	2077.9209462	2078.9199687000078	2080.43122649999	2081.454642600001	2082.4687353000045	2083.497009499988	2084.5158617999987	2085.906775999989	2019-12-21 09:45:40.473253	6.69372002147681	0.0	-17.3287465387986	-17.2108382467922	-24.0224665602754	-17.3287465387986	-6.69372002147681	-17.3287465387986	0.0	-17.3287465387986	-24.0224665602754	-19.605233567874702	-0.8326608900049086	-2.8723924278380655	-14.226626165070428	-16.322501982838386	-25.315664493910845	-14.226626165070428	-19.09576515683804	-20.187475774493095	-19.354814884488164	-15.866141741815914	-1.2328768510925705	4	correct	1.0
454.9031202000042	8.530390399974294	nogo_punish	1.0	454.91281560002267	456.38781519999634	458.91762330001825	1.4749995999736711	455.9185545000071	457.9005986000127	461.9771641000118	0.46926069998926323	1.0170247000055497	1.4660418999851572	460.9641686000107	0.5146617999998853	459.93591060000495	2	1	113	2	nogo_punish	1	-1	0	0	0	1	1	0.0	0.0	0	1.0	0.5146617999998853	1631.038740299991	2085.951555900014	2086.957294799998	2087.4265554999874	2088.939338900004	2089.9563636000094	2090.974650899996	2092.002908900002	2093.015904400003	2094.481946299988	2019-12-21 09:45:40.473253	4.10821986016413	-1.93851245932806	-2.72959859740152	-3.21082569800187	-6.83781845756565	-2.72959859740152	-4.10821986016413	-2.72959859740152	-1.93851245932806	-2.72959859740152	-6.83781845756565	2.72959859740152	-3.418161051317588	-4.810904887166125	0.3725217763266526	-2.3224894340480566	-8.131016391201094	0.3725217763266526	3.239067008438182	-5.588327833096012	-2.1701667817784136	-1.2669938004188328	-3.1713893104206305	4	wrong	1.0
463.47917119998647	8.690027700009068	go_reward	0.2459888999874238	463.48886660000494	465.1717299000013	467.72660620001284	1.6828632999963702	464.4846895000089	466.70321700000227	470.7639195000231	0.6870403999923838	1.0233892000105698	1.4149747999908868	469.75049210002203	0.3035432000178844	468.7322073999969	2	1	114	3	go_reward	1	1	0	1	1	1	0	0.0	1.0	1	0.2459888999874238	0.3035432000178844	1631.038740299991	2094.527606899996	2095.5234298	2096.2104701999924	2097.7419572999934	2098.765346500004	2099.770947699988	2100.789232400013	2101.802659800014	2103.217634600005	2019-12-21 09:45:40.473253	26.6762013656048	13.9063301132226	6.96691663415682	14.5566685368076	33.6431179997616	6.96691663415682	-26.6762013656048	13.9063301132226	6.96691663415682	33.6431179997616	6.96691663415682	12.061525485817201	19.14982045412308	11.033937685384535	10.069037007884992	15.445004800761414	32.34992006612616	10.069037007884992	12.570993896853864	30.784388764067106	11.634568309944056	15.368934910205287	5.734039783064249	4	correct	1.0
472.19526279999945	9.070988399995713	go_punish	1.0	472.2049582000179	474.9385818000012	477.4772233999977	2.733623599983275	473.2139015000141	476.4570605000192	480.5182129000025	1.7246802999870852	1.0201628999784589	0.7577337000111584	479.50547669999673	0.0302058999950531	478.4860544000114	2	1	115	1	go_punish	0	-1	0	1	0	0	0	0.0	1.0	0	1.0	0.0302058999950531	1631.038740299991	2103.243698500009	2104.252641800005	2105.9773220999923	2107.4958008000103	2108.515963699989	2109.5247947000025	2110.544216999988	2111.5569531999936	2112.3146869000047	2019-12-21 09:45:40.473253	6.99470698661686	0.0	-18.0969693612058	-17.9872588750425	-25.0916763478227	-18.0969693612058	-6.99470698661686	-18.0969693612058	0.0	-18.0969693612058	-25.0916763478227	18.0969693612058	-0.5316739248648581	-2.8723924278380655	-14.994848987477628	-17.098922611088685	-26.384874281458142	-14.994848987477628	18.60643777224246	-20.955698596900294	-20.42402467203546	-16.634364564223112	-1.2328768510925705	4	correct	1.0
481.2900370999996	7.715896299981978	nogo_reward	0.270844600017881	481.2997325000181	482.669851400017	485.1970442000022	1.3701188999989427	482.3108269000079	484.17612270000996	488.25078880001115	0.3590245000091272	1.0209214999922551	0.764839999988908	487.24767219999944	0.7724336000101175	486.2193004000003	2	1	116	4	nogo_reward	1	0	1	0	1	0	0	0.0	1.0	0	0.270844600017881	0.7724336000101175	1631.038740299991	2112.338472800009	2113.349567199999	2113.708591700008	2115.214863000001	2116.2357844999933	2117.2580406999914	2118.2864124999905	2119.2895291000023	2120.054369099991	2019-12-21 09:45:40.473253	9.65612552376678	7.39032571498486	9.58332698694571	8.92129963272008	19.2394525107125	9.58332698694571	-9.65612552376678	7.39032571498486	9.58332698694571	19.2394525107125	9.58332698694571	-7.39032571498486	2.1297446122850623	4.5179332871467945	12.685447360673884	9.809635896673894	17.946254577077056	12.685447360673884	-6.880857303948197	16.380723275018006	14.250978662732948	8.852930511967546	8.35045013585314	4	correct	1.0
489.0308815999888	8.652975800010609	nogo_reward	0.3675805999955628	489.04057700000726	490.6140578000052	493.16545390000124	1.573480799997924	490.0525160999971	492.14562409999803	496.2159533000088	0.5615417000080924	1.0198298000032082	1.4775995000090916	495.2025562000056	0.4016886999888811	494.1750598000074	2	1	117	4	nogo_reward	1	0	1	0	1	0	0	0.0	1.0	0	0.3675805999955628	0.4016886999888811	1631.038740299991	2120.0793172999984	2121.091256399988	2121.6527980999963	2123.184364399989	2124.2041941999923	2125.2138000999985	2126.2412964999967	2127.2546936	2128.732293100009	2019-12-21 09:45:40.473253	7.45536492349897	6.54871169960206	9.58332698694571	7.95554384226493	17.0386919104447	9.58332698694571	-7.45536492349897	6.54871169960206	9.58332698694571	17.0386919104447	9.58332698694571	-6.54871169960206	-0.07101598798274811	3.6763192717639943	12.685447360673884	8.843880106218744	15.745493976809257	12.685447360673884	-6.039243288565397	14.17996267475021	14.250978662732948	8.011316496584747	8.35045013585314	4	correct	1.0
497.71137229999295	8.276157499989495	go_punish	1.0	497.7210677000114	499.0053682000146	501.5416403000129	1.2843005000031553	498.72231650000344	500.52196660000504	504.5981166000131	0.28305170001112856	1.0196737000078429	1.3991085999878123	503.5936004999969	0.2295085999940056	502.5651821000213	2	1	118	1	go_punish	0	-1	0	1	0	0	0	0.0	1.0	0	1.0	0.2295085999940056	1631.038740299991	2128.7598080000025	2129.7610567999945	2130.0441085000057	2131.560706899996	2132.580380600004	2133.6039224000124	2134.632340799988	2135.636856900004	2137.035965499992	2019-12-21 09:45:40.473253	6.53248992864017	0.0	-16.867475216882	-16.7651664944076	-23.3999651455222	-16.867475216882	-6.53248992864017	-16.867475216882	0.0	-16.867475216882	-23.3999651455222	16.867475216882	-0.9938909828415481	-2.8723924278380655	-13.765354843153826	-15.876830230453788	-24.693163079157642	-13.765354843153826	17.37694362791866	-19.726204452576493	-18.73231346973496	-15.404870419899312	-1.2328768510925705	4	correct	1.0
506.0115857999772	8.617472200014163	nogo_reward	0.2436392999952659	506.02128119999566	507.9381227999986	510.48634450000895	1.9168416000029538	507.03247040000883	509.4657375999966	513.5293917999954	0.9056523999897763	1.0206069000123534	1.109361600014381	512.5161702000189	0.4300295000139158	511.5046906000059	2	1	119	4	nogo_reward	1	0	1	0	1	0	1	0.0	0.0	0	0.2436392999952659	0.4300295000139158	1631.038740299991	2137.0600214999868	2138.0712107	2138.9768630999897	2140.5044778999877	2141.5250848	2142.543430899997	2143.55491050001	2144.5681320999865	2145.677493700001	2019-12-21 09:45:40.473253	5.5487914835915	5.81999980322729	9.58332698694571	7.11652248069471	15.1321184705372	9.58332698694571	-5.5487914835915	5.81999980322729	9.58332698694571	15.1321184705372	9.58332698694571	-5.81999980322729	-1.9775894278902184	2.9476073753892247	12.685447360673884	8.004858744648523	13.838920536901757	12.685447360673884	-5.310531392190628	12.273389234842709	14.250978662732948	7.282604600209977	8.35045013585314	4	wrong	1.0
514.6767288999986	9.619709799997054	go_reward	0.2398698999895714	514.686424300017	517.3026199000017	519.8465493000115	2.6161955999846214	515.6943268000034	518.8307590000047	522.900495500013	1.6082930999982636	1.0157903000067563	1.4056386000011116	521.8870250000039	0.4556718000094406	520.8580828999986	2	1	120	3	go_reward	1	1	0	1	1	1	0	0.0	1.0	1	0.2398698999895714	0.4556718000094406	1631.038740299991	2145.725164600008	2146.7330670999945	2148.341360199993	2149.869499299996	2150.8852896000026	2151.8968231999897	2152.925765299995	2153.939235800004	2155.344874400005	2019-12-21 09:45:40.473253	28.5874579775021	14.7211362632357	6.96691663415682	15.3474161092826	35.5543746116589	6.96691663415682	-28.5874579775021	14.7211362632357	6.96691663415682	35.5543746116589	6.96691663415682	11.246719335804102	21.06107706602038	11.848743835397634	10.069037007884992	16.235752373236412	34.26117667802346	10.069037007884992	11.756187746840764	32.69564537596441	11.634568309944056	16.183741060218388	5.734039783064249	4	correct	1.0
