onset	duration	trial_type	response_time	cueOnset	targetOnset	fbOnset	cueRT	firstfixOnset	secondfixOnset	waitOnset	firstfixdur	secondfixdur	waitdur	nback_fbOnset	nback_response_time	nback_targetOnset	block	wm	trial	cue	cond	is_common	outcome_go	outcome_nogo	key_correct	key_pressed	is_correct	key_correct_nback	key_pressed_nback	is_correct_nback	outcome	rt	rt_nback	time_scan	time_onset	time_isi1	time_circle	time_isi2	time_feedback	time_same	time_correct	time_iti	time_done	timestamp_scan	DV	Qgo	Qnogo	SV	Wgo	Wnogo	mDV	Qchosen	Qunchosen	Wchosen	Wunchosen	PE	DVC	QgoC	QnogoC	SVC	WgoC	WnogoC	PEC	WchosenC	WunchosenC	QchosenC	QunchosenC	run	outcome_nback	nback_targetResp
0.0	6.846804999979213	nogo_punish	1.0	0.028517700033262372	2.0165967000066303	4.557343300024058	1.988078999973368	1.0324382000253536	3.532808800053317	5.555021100037266	0.9841584999812767	1.0245344999707413	1.3203015999752097	n/a	1.0	n/a	2	0	61	3	nogo_punish	0	0	-1	0	0	1	0	n/a	n/a	-1	1.0	1.0	2237.88732899999	2237.9158467000234	2238.9197672000155	2239.9039256999968	2241.4201378000434	2242.444672300014	n/a	n/a	2243.4423501000274	2244.7626517000026	2020-09-22 11:24:01.561593	6.41700232378586	-9.63352538445382	-2.70405187868653	-2.70465527678078	-9.12105420247239	-2.70405187868653	-6.41700232378586	-2.70405187868653	-9.63352538445382	-2.70405187868653	-9.12105420247239	-8.87834505780487	2.7893724125329635	-9.500080318853461	-1.3383414725205147	-3.081787879536924	-9.95273434090934	-1.3383414725205147	-8.5003673266168	-4.250851700448446	-7.040224112981408	-3.3437352429443523	-7.4946865484296215	4	missed	0.0
6.894137599971145	6.09774070000276	go_reward	0.3795454000355676	6.922655300004408	8.425723000021662	10.967517200042494	1.5030677000172545	7.9363090000115335	9.943639800010715	11.978494300041348	0.4894140000101288	1.023877400031779	1.0419016999658197	n/a	1.0	n/a	2	0	62	2	go_reward	1	1	0	1	1	1	0	n/a	n/a	1	0.3795454000355676	1.0	2237.88732899999	2244.8099842999945	2245.8236380000017	2246.313052000012	2247.830968800001	2248.8548462000326	n/a	n/a	2249.8658233000315	2250.9077249999973	2020-09-22 11:24:01.561593	12.3993254700484	9.55859881835176	0.0	9.55859881835176	12.3993254700484	0.0	-12.3993254700484	9.55859881835176	0.0	12.3993254700484	0.0	0.4281288774551406	8.771695558795503	9.692043883952119	1.3657104061660152	9.181466215595615	11.56764533161145	1.3657104061660152	0.8061066086432095	10.852525648286484	2.080830089490983	8.918915454093938	2.1388388360241994	4	missed	0.0
13.0362962000072	6.2094354999717325	nogo_punish	1.0	13.064813900040463	14.50777950003976	17.030879500031006	1.4429655999992974	14.07279380003456	16.017508000019006	18.038694200047757	0.43498570000519976	1.0133715000119992	1.2355551999644376	n/a	1.0	n/a	2	0	63	3	nogo_punish	1	-1	0	0	0	1	1	n/a	n/a	0	1.0	1.0	2237.88732899999	2250.9521429000306	2251.9601228000247	2252.39510850003	2253.904837000009	2254.918208500021	n/a	n/a	2255.926023200038	2257.1615784000023	2020-09-22 11:24:01.561593	1.98565867885382	-9.63352538445382	-8.11065939351785	-8.11101983480444	-10.0963180723717	-8.11065939351785	-1.98565867885382	-8.11065939351785	-9.63352538445382	-8.11065939351785	-10.0963180723717	8.11065939351785	-1.641971232399077	-9.500080318853461	-6.744948987351834	-8.488152437560585	-10.92799821080865	-6.744948987351834	8.48863712470592	-9.657459215279765	-8.015487982880718	-8.750342757775671	-7.4946865484296215	4	missed	0.0
19.29394170001615	6.580557499954011	nogo_punish	1.0	19.32245940004941	20.901737400039565	23.425742400053878	1.579277999990154	20.341635300021608	22.413124800019432	24.44039040000689	0.5601021000179571	1.0126176000344458	1.4626264999965315	n/a	1.0	n/a	2	0	64	3	nogo_punish	1	-1	0	0	0	1	0	n/a	n/a	0	1.0	1.0	2237.88732899999	2257.2097884000395	2258.2289643000117	2258.7890664000297	2260.3004538000096	2261.313071400044	n/a	n/a	2262.327719399997	2263.7903458999936	2020-09-22 11:24:01.561593	6.08444152106488	-9.63352538445382	-3.11596096535522	-3.11617986908383	-9.2004024864201	-3.11596096535522	-6.08444152106488	-3.11596096535522	-9.63352538445382	-3.11596096535522	-9.2004024864201	3.11596096535522	2.456811609811983	-9.500080318853461	-1.7502505591892048	-3.493312471839974	-10.032082624857049	-1.7502505591892048	3.493938696543289	-4.662760787117136	-7.119572396929117	-3.7556443296130424	-7.4946865484296215	4	missed	0.0
25.923380599997472	7.189945199992508	nogo_punish	1.0	25.951898300030734	28.243567200028338	30.7724559000344	2.291668899997603	26.969916100031696	29.753609900014	31.786349400004838	1.2736510999966413	1.0188460000204032	1.3554941000184044	n/a	1.0	n/a	2	0	65	3	nogo_punish	1	-1	0	0	0	1	1	n/a	n/a	0	1.0	1.0	2237.88732899999	2263.839227300021	2264.857245100022	2266.1308962000185	2267.640938900004	2268.6597849000245	n/a	n/a	2269.673678399995	2271.0291725000134	2020-09-22 11:24:01.561593	7.57006983805994	-9.63352538445382	-1.29385271379763	-1.2939878115047	-8.86392255185757	-1.29385271379763	-7.57006983805994	-1.29385271379763	-9.63352538445382	-1.29385271379763	-8.86392255185757	1.29385271379763	3.942439926807043	-9.500080318853461	0.07185769236838535	-1.6711204142608445	-9.69560269029452	0.07185769236838535	1.6718304449856989	-2.840652535559546	-6.783092462366588	-1.933536078055452	-7.4946865484296215	4	missed	0.0
33.14674960001139	6.875734200002626	go_punish	0.2451662999810651	33.17526730004465	35.58215010003187	38.139065900002606	2.4068827999872155	34.17099340003915	37.12488200003281	39.15068280004198	1.4111566999927163	1.0141838999697939	0.9003187000053003	n/a	1.0	n/a	2	0	66	4	go_punish	1	0	-1	1	1	1	0	n/a	n/a	0	0.2451662999810651	1.0	2237.88732899999	2271.062596300035	2272.0583224000293	2273.469479100022	2275.012211000023	2276.0263948999927	n/a	n/a	2277.038011800032	2277.9383305000374	2020-09-22 11:24:01.561593	-0.250866621116405	-7.00143012658279	-7.00143012658279	-7.00165489476233	-7.25229674769919	-7.00143012658279	0.250866621116405	-7.00143012658279	-7.00143012658279	-7.25229674769919	-7.00143012658279	7.00143012658279	-3.8784965323693017	-6.867985060982431	-5.635719720416774	-7.378787497518474	-8.08397688613614	-5.635719720416774	7.379407857770858	-8.799096569461106	-4.920600037091807	-7.6411134908406115	-4.862591290558591	4	missed	0.0
40.06918459996814	7.537655100052234	go_reward	0.253785400011111	40.0977023000014	42.586554100038484	45.143666100047994	2.4888518000370823	41.102114300010726	44.11967189999996	46.15486680000322	1.4844398000277579	1.0239942000480369	1.480490600050416	n/a	1.0	n/a	2	0	67	2	go_reward	1	1	0	1	1	1	0	n/a	n/a	1	0.253785400011111	1.0	2237.88732899999	2277.9850312999915	2278.989443300001	2280.4738831000286	2282.00700089999	2283.030995100038	n/a	n/a	2284.0421957999934	2285.5226864000438	2020-09-22 11:24:01.561593	12.67701042326	9.7905901700204	0.0	9.7905901700204	12.67701042326	0.0	-12.67701042326	9.7905901700204	0.0	12.67701042326	0.0	0.1961375257865008	9.049380512007104	9.924035235620758	1.3657104061660152	9.413457567264254	11.845330284823051	1.3657104061660152	0.5741152569745697	11.130210601498085	2.080830089490983	9.150906805762578	2.1388388360241994	4	missed	0.0
47.63640999997733	6.753873100039073	nogo_reward	0.2939023000071756	47.664927700010594	49.66847240005154	52.21079970005667	2.0035447000409476	48.66238930000691	51.186787900049694	53.22285940003394	1.0060831000446342	1.0240118000069742	1.1959414000157267	n/a	1.0	n/a	2	0	68	1	nogo_reward	0	1	0	0	1	0	0	n/a	n/a	1	0.2939023000071756	1.0	2237.88732899999	2285.5522567000007	2286.549718299997	2287.5558014000417	2289.07411690004	2290.098128700047	n/a	n/a	2291.110188400024	2292.30612980004	2020-09-22 11:24:01.561593	1.2354270703412	0.181421955846882	0.0	0.181421955846882	1.2354270703412	0.0	-1.2354270703412	0.181421955846882	0.0	1.2354270703412	0.0	9.805305739960017	-2.392202840911697	0.31486702144724144	1.3657104061660152	-0.1957106469092623	0.40374693190425004	1.3657104061660152	10.183283471148087	-0.3113727514207161	2.080830089490983	-0.4582614084109402	2.1388388360241994	4	missed	0.0
54.42078009998659	7.285224899998866	nogo_reward	0.3228417999926023	54.44929780001985	57.4085162000265	59.962389899999835	2.959218400006648	55.45469440001807	58.940992600051686	60.97581430000719	1.953821800008427	1.0213972999481484	0.7587084000115283	n/a	1.0	n/a	2	0	69	1	nogo_reward	1	0	1	0	1	0	0	n/a	n/a	0	0.3228417999926023	1.0	2237.88732899999	2292.33662680001	2293.342023400008	2295.2958452000166	2296.828321600042	2297.84971889999	n/a	n/a	2298.8631432999973	2299.621851700009	2020-09-22 11:24:01.561593	8.29871685225975	6.12433316959916	0.0	6.12433316959916	8.29871685225975	0.0	-8.29871685225975	6.12433316959916	0.0	8.29871685225975	0.0	-6.12433316959916	4.671086941006853	6.257778235199519	1.3657104061660152	5.7472005668430155	7.467036713822799	1.3657104061660152	-5.746355438411091	6.751917030497833	2.080830089490983	5.484649805341338	2.1388388360241994	4	missed	0.0
61.752539700013585	7.114952699979767	nogo_punish	1.0	61.78105740004685	64.12830970005598	66.6510967000504	2.3472523000091314	62.7727405000478	65.64130100002558	67.65835670003435	1.3555692000081763	1.0097957000248243	1.2376533999922685	n/a	1.0	n/a	2	0	70	3	nogo_punish	1	-1	0	0	0	1	0	n/a	n/a	0	1.0	1.0	2237.88732899999	2299.668386400037	2300.660069500038	2302.015638700046	2303.5286300000157	2304.5384257000405	n/a	n/a	2305.5456857000245	2306.7833391000167	2020-09-22 11:24:01.561593	8.15710364642812	-9.63352538445382	-0.570018441492408	-0.570103125300982	-8.72712208792053	-0.570018441492408	-8.15710364642812	-0.570018441492408	-9.63352538445382	-0.570018441492408	-8.72712208792053	0.570018441492408	4.529473735175222	-9.500080318853461	0.7956919646736073	-0.9472357280571262	-9.558802226357479	0.7956919646736073	0.9479961726804769	-2.116818263254324	-6.646291998429547	-1.2097018057502302	-7.4946865484296215	4	missed	0.0
68.91107279999369	7.7107556000119075	nogo_punish	1.0	68.93959050002695	71.77433640003437	74.29491770005552	2.8347459000074196	69.94688510004198	73.27807210001629	75.29762580001261	1.82745129999239	1.0168456000392325	1.3527203000262489	n/a	1.0	n/a	2	0	71	3	nogo_punish	0	0	-1	0	0	1	0	n/a	n/a	-1	1.0	1.0	2237.88732899999	2306.826919500017	2307.834214100032	2309.6616654000245	2311.1654011000064	2312.1822467000457	n/a	n/a	2313.1849548000027	2314.537675100029	2020-09-22 11:24:01.561593	8.40482611716533	-9.63352538445382	-0.26321512067175	-0.263269006540079	-8.66804123783708	-0.26321512067175	-8.40482611716533	-0.26321512067175	-9.63352538445382	-0.26321512067175	-8.66804123783708	-11.319181815819649	4.777196205912433	-9.500080318853461	1.1024952854942653	-0.6404016092962233	-9.49972137627403	1.1024952854942653	-10.941204084631579	-1.810014942433666	-6.587211148346098	-0.9028984849295723	-7.4946865484296215	4	missed	0.0
76.65187130001141	7.161654499999713	nogo_reward	0.2742984999786131	76.68038900004467	79.40398270002288	81.94134100002702	2.7235936999782098	77.67919690004783	80.9224028000026	82.95197800005553	1.7247857999750522	1.0189382000244223	0.8900654999888502	n/a	1.0	n/a	2	0	72	1	nogo_reward	0	1	0	0	1	0	0	n/a	n/a	1	0.2742984999786131	1.0	2237.88732899999	2314.567718000035	2315.566525900038	2317.291311700013	2318.8097317999927	2319.828670000017	n/a	n/a	2320.8393070000457	2321.7293725000345	2020-09-22 11:24:01.561593	3.77570322841715	2.3122950354395	0.0	2.3122950354395	3.77570322841715	0.0	-3.77570322841715	2.3122950354395	0.0	3.77570322841715	0.0	7.6744326603674	0.1480733171642532	2.4457401010398594	1.3657104061660152	1.9351624326833556	2.9440230899802002	1.3657104061660152	8.052410391555469	2.228903406655234	2.080830089490983	1.6726116711816776	2.1388388360241994	4	missed	0.0
83.859514700016	6.520301699987613	nogo_punish	1.0	83.88803240004927	85.73595120001119	88.25926080002682	1.847918799961917	84.89456920005614	87.2390471000108	89.2737392000272	0.8413819999550469	1.0202137000160292	1.134594900009688	n/a	1.0	n/a	2	0	73	3	nogo_punish	1	-1	0	0	0	1	1	n/a	n/a	0	1.0	1.0	2237.88732899999	2321.7753614000394	2322.7818982000463	2323.6232802000013	2325.126376100001	2326.146589800017	n/a	n/a	2327.1610682000173	2328.295663100027	2020-09-22 11:24:01.561593	2.78197828053405	-9.63352538445382	-7.12777149341721	-7.12780628004163	-9.90974977395126	-7.12777149341721	-2.78197828053405	-7.12777149341721	-9.63352538445382	-7.12777149341721	-9.90974977395126	7.12777149341721	-0.8456516307188471	-9.500080318853461	-5.762061087251195	-7.5049388827977745	-10.74142991238821	-5.762061087251195	7.505749224605279	-8.674571315179126	-7.828919684460278	-7.767454857675032	-7.4946865484296215	4	missed	0.0
90.40760799997952	6.632116599997971	go_punish	0.2826527999714017	90.43612570001278	92.2865459000459	94.84048380004288	1.8504202000331134	91.44471300003397	93.82056520000287	95.84800050000194	0.8418329000119229	1.0199186000400005	1.2202418000088073	n/a	1.0	n/a	2	0	74	4	go_punish	1	0	-1	1	1	1	0	n/a	n/a	0	0.2826527999714017	1.0	2237.88732899999	2328.323454700003	2329.332042000024	2330.173874900036	2331.707894199993	2332.727812800033	n/a	n/a	2333.735329499992	2334.955571300001	2020-09-22 11:24:01.561593	4.89663792049778	-2.63209525787103	-7.00143012658279	-2.63223093097808	-2.104792206085	-7.00143012658279	-4.89663792049778	-2.63209525787103	-7.00143012658279	-2.104792206085	-7.00143012658279	2.63209525787103	1.2690080092448834	-2.4986501922706705	-5.635719720416774	-3.009363533734224	-2.93647234452195	-5.635719720416774	3.0100729890590987	-3.651592027846916	-4.920600037091807	-3.2717786221288523	-4.862591290558591	4	missed	0.0
97.0683211999708	6.366588100034733	go_punish	0.347649100003764	97.09683890000406	98.64964900002815	101.20310840004822	1.5528101000240895	98.09777160000567	100.18391160003375	102.21855720004532	0.5518774000224766	1.0191968000144698	1.2448697999934666	n/a	1.0	n/a	2	0	75	4	go_punish	1	0	-1	1	1	1	0	n/a	n/a	0	0.347649100003764	1.0	2237.88732899999	2334.984167899994	2335.985100599996	2336.5369780000183	2338.071240600024	2339.0904374000384	n/a	n/a	2340.1058862000355	2341.350756000029	2020-09-22 11:24:01.561593	6.74263996829225	-1.07222981529043	-7.00143012658279	-1.07231304591199	-0.258790158290533	-7.00143012658279	-6.74263996829225	-1.07222981529043	-7.00143012658279	-0.258790158290533	-7.00143012658279	1.07222981529043	3.1150100570393535	-0.9387847496900705	-5.635719720416774	-1.4494456486681344	-1.0904702967274829	-5.635719720416774	1.4502075464784987	-1.805589980052449	-4.920600037091807	-1.7119131795482523	-4.862591290558591	4	missed	0.0
103.48081899998942	7.572732400032237	go_reward	0.5188872999860905	103.50933670002269	106.06031730002724	108.60378070001025	2.55098060000455	104.51491110003553	107.59517750004306	109.61500680004247	1.545406199991703	1.0086031999671832	1.4670623000124579	n/a	1.0	n/a	2	0	76	2	go_reward	1	1	0	1	1	1	0	n/a	n/a	1	0.5188872999860905	1.0	2237.88732899999	2341.396665700013	2342.4022401000257	2343.9476463000174	2345.482506500033	2346.4911097000004	n/a	n/a	2347.5023358000326	2348.969398100045	2020-09-22 11:24:01.561593	12.8002022078252	9.89331855243138	0.0	9.89331855243138	12.8002022078252	0.0	-12.8002022078252	9.89331855243138	0.0	12.8002022078252	0.0	0.09340914337552064	9.172572296572302	10.026763618031739	1.3657104061660152	9.516185949675235	11.96852206938825	1.3657104061660152	0.4713868745635895	11.253402386063284	2.080830089490983	9.253635188173558	2.1388388360241994	4	missed	0.0
111.08134520001477	6.1956913999747485	go_punish	0.4308583000092767	111.10986290004803	112.39238620002288	114.93250819999957	1.282523299974855	112.1133374000201	113.92712890001758	115.94670100003759	0.27904880000278354	1.0053792999819962	1.358853299985185	n/a	1.0	n/a	2	0	77	4	go_punish	1	0	-1	1	1	1	1	n/a	n/a	0	0.4308583000092767	1.0	2237.88732899999	2348.997191900038	2350.0006664000102	2350.279715200013	2351.8144579000077	2352.8198371999897	n/a	n/a	2353.8340300000277	2355.192883300013	2020-09-22 11:24:01.561593	7.46468932443661	-0.46435612108194	-7.00143012658279	-0.464407988167454	0.463259197853821	-7.00143012658279	-7.46468932443661	-0.46435612108194	-7.00143012658279	0.463259197853821	-7.00143012658279	0.46435612108194	3.837059413183713	-0.3309110554815806	-5.635719720416774	-0.8415405909235982	-0.36842094058312896	-5.635719720416774	0.8423338522700089	-1.0835406239080951	-4.920600037091807	-1.1040394853397624	-4.862591290558591	4	missed	0.0
117.32253170001786	6.607765099965036	go_reward	0.3121441000257619	117.35104940005112	119.20919470000081	121.76744220004184	1.8581452999496832	118.35420930001419	120.7434907000279	122.77770800003782	0.8549853999866173	1.0239515000139363	1.1811064999783412	n/a	1.0	n/a	2	0	78	2	go_reward	1	1	0	1	1	1	1	n/a	n/a	1	0.3121441000257619	1.0	2237.88732899999	2355.2383784000413	2356.2415383000043	2357.096523699991	2358.630819700018	2359.654771200032	n/a	n/a	2360.665037000028	2361.8461435000063	2020-09-22 11:24:01.561593	12.8571897188109	9.9407645113216	0.0	9.9407645113216	12.8571897188109	0.0	-12.8571897188109	9.9407645113216	0.0	12.8571897188109	0.0	0.045963184485300346	9.229559807558005	10.074209576921959	1.3657104061660152	9.563631908565455	12.025509580373951	1.3657104061660152	0.4239409156733692	11.310389897048985	2.080830089490983	9.301081147063778	2.1388388360241994	4	missed	0.0
123.97668730001897	6.0674831999931484	nogo_punish	1.0	124.00520500005223	125.57118380005704	128.10308970004598	1.5659788000048138	125.01147250004578	127.09054510004353	129.10862220003037	0.5597113000112586	1.0125446000024567	0.9640660000150092	n/a	1.0	n/a	2	0	79	3	nogo_punish	1	-1	0	0	0	1	0	n/a	n/a	0	1.0	1.0	2237.88732899999	2361.8925340000424	2362.898801500036	2363.458512800047	2364.9778741000337	2365.990418700036	n/a	n/a	2366.9959512000205	2367.9600172000355	2020-09-22 11:24:01.561593	6.42420804773315	-9.63352538445382	-2.69476666452132	-2.69478943259546	-9.11897471225447	-2.69476666452132	-6.42420804773315	-2.69476666452132	-9.63352538445382	-2.69476666452132	-9.11897471225447	2.69476666452132	2.796578136480253	-9.500080318853461	-1.329056258355305	-3.071922035351604	-9.95065485069142	-1.329056258355305	3.072744395709389	-4.2415664862832365	-7.038144622763488	-3.3344500287791425	-7.4946865484296215	4	missed	0.0
130.07605139998486	7.034064200008288	nogo_reward	0.2684741000412032	130.10456910001813	132.52766650001286	135.07098920003045	2.423097399994731	131.10774080001283	134.04739230003906	136.08243890001904	1.4199257000000216	1.0235968999913894	1.0561944000073709	n/a	1.0	n/a	2	0	80	1	nogo_reward	0	1	0	0	1	0	0	n/a	n/a	1	0.2684741000412032	1.0	2237.88732899999	2367.9918981000083	2368.995069800003	2370.414995500003	2371.934721300029	2372.9583182000206	n/a	n/a	2373.969767900009	2375.0259623000165	2020-09-22 11:24:01.561593	9.32661806027781	6.98429331982828	0.0	6.98429331982828	9.32661806027781	0.0	-9.32661806027781	6.98429331982828	0.0	9.32661806027781	0.0	3.00243437597862	5.698988149024912	7.117738385428639	1.3657104061660152	6.607160717072136	8.49493792184086	1.3657104061660152	3.3804121071666886	7.779818238515893	2.080830089490983	6.3446099555704585	2.1388388360241994	4	missed	0.0
137.13959699997213	5.816206300049089	nogo_reward	0.6547346999868751	137.1681147000054	138.65050700004213	141.19844550004927	1.4823923000367358	138.17469030001666	140.17455070000187	142.20993990002898	0.4758167000254616	1.023894800047401	0.7743811000254937	n/a	1.0	n/a	2	0	81	1	nogo_reward	0	1	0	0	1	0	0	n/a	n/a	1	0.6547346999868751	1.0	2237.88732899999	2375.0554436999955	2376.062019300007	2376.5378360000323	2378.061879699992	2379.0857745000394	n/a	n/a	2380.097268900019	2380.8716500000446	2020-09-22 11:24:01.561593	11.3958986257818	8.72006658261194	0.0	8.72006658261194	11.3958986257818	0.0	-11.3958986257818	8.72006658261194	0.0	11.3958986257818	0.0	1.26666111319496	7.7682687145289036	8.853511648212299	1.3657104061660152	8.342933979855795	10.564218487344851	1.3657104061660152	1.6446388443830289	9.849098804019885	2.080830089490983	8.080383218354118	2.1388388360241994	4	missed	0.0
142.9837361999671	6.773287200019695	go_punish	0.3267170999897644	143.01225390000036	144.84752190002473	147.40317020000657	1.8352680000243708	144.00874720001593	146.38168470002665	148.4006080000545	0.8387747000087984	1.0214854999799172	1.384933099965565	n/a	1.0	n/a	2	0	82	4	go_punish	1	0	-1	1	1	1	0	n/a	n/a	0	0.3267170999897644	1.0	2237.88732899999	2380.8995828999905	2381.896076200006	2382.734850900015	2384.269013700017	2385.2904991999967	n/a	n/a	2386.2879370000446	2387.67287010001	2020-09-22 11:24:01.561593	7.76643457490741	-0.211096291837668	-7.00143012658279	-0.211129108560728	0.765004448324623	-7.00143012658279	-7.76643457490741	-0.211096291837668	-7.00143012658279	0.765004448324623	-7.00143012658279	0.211096291837668	4.138804663654513	-0.07765122623730861	-5.635719720416774	-0.5882617113168723	-0.06667569011232699	-5.635719720416774	0.5890740230257369	-0.7817953734372931	-4.920600037091807	-0.8507796560954902	-4.862591290558591	4	missed	0.0
149.78905389999272	6.37989350000862	nogo_reward	0.4720457000075839	149.81757160002599	151.19507740001427	153.72589050000533	1.3775057999882847	150.83729200001108	152.714214200038	154.73240360000636	0.3577854000031948	1.0116762999673483	1.4650615000282414	n/a	1.0	n/a	2	0	83	1	nogo_reward	1	0	1	0	1	0	1	n/a	n/a	0	0.4720457000075839	1.0	2237.88732899999	2387.704900600016	2388.724621000001	2389.0824064000044	2390.601543200028	2391.6132194999955	n/a	n/a	2392.6197325999965	2394.0847941000247	2020-09-22 11:24:01.561593	12.2338702865292	9.42107694002696	0.0	9.42107694002696	12.2338702865292	0.0	-12.2338702865292	9.42107694002696	0.0	12.2338702865292	0.0	-9.42107694002696	8.606240375276304	9.55452200562732	1.3657104061660152	9.043944337270815	11.40219014809225	1.3657104061660152	-9.04309920883889	10.687070464767285	2.080830089490983	8.781393575769139	2.1388388360241994	4	missed	0.0
156.19822690001456	6.426612099981867	nogo_reward	0.2917307000025175	156.22674460004782	158.2506021000445	160.80087340000318	2.023857499996666	157.22009380004602	159.7803771000472	161.8153657000512	1.0305082999984734	1.020496299955994	0.8379909999785013	n/a	1.0	n/a	2	0	84	1	nogo_reward	1	0	1	0	1	0	0	n/a	n/a	0	0.2917307000025175	1.0	2237.88732899999	2394.114073600038	2395.107422800036	2396.1379311000346	2397.6677061000373	2398.6882023999933	n/a	n/a	2399.7026947000413	2400.54068570002	2020-09-22 11:24:01.561593	5.41680892688383	3.68375729330989	0.0	3.68375729330989	5.41680892688383	0.0	-5.41680892688383	3.68375729330989	0.0	5.41680892688383	0.0	-3.68375729330989	1.7891790156309328	3.8172023589102495	1.3657104061660152	3.306624690553746	4.585128788446879	1.3657104061660152	-3.3057795621218213	3.8700091051219134	2.080830089490983	3.0440739290520678	2.1388388360241994	4	missed	0.0
162.6528263000073	6.881593799975235	go_punish	0.2596494000172242	162.68134400004055	165.0104813000071	167.55385400005616	2.3291372999665327	163.69075570005225	166.53365680004936	168.56846870004665	1.319725599954836	1.0201972000068054	0.9944690999691375	n/a	1.0	n/a	2	0	85	4	go_punish	1	0	-1	1	1	1	0	n/a	n/a	0	0.2596494000172242	1.0	2237.88732899999	2400.5686730000307	2401.5780847000424	2402.897810299997	2404.4209858000395	2405.4411830000463	n/a	n/a	2406.455797700037	2407.450266800006	2020-09-22 11:24:01.561593	7.89930468348547	-0.0998598861052554	-7.00143012658279	-0.0998809552505256	0.897874556902679	-7.00143012658279	-7.89930468348547	-0.0998598861052554	-7.00143012658279	0.897874556902679	-7.00143012658279	0.0998598861052554	4.271674772232573	0.033585179495104006	-5.635719720416774	-0.4770135580066699	0.06619441846572904	-5.635719720416774	0.4778376172933243	-0.6489252648592371	-4.920600037091807	-0.7395432503630777	-4.862591290558591	4	missed	0.0
169.57765679998556	7.370235899987165	go_reward	0.2666686000302434	169.60617450001882	172.31649430003017	174.86007690004772	2.710319800011348	170.61495060002198	173.8423102000379	175.87015260005091	1.7015437000081874	1.0177667000098154	1.106257799955074	n/a	1.0	n/a	2	0	86	2	go_reward	1	1	0	1	1	1	0	n/a	n/a	1	0.2666686000302434	1.0	2237.88732899999	2407.493503500009	2408.502279600012	2410.2038233000203	2411.729639200028	2412.747405900038	n/a	n/a	2413.757481600041	2414.863739399996	2020-09-22 11:24:01.561593	12.8844906886733	9.96346209747103	0.0	9.96346209747103	12.8844906886733	0.0	-12.8844906886733	9.96346209747103	0.0	12.8844906886733	0.0	0.023265598335870052	9.256860777420403	10.09690716307139	1.3657104061660152	9.586329494714885	12.05281055023635	1.3657104061660152	0.40124332952393893	11.337690866911384	2.080830089490983	9.323778733213208	2.1388388360241994	4	missed	0.0
176.99470330000622	7.786068299959425	go_reward	0.305518600041978	177.02322100003948	179.79149470000993	182.33296220004604	2.7682736999704503	178.0286775000277	181.3166008000262	183.3428354000207	1.762817199982237	1.0163614000198322	1.4664538999782053	n/a	1.0	n/a	2	0	87	2	go_reward	1	1	0	1	1	1	0	n/a	n/a	1	0.305518600041978	1.0	2237.88732899999	2414.9105500000296	2415.916006500018	2417.6788237	2419.2039298000163	2420.220291200036	n/a	n/a	2421.230164400011	2422.696618299989	2020-09-22 11:24:01.561593	12.8979688612447	9.9746523620146	0.0	9.9746523620146	12.8979688612447	0.0	-12.8979688612447	9.9746523620146	0.0	12.8979688612447	0.0	0.012075333792299858	9.270338949991803	10.10809742761496	1.3657104061660152	9.597519759258455	12.06628872280775	1.3657104061660152	0.39005306498036874	11.351169039482784	2.080830089490983	9.334968997756778	2.1388388360241994	4	missed	0.0
184.82628550002119	7.253401199996006	nogo_punish	1.0	184.85480320005445	187.07553200004622	189.5942778000026	2.2207287999917753	185.8593455000082	188.57821280002827	190.61308390001068	1.2161865000380203	1.0160649999743327	1.495120500039775	n/a	1.0	n/a	2	0	88	3	nogo_punish	0	0	-1	0	0	1	0	n/a	n/a	-1	1.0	1.0	2237.88732899999	2422.7421322000446	2423.7466744999983	2424.9628610000364	2426.4655418000184	2427.4816067999927	n/a	n/a	2428.500412900001	2429.9955334000406	2020-09-22 11:24:01.561593	7.72246523777009	-9.63352538445382	-1.10422443647902	-1.10423953392752	-8.82668967424911	-1.10422443647902	-7.72246523777009	-1.10422443647902	-9.63352538445382	-1.10422443647902	-8.82668967424911	-10.478172500012379	4.0948353265171935	-9.500080318853461	0.26148596968699533	-1.4813721366836643	-9.65836981268606	0.26148596968699533	-10.10019476882431	-2.651024258240936	-6.7458595847581275	-1.7439078007368423	-7.4946865484296215	4	missed	0.0
192.12472139997362	7.100443500036363	go_reward	0.3411371000111103	192.15323910000689	194.72987640002975	197.27959120000014	2.576637300022867	193.16023380000843	196.25592090003192	198.28385810001055	1.569642600021325	1.0236702999682166	0.9698245000327006	n/a	1.0	n/a	2	0	89	2	go_reward	1	1	0	1	1	1	1	n/a	n/a	1	0.3411371000111103	1.0	2237.88732899999	2430.040568099997	2431.0475627999986	2432.61720540002	2434.143249900022	2435.1669201999903	n/a	n/a	2436.1711871000007	2437.1410116000334	2020-09-22 11:24:01.561593	12.9048010183544	9.98031682004788	0.0	9.98031682004788	12.9048010183544	0.0	-12.9048010183544	9.98031682004788	0.0	12.9048010183544	0.0	0.006410875759019774	9.277171107101502	10.11376188564824	1.3657104061660152	9.603184217291735	12.07312087991745	1.3657104061660152	0.38438860694708865	11.358001196592484	2.080830089490983	9.340633455790059	2.1388388360241994	4	missed	0.0
199.27027490001683	6.192669399955321	go_reward	0.3949248000280931	199.2987926000501	200.7251576000126	203.2682824000367	1.4263649999625159	200.30465250002453	202.24392880004598	204.27160640002694	0.42050509998807684	1.024353599990718	1.219855599978473	n/a	1.0	n/a	2	0	90	2	go_reward	1	1	0	1	1	1	0	n/a	n/a	1	0.3949248000280931	1.0	2237.88732899999	2437.18612160004	2438.1919815000147	2438.6124866000027	2440.131257800036	2441.155611400027	n/a	n/a	2442.158935400017	2443.3787909999955	2020-09-22 11:24:01.561593	12.9083473285291	9.9832525208003	0.0	9.9832525208003	12.9083473285291	0.0	-12.9083473285291	9.9832525208003	0.0	12.9083473285291	0.0	0.0034751750066011056	9.280717417276204	10.116697586400658	1.3657104061660152	9.606119918044154	12.07666719009215	1.3657104061660152	0.38145290619467	11.361547506767185	2.080830089490983	9.343569156542477	2.1388388360241994	4	missed	0.0
205.49536060000537	6.698639900016133	nogo_reward	0.4275153999915346	205.52387830003863	207.24460030003684	209.77647740003886	1.7207219999982044	206.52786620002007	208.76298830000405	210.78185000002804	0.7167341000167653	1.0134891000348034	1.440668200026721	n/a	1.0	n/a	2	0	91	1	nogo_reward	1	0	1	0	1	0	0	n/a	n/a	0	0.4275153999915346	1.0	2237.88732899999	2443.4112073000288	2444.41519520001	2445.131929300027	2446.650317299994	2447.663806400029	n/a	n/a	2448.669179000018	2450.109847200045	2020-09-22 11:24:01.561593	2.87238486963462	1.54932486364145	0.0	1.54932486364145	2.87238486963462	0.0	-2.87238486963462	1.54932486364145	0.0	2.87238486963462	0.0	-1.54932486364145	-0.7552450416182768	1.6827699292418095	1.3657104061660152	1.1721922608853057	2.0407047311976703	1.3657104061660152	-1.171347132453381	1.325585047872704	2.080830089490983	0.9096414993836278	2.1388388360241994	4	missed	0.0
212.22249319998082	6.357867199985776	go_punish	0.3735500000184402	212.25101090001408	213.647563000035	216.1945870000054	1.3965521000209264	213.250581100001	215.1743231000146	217.20890310005052	0.3969819000340067	1.0202638999908231	1.399974999949336	n/a	1.0	n/a	2	0	92	4	go_punish	1	0	-1	1	1	1	0	n/a	n/a	0	0.3735500000184402	1.0	2237.88732899999	2450.138339900004	2451.137910099991	2451.534892000025	2453.0616521000047	2454.0819159999955	n/a	n/a	2455.0962321000407	2456.49620709999	2020-09-22 11:24:01.561593	7.96036339779527	-0.0488553947983324	-7.00143012658279	-0.0488691122774787	0.958933271212486	-7.00143012658279	-7.96036339779527	-0.0488553947983324	-7.00143012658279	0.958933271212486	-7.00143012658279	0.0488553947983324	4.332733486542373	0.084589670802027	-5.635719720416774	-0.426001715033623	0.12725313277553596	-5.635719720416774	0.4268331259864013	-0.5878665505494302	-4.920600037091807	-0.6885387590561547	-4.862591290558591	4	missed	0.0
218.61187869997275	6.372713400050543	nogo_reward	0.3501981000299565	218.640396400006	220.29984250001144	222.83898850000696	1.6594461000054253	219.64500350004528	221.81855410005664	223.85354480001888	0.6548389999661595	1.020434399950318	1.1595650000376736	n/a	1.0	n/a	2	0	93	1	nogo_reward	1	0	1	0	1	0	1	n/a	n/a	0	0.3501981000299565	1.0	2237.88732899999	2456.527725399996	2457.5323325000354	2458.1871715000016	2459.705883100047	2460.726317499997	n/a	n/a	2461.740873800009	2462.9004388000467	2020-09-22 11:24:01.561593	1.84377809218718	0.688724942841942	0.0	0.688724942841942	1.84377809218718	0.0	-1.84377809218718	0.688724942841942	0.0	1.84377809218718	0.0	-0.688724942841942	-1.7838518190657169	0.8221700084423014	1.3657104061660152	0.31159234008579767	1.0120979537502302	1.3657104061660152	-0.3107472116538731	0.2969782704252639	2.080830089490983	0.04904157858411973	2.1388388360241994	4	missed	0.0
225.03033659997163	6.417343800014351	go_reward	0.5523769000428729	225.0588543000049	226.41277280001668	228.96124240005156	1.3539185000117868	226.0553012000164	227.9471764000482	229.9745227000094	0.3574716000002809	1.0140660000033677	1.5016754000098445	n/a	1.0	n/a	2	0	94	2	go_reward	0	0	1	1	1	1	0	n/a	n/a	0	0.5523769000428729	1.0	2237.88732899999	2462.946183299995	2463.9426302000065	2464.300101800007	2465.8345054000383	2466.8485714000417	n/a	n/a	2467.8618516999995	2469.3635271000094	2020-09-22 11:24:01.561593	12.9102283501277	9.98480693993595	0.0	9.98480693993595	12.9102283501277	0.0	-12.9102283501277	9.98480693993595	0.0	12.9102283501277	0.0	-9.98480693993595	9.282598438874803	10.11825200553631	1.3657104061660152	9.607674337179805	12.07854821169075	1.3657104061660152	-9.60682920874788	11.363428528365784	2.080830089490983	9.345123575678128	2.1388388360241994	4	missed	0.0
231.49249630002305	7.4131953999749385	go_reward	0.2937035000068135	231.5210140000563	233.9953212000546	236.539408800018	2.474307199998293	232.528238400002	235.5151588000008	237.5495145000168	1.4670828000525944	1.0242500000172186	1.3846949000144377	n/a	1.0	n/a	2	0	95	2	go_reward	1	1	0	1	1	1	0	n/a	n/a	1	0.2937035000068135	1.0	2237.88732899999	2469.4083430000464	2470.415567399992	2471.8826502000447	2473.402487799991	2474.426737800008	n/a	n/a	2475.436843500007	2476.8215384000214	2020-09-22 11:24:01.561593	5.73304164476866	3.94686645990656	0.0	3.94686645990656	5.73304164476866	0.0	-5.73304164476866	3.94686645990656	0.0	5.73304164476866	0.0	6.03986123590034	2.105411733515763	4.08031152550692	1.3657104061660152	3.569733857150416	4.9013615063317095	1.3657104061660152	6.417838967088409	4.1862418230067435	2.080830089490983	3.3071830956487376	2.1388388360241994	4	missed	0.0
238.93303640000522	5.789500999962911	go_punish	0.8189733999897726	238.96155410003848	240.4311648000148	242.9775400000508	1.4696106999763288	239.96379760000855	241.95596590003697	243.99113590002526	0.4673672000062652	1.0215741000138223	0.7599191999761388	n/a	1.0	n/a	2	0	96	4	go_punish	1	0	-1	1	1	1	0	n/a	n/a	0	0.8189733999897726	1.0	2237.88732899999	2476.8488831000286	2477.8511265999987	2478.318493800005	2479.843294900027	2480.864869000041	n/a	n/a	2481.8784649000154	2482.6383840999915	2020-09-22 11:24:01.561593	7.98944579090084	-0.0246105296297892	-7.00143012658279	-0.0246195802247829	0.988015664318052	-7.00143012658279	-7.98944579090084	-0.0246105296297892	-7.00143012658279	0.988015664318052	-7.00143012658279	0.0246105296297892	4.361815879647943	0.1088345359705702	-5.635719720416774	-0.4017521829809272	0.156335525881102	-5.635719720416774	0.4025882608178581	-0.5587841574438641	-4.920600037091807	-0.6642938938876114	-4.862591290558591	4	missed	0.0
244.76837070001056	5.987332799995784	nogo_punish	1.0	244.79688840004383	246.33965810004202	248.86912890005624	1.542769699998189	245.8023856000509	247.8490099000046	249.88581300002988	0.5372724999911043	1.0201190000516362	0.898408200009726	n/a	1.0	n/a	2	0	97	3	nogo_punish	1	-1	0	0	0	1	0	n/a	n/a	0	1.0	1.0	2237.88732899999	2482.684217400034	2483.689714600041	2484.226987100032	2485.7363388999947	2486.7564579000464	n/a	n/a	2487.77314200002	2488.6715502000297	2020-09-22 11:24:01.561593	2.49536008959363	-9.63352538445382	-7.48254546546159	-7.48255560006392	-9.97790555505522	-7.48254546546159	-2.49536008959363	-7.48254546546159	-9.63352538445382	-7.48254546546159	-9.97790555505522	7.48254546546159	-1.1322698216592668	-9.500080318853461	-6.116835059295575	-7.859688202820064	-10.809585693492169	-6.116835059295575	7.860523196649659	-9.029345287223506	-7.897075465564237	-8.122228829719413	-7.4946865484296215	4	missed	0.0
250.78459389996715	7.116289200028405	go_punish	0.2580385999754071	250.8131116000004	252.99108590005198	255.5235762000084	2.1779743000515737	251.8208005000488	254.50977310002781	256.5283484000247	1.1702854000031948	1.0138030999805778	1.4010524000041187	n/a	1.0	n/a	2	0	98	4	go_punish	1	0	-1	1	1	1	1	n/a	n/a	0	0.2580385999754071	1.0	2237.88732899999	2488.7004405999905	2489.708129500039	2490.878414900042	2492.397102100018	2493.4109051999985	n/a	n/a	2494.415677400015	2495.816729800019	2020-09-22 11:24:01.561593	8.00373213274954	-0.0127234753192961	-7.00143012658279	-0.0127295221727977	1.00230200616675	-7.00143012658279	-8.00373213274954	-0.0127234753192961	-7.00143012658279	1.00230200616675	-7.00143012658279	0.0127234753192961	4.376102221496644	0.1207215902810633	-5.635719720416774	-0.389862124928942	0.17062186772980004	-5.635719720416774	0.39070120650736495	-0.5444978155951661	-4.920600037091807	-0.6524068395771183	-4.862591290558591	4	missed	0.0
257.9293303000163	6.180042899969976	go_punish	0.3939930000342428	257.9578480000496	259.2920744000003	261.8393149000476	1.334226399950694	258.9657178000198	260.833590400056	262.844931300031	0.3263565999804996	1.0057244999916293	1.292959599988535	n/a	1.0	n/a	2	0	99	4	go_punish	1	0	-1	1	1	1	0	n/a	n/a	0	0.3939930000342428	1.0	2237.88732899999	2495.8451770000397	2496.85304680001	2497.1794033999904	2498.720919400046	2499.7266439000377	n/a	n/a	2500.732260300021	2502.0252199000097	2020-09-22 11:24:01.561593	8.01094378889382	-0.0067346908299637	-7.00143012658279	-0.0067387785787914	1.00951366231103	-7.00143012658279	-8.01094378889382	-0.0067346908299637	-7.00143012658279	1.00951366231103	-7.00143012658279	0.0067346908299637	4.383313877640924	0.1267103747703957	-5.635719720416774	-0.3838713813349357	0.1778335238740799	-5.635719720416774	0.3847124220180326	-0.5372861594508862	-4.920600037091807	-0.6464180550877859	-4.862591290558591	4	missed	0.0
264.1415151999681	6.355502200021874	nogo_reward	0.414110800018534	264.1700329000014	265.96788030001335	268.51038770005107	1.7978474000119604	265.18152490002103	267.485778900038	269.5214556000428	0.786355399992317	1.024608800013084	1.0040794999804348	n/a	1.0	n/a	2	0	100	1	nogo_reward	0	1	0	0	1	0	0	n/a	n/a	1	0.414110800018534	1.0	2237.88732899999	2502.0573618999915	2503.068853900011	2503.8552093000035	2505.373107900028	2506.397716700041	n/a	n/a	2507.408784600033	2508.4128641000134	2020-09-22 11:24:01.561593	1.40203198586209	0.319907265730404	0.0	0.319907265730404	1.40203198586209	0.0	-1.40203198586209	0.319907265730404	0.0	1.40203198586209	0.0	9.666820430076497	-2.225597925390807	0.4533523313307634	1.3657104061660152	-0.057225337025740286	0.57035184742514	1.3657104061660152	10.044798161264566	-0.14476783589982611	2.080830089490983	-0.31977609852741823	2.1388388360241994	4	missed	0.0
270.52528309996706	6.8880384000367485	go_punish	0.2798668000032194	270.5538008000003	272.4871858000406	275.0391820000368	1.933385000040289	271.56103640003084	274.0210049000457	276.057930400013	0.9261494000097628	1.018177099991135	1.3839088000240736	n/a	1.0	n/a	2	0	101	4	go_punish	0	-1	0	1	1	1	1	n/a	n/a	-1	0.2798668000032194	1.0	2237.88732899999	2508.4411297999904	2509.448365400021	2510.3745148000307	2511.908333900036	2512.926511000027	n/a	n/a	2513.945259400003	2515.329168200027	2020-09-22 11:24:01.561593	8.01467449007607	-0.0036430598679027	-7.00143012658279	-0.0036458535673251	1.01324436349329	-7.00143012658279	-8.01467449007607	-0.0036430598679027	-7.00143012658279	1.01324436349329	-7.00143012658279	-11.578753876623496	4.387044578823173	0.1298020057324567	-5.635719720416774	-0.3807784563234694	0.18156422505633996	-5.635719720416774	-11.200776145435427	-0.5335554582686262	-4.920600037091807	-0.6433264241257249	-4.862591290558591	4	missed	0.0
277.4447288999804	7.219573700043384	nogo_reward	0.0712152000050991	277.4732466000137	279.89984120003646	282.4409134000307	2.4265946000227814	278.47795410000253	281.41647600004217	283.451879700006	1.4218871000339277	1.0244373999885283	1.2409406000510899	n/a	1.0	n/a	2	0	102	1	nogo_reward	0	1	0	0	1	0	1	n/a	n/a	1	0.0712152000050991	1.0	2237.88732899999	2515.360575600004	2516.3652830999927	2517.7871702000266	2519.3038050000323	2520.328242400021	n/a	n/a	2521.339208699996	2522.580149300047	2020-09-22 11:24:01.561593	8.38125187119988	6.19283855284995	0.0	6.19283855284995	8.38125187119988	0.0	-8.38125187119988	6.19283855284995	0.0	8.38125187119988	0.0	3.7938891429569503	4.753621959946982	6.32628361845031	1.3657104061660152	5.815705950093806	7.549571732762929	1.3657104061660152	4.171866874145019	6.834452049437963	2.080830089490983	5.553155188592128	2.1388388360241994	4	missed	0.0
284.69565650000004	6.055423300014809	nogo_reward	0.4043809000286273	284.7241742000333	286.27218490000814	288.8015890000388	1.5480106999748386	285.717952800042	287.7902004000498	289.8156396000413	0.554232099966157	1.0113885999890044	0.9639579000067897	n/a	1.0	n/a	2	0	103	1	nogo_reward	1	0	1	0	1	0	0	n/a	n/a	0	0.4043809000286273	1.0	2237.88732899999	2522.6115032000234	2523.605281800032	2524.1595138999983	2525.67752940004	2526.688918000029	n/a	n/a	2527.7029686000315	2528.6669265000382	2020-09-22 11:24:01.561593	10.9959150084864	8.38588938021263	0.0	8.38588938021263	10.9959150084864	0.0	-10.9959150084864	8.38588938021263	0.0	10.9959150084864	0.0	-8.38588938021263	7.368285097233502	8.519334445812989	1.3657104061660152	8.008756777456485	10.16423487004945	1.3657104061660152	-8.00791164902456	9.449115186724484	2.080830089490983	7.746206015954808	2.1388388360241994	4	missed	0.0
290.7789377999725	5.8485437000053935	go_punish	0.3777607000083662	290.80745550000574	292.1396220000461	294.69963000004645	1.33216650004033	291.8141589000006	293.67421970004216	295.7093697000528	0.32546310004545376	1.025410300004296	0.9466294999583624	n/a	1.0	n/a	2	0	104	4	go_punish	0	-1	0	1	1	1	0	n/a	n/a	-1	0.3777607000083662	1.0	2237.88732899999	2528.694784499996	2529.7014878999908	2530.026951000036	2531.5615487000323	2532.5869590000366	n/a	n/a	2533.596698700043	2534.5433282000013	2020-09-22 11:24:01.561593	-0.253263840626305	-7.00344129789976	-7.00143012658279	-7.00344322652101	-7.25469396720909	-7.00143012658279	0.253263840626305	-7.00344129789976	-7.00143012658279	-7.25469396720909	-7.00143012658279	-4.578955638591639	-3.880893751879202	-6.8699962322994015	-5.635719720416774	-7.380575829277154	-8.08637410564604	-5.635719720416774	-4.20097790740357	-8.801493788971007	-4.920600037091807	-7.643124662157582	-4.862591290558591	4	missed	0.0
296.6725003999891	7.08463950001169	go_reward	0.2734689000062644	296.70101810002234	299.4725552000459	302.00661110004876	2.771537100023579	297.70917100005363	300.9920874000527	303.0100112000364	1.763384199992288	1.0145236999960616	0.7756463999976404	n/a	1.0	n/a	2	0	105	2	go_reward	0	0	1	1	1	1	0	n/a	n/a	0	0.2734689000062644	1.0	2237.88732899999	2534.5883471000125	2535.5965000000438	2537.359884200036	2538.879416400043	2539.893940100039	n/a	n/a	2540.8973402000265	2541.672986600024	2020-09-22 11:24:01.561593	10.203949756643	7.71549555433874	0.0	7.71549555433874	10.203949756643	0.0	-10.203949756643	7.71549555433874	0.0	10.203949756643	0.0	-7.71549555433874	6.5763198453901035	7.8489406199391	1.3657104061660152	7.338362951582596	9.372269618206051	1.3657104061660152	-7.337517823150671	8.657149934881085	2.080830089490983	7.075812190080918	2.1388388360241994	4	missed	0.0
303.80152679997263	6.22477270005038	go_reward	0.4640163999865763	303.8300445000059	305.6480000000447	308.1901448000576	1.8179555000388063	304.83672700001625	307.1764257000177	309.1856669000117	0.81127300002845	1.013719100039907	0.8691503000445664	n/a	1.0	n/a	2	0	106	2	go_reward	1	1	0	1	1	1	0	n/a	n/a	1	0.4640163999865763	1.0	2237.88732899999	2541.717373499996	2542.7240560000064	2543.535329000035	2545.063754700008	2546.0774738000478	n/a	n/a	2547.072995900002	2547.9421462000464	2020-09-22 11:24:01.561593	4.62835312739875	3.02296115929953	0.0	3.02296115929953	4.62835312739875	0.0	-4.62835312739875	3.02296115929953	0.0	4.62835312739875	0.0	6.96376653650737	1.000723216145853	3.1564062248998894	1.3657104061660152	2.645828556543386	3.7966729889618	1.3657104061660152	7.3417442676954385	3.0815533056368336	2.080830089490983	2.3832777950417077	2.1388388360241994	4	missed	0.0
310.06913899997016	6.267201200011186	go_reward	0.3443905999884009	310.0976567000034	311.8855874000001	314.427628000034	1.7879306999966502	311.10634710005206	313.4145468000206	315.4341021000296	0.7792402999480146	1.0130812000134028	0.930755799985036	n/a	1.0	n/a	2	0	107	2	go_reward	1	1	0	1	1	1	1	n/a	n/a	1	0.3443905999884009	1.0	2237.88732899999	2547.9849856999936	2548.993676100042	2549.77291639999	2551.3018758000107	2552.314957000024	n/a	n/a	2553.3214311000197	2554.2521869000047	2020-09-22 11:24:01.561593	9.72523227934119	7.31595757613297	0.0	7.31595757613297	9.72523227934119	0.0	-9.72523227934119	7.31595757613297	0.0	9.72523227934119	0.0	2.6707701196739304	6.097602368088293	7.449402641733329	1.3657104061660152	6.938824973376826	8.89355214090424	1.3657104061660152	3.048747850861999	8.178432457579275	2.080830089490983	6.676274211875148	2.1388388360241994	4	missed	0.0
316.3642514999956	6.950638299982074	go_punish	0.3289893000037409	316.39276920002885	319.0000130000408	321.53267110005254	2.607243800011929	317.39143190003233	320.5180044000149	322.53702780004824	1.6085811000084504	1.014666700037651	0.8063796999626902	n/a	1.0	n/a	2	0	108	4	go_punish	1	0	-1	1	1	1	0	n/a	n/a	0	0.3289893000037409	1.0	2237.88732899999	2554.280098200019	2555.2787609000225	2556.887342000031	2558.405333400005	2559.4200001000427	n/a	n/a	2560.4243568000384	2561.230736500001	2020-09-22 11:24:01.561593	-3.37462565943869	-9.63465726435189	-7.00143012658279	-9.63465860809891	-10.3760557860215	-7.00143012658279	3.37462565943869	-9.63465726435189	-7.00143012658279	-10.3760557860215	-7.00143012658279	9.63465726435189	-7.002255570691586	-9.501212198751531	-5.635719720416774	-10.011791210855055	-11.207735924458449	-5.635719720416774	10.01263499553996	-11.922855607783415	-4.920600037091807	-10.274340628609712	-4.862591290558591	4	missed	0.0
323.36074039997766	7.021883100038394	nogo_punish	1.0	323.3892581000109	325.91093200002797	328.43346950004343	2.521673900017049	324.3959493000293	327.4146385000204	329.4492186999996	1.5149826999986544	1.0188310000230558	0.9619225000496954	n/a	1.0	n/a	2	0	109	3	nogo_punish	1	-1	0	0	0	1	0	n/a	n/a	0	1.0	1.0	2237.88732899999	2561.276587100001	2562.2832783000194	2563.798261000018	2565.3019675000105	2566.3207985000336	n/a	n/a	2567.3365476999898	2568.2984702000394	2020-09-22 11:24:01.561593	6.29749599565416	-9.63352538445382	-2.85217883791653	-2.85218571936478	-9.14967483357069	-2.85217883791653	-6.29749599565416	-2.85217883791653	-9.63352538445382	-2.85217883791653	-9.14967483357069	2.85217883791653	2.6698660844012627	-9.500080318853461	-1.4864684317505146	-3.2293183221209243	-9.98135497200764	-1.4864684317505146	3.2301565691045986	-4.398978659678446	-7.068844744079708	-3.491862202174352	-7.4946865484296215	4	missed	0.0
330.42712960002245	6.454140499990899	nogo_punish	1.0	330.4556473000557	331.9516022000462	334.48501470003976	1.4959548999904655	331.4576975000091	333.46267080004327	335.4986515000346	0.49390470003709197	1.0223438999964856	1.4111363000120036	n/a	1.0	n/a	2	0	110	3	nogo_punish	1	-1	0	0	0	1	0	n/a	n/a	0	1.0	1.0	2237.88732899999	2568.342976300046	2569.345026499999	2569.8389312000363	2571.3499998000334	2572.37234370003	n/a	n/a	2573.3859805000247	2574.7971168000367	2020-09-22 11:24:01.561593	7.66405607130046	-9.63352538445382	-1.1770154751307	-1.17702019745137	-8.84107154643116	-1.1770154751307	-7.66405607130046	-1.1770154751307	-9.63352538445382	-1.1770154751307	-8.84107154643116	1.1770154751307	4.036426160047563	-9.500080318853461	0.1886949310353152	-1.5541528002075145	-9.672751684868109	0.1886949310353152	1.5549932063187688	-2.7238152968926164	-6.760241456940177	-1.8166988393885224	-7.4946865484296215	4	missed	0.0
336.91134599997895	6.557510300015565	nogo_reward	0.3632824999513104	336.9398637000122	338.6996081000543	341.2380461000139	1.7597444000421092	337.94985510001425	340.21797240001615	342.25267770001665	0.749753000040073	1.020073699997738	1.2446963000111282	n/a	1.0	n/a	2	0	111	1	nogo_reward	1	0	1	0	1	0	0	n/a	n/a	0	0.3632824999513104	1.0	2237.88732899999	2574.8271927000023	2575.8371841000044	2576.5869371000445	2578.1053014000063	2579.125375100004	n/a	n/a	2580.140006700007	2581.384703000018	2020-09-22 11:24:01.561593	4.87817281412829	3.23424757060054	0.0	3.23424757060054	4.87817281412829	0.0	-4.87817281412829	3.23424757060054	0.0	4.87817281412829	0.0	-3.23424757060054	1.2505429028753934	3.3676926362008994	1.3657104061660152	2.857114967844396	4.04649267569134	1.3657104061660152	-2.8562698394124713	3.331372992366374	2.080830089490983	2.5945642063427177	2.1388388360241994	4	missed	0.0
343.5158906999859	6.174344099999871	go_reward	1.0	343.54440840001917	345.20280690002255	347.72608350001974	1.6583985000033863	344.54031450004595	346.7068766000448	348.74079260003055	0.6624923999765997	1.0192068999749608	0.9779598999884911	n/a	1.0	n/a	2	0	112	2	go_reward	1	1	0	1	0	0	0	n/a	n/a	0	1.0	1.0	2237.88732899999	2581.4317374000093	2582.427643500036	2583.0901359000127	2584.594205600035	2585.61341250001	n/a	n/a	2586.6281216000207	2587.606081500009	2020-09-22 11:24:01.561593	-11.5890854415131	8.88055146357182	0.0	8.88055146357182	11.5890854415131	0.0	11.5890854415131	0.0	8.88055146357182	0.0	11.5890854415131	0.0	-15.216715352765998	9.013996529172179	1.3657104061660152	8.503418860815675	10.757405303076151	1.3657104061660152	0.3779777311880689	-1.546799821761916	13.669915531004083	-0.6396833642578222	11.019390299596019	4	missed	0.0
349.7189210000215	7.208337999996729	go_punish	0.4273336000042036	349.7474387000548	352.5197610000032	355.0580297000124	2.772322299948428	350.75554360001115	354.0381595000508	356.0721435000305	1.7642173999920487	1.0198701999615878	0.883633200020995	n/a	1.0	n/a	2	0	113	4	go_punish	1	0	-1	1	1	1	0	n/a	n/a	0	0.4273336000042036	1.0	2237.88732899999	2587.634767700045	2588.6428726000013	2590.4070899999933	2591.925488500041	2592.9453587000025	n/a	n/a	2593.9594725000206	2594.8431057000416	2020-09-22 11:24:01.561593	3.61943545386071	-3.70497393778598	-7.00143012658279	-3.70497488191294	-3.38199467272208	-7.00143012658279	-3.61943545386071	-3.70497393778598	-7.00143012658279	-3.38199467272208	-7.00143012658279	3.70497393778598	-0.008194457392186827	-3.5715288721856204	-5.635719720416774	-4.082107484669084	-4.21367481115903	-5.635719720416774	4.082951668974049	-4.928794494483996	-4.920600037091807	-4.344657302043802	-4.862591290558591	4	missed	0.0
356.9729181000148	6.6316269999952056	go_reward	0.2762364000082016	357.00143580004806	358.694612900028	361.22295960003976	1.6931770999799483	358.0086427000351	360.20673720003106	362.22040730004665	0.6859701999928802	1.0162224000087008	1.4126554999966174	n/a	1.0	n/a	2	0	114	2	go_reward	1	1	0	1	1	1	1	n/a	n/a	1	0.2762364000082016	1.0	2237.88732899999	2594.888764800038	2595.8959717000253	2596.581941900018	2598.094066200021	2599.11028860003	n/a	n/a	2600.107736300037	2601.5203918000334	2020-09-22 11:24:01.561593	10.5703889895124	8.88055146357182	0.0	3.46237223915078	10.5703889895124	0.0	-10.5703889895124	8.88055146357182	0.0	10.5703889895124	0.0	1.1061762322350805	6.9427590782595034	9.013996529172179	1.3657104061660152	3.0852396363946357	9.738708851075451	1.3657104061660152	1.4841539634231493	9.023589167750485	2.080830089490983	8.240868099313998	2.1388388360241994	4	missed	0.0
363.6509189999779	5.909936600015499	nogo_punish	1.0	363.67943670001114	365.0333112000376	367.5501155000529	1.3538745000264498	364.68498700001464	366.5302816000185	368.56467510003085	0.34832420002294384	1.0198339000344276	1.0246981999957825	n/a	1.0	n/a	2	0	115	3	nogo_punish	1	-1	0	0	0	1	0	n/a	n/a	0	1.0	1.0	2237.88732899999	2601.5667657000013	2602.572316000005	2602.9206402000277	2604.4176106000086	2605.437444500043	n/a	n/a	2606.452004100021	2607.4767023000168	2020-09-22 11:24:01.561593	8.20042356169318	-9.63352538445382	-0.515967256126686	-0.515970528494956	-8.71639081781986	-0.515967256126686	-8.20042356169318	-0.515967256126686	-9.63352538445382	-0.515967256126686	-8.71639081781986	0.515967256126686	4.572793650440283	-9.500080318853461	0.8497431500393292	-0.8931031312511002	-9.54807095625681	0.8497431500393292	0.8939449873147549	-2.0627670778886023	-6.635560728328878	-1.1556506203845083	-7.4946865484296215	4	missed	0.0
369.5929734999663	6.864863599999353	nogo_reward	1.0	369.6214911999996	371.6713495000149	374.1979953000555	2.0498583000153303	370.62621200003196	373.1745645000483	375.20852870005183	1.0451374999829568	1.0234308000071906	1.2778260999471058	n/a	1.0	n/a	2	0	116	1	nogo_reward	1	0	1	0	0	1	0	n/a	n/a	1	1.0	1.0	2237.88732899999	2607.5088201999897	2608.513541000022	2609.558678500005	2611.0618935000384	2612.0853243000456	n/a	n/a	2613.095857700042	2614.373683799989	2020-09-22 11:24:01.561593	-2.62707310917635	1.34493891684996	0.0	1.34493891684996	2.62707310917635	0.0	2.62707310917635	0.0	1.34493891684996	0.0	2.62707310917635	9.9867276958069	-6.254703020429247	1.4783839824503193	1.3657104061660152	0.9678063140938156	1.7953929707394	1.3657104061660152	10.36470542699497	-1.546799821761916	4.707903198667333	-0.6396833642578222	3.4837777528741594	4	missed	0.0
376.50414440000895	5.781553299980715	nogo_punish	1.0	376.5326621000422	377.86020810005766	380.3843638000544	1.3275460000154453	377.52889080002205	379.36451470002066	381.3906490000081	0.33131730003560733	1.0198491000337526	0.9235664000148063	n/a	1.0	n/a	2	0	117	3	nogo_punish	1	-1	0	0	0	1	1	n/a	n/a	0	1.0	1.0	2237.88732899999	2614.4199911000323	2615.416219800012	2615.747537100048	2617.251843700011	2618.2716928000445	n/a	n/a	2619.2779779999983	2620.201544400013	2020-09-22 11:24:01.561593	8.42553935070668	-9.63352538445382	-0.237278962930955	-0.237281250804936	-8.66281831363764	-0.237278962930955	-8.42553935070668	-0.237278962930955	-9.63352538445382	-0.237278962930955	-8.66281831363764	0.237278962930955	4.797909439453783	-9.500080318853461	1.1284314432350602	-0.6144138535610804	-9.49449845207459	1.1284314432350602	0.6152566941190238	-1.7840787846928712	-6.581988224146658	-0.8769623271887772	-7.4946865484296215	4	missed	0.0
382.33147919998737	6.567038499983028	go_reward	0.3267923999810591	382.35999690002063	384.33213410002645	386.89071000000695	1.9721372000058182	383.36582180002006	385.8672271000105	387.9017539000488	0.9663123000063933	1.023482899996452	1.0252814999548718	n/a	1.0	n/a	2	0	118	2	go_reward	1	1	0	1	1	1	0	n/a	n/a	1	0.3267923999810591	1.0	2237.88732899999	2620.2473259000108	2621.25315080001	2622.2194631000166	2623.7545561000006	2624.778038999997	n/a	n/a	2625.789082900039	2626.814364399994	2020-09-22 11:24:01.561593	11.9449064181198	9.50115219512282	0.0	7.49296194199264	11.9449064181198	0.0	-11.9449064181198	9.50115219512282	0.0	11.9449064181198	0.0	0.48557550068407984	8.317276506866904	9.63459726072318	1.3657104061660152	7.1158293392364955	11.11322627968285	1.3657104061660152	0.8635532318721487	10.398106596357884	2.080830089490983	8.861468830864998	2.1388388360241994	4	missed	0.0
388.93003410001984	6.535039799986407	nogo_reward	1.0	388.9585518000531	390.6171899000183	393.1281040000031	1.6586380999651738	389.9632997000008	392.12101780000376	394.14039260003483	0.6538902000174858	1.0070861999993213	1.353199000004679	n/a	1.0	n/a	2	0	119	1	nogo_reward	1	0	1	0	0	1	0	n/a	n/a	1	1.0	1.0	2237.88732899999	2626.8458808000432	2627.850628699991	2628.5045189000084	2630.008346799994	2631.015432999993	n/a	n/a	2632.027721600025	2633.3809206000296	2020-09-22 11:24:01.561593	2.41884626321702	1.34493891684996	6.03877995597204	6.63101299217203	3.61993369275502	6.03877995597204	-2.41884626321702	6.03877995597204	1.34493891684996	6.03877995597204	3.61993369275502	3.94794773983486	-1.208783648035877	1.4783839824503193	7.404490362138056	6.253880389415886	2.78825355431807	7.404490362138056	4.325925471022929	4.491980134210124	5.700763782246003	5.399096591714218	3.4837777528741594	4	missed	0.0
395.4958285000175	6.659284099995148	nogo_reward	1.0	395.5243462000508	397.43305650004186	399.9588275999995	1.9087102999910712	396.51998080004705	398.93816270004027	400.9703303000424	0.9130756999948062	1.020664899959229	1.2133000000035281	n/a	1.0	n/a	2	0	120	1	nogo_reward	1	0	1	0	0	1	0	n/a	n/a	1	1.0	1.0	2237.88732899999	2633.411675200041	2634.407309800037	2635.320385500032	2636.8254917000304	2637.8461565999896	n/a	n/a	2638.8576593000325	2640.070959300036	2020-09-22 11:24:01.561593	4.31522401697736	1.34493891684996	8.309392637963	8.58228158501345	3.99416862098564	8.309392637963	-4.31522401697736	8.309392637963	1.34493891684996	8.309392637963	3.99416862098564	1.6773350578438997	0.6875941057244628	1.4783839824503193	9.675103044129015	8.205148982257304	3.16248848254869	9.675103044129015	2.0553127890319685	6.762592816201084	6.074998710476622	7.669709273705179	3.4837777528741594	4	missed	0.0
