onset	duration	trial_type	response_time	cueOnset	targetOnset	fbOnset	cueRT	firstfixOnset	secondfixOnset	waitOnset	firstfixdur	secondfixdur	waitdur	nback_fbOnset	nback_response_time	nback_targetOnset	block	wm	trial	cue	cond	is_common	outcome_go	outcome_nogo	key_correct	key_pressed	is_correct	key_correct_nback	key_pressed_nback	is_correct_nback	outcome	rt	rt_nback	time_scan	time_onset	time_isi1	time_circle	time_isi2	time_feedback	time_same	time_correct	time_iti	time_done	timestamp_scan	DV	Qgo	Qnogo	SV	Wgo	Wnogo	mDV	Qchosen	Qunchosen	Wchosen	Wunchosen	PE	DVC	QgoC	QnogoC	SVC	WgoC	WnogoC	PEC	WchosenC	WunchosenC	QchosenC	QunchosenC	run	outcome_nback	nback_targetResp
0.0	7.907072299999982	nogo_reward	0.5000189000002138	0.026922499999727734	1.5833129999996345	4.125992799999949	1.5563904999999068	1.0314196999997876	3.1158232999998745	7.16751209999984	0.5518932999998469	1.0101695000000745	0.7664826999998695	6.160681399999703	1.0	5.150783899999624	1	1	61	1	nogo_reward	1	0	1	0	1	0	0	n/a	0.0	1	0.5000189000002138	1.0	1033.4239914000002	1033.4509139	1034.4554111	1035.0073043999998	1036.5398147	1037.5499842000002	1038.5747752999998	1039.5846728	1040.5915035	1041.3579862	2020-08-27 10:47:04.970074	-2.54148062233248	0.0	3.22923469232478	2.96470477407709	0.687754069992299	3.22923469232478	2.54148062233248	0.0	3.22923469232478	0.687754069992299	3.22923469232478	0.0	-6.863021850035684	-2.116070311663074	0.8532076381317357	-1.5191463447380804	-2.2460712340645905	0.8532076381317357	-5.720142508937193	-4.127942722984271	2.7350791270514145	-4.428657492554224	3.1657948190228833	2	missed	0.0
7.953494000000546	9.505372299999408	nogo_punish	0.0290497000000868	7.980416500000274	10.690329499999734	13.228647099999762	2.7099129999994602	8.985943399999996	12.220471899999893	16.278085199999623	1.7043860999997378	1.0081751999998687	1.207703600000059	15.27120530000002	0.4726377000001776	14.240705100000014	1	1	62	3	nogo_punish	0	0	-1	0	1	0	0	0.0	1.0	0	0.0290497000000868	0.4726377000001776	1033.4239914000002	1041.4044079000005	1042.4099348000002	1044.1143209	1045.6444633	1046.6526385	1047.6646965000002	1048.6951967000002	1049.7020765999998	1050.9097802	2020-08-27 10:47:04.970074	-0.0358399346521967	-0.089082389517496	-0.0107528777199558	-0.096111901357608	-0.0465928123721525	-0.0107528777199558	0.0358399346521967	-0.089082389517496	-0.0107528777199558	-0.0465928123721525	-0.0107528777199558	0.089082389517496	-4.3573811623554	-2.20515270118057	-2.3867799319130003	-4.579963020172778	-2.980418116429042	-2.3867799319130003	-5.631060119419697	-4.862289605348722	-0.5049084429933215	-4.51773988207172	-0.07419275102185281	2	correct	1.0
17.50681510000004	8.483483700000534	go_punish	1.0	17.533737599999768	19.256318299999748	21.77683709999974	1.7225806999999804	18.53771259999985	20.76047329999983	24.82793760000004	0.7186056999998982	1.0163637999999082	1.18928370000026	23.821275199999718	0.8569944999999279	22.790350100000296	1	1	63	4	go_punish	1	0	-1	1	0	0	0	0.0	1.0	-1	1.0	0.8569944999999279	1033.4239914000002	1050.957729	1051.961704	1052.6803097	1054.1844647	1055.2008285	1056.2143415000005	1057.2452666	1058.2519290000002	1059.4412127000005	2020-08-27 10:47:04.970074	-0.083970227618505	-0.0191866229584694	-0.0550630396922199	-0.0672045708788	0.0289071879262851	-0.0550630396922199	0.083970227618505	-0.0550630396922199	-0.0191866229584694	-0.0550630396922199	0.0289071879262851	-0.770329993310442	-4.405511455321709	-2.1352569346215438	-2.431090093885264	-4.55105568969397	-2.9049181161306046	-2.431090093885264	-6.490472502247635	-4.8707598326687895	-0.4652483773470806	-4.483720532246444	-0.08262649626036642	2	correct	1.0
26.03127919999997	8.91335650000019	go_punish	1.0	26.0582016999997	28.273973899999874	30.79385060000004	2.215772200000174	27.062496699999883	29.778278899999805	33.842455399999835	1.2114771999999903	1.0155717000002369	1.1291028000000551	32.8355217999997	0.5385036999996373	31.804688700000042	1	1	64	4	go_punish	1	0	-1	1	0	0	0	1.0	0.0	-1	1.0	0.5385036999996373	1033.4239914000002	1059.4821931	1060.4864881	1061.6979653	1063.2022703	1064.2178420000002	1065.2286801000002	1066.2595132	1067.2664468	1068.3955496	2020-08-27 10:47:04.970074	-0.0917379843914402	-0.0191866229584694	-0.0646595850593141	-0.0767631429594768	0.0270783993321261	-0.0646595850593141	0.0917379843914402	-0.0646595850593141	-0.0191866229584694	-0.0646595850593141	0.0270783993321261	-0.7607334479433479	-4.413279212094644	-2.1352569346215438	-2.4406866392523585	-4.5606142617746475	-2.9067469047247636	-2.4406866392523585	-6.48087595688054	-4.880356378035883	-0.4670771659412396	-4.493317077613538	-0.08262649626036642	2	wrong	1.0
34.99009030000025	8.951451299999917	go_punish	1.0	35.017012799999975	37.05943219999972	39.57878549999987	2.042419399999744	36.023122599999624	38.564177199999904	42.624003299999686	1.036309600000095	1.0146082999999635	1.3444608000002063	41.617989899999884	0.5934314000000995	40.59083439999995	1	1	65	4	go_punish	1	0	-1	1	0	0	1	1.0	1.0	-1	1.0	0.5934314000000995	1033.4239914000002	1068.4410042000002	1069.4471139999998	1070.4834236	1071.9881686	1073.0027769	1074.0148258000002	1075.0419813	1076.0479947	1077.3924555	2020-08-27 10:47:04.970074	-0.099132129626141	-0.0191866229584694	-0.0737917542345158	-0.0858161938647542	0.0253403753916251	-0.0737917542345158	0.099132129626141	-0.0737917542345158	-0.0191866229584694	-0.0737917542345158	0.0253403753916251	-0.7516012787681462	-4.420673357329345	-2.1352569346215438	-2.44981880842756	-4.5696673126799245	-2.9084849286652643	-2.44981880842756	-6.471743787705339	-4.889488547211085	-0.4688151898817406	-4.50244924678874	-0.08262649626036642	2	correct	1.0
43.986333000000286	9.111968299999717	nogo_punish	0.2892886999998154	44.013255500000014	46.29495799999995	48.84208349999972	2.2817024999999376	45.018570100000034	47.828525500000296	51.88748020000003	1.2763878999999179	1.0135579999994206	1.2377435999997033	50.87970749999977	0.8761438999999882	49.85315609999998	1	1	66	3	nogo_punish	1	-1	0	0	1	0	0	0.0	1.0	-1	0.2892886999998154	0.8761438999999882	1033.4239914000002	1077.4372469000002	1078.4425615000002	1079.7189494000002	1081.2525169000005	1082.2660749	1083.2771475000002	1084.3036989	1085.3114716000002	1086.5492152	2020-08-27 10:47:04.970074	-0.032289665652486	-0.086173403207624	-0.0107528777199558	-0.0930708947475039	-0.0430425433724419	-0.0107528777199558	0.032289665652486	-0.086173403207624	-0.0107528777199558	-0.0430425433724419	-0.0107528777199558	-0.739219629795038	-4.353830893355689	-2.202243714870698	-2.3867799319130003	-4.576922013562674	-2.9768678474293315	-2.3867799319130003	-6.459362138732231	-4.858739336349012	-0.5049084429933215	-4.514830895761849	-0.07419275102185281	2	correct	1.0
53.143063900000016	9.207912300000544	go_punish	1.0	53.16998639999974	55.337327799999684	57.8570823	2.167341399999941	54.1743591999998	56.8422529999998	60.90948619999972	1.1629685999998856	1.0148293000002013	1.4684125000005679	59.90276700000004	0.4172602999997252	58.87403339999969	1	1	67	4	go_punish	1	0	-1	1	0	0	1	1.0	1.0	-1	1.0	0.4172602999997252	1033.4239914000002	1086.5939778	1087.5983506	1088.7613192	1090.2662444	1091.2810737000002	1092.2980248	1093.3267584000002	1094.3334776	1095.8018901000005	2020-08-27 10:47:04.970074	-0.106232993327625	-0.0191866229584694	-0.082553999791394	-0.0944727601504527	0.0236789935362305	-0.082553999791394	0.106232993327625	-0.082553999791394	-0.0191866229584694	-0.082553999791394	0.0236789935362305	-0.742839033211268	-4.427774221030829	-2.1352569346215438	-2.4585810539844384	-4.578323878965623	-2.910146310520659	-2.4585810539844384	-6.46298154214846	-4.898250792767964	-0.4704765717371352	-4.511211492345618	-0.08262649626036642	2	correct	1.0
62.39936350000016	9.79366489999984	go_reward	0.2601446000003307	62.42628599999989	65.2581230000003	67.80056389999982	2.831837000000405	63.43176319999975	66.78648750000002	70.82845889999999	1.8263598000005459	1.0140763999997944	1.3914919999997437	69.82109749999972	1.0	68.81203599999981	1	1	68	2	go_reward	1	1	0	1	1	1	0	n/a	0.0	0	0.2601446000003307	1.0	1033.4239914000002	1095.8502774	1096.8557546	1098.6821144000005	1100.2104789000002	1101.2245553	1102.2360274	1103.2450889	1104.2524503000002	1105.6439423	2020-08-27 10:47:04.970074	2.85496223508368	2.34750062461055	0.0	2.12209833837275	2.85496223508368	0.0	-2.85496223508368	2.34750062461055	0.0	2.85496223508368	0.0	26.06264320416385	-1.4665789926195236	0.23143031294747596	-2.3760270541930444	-2.3617527804424205	-0.0788630689732095	-2.3760270541930444	20.342500695226658	-1.9607345578928896	-0.4941555652733657	-2.0811568679436743	-0.06343987330189702	2	missed	0.0
72.23429870000018	8.130948799999715	go_reward	1.0	72.26122119999991	73.62000249999983	76.13458760000003	1.3587812999999187	73.26628809999988	75.12540820000004	79.1807667999999	0.35371439999994436	1.0091793999999936	1.2114031999997223	78.17310150000003	0.7917965999999979	77.14646439999979	1	1	69	2	go_reward	1	1	0	1	0	0	0	1.0	0.0	0	1.0	0.7917965999999979	1033.4239914000002	1105.6852126	1106.6902795	1107.0439939	1108.5493996000002	1109.5585790000002	1110.5704558	1111.5970929000002	1112.6047582	1113.8161613999998	2020-08-27 10:47:04.970074	-2.75185024165683	2.25919006579025	0.0	2.05868772176502	2.75185024165683	0.0	2.75185024165683	0.0	2.25919006579025	0.0	2.75185024165683	0.0	-7.0733914693600335	0.1431197541271758	-2.3760270541930444	-2.4251633970501505	-0.18197506240005978	-2.3760270541930444	-5.720142508937193	-4.81569679297657	2.257694676383464	-4.428657492554224	2.195750192488353	2	wrong	1.0
80.40797500000008	8.5710638999999	go_punish	1.0	80.4348974999998	82.19794079999974	84.72220719999996	1.7630432999999357	81.43963899999972	83.70310789999985	87.76368920000004	0.7583018000000266	1.0190993000001072	1.242272199999661	86.7566668999998	0.5641686000003574	85.73398539999971	1	1	70	4	go_punish	1	0	-1	1	0	0	0	0.0	1.0	-1	1.0	0.5641686000003574	1033.4239914000002	1113.8588889	1114.8636304	1115.6219322	1117.1270993	1118.1461986000002	1119.1579768	1120.1806583	1121.1876806000002	1122.4299528	2020-08-27 10:47:04.970074	-0.113091851774081	-0.0191866229584694	-0.0910082494282808	-0.102804027549848	0.0220836023458002	-0.0910082494282808	0.113091851774081	-0.0910082494282808	-0.0191866229584694	-0.0910082494282808	0.0220836023458002	-0.7343847835743812	-4.434633079477285	-2.1352569346215438	-2.467035303621325	-4.586655146365018	-2.9117417017110894	-2.467035303621325	-6.454527292511574	-4.906705042404851	-0.4720719629275655	-4.5196657419825055	-0.08262649626036642	2	correct	1.0
89.02190280000013	8.15829590000044	nogo_reward	1.0	89.04882529999986	90.40513819999978	92.92433529999971	1.3563128999999208	90.05267370000001	91.91003109999974	95.97152059999962	0.35246449999976903	1.0143041999999696	1.23560060000068	94.96145699999988	0.6136726999998245	93.93742799999973	1	1	71	1	nogo_reward	1	0	1	0	0	1	0	0.0	1.0	1	1.0	0.6136726999998245	1033.4239914000002	1122.4728167	1123.4766651000002	1123.8291296	1125.3340225	1126.3483267	1127.3614194	1128.3854484	1129.3955119999998	1130.6311126000005	2020-08-27 10:47:04.970074	2.06590164150721	0.414898197478618	3.22923469232478	3.2574876487241	1.16333305081756	3.22923469232478	-2.06590164150721	3.22923469232478	0.414898197478618	3.22923469232478	1.16333305081756	25.18090913644962	-2.255639586195994	-1.7011721141844562	0.8532076381317357	-1.2263634700910706	-1.7704922532393295	0.8532076381317357	19.460766627512427	-1.5864621006517896	0.6691774855441944	-1.1994228002294443	0.35145832417672096	2	correct	1.0
97.22448929999996	8.126874200000202	go_reward	0.3935222999998586	97.25141179999969	98.89966319999985	101.44017699999995	1.648251400000163	98.25627759999998	100.43046539999978	104.4861513999997	0.6433855999998741	1.0097116000001733	0.8921346000001904	103.47909170000003	0.5700929999998152	102.45512289999988	1	1	72	2	go_reward	0	0	1	1	1	1	0	0.0	1.0	0	0.3935222999998586	0.5700929999998152	1033.4239914000002	1130.6754032	1131.6802690000002	1132.3236546	1133.8544568	1134.8641684000002	1135.8791143	1136.9030831000002	1137.9101428	1138.8022774	2020-08-27 10:47:04.970074	2.73834941541028	2.25919006579025	0.0	2.00127313948162	2.73834941541028	0.0	-2.73834941541028	2.25919006579025	0.0	2.73834941541028	0.0	-2.25919006579025	-1.5831918122929238	0.1431197541271758	-2.3760270541930444	-2.4825779793335507	-0.1954758886466097	-2.3760270541930444	-7.979332574727443	-2.07734737756629	-0.4941555652733657	-2.1694674267639744	-0.06343987330189702	2	correct	1.0
105.39290110000002	8.408040600000277	go_reward	0.2784228000000439	105.41982359999975	107.07972930000028	109.62342069999977	1.659905700000536	106.42403889999969	108.60963099999981	112.67008659999988	0.6556904000005943	1.0137896999999612	1.157777600000145	111.66242449999982	0.5689982999997483	110.63721589999977	1	1	73	2	go_reward	1	1	0	1	1	1	0	0.0	1.0	1	0.2784228000000439	0.5689982999997483	1033.4239914000002	1138.843815	1139.8480303	1140.5037207000005	1142.0336224	1143.0474121	1144.0612073	1145.0864159	1146.094078	1147.2518556000002	2020-08-27 10:47:04.970074	2.64872119466301	2.18196301068291	0.0	1.94877104613553	2.64872119466301	0.0	-2.64872119466301	2.18196301068291	0.0	2.64872119466301	0.0	26.22818081809149	-1.6728200330401939	0.06589269901983608	-2.3760270541930444	-2.5350800726796408	-0.28510410939387976	-2.3760270541930444	20.508038309154298	-2.16697559831356	-0.4941555652733657	-2.246694481871314	-0.06343987330189702	2	correct	1.0
113.84546509999996	9.245577800000092	go_punish	1.0	113.87238759999968	116.60014079999974	119.11890709999989	2.727753200000052	114.87637849999987	118.10598559999971	122.1644551999998	1.723762299999862	1.012921500000175	0.9535101999999824	121.1565615999998	0.7947235999999975	120.13144220000004	1	1	74	4	go_punish	1	0	-1	1	0	0	0	0.0	1.0	-1	1.0	0.7947235999999975	1033.4239914000002	1147.296379	1148.3003699	1150.0241322	1151.529977	1152.5428985	1153.5554336000002	1154.580553	1155.5884466	1156.5419568	2020-08-27 10:47:04.970074	-0.119743453578414	-0.0191866229584694	-0.0991974942918069	-0.110859063089847	0.0205459592866071	-0.0991974942918069	0.119743453578414	-0.0991974942918069	-0.0191866229584694	-0.0991974942918069	0.0205459592866071	-0.7261955387108551	-4.441284681281617	-2.1352569346215438	-2.475224548484851	-4.594710181905017	-2.9132793447702823	-2.475224548484851	-6.446338047648048	-4.9148942872683765	-0.4736096059867586	-4.527854986846031	-0.08262649626036642	2	correct	1.0
123.13424069999996	9.278948300000593	nogo_reward	1.0	123.16116319999969	125.91788899999983	128.43812579999985	2.7567258000001402	124.16637499999979	127.4228983999999	131.48111930000027	1.7515140000000429	1.015227399999958	0.9589922000000115	130.4739881999999	0.4981850999997732	129.4491392	1	1	75	1	nogo_reward	1	0	1	0	0	1	0	0.0	1.0	1	1.0	0.4981850999997732	1033.4239914000002	1156.5851546	1157.5903664	1159.3418804	1160.8468898	1161.8621172	1162.8731306000002	1163.8979796	1164.9051107000005	1165.8641029000005	2020-08-27 10:47:04.970074	2.26582635352725	0.414898197478618	3.48696736676984	3.53506645561292	1.2211410132426	3.48696736676984	-2.26582635352725	3.48696736676984	0.414898197478618	3.48696736676984	1.2211410132426	24.923176462004562	-2.055714874175954	-1.7011721141844562	1.1109403125767958	-0.9487846632022507	-1.7126842908142896	1.1109403125767958	19.20303395306737	-1.3287294262067295	0.7269854479692343	-0.9416901257843842	0.35145832417672096	2	correct	1.0
132.4555937	9.054829500000551	go_punish	1.0	132.48251619999974	134.48180460000003	137.00457059999962	1.999288400000296	133.48738909999975	135.98638249999976	140.0485375999997	0.9944155000002866	1.0181880999998612	1.4888081000005968	139.0401027999999	0.4308657000001403	138.0152866999997	1	1	76	4	go_punish	1	0	-1	1	0	0	1	1.0	1.0	-1	1.0	0.4308657000001403	1033.4239914000002	1165.9065076	1166.9113805	1167.9057960000002	1169.4103739	1170.4285619999998	1171.4392781	1172.4640942	1173.472529	1174.9613371000005	2020-08-27 10:47:04.970074	-0.12621260541608	-0.0191866229584694	-0.107153042974172	-0.118673271280844	0.0190595624419073	-0.107153042974172	0.12621260541608	-0.107153042974172	-0.0191866229584694	-0.107153042974172	0.0190595624419073	-0.7182399900284899	-4.447753833119283	-2.1352569346215438	-2.4831800971672164	-4.602524390096015	-2.9147657416149824	-2.4831800971672164	-6.438382498965683	-4.922849835950742	-0.47509600283145836	-4.535810535528396	-0.08262649626036642	2	correct	1.0
141.55760250000003	9.21545889999993	go_punish	1.0	141.58452499999976	144.02241539999977	146.54280689999996	2.437890400000015	142.5896389999998	145.5282583999997	149.58995749999985	1.432776399999966	1.0145485000002736	1.2100263999998333	148.58348179999984	0.6391212000003179	147.5560522999997	1	1	77	4	go_punish	1	0	-1	1	0	0	0	1.0	0.0	-1	1.0	0.6391212000003179	1033.4239914000002	1175.0085164	1176.0136304	1177.4464068	1178.9522498	1179.9667983000002	1180.9800437	1182.0074732	1183.0139489	1184.2239753	2020-08-27 10:47:04.970074	-0.132517817768472	-0.0191866229584694	-0.114898618177093	-0.126273195413223	0.0176191995913794	-0.114898618177093	0.132517817768472	-0.114898618177093	-0.0191866229584694	-0.114898618177093	0.0176191995913794	-0.710494414825569	-4.454059045471675	-2.1352569346215438	-2.490925672370137	-4.610124314228393	-2.9162061044655103	-2.490925672370137	-6.430636923762762	-4.9305954111536625	-0.47653636568198626	-4.543556110731317	-0.08262649626036642	2	wrong	1.0
150.81960260000005	8.46970710000005	nogo_punish	0.284415799999806	150.84652509999978	152.76461219999987	155.30937489999997	1.9180871000000934	151.85126769999988	154.29585439999983	158.35345800000027	0.9133444999999938	1.0135205000001406	0.9627741999995578	157.3465974000003	0.5802419999999984	156.32198359999984	1	1	78	3	nogo_punish	1	-1	0	0	1	0	0	0.0	1.0	-1	0.284415799999806	0.5802419999999984	1033.4239914000002	1184.2705165	1185.2752591	1186.1886036	1187.7198458	1188.7333663000002	1189.745975	1190.7705888000005	1191.7774494000005	1192.7402236	2020-08-27 10:47:04.970074	-0.0428219665187533	-0.0950465210178678	-0.0107528777199558	-0.101816915479465	-0.0535748442387092	-0.0107528777199558	0.0428219665187533	-0.0950465210178678	-0.0107528777199558	-0.0535748442387092	-0.0107528777199558	-0.7303465119847942	-4.364363194221957	-2.211116832680942	-2.3867799319130003	-4.585668034294636	-2.987400148295599	-2.3867799319130003	-6.450489020921987	-4.869271637215279	-0.5049084429933215	-4.523704013572092	-0.07419275102185281	2	correct	1.0
159.3335219999999	8.144018000000415	nogo_reward	1.0	159.36044449999963	160.92058789999987	163.4396512999997	1.5601434000002428	160.3651817	162.42485099999976	166.4843234	0.5554061999998794	1.0148002999999335	1.0201391000000513	165.47749739999972	0.482314000000315	164.4519197999998	1	1	79	1	nogo_reward	1	0	1	0	0	1	0	0.0	1.0	1	1.0	0.482314000000315	1033.4239914000002	1192.7844358999998	1193.7891731000002	1194.3445793	1195.8488424	1196.8636427	1197.8759112	1198.9014888	1199.9083148000002	1200.9284539000002	2020-08-27 10:47:04.970074	2.46125942039504	0.414898197478618	3.73775394594914	3.80053573577915	1.2764945255541	3.73775394594914	-2.46125942039504	3.73775394594914	0.414898197478618	3.73775394594914	1.2764945255541	24.67238988282526	-1.8602818073081635	-1.7011721141844562	1.3617268917560956	-0.6833153830360206	-1.6573307785027895	1.3617268917560956	18.952247373888067	-1.0779428470274297	0.7823389602807344	-0.6909035466050844	0.35145832417672096	2	correct	1.0
167.51825830000007	8.653203200000007	go_reward	0.2192845999998098	167.5451807999998	169.3938134	171.93416449999995	1.848632600000201	168.5506869999997	170.92492289999973	174.9754479999997	0.8431264000003011	1.0092416000002231	1.222936000000118	173.96887349999997	0.4526261999999406	172.9455330999997	1	1	80	2	go_reward	0	0	1	1	1	1	0	0.0	1.0	0	0.2192845999998098	0.4526261999999406	1033.4239914000002	1200.9691722	1201.9746784	1202.8178048000002	1204.3489143	1205.3581559000002	1206.3695245	1207.3928649000002	1208.3994394	1209.6223754	2020-08-27 10:47:04.970074	3.07051019379564	2.52824064781517	0.0	2.31526319647594	3.07051019379564	0.0	-3.07051019379564	2.52824064781517	0.0	3.07051019379564	0.0	-2.52824064781517	-1.2510310339075636	0.4121703361520961	-2.3760270541930444	-2.168587922339231	0.13668488973875048	-2.3760270541930444	-8.248383156752363	-1.7451865991809297	-0.4941555652733657	-1.9004168447390541	-0.06343987330189702	2	correct	1.0
176.21737230000008	8.448881899999833	nogo_reward	1.0	176.2442947999998	178.10306790000004	180.62455139999975	1.858773100000235	177.24928239999963	179.60875480000004	183.67545500000028	0.8537855000004129	1.0157965999997032	1.0177216999993561	182.66811549999989	0.4244198000001233	181.6367528000003	1	1	81	1	nogo_reward	1	0	1	0	0	1	1	1.0	1.0	1	1.0	0.4244198000001233	1033.4239914000002	1209.6682862	1210.6732737999998	1211.5270593000002	1213.0327462000002	1214.0485428	1215.0607442000005	1216.0921069	1217.0994464000005	1218.1171680999998	2020-08-27 10:47:04.970074	2.65242658831458	0.414898197478618	3.98213755131153	4.05597328964109	1.32971096299696	3.98213755131153	-2.65242658831458	3.98213755131153	0.414898197478618	3.98213755131153	1.32971096299696	24.42800627746287	-1.6691146393886238	-1.7011721141844562	1.6061104971184856	-0.427877829174081	-1.6041143410599297	1.6061104971184856	18.707863768525677	-0.8335592416650397	0.8355553977235942	-0.44651994124269434	0.35145832417672096	2	correct	1.0
184.7114085000003	9.284504199999674	go_punish	1.0	184.73833100000002	187.5003148000003	190.01900679999972	2.76198380000028	185.7435244999997	189.0054244999999	193.06833819999974	1.7567903000006027	1.0135822999998254	0.9544969999999466	192.0605799	0.4692003000000113	191.0299197999998	1	1	82	4	go_punish	1	0	-1	1	0	0	0	0.0	1.0	-1	1.0	0.4692003000000113	1033.4239914000002	1218.1623224000002	1219.1675159	1220.9243062000005	1222.4294159	1223.4429982	1224.4539112	1225.4845713000002	1226.4923296	1227.4468266	2020-08-27 10:47:04.970074	-0.138673425447755	-0.0191866229584694	-0.122452794963063	-0.133679385299753	0.0162206304846925	-0.122452794963063	0.138673425447755	-0.122452794963063	-0.0191866229584694	-0.122452794963063	0.0162206304846925	-0.702940238039599	-4.460214653150959	-2.1352569346215438	-2.4984798491561073	-4.6175305041149235	-2.917604673572197	-2.4984798491561073	-6.423082746976792	-4.938149587939633	-0.47793493478867316	-4.551110287517288	-0.08262649626036642	2	correct	1.0
194.0500159000003	8.943141699999615	nogo_punish	1.0	194.07693840000002	196.54356959999996	199.05984360000002	2.466631199999938	195.08191929999975	198.04780489999985	202.11074969999981	1.4616503000002012	1.0120387000001756	0.909330399999817	201.1045515000003	0.6051559000002271	200.07220659999984	1	1	83	3	nogo_punish	1	-1	0	0	0	1	0	0.0	1.0	0	1.0	0.6051559000002271	1033.4239914000002	1227.5009298000002	1228.5059107	1229.9675610000002	1231.4717963	1232.4838350000002	1233.496198	1234.5285429000005	1235.5347411	1236.4440714999998	2020-08-27 10:47:04.970074	0.0528680534813037	-0.103506919621597	-0.0107528777199558	-0.110154836332349	-0.0636209312012596	-0.0107528777199558	-0.0528680534813037	-0.0107528777199558	-0.103506919621597	-0.0107528777199558	-0.0636209312012596	0.0107528777199558	-4.2686731742219	-2.219577231284671	-2.3867799319130003	-4.594005955147519	-2.997446235258149	-2.3867799319130003	-5.709389631217237	-4.826449670696525	-0.5577764964746252	-4.43941037027418	-0.16694679292349401	2	correct	1.0
203.03657030000022	8.448186999999734	nogo_punish	0.2941842999998698	203.06349279999995	204.5651141999997	207.1124428999999	1.501621399999749	204.06947589999982	206.09661649999998	210.1621118999999	0.4956382999998823	1.0158263999999235	1.3495678999997835	209.15458880000028	0.4369946000001619	208.12408359999972	1	1	84	3	nogo_punish	1	-1	0	0	1	0	0	0.0	1.0	-1	0.2941842999998698	0.4369946000001619	1033.4239914000002	1236.4874842000002	1237.4934673	1237.9891056	1239.5206079000002	1240.5364343	1241.548075	1242.5785802000005	1243.5861033	1244.9356712	2020-08-27 10:47:04.970074	-0.0526907939670196	-0.103506919621597	-0.0102182415292976	-0.106738794833565	-0.0629090354963171	-0.0102182415292976	0.0526907939670196	-0.103506919621597	-0.0102182415292976	-0.0629090354963171	-0.0102182415292976	-0.721886113381065	-4.374232021670223	-2.219577231284671	-2.386245295722342	-4.590589913648736	-2.996734339553207	-2.386245295722342	-6.442028622318258	-4.878605828472887	-0.5043738068026633	-4.532164412175821	-0.07365811483119461	2	correct	1.0
211.52969950000056	8.83658159999959	go_punish	1.0	211.5566220000003	213.90840919999982	216.4283422999997	2.351787199999535	212.56102079999982	215.41379119999988	219.48060099999975	1.3473883999999998	1.014551099999835	0.9126026000001275	218.4725146000003	0.5119037999998	217.4462676999999	1	1	85	4	go_punish	1	0	-1	1	0	0	0	0.0	1.0	-1	1.0	0.5119037999998	1033.4239914000002	1244.9806134000005	1245.9850122	1247.3324006	1248.8377826	1249.8523337	1250.8702591	1251.8965060000005	1252.9045924	1253.817195	2020-08-27 10:47:04.970074	-0.144690879071874	-0.0191866229584694	-0.129830521906488	-0.140908189285339	0.0148603571653859	-0.129830521906488	0.144690879071874	-0.129830521906488	-0.0191866229584694	-0.129830521906488	0.0148603571653859	-0.695562511096174	-4.466232106775077	-2.1352569346215438	-2.5058575760995323	-4.62475930810051	-2.9189649468915038	-2.5058575760995323	-6.415705020033367	-4.945527314883058	-0.47929520810797976	-4.558488014460712	-0.08262649626036642	2	correct	1.0
220.40451129999997	8.056725800000322	nogo_reward	1.0	220.4314337999997	222.12326689999963	224.6408164999998	1.6918330999999398	221.4361575999999	223.62735889999976	227.68292329999986	0.6871092999997472	1.013457600000038	0.8052363000001606	226.67592560000003	0.499324400000205	225.65174649999972	1	1	86	1	nogo_reward	1	0	1	0	0	1	0	0.0	1.0	1	1.0	0.499324400000205	1033.4239914000002	1253.8554252	1254.860149	1255.5472582999998	1257.0513503	1258.0648079	1259.0757379	1260.0999170000002	1261.1069147	1261.9121510000002	2020-08-27 10:47:04.970074	2.8395420416006	0.414898197478618	4.22058083197858	4.30284437243399	1.38103879037798	4.22058083197858	-2.8395420416006	4.22058083197858	0.414898197478618	4.22058083197858	1.38103879037798	24.18956299679582	-1.4819991861026036	-1.7011721141844562	1.8445537777855359	-0.18100674638118086	-1.5527865136789096	1.8445537777855359	18.469420487858628	-0.5951159609979895	0.8868832251046143	-0.2080766605756441	0.35145832417672096	2	correct	1.0
228.50198079999996	9.561120000000074	nogo_reward	0.2218493000000307	228.52890329999968	231.04433019999988	233.58198869999978	2.515426900000193	229.5330521999997	232.5723009999997	236.6273342999998	1.5112780000001749	1.009687700000086	1.4626889999999548	235.6199535000003	0.5195847999998477	234.59458059999997	1	1	87	1	nogo_reward	1	0	1	0	1	0	0	0.0	1.0	0	0.2218493000000307	0.5195847999998477	1033.4239914000002	1261.9528947	1262.9570436	1264.4683216	1265.9962924	1267.0059801	1268.0185720000002	1269.0439449000005	1270.0513257	1271.5140147	2020-08-27 10:47:04.970074	-3.02280522078487	0.414898197478618	4.45348215345248	4.54222650257997	1.4306769326676	4.45348215345248	3.02280522078487	0.414898197478618	4.45348215345248	1.4306769326676	4.45348215345248	-0.414898197478618	-7.344346448488073	-1.7011721141844562	2.077455099259436	0.05837538376479934	-1.5031483713892895	2.077455099259436	-6.135040706415811	-3.3850198603089696	3.9593265881791146	-4.013759295075606	4.390042280150583	2	correct	1.0
238.11009820000027	9.548112799999899	nogo_punish	0.2677961999997933	238.1370207	240.61450119999972	243.15684599999986	2.4774804999997286	239.14137349999964	242.14752269999963	246.20367029999989	1.4731277000000773	1.0093233000002328	1.4814632000000074	245.19632239999964	0.4525115000001278	244.1684992999999	1	1	88	3	nogo_punish	0	0	-1	0	1	0	0	0.0	1.0	0	0.2677961999997933	0.4525115000001278	1033.4239914000002	1271.5610121000002	1272.5653648999998	1274.0384926	1275.5715140999998	1276.5808374	1277.5924907	1278.6203137999998	1279.6276617	1281.1091249	2020-08-27 10:47:04.970074	-0.0624182680489237	-0.111639046804017	-0.0102182415292976	-0.115160922270927	-0.0726365095782213	-0.0102182415292976	0.0624182680489237	-0.111639046804017	-0.0102182415292976	-0.0726365095782213	-0.0102182415292976	0.111639046804017	-4.383959495752127	-2.227709358467091	-2.386245295722342	-4.599012041086097	-3.0064618136351107	-2.386245295722342	-5.608503462133176	-4.888333302554791	-0.5043738068026633	-4.540296539358241	-0.07365811483119461	2	correct	1.0
247.70254130000012	9.674068400000124	go_punish	1.0	247.72946379999985	250.49782039999968	253.01644229999988	2.7683565999998336	248.7340377999999	252.00211969999964	256.05768439999974	1.7637825999997858	1.0143226000002414	1.3458478000002287	255.0505103999999	0.4415101999998114	254.02861659999962	1	1	89	4	go_punish	1	0	-1	1	0	0	0	0.0	1.0	-1	1.0	0.4415101999998114	1033.4239914000002	1281.1534552	1282.1580292	1283.9218118	1285.4261110999998	1286.4404337	1287.4526079999998	1288.4745018	1289.4816758	1290.8275236000002	2020-08-27 10:47:04.970074	-0.150579565291137	-0.0191866229584694	-0.137044110008463	-0.147972919081576	0.0135354552826735	-0.137044110008463	0.150579565291137	-0.137044110008463	-0.0191866229584694	-0.137044110008463	0.0135354552826735	-0.688348922994199	-4.472120792994341	-2.1352569346215438	-2.5130711642015076	-4.631824037896747	-2.920289848774216	-2.5130711642015076	-6.408491431931392	-4.952740902985033	-0.48062010999069216	-4.5657016025626875	-0.08262649626036642	2	correct	1.0
257.42507939999996	7.857207400000334	go_reward	0.3233936000001449	257.4520018999997	258.8436873999999	261.3819647	1.3916855000002215	258.4567904999999	260.3721836999998	264.4253650999999	0.38689690000001065	1.0097810000002028	0.8838442000001123	263.41839600000003	0.4222130000002835	262.3938866999997	1	1	90	2	go_reward	0	0	1	1	1	1	0	0.0	1.0	0	0.3233936000001449	0.4222130000002835	1033.4239914000002	1290.8759933	1291.8807819	1292.2676788	1293.7961751	1294.8059561000002	1295.8178781	1296.8423874000002	1297.8493565	1298.7332007000002	2020-08-27 10:47:04.970074	2.95881133720976	2.43317669548221	0.0	2.2370232472515	2.95881133720976	0.0	-2.95881133720976	2.43317669548221	0.0	2.95881133720976	0.0	-2.43317669548221	-1.3627298904934437	0.3171063838191359	-2.3760270541930444	-2.2468278715636707	0.0249860331528704	-2.3760270541930444	-8.153319204419404	-1.8568854557668097	-0.4941555652733657	-1.9954807970720143	-0.06343987330189702	2	correct	1.0
265.3285301000001	8.948185600000215	nogo_punish	0.2365484000001743	265.3554525999998	267.4024678000003	269.9471467999997	2.0470152000004873	266.36132959999986	268.93314109999983	272.9887718	1.0411382000004323	1.0140056999998706	1.314866400000028	271.9817316999997	0.4588966999999684	270.9592364	1	1	91	3	nogo_punish	1	-1	0	0	1	0	0	0.0	1.0	-1	0.2365484000001743	0.4588966999999684	1033.4239914000002	1298.779444	1299.785321	1300.8264592000005	1302.3571325	1303.3711382	1304.3832278000002	1305.4057231	1306.4127632000002	1307.7276296000002	2020-08-27 10:47:04.970074	-0.0581395364403615	-0.108068097848904	-0.0102182415292976	-0.111779447328593	-0.0683577779696591	-0.0102182415292976	0.0581395364403615	-0.108068097848904	-0.0102182415292976	-0.0683577779696591	-0.0102182415292976	-0.717324935153758	-4.379680764143565	-2.224138409511978	-2.386245295722342	-4.595630566143764	-3.0021830820265487	-2.386245295722342	-6.4374674440909505	-4.884054570946229	-0.5043738068026633	-4.536725590403129	-0.07365811483119461	2	correct	1.0
274.3255600000002	7.921081399999821	go_reward	0.2621275999999852	274.35248249999995	275.9138438	278.45355389999986	1.5613613000000441	275.3572887	277.4398868999997	281.5008078000003	0.5565550999999687	1.0136670000001686	0.7727560999994694	280.4920526999997	0.650061000000278	279.4659723999998	1	1	92	2	go_reward	1	1	0	1	1	1	1	0.0	0.0	1	0.2621275999999852	0.650061000000278	1033.4239914000002	1307.7764739000002	1308.7812801000002	1309.3378352000002	1310.8638783	1311.8775453	1312.8899638	1313.9160441	1314.9247992000005	1315.6975553	2020-08-27 10:47:04.970074	2.86234584967258	2.35159854696945	0.0	2.16966055352759	2.86234584967258	0.0	-2.86234584967258	2.35159854696945	0.0	2.86234584967258	0.0	26.058545281804953	-1.4591953780306235	0.23552823530637568	-2.3760270541930444	-2.3141905652875807	-0.07147945438430936	-2.3760270541930444	20.33840277286776	-1.9533509433039895	-0.4941555652733657	-2.0770589455847746	-0.06343987330189702	2	wrong	1.0
282.2893229000001	7.967936399999871	go_punish	1.0	282.31624539999984	283.8204090999998	286.3388637999999	1.5041636999999355	283.32099649999964	285.3250346	289.3819463	0.49941260000014154	1.0138291999999183	0.9022354999997333	288.37388829999963	0.6154015000001891	287.3507093999997	1	1	93	4	go_punish	1	0	-1	1	0	0	0	0.0	1.0	-1	1.0	0.6154015000001891	1033.4239914000002	1315.7402368	1316.7449878999998	1317.2444005	1318.7490260000002	1319.7628552	1320.7747008	1321.7978796999998	1322.8059377000002	1323.7081732	2020-08-27 10:47:04.970074	-0.156347347703015	-0.0191866229584694	-0.144103898920892	-0.154884633189739	0.012243448782123	-0.144103898920892	0.156347347703015	-0.144103898920892	-0.0191866229584694	-0.144103898920892	0.012243448782123	-0.6812891340817699	-4.477888575406219	-2.1352569346215438	-2.520130953113936	-4.6387357520049095	-2.9215818552747668	-2.520130953113936	-6.401431643018963	-4.9598006918974615	-0.48191211649124266	-4.572761391475116	-0.08262649626036642	2	correct	1.0
290.3100101	9.613663000000088	nogo_punish	0.2182116000003588	290.3369325999997	292.87785110000004	295.4218361999997	2.5409185000003163	291.3416017999998	294.4073384999997	298.46547569999984	1.536249300000236	1.0144976999999926	1.4851198999999724	297.45861809999997	0.5461703999999372	296.43390569999974	1	1	94	3	nogo_punish	1	-1	0	0	1	0	0	0.0	1.0	-1	0.2182116000003588	0.5461703999999372	1033.4239914000002	1323.760924	1324.7655932	1326.3018425000002	1327.8313299	1328.8458276	1329.8578971	1330.8826095000002	1331.8894671	1333.374587	2020-08-27 10:47:04.970074	-0.0680364033714491	-0.116369428851946	-0.0102182415292976	-0.120205922827834	-0.0782546449007467	-0.0102182415292976	0.0680364033714491	-0.116369428851946	-0.0102182415292976	-0.0782546449007467	-0.0102182415292976	-0.709023604150716	-4.389577631074653	-2.2324397405150203	-2.386245295722342	-4.604057041643005	-3.0120799489576364	-2.386245295722342	-6.429166113087909	-4.893951437877316	-0.5043738068026633	-4.54502692140617	-0.07365811483119461	2	correct	1.0
299.9679559000001	8.283235599999898	nogo_punish	0.2959255000000667	299.99487839999983	301.6600430999997	304.2043486999996	1.6651646999998775	300.9993962999997	303.1895761999997	307.2314228	0.660646799999995	1.0147724999999355	1.0466911999997137	306.2244719999999	1.0	305.2156299999997	1	1	95	3	nogo_punish	1	-1	0	0	1	0	0	n/a	0.0	0	0.2959255000000667	1.0	1033.4239914000002	1333.4188698	1334.4233877	1335.0840345	1336.6135676	1337.6283400999998	1338.6396214	1339.6484634	1340.6554142000002	1341.7021054	2020-08-27 10:47:04.970074	-0.0775125129297362	-0.124321028141679	-0.0102182415292976	-0.128239546482776	-0.0877307544590337	-0.0102182415292976	0.0775125129297362	-0.124321028141679	-0.0102182415292976	-0.0877307544590337	-0.0102182415292976	-0.701072004860983	-4.39905374063294	-2.240391339804753	-2.386245295722342	-4.612090665297947	-3.021556058515923	-2.386245295722342	-6.4212145137981755	-4.903427547435603	-0.5043738068026633	-4.552978520695904	-0.07365811483119461	2	missed	0.0
308.2969613	8.950834799999939	nogo_reward	1.0	308.32388379999975	310.29922829999987	312.8180499	1.9753445000001193	309.3293779999999	311.8037761000003	315.8702777999997	0.9698502999999619	1.014273799999728	1.4044407999999748	314.86265030000004	0.5168515000000298	313.8312473999997	1	1	96	1	nogo_reward	1	0	1	0	0	1	0	0.0	1.0	1	1.0	0.5168515000000298	1033.4239914000002	1341.7478752	1342.7533694	1343.7232197	1345.2277675000005	1346.2420413000002	1347.2552388	1348.2866417000002	1349.2942692	1350.69871	2020-08-27 10:47:04.970074	3.09496812739062	0.381597662845202	4.45348215345248	4.36004231449351	1.35851402606186	4.45348215345248	-3.09496812739062	4.45348215345248	0.381597662845202	4.45348215345248	1.35851402606186	23.95666167532192	-1.2265731003125837	-1.734472648817872	2.077455099259436	-0.1238088043216603	-1.5753112779950296	2.077455099259436	18.236519166384728	-0.3622146395240895	0.8643584607884943	0.024824660898255857	0.318157789543305	2	correct	1.0
317.295709	7.760409900000013	nogo_reward	1.0	317.3226314999997	318.7566403999997	321.27586329999986	1.4340088999999807	318.3276102	320.2613908999997	324.3267679000003	0.4290301999997155	1.0144724000001588	0.7562734999994518	323.3181798000003	0.6359347000002344	322.2880448999997	1	1	97	1	nogo_reward	1	0	1	0	0	1	0	0.0	1.0	1	1.0	0.6359347000002344	1033.4239914000002	1350.7466229	1351.7516016000002	1352.1806318	1353.6853823	1354.6998547	1355.7120363	1356.7421712000005	1357.7507593000005	1358.5070328	2020-08-27 10:47:04.970074	3.26997285661202	0.381597662845202	4.68118788598416	4.62003278325143	1.41121502937214	4.68118788598416	-3.26997285661202	4.68118788598416	0.381597662845202	4.68118788598416	1.41121502937214	23.728955942790243	-1.0515683710911836	-1.734472648817872	2.305160831791116	0.13618166443625945	-1.5226102746847496	2.305160831791116	18.00881343385305	-0.13450890699240947	0.9170594640987743	0.2525303934299359	0.318157789543305	2	correct	1.0
325.10549360000005	8.444848900000125	nogo_punish	0.5404810999998517	325.1324160999998	326.60068079999974	329.1485376999999	1.4682646999999633	326.13819909999984	328.1322012999999	332.1941886999998	0.4624816999998984	1.0163364000000001	1.3830763000000843	331.1877471999999	0.7680479999999079	330.16100389999974	1	1	98	3	nogo_punish	1	-1	0	0	1	0	0	0.0	1.0	-1	0.5404810999998517	0.7680479999999079	1033.4239914000002	1358.5564075	1359.5621905	1360.0246722	1361.5561927	1362.5725291	1363.5849953	1364.6117386	1365.6181801	1367.0012564	2020-08-27 10:47:04.970074	-0.0729812681482422	-0.120560662024198	-0.0102182415292976	-0.124531199804525	-0.0831995096775398	-0.0102182415292976	0.0729812681482422	-0.120560662024198	-0.0102182415292976	-0.0831995096775398	-0.0102182415292976	-0.704832370978464	-4.3945224958514455	-2.236630973687272	-2.386245295722342	-4.608382318619696	-3.0170248137344293	-2.386245295722342	-6.4249748799156565	-4.8988963026541095	-0.5043738068026633	-4.549218154578423	-0.07365811483119461	2	correct	1.0
333.60163360000024	9.214222099999915	nogo_punish	0.277170699999715	333.62855609999997	336.0538776999997	338.5973178999998	2.4253215999997337	334.63316669999995	337.58309599999984	341.6448731999999	1.4207109999997556	1.0142218999999386	1.1979049999999916	340.63709359999984	0.5535500999999385	339.60960339999974	1	1	99	3	nogo_punish	1	-1	0	0	1	0	0	1.0	0.0	-1	0.277170699999715	0.5535500999999385	1033.4239914000002	1367.0525475000002	1368.0571581000002	1369.4778691	1371.0070874	1372.0213093	1373.0335948	1374.061085	1375.0688646	1376.2667696	2020-08-27 10:47:04.970074	-0.0826289503343967	-0.128669991236067	-0.0102182415292976	-0.132671039497373	-0.0928471918636943	-0.0102182415292976	0.0826289503343967	-0.128669991236067	-0.0102182415292976	-0.0928471918636943	-0.0102182415292976	-0.6967230417665949	-4.4041701780376	-2.244740302899141	-2.386245295722342	-4.616522158312543	-3.0266724959205837	-2.386245295722342	-6.416865550703788	-4.908543984840264	-0.5043738068026633	-4.557327483790291	-0.07365811483119461	2	wrong	1.0
342.8531951	8.573027700000239	nogo_reward	1.0	342.8801175999997	344.66256539999995	347.18201899999985	1.7824478000002273	343.8848533999999	346.16685819999975	350.21095579999974	0.777712000000065	1.0151608000001033	1.2421895000002223	349.2036049999997	1.0	348.19427499999983	1	1	100	1	nogo_reward	1	0	1	0	0	1	0	n/a	0.0	1	1.0	1.0	1033.4239914000002	1376.304109	1377.3088448	1378.0865568000002	1379.5908496	1380.6060104	1381.6182664	1382.6275964	1383.6349472	1384.8771367000002	2020-08-27 10:47:04.970074	3.44240894224107	0.381597662845202	4.90400186627687	4.86661194733151	1.4615929240358	4.90400186627687	-3.44240894224107	4.90400186627687	0.381597662845202	4.90400186627687	1.4615929240358	23.50614196249753	-0.8791322854621337	-1.734472648817872	2.5279748120838255	0.3827608285163393	-1.4722323800210895	2.5279748120838255	17.785999453560336	0.08830507330030013	0.9674373587624344	0.4753443737226455	0.318157789543305	2	missed	0.0
351.4689251	8.822510200000124	nogo_reward	1.0	351.4958475999997	353.2802449999997	355.8001853999997	1.784397399999989	352.50053949999983	354.7854524999998	358.85034829999995	0.7797054999998636	1.014732899999899	1.46800949999988	357.8433405999997	0.4235638000000108	356.8124210999997	1	1	101	1	nogo_reward	1	0	1	0	0	1	0	0.0	1.0	1	1.0	0.4235638000000108	1033.4239914000002	1384.919839	1385.9245309	1386.7042364	1388.2094439	1389.2241768	1390.2364125	1391.267332	1392.2743397000002	1393.7423492	2020-08-27 10:47:04.970074	3.61218215409395	0.381597662845202	5.12219277573755	5.10289296854405	1.5100106216436	5.12219277573755	-3.61218215409395	5.12219277573755	0.381597662845202	5.12219277573755	1.5100106216436	23.287951053036853	-0.7093590736092539	-1.734472648817872	2.7461657215445054	0.6190418497288794	-1.4238146824132896	2.7461657215445054	17.56780854409966	0.3064959827609801	1.0158550563702344	0.6935352831833255	0.318157789543305	2	correct	1.0
360.33435340000005	7.850507599999901	go_reward	0.669272699999965	360.3612758999998	361.64178489999995	364.1891698999998	1.2805090000001655	361.3664053999996	363.17385449999983	367.23370039999963	0.2753795000003265	1.0153153999999631	0.9780831000000489	366.22614769999973	0.4496824000002561	365.2013708999998	1	1	102	2	go_reward	1	1	0	1	1	1	0	0.0	1.0	1	0.669272699999965	0.4496824000002561	1033.4239914000002	1393.7852673	1394.7903967999998	1395.0657763000002	1396.5978459	1397.6131613	1398.6253623	1399.6501391	1400.6576917999998	1401.6357749	2020-08-27 10:47:04.970074	3.27898595815548	2.69475947872667	0.0	2.52499052453935	3.27898595815548	0.0	-3.27898595815548	2.69475947872667	0.0	3.27898595815548	0.0	25.71538435004773	-1.0425552695477238	0.5786891670635961	-2.3760270541930444	-1.9588605942758206	0.3451606540985903	-2.3760270541930444	19.995241841110538	-1.5367108348210898	-0.4941555652733657	-1.7338980138275542	-0.06343987330189702	2	correct	1.0
368.22918370000025	9.420473199999833	nogo_punish	0.0406810999998015	368.2561062	370.6772664	373.2214706999998	2.421160200000031	369.2611634	372.2079859999999	376.2661258999999	1.416103000000021	1.0134846999999354	1.4104534999999032	375.2591456	0.5233903000003011	374.2336359999997	1	1	103	3	nogo_punish	1	-1	0	0	1	0	0	0.0	1.0	-1	0.0406810999998015	0.5233903000003011	1033.4239914000002	1401.6800976000002	1402.6851548000002	1404.1012578000002	1405.6319774	1406.6454621	1407.6576274	1408.6831370000002	1409.6901173	1411.1005708	2020-08-27 10:47:04.970074	-0.0918612300342315	-0.136430273814113	-0.0102182415292976	-0.14044604680931	-0.102079471563529	-0.0102182415292976	0.0918612300342315	-0.136430273814113	-0.0102182415292976	-0.102079471563529	-0.0102182415292976	-0.688962759188549	-4.413402457737435	-2.252500585477187	-2.386245295722342	-4.624297165624481	-3.0359047756204185	-2.386245295722342	-6.409105268125742	-4.917776264540099	-0.5043738068026633	-4.565087766368338	-0.07365811483119461	2	correct	1.0
377.6963101000001	8.812959299999875	nogo_punish	0.3086723999999776	377.72323259999985	379.5582632000003	382.1059396999999	1.8350306000004366	378.7278053	381.0899875	385.1473797999997	0.8304579000002832	1.0159521999999015	1.3888120999999956	384.13977179999983	0.4610061999997015	383.1178961999999	1	1	104	3	nogo_punish	1	-1	0	0	1	0	0	0.0	1.0	-1	0.3086723999999776	0.4610061999997015	1033.4239914000002	1411.147224	1412.1517967000002	1412.9822546000005	1414.5139789000002	1415.5299311	1416.5418876	1417.5637632	1418.5713712	1419.9601833	2020-08-27 10:47:04.970074	-0.100757319961131	-0.143911029946677	-0.0102182415292976	-0.147929724888963	-0.110975561490429	-0.0102182415292976	0.100757319961131	-0.143911029946677	-0.0102182415292976	-0.110975561490429	-0.0102182415292976	-0.6814820030559849	-4.422298547664335	-2.259981341609751	-2.386245295722342	-4.631780843704133	-3.0448008655473187	-2.386245295722342	-6.401624511993178	-4.926672354466999	-0.5043738068026633	-4.572568522500902	-0.07365811483119461	2	correct	1.0
386.5538746	8.753216100000145	nogo_reward	1.0	386.5807970999997	388.4885824999999	391.00338939999983	1.9077854000001935	387.58630519999997	389.9936969999999	394.0507862999998	0.9022772999999233	1.009692399999949	1.2832269000000451	393.04386179999983	0.5297921000001224	392.0161722999999	1	1	105	1	nogo_reward	0	1	0	0	0	1	0	0.0	1.0	0	1.0	0.5297921000001224	1033.4239914000002	1420.0047885	1421.0102966000002	1421.9125739	1423.4176884	1424.4273808	1425.4401637	1426.4678532	1427.4747777	1428.7580046	2020-08-27 10:47:04.970074	3.77927100423091	0.381597662845202	5.3359999601563	5.33083393724068	1.5567289559254	5.3359999601563	-3.77927100423091	5.3359999601563	0.381597662845202	5.3359999601563	1.5567289559254	-5.3359999601563	-0.5422702234722938	-1.734472648817872	2.959972905963256	0.8469828184255093	-1.3770963481314895	2.959972905963256	-11.056142469093494	0.5203031671797307	1.0625733906520343	0.907342467602076	0.318157789543305	2	correct	1.0
395.3503384999999	8.163216600000396	go_reward	0.354419599999801	395.37726099999963	396.91556360000004	399.45559349999985	1.5383026000004065	396.38232389999985	398.4468738000003	402.49719119999963	0.5332397000001947	1.008719699999574	1.0432864000003974	401.4901629999997	0.6101684999998724	400.46678059999977	1	1	106	2	go_reward	0	0	1	1	1	1	0	0.0	1.0	0	0.354419599999801	0.6101684999998724	1033.4239914000002	1428.8012523999998	1429.8063153	1430.3395550000002	1431.8708652000005	1432.8795849	1433.890772	1434.9141544	1435.9211825999998	1436.9644690000002	2020-08-27 10:47:04.970074	3.66498866824151	3.01212423148822	0.0	2.85289201208835	3.66498866824151	0.0	-3.66498866824151	3.01212423148822	0.0	3.66498866824151	0.0	-3.01212423148822	-0.6565525594616939	0.896053919825146	-2.3760270541930444	-1.6309591067268205	0.7311633641846202	-2.3760270541930444	-8.732266740425413	-1.15070812473506	-0.4941555652733657	-1.4165332610660042	-0.06343987330189702	2	correct	1.0
403.5578693000002	9.570606299999781	nogo_reward	1.0	403.58479179999995	406.1538444999999	408.6719810999998	2.5690526999999292	404.5898104999999	407.65782439999975	411.71630909999976	1.5640339999999924	1.0141567000000578	1.4390889999999672	410.7090461999999	0.5772934000001442	409.68376709999984	1	1	107	1	nogo_reward	1	0	1	0	0	1	1	1.0	1.0	1	1.0	0.5772934000001442	1033.4239914000002	1437.0087832000002	1438.0138019	1439.5778359	1441.0818158	1442.0959725	1443.1077585	1444.1330376	1445.1403005	1446.5793895	2020-08-27 10:47:04.970074	3.61576712886084	0.381597662845202	5.13073987060969	5.1368437991463	1.51497274174885	5.13073987060969	-3.61576712886084	5.13073987060969	0.381597662845202	5.13073987060969	1.51497274174885	23.27940395816471	-0.7057740988423635	-1.734472648817872	2.754712816416646	0.6529926803311294	-1.4188525623080395	2.754712816416646	17.559261449227517	0.31504307763312056	1.0208171764754845	0.7020823780554659	0.318157789543305	2	correct	1.0
413.1703106	7.85247870000012	go_reward	0.5425885999998172	413.1972330999997	414.54341369999975	417.0871474000003	1.3461806000000252	414.20174129999987	416.07723039999973	420.1136127	0.3416723999998794	1.0099170000005415	0.9360990999998648	419.1068863999999	1.0	418.0983888999997	1	1	108	2	go_reward	0	0	1	1	1	1	1	n/a	0.0	1	0.5425885999998172	1.0	1033.4239914000002	1446.6212245	1447.6257327	1447.9674051	1449.5012218	1450.5111388000005	1451.5223803	1452.5308778	1453.5376041000002	1454.4737032	2020-08-27 10:47:04.970074	3.52566401126555	2.89512084405045	0.0	2.74510448045055	3.52566401126555	0.0	-3.52566401126555	2.89512084405045	0.0	3.52566401126555	0.0	-2.89512084405045	-0.7958772164376535	0.7790505323873758	-2.3760270541930444	-1.7387466383646206	0.5918387072086606	-2.3760270541930444	-8.615263352987643	-1.2900327817110195	-0.4941555652733657	-1.5335366485037745	-0.06343987330189702	2	missed	0.0
421.07324270000026	8.5294693000003	nogo_punish	0.262849499999902	421.1001652	422.94596479999973	425.48317559999987	1.8457995999997365	422.1049886000003	424.4737408999997	428.5274319	0.8409761999994316	1.0094347000001562	1.1022026000002825	427.5201053999997	0.500750700000026	426.49521159999995	1	1	109	3	nogo_punish	0	0	-1	0	1	0	0	0.0	1.0	0	0.262849499999902	0.500750700000026	1033.4239914000002	1454.5241566000002	1455.5289800000005	1456.3699562	1457.8977323	1458.907167	1459.9192030000002	1460.9440968	1461.9514233000002	1463.0536259000005	2020-08-27 10:47:04.970074	-0.109369953399182	-0.151157655956703	-0.0102182415292976	-0.155170318016344	-0.11958819492848	-0.0102182415292976	0.109369953399182	-0.151157655956703	-0.0102182415292976	-0.11958819492848	-0.0102182415292976	0.151157655956703	-4.430911181102386	-2.2672279676197773	-2.386245295722342	-4.639021436831515	-3.0534134989853694	-2.386245295722342	-5.56898485298049	-4.9352849879050495	-0.5043738068026633	-4.579815148510927	-0.07365811483119461	2	correct	1.0
429.6460546000003	8.859854399999676	go_reward	0.2911665999999968	429.6729771	431.4907731999997	434.03473659999963	1.8177960999996685	430.6775892999999	433.0210493999998	437.07648549999976	0.8131838999997854	1.013687199999822	1.4563459999999395	436.069489	0.7574925999997504	435.04546789999995	1	1	110	2	go_reward	1	1	0	1	1	1	1	0.0	0.0	1	0.2911665999999968	0.7574925999997504	1033.4239914000002	1463.0969685000002	1464.1015807	1464.9147646	1466.4450408	1467.4587279999998	1468.4694593000002	1469.4934804000002	1470.5004769	1471.9568229	2020-08-27 10:47:04.970074	3.90877041932056	3.210947815007	0.0	3.0690647832281	3.90877041932056	0.0	-3.90877041932056	3.210947815007	0.0	3.90877041932056	0.0	25.199196013767402	-0.4127708083826436	1.094877503343926	-2.3760270541930444	-1.4147863355870705	0.9749451152636706	-2.3760270541930444	19.47905350483021	-0.9069263736560096	-0.4941555652733657	-1.2177096775472243	-0.06343987330189702	2	wrong	1.0
438.54788580000013	7.879449000000022	go_punish	1.0	438.57480829999986	440.1415374999997	442.65589839999984	1.566729199999827	439.57951539999976	441.64617369999996	445.7012142999997	0.5620220999999219	1.0097246999998788	0.7530430000001616	444.69435669999984	0.9116139000002476	443.6703434999997	1	1	111	4	go_punish	0	-1	0	1	0	0	0	0.0	1.0	0	1.0	0.9116139000002476	1033.4239914000002	1471.9987997	1473.0035068	1473.5655289	1475.0701651000002	1476.0798898	1477.0943349	1478.1183481	1479.1252057	1479.8782487	2020-08-27 10:47:04.970074	-0.162000935716304	-0.0191866229584694	-0.151018719790354	-0.161652679559803	0.0109822159259498	-0.151018719790354	0.162000935716304	-0.151018719790354	-0.0191866229584694	-0.151018719790354	0.0109822159259498	0.151018719790354	-4.483542163419508	-2.1352569346215438	-2.5270457739833985	-4.645503798374974	-2.9228430881309397	-2.5270457739833985	-5.569123789146839	-4.966715512766924	-0.4831733493474159	-4.5796762123445784	-0.08262649626036642	2	correct	1.0
446.47319930000003	9.122454600000538	go_reward	0.2230064000000311	446.50012179999976	449.1108615999999	451.64798329999985	2.6107398000001467	447.5045617000003	450.6384042999998	454.69564809999974	1.6062998999996125	1.0095790000000306	0.9269283000005544	453.6886593999998	0.4495583000002625	452.6594792999997	1	1	112	2	go_reward	0	0	1	1	1	1	1	1.0	1.0	0	0.2230064000000311	0.4495583000002625	1033.4239914000002	1479.9241132	1480.9285531000005	1482.534853	1484.0623957	1485.0719747	1486.0834707	1487.1126508	1488.1196395	1489.0465678000005	2020-08-27 10:47:04.970074	4.26748318376565	3.50629787640776	0.0	3.37165087125697	4.26748318376565	0.0	-4.26748318376565	3.50629787640776	0.0	4.26748318376565	0.0	-3.50629787640776	-0.054058043937553535	1.390227564744686	-2.3760270541930444	-1.1122002475582007	1.3336578797087606	-2.3760270541930444	-9.226440385344953	-0.5482136092109196	-0.4941555652733657	-0.9223596161464642	-0.06343987330189702	2	correct	1.0
455.6371551	7.9579135000001315	go_reward	0.3527570000001105	455.6640775999997	457.0272408000003	459.5745376	1.3631632000005993	456.66991329999973	458.5589118999999	462.6216053999999	0.3573275000005651	1.0156257000001006	1.0003856999999243	461.6142626000003	0.634446300000036	460.5864747999999	1	1	113	2	go_reward	1	1	0	1	1	1	0	0.0	1.0	1	0.3527570000001105	0.634446300000036	1033.4239914000002	1489.088069	1490.0939047	1490.4512322000005	1491.9829033	1492.9985290000002	1494.0104662	1495.0382540000005	1496.0455968	1497.0459825	2020-08-27 10:47:04.970074	4.10525481169962	3.37095190709256	0.0	3.24278947849995	4.10525481169962	0.0	-4.10525481169962	3.37095190709256	0.0	4.10525481169962	0.0	25.03919192168184	-0.21628641600358378	1.2548815954294859	-2.3760270541930444	-1.2410616403152206	1.1714295076427303	-2.3760270541930444	19.319049412744647	-0.7104419812769498	-0.4941555652733657	-1.0577055854616644	-0.06343987330189702	2	correct	1.0
463.64187749999996	8.395488500000056	go_punish	1.0	463.6687999999997	465.6333160999998	468.1521109	1.9645161000000826	464.6728371999998	467.13782549999996	471.20196599999963	0.9604788999999982	1.0142854000000625	0.8623225000001185	470.1933276	0.4658534999998664	469.1649987000003	1	1	114	4	go_punish	1	0	-1	1	0	0	0	0.0	1.0	-1	1.0	0.4658534999998664	1033.4239914000002	1497.0927914	1498.0968286	1499.0573075	1500.5618169000002	1501.5761023000002	1502.5889901000005	1503.6173190000002	1504.6259573999998	1505.4882799	2020-08-27 10:47:04.970074	-0.158351068415037	-0.0191866229584694	-0.146366204491612	-0.156855060228379	0.0119848639234248	-0.146366204491612	0.158351068415037	-0.146366204491612	-0.0191866229584694	-0.146366204491612	0.0119848639234248	-0.67902682851105	-4.479892296118241	-2.1352569346215438	-2.5223932586846565	-4.6407061790435495	-2.921840440133465	-2.5223932586846565	-6.399169337448243	-4.962062997468181	-0.4821707013499409	-4.575023697045836	-0.08262649626036642	2	correct	1.0
472.08173130000023	8.061824999999772	nogo_punish	0.3348234000000047	472.10865379999996	473.5760172999999	476.12361169999986	1.4673634999999194	473.1132425000003	475.1090770000003	479.1741681999997	0.46277479999957905	1.0145346999995581	0.9963106000000153	478.16648399999985	0.5589957000001959	477.14095610000004	1	1	115	3	nogo_punish	1	-1	0	0	1	0	0	0.0	1.0	-1	0.3348234000000047	0.5589957000001959	1033.4239914000002	1505.5326452000002	1506.5372339000005	1507.0000087	1508.5330684000005	1509.5476031	1510.5649475000002	1511.5904754	1512.5981596	1513.5944702	2020-08-27 10:47:04.970074	-0.104071272454663	-0.14677153534246	-0.0102182415292976	-0.150771292735518	-0.11428951398396	-0.0102182415292976	0.104071272454663	-0.14677153534246	-0.0102182415292976	-0.11428951398396	-0.0102182415292976	-0.678621497660202	-4.425612500157866	-2.262841847005534	-2.386245295722342	-4.634622411550689	-3.0481148180408497	-2.386245295722342	-6.3987640065973945	-4.929986306960529	-0.5043738068026633	-4.575429027896685	-0.07365811483119461	2	correct	1.0
480.18935390000024	7.824054199999864	go_punish	1.0	480.21627639999997	481.6350998999999	484.1551016999997	1.4188234999999167	481.2201063999996	483.14085899999964	487.20222409999997	0.41499350000026425	1.014242700000068	0.8381064999998671	486.1946433999999	0.6011739000000489	485.1667223999998	1	1	116	4	go_punish	1	0	-1	1	0	0	1	1.0	1.0	-1	1.0	0.6011739000000489	1033.4239914000002	1513.6402678000002	1514.6440977999998	1515.0590913	1516.5648503999998	1517.5790931	1518.5907138	1519.6186348	1520.6262155000002	1521.464322	2020-08-27 10:47:04.970074	-0.164343411333151	-0.0191866229584694	-0.153690253995612	-0.164035938791628	0.0106531573375395	-0.153690253995612	0.164343411333151	-0.153690253995612	-0.0191866229584694	-0.153690253995612	0.0106531573375395	-0.67170277900705	-4.485884639036355	-2.1352569346215438	-2.5297173081886566	-4.647887057606798	-2.92317214671935	-2.5297173081886566	-6.391845287944243	-4.969387046972182	-0.48350240793582616	-4.582347746549837	-0.08262649626036642	2	correct	1.0
488.05886850000024	9.793701999999712	nogo_reward	1.0	488.085791	491.04648199999974	493.56553699999995	2.9606909999997697	489.09161749999976	492.55072440000004	496.6099469999997	1.9548644999999851	1.0148125999999138	1.2695459999999912	495.6032584999998	0.5415506999997888	494.57822529999976	1	1	117	1	nogo_reward	1	0	1	0	0	1	0	0.0	1.0	1	1.0	0.5415506999997888	1033.4239914000002	1521.5097824000002	1522.5156089	1524.4704734	1525.9747158000002	1526.9895284000002	1528.0022167	1529.0272499	1530.0339384	1531.3034844	2020-08-27 10:47:04.970074	3.8048759459994	0.381597662845202	5.36970312050494	5.38493943156963	1.56482717450554	5.36970312050494	-3.8048759459994	5.36970312050494	0.381597662845202	5.36970312050494	1.56482717450554	23.04044070826946	-0.5166652817038035	-1.734472648817872	2.9936760663118953	0.9010883127544593	-1.3689981295513496	2.9936760663118953	17.320298199332267	0.55400632752837	1.0706716092321744	0.9410456279507153	0.318157789543305	2	correct	1.0
497.9023245000003	8.307329399999844	go_reward	0.374055799999951	497.92924700000003	499.2507464999999	501.7968615	1.3214994999998453	498.9333069999998	500.7834263	504.84057589999975	0.31743950000009136	1.0134352000000035	1.3960005000001274	503.83277339999995	0.4605622999997649	502.8083794999998	1	1	118	2	go_reward	1	1	0	1	1	1	0	0.0	1.0	1	0.374055799999951	0.4605622999997649	1033.4239914000002	1531.3532384000002	1532.3572984	1532.6747379	1534.2074177000002	1535.2208529000002	1536.2323709	1537.2567648000002	1538.2645673	1539.6605678	2020-08-27 10:47:04.970074	4.46866475645048	3.67107988154524	0.0	3.54876680350201	4.46866475645048	0.0	-4.46866475645048	3.67107988154524	0.0	4.46866475645048	0.0	24.739063947229162	0.14712352874727586	1.555009569882166	-2.3760270541930444	-0.9350843153131607	1.53483945239359	-2.3760270541930444	19.01892143829197	-0.34703203652609016	-0.4941555652733657	-0.7575776110089842	-0.06343987330189702	2	correct	1.0
506.25503750000007	9.248744200000147	nogo_reward	1.0	506.2819599999998	508.6110902999999	511.1331704999998	2.329130300000088	507.28657569999996	510.1157481	514.1818592999998	1.3245145999999295	1.0174223999997594	1.348844900000131	513.1737346999998	0.5416468000003078	512.1482336999998	1	1	119	1	nogo_reward	1	0	1	0	0	1	1	1.0	1.0	1	1.0	0.5416468000003078	1033.4239914000002	1539.7059514	1540.7105671000002	1542.0350817	1543.5397395000002	1544.5571619	1545.5722251	1546.5977261	1547.6058507	1548.9546956000002	2020-08-27 10:47:04.970074	3.9845428626783	0.381597662845202	5.5969614573167	5.61969431847398	1.6124185946384	5.5969614573167	-3.9845428626783	5.5969614573167	0.381597662845202	5.5969614573167	1.6124185946384	22.8131823714577	-0.33699836502490355	-1.734472648817872	3.220934403123656	1.135843199658809	-1.3214067094184896	3.220934403123656	17.093039862520506	0.7812646643401306	1.1182630293650342	1.168303964762476	0.318157789543305	2	correct	1.0
515.5506011000002	8.295901799999683	nogo_reward	1.0	515.5775236	516.9105657	519.4286480999997	1.333042100000057	516.5820829999998	518.4152955999998	522.4876227	0.3284827000002224	1.0133524999998826	1.3858026999996582	521.4781931999996	0.5448013000000174	520.4412514000003	1	1	120	1	nogo_reward	1	0	1	0	0	1	0	0.0	1.0	1	1.0	0.5448013000000174	1033.4239914000002	1549.0015150000002	1550.0060744	1550.3345571000002	1551.839287	1552.8526395	1553.8652428000005	1554.9021845999998	1555.9116141000002	1557.2974167999998	2020-08-27 10:47:04.970074	4.15724538642686	0.381597662845202	5.81536279408461	5.84431440599821	1.65811740765775	5.81536279408461	-4.15724538642686	5.81536279408461	0.381597662845202	5.81536279408461	1.65811740765775	22.59478103468979	-0.16429584127634378	-1.734472648817872	3.4393357398915656	1.3604632871830393	-1.2757078963991395	3.4393357398915656	16.874638525752598	0.9996660011080403	1.1639618423843845	1.3867053015303856	0.318157789543305	2	correct	1.0
