onset	duration	trial_type	response_time	cueOnset	targetOnset	fbOnset	cueRT	firstfixOnset	secondfixOnset	waitOnset	firstfixdur	secondfixdur	waitdur	nback_fbOnset	nback_response_time	nback_targetOnset	block	wm	trial	cue	cond	is_common	outcome_go	outcome_nogo	key_correct	key_pressed	is_correct	key_correct_nback	key_pressed_nback	is_correct_nback	outcome	rt	rt_nback	time_scan	time_onset	time_isi1	time_circle	time_isi2	time_feedback	time_same	time_correct	time_iti	time_done	timestamp_scan	DV	Qgo	Qnogo	SV	Wgo	Wnogo	mDV	Qchosen	Qunchosen	Wchosen	Wunchosen	PE	DVC	QgoC	QnogoC	SVC	WgoC	WnogoC	PEC	WchosenC	WunchosenC	QchosenC	QunchosenC	run	outcome_nback	nback_targetResp
0.0	7.291446099989059	nogo_punish	0.5551350000314415	0.08443759998777978	2.60805350006558	5.165557599975784	2.5236159000778002	1.0931756000500172	4.1434952999698	6.166338899987807	1.5148779000155628	1.0220623000059845	1.2095447999890325	n/a	1.0	n/a	1	0	1	2	nogo_punish	0	0	-1	0	1	0	0	n/a	n/a	0	0.5551350000314415	1.0	481.5645267999498	481.6489643999376	482.65770239999983	484.1725803000154	485.7080220999196	486.7300843999256	n/a	n/a	487.7308656999376	488.94041049992666	2020-05-14 09:13:12.120279	1.52004240292274	0.0	0.0	0.0	1.52004240292274	0.0	-1.52004240292274	0.0	0.0	1.52004240292274	0.0	0.0	-0.7334970310527897	0.3646055759858341	0.9423459701832005	0.26075497971979816	0.3849071568870204	0.9423459701832005	0.3552850040951271	0.29687804800871476	1.0303750790615054	-0.10168437912082852	1.4086359252898621	1	missed	0.0
7.354024000000152	6.299442799994722	go_punish	0.5536291999742389	7.4384615999879315	9.426685200072768	11.966253500082587	1.9882236000848366	8.451589600066654	10.953903499990702	12.985263300011866	0.9750956000061137	1.0123500000918852	0.7526410999707878	n/a	1.0	n/a	1	0	2	1	go_punish	1	0	-1	1	1	1	0	n/a	n/a	0	0.5536291999742389	1.0	481.5645267999498	489.00298839993775	490.0161164000165	490.9912120000226	492.5184302999405	493.5307803000324	n/a	n/a	494.5497900999617	495.30243119993247	2020-05-14 09:13:12.120279	1.52004240292274	0.0	0.0	0.0	1.52004240292274	0.0	-1.52004240292274	0.0	0.0	1.52004240292274	0.0	0.0	-0.7334970310527897	0.3646055759858341	0.9423459701832005	0.26075497971979816	0.3849071568870204	0.9423459701832005	0.3552850040951271	0.29687804800871476	1.0303750790615054	-0.10168437912082852	1.4086359252898621	1	missed	0.0
13.718862400040905	7.883594000013602	nogo_reward	0.3624087000498548	13.803300000028685	16.633985899970867	19.194422399974428	2.830685899942182	14.806850500055589	18.175024199998006	20.21231740002986	1.827135399915278	1.019398199976422	1.4745766000124263	n/a	1.0	n/a	1	0	3	4	nogo_reward	1	0	1	0	1	0	0	n/a	n/a	0	0.3624087000498548	1.0	481.5645267999498	495.3678267999785	496.3713773000054	498.1985126999207	499.7395509999478	500.75894919992425	n/a	n/a	501.7768441999797	503.2514207999921	2020-05-14 09:13:12.120279	1.52004240292274	0.0	0.0	0.0	1.52004240292274	0.0	-1.52004240292274	0.0	0.0	1.52004240292274	0.0	0.0	-0.7334970310527897	0.3646055759858341	0.9423459701832005	0.26075497971979816	0.3849071568870204	0.9423459701832005	0.3552850040951271	0.29687804800871476	1.0303750790615054	-0.10168437912082852	1.4086359252898621	1	missed	0.0
21.642359100049305	7.547958399984054	go_punish	1.0	21.726796700037085	24.510708500049077	27.04552689997945	2.7839118000119925	22.745193400071003	26.027315400075167	28.055166400037706	1.7655150999780744	1.0182114999042824	1.219588699983433	n/a	1.0	n/a	1	0	4	1	go_punish	1	0	-1	1	0	0	1	n/a	n/a	-1	1.0	1.0	481.5645267999498	503.2913234999869	504.3097202000208	506.0752352999989	507.591842200025	508.61005369992927	n/a	n/a	509.6196931999875	510.83928189997096	2020-05-14 09:13:12.120279	-1.52004240292274	0.0	0.0	0.0	1.52004240292274	0.0	1.52004240292274	0.0	0.0	0.0	1.52004240292274	-11.4761781028384	-3.77358183689827	0.3646055759858341	0.9423459701832005	0.26075497971979816	0.3849071568870204	0.9423459701832005	-11.120893098743274	-1.2231643549140252	2.5504174819842453	-0.10168437912082852	1.4086359252898621	1	missed	0.0
29.22676770004898	6.469247099943516	nogo_punish	1.0	29.31120530003676	30.78610020002816	33.315134400036186	1.4748948999913978	30.32566109998146	32.2956343999831	34.32416800002102	0.46043910004669897	1.0195000000530854	1.4562843999592587	n/a	1.0	n/a	1	0	5	2	nogo_punish	1	-1	0	0	0	1	0	n/a	n/a	0	1.0	1.0	481.5645267999498	510.8757320999866	511.8901878999313	512.350626999978	513.8601611999329	514.879661199986	n/a	n/a	515.8886947999708	517.3449791999301	2020-05-14 09:13:12.120279	-1.52004240292274	0.0	0.0	0.0	1.52004240292274	0.0	1.52004240292274	0.0	0.0	0.0	1.52004240292274	0.0	-3.77358183689827	0.3646055759858341	0.9423459701832005	0.26075497971979816	0.3849071568870204	0.9423459701832005	0.3552850040951271	-1.2231643549140252	2.5504174819842453	-0.10168437912082852	1.4086359252898621	1	missed	0.0
35.73601320001757	6.593370400019921	nogo_punish	1.0	35.82045080000535	37.669340800028294	40.19632129999809	1.8488900000229478	36.83319090004079	39.17667580000125	41.207769999979064	0.8361498999875039	1.019645499996841	1.206051200046204	n/a	1.0	n/a	1	0	6	2	nogo_punish	1	-1	0	0	0	1	0	n/a	n/a	0	1.0	1.0	481.5645267999498	517.3849775999552	518.3977176999906	519.2338675999781	520.7412025999511	521.7608480999479	n/a	n/a	522.7722967999289	523.9783479999751	2020-05-14 09:13:12.120279	-1.52004240292274	0.0	0.0	0.0	1.52004240292274	0.0	1.52004240292274	0.0	0.0	0.0	1.52004240292274	0.0	-3.77358183689827	0.3646055759858341	0.9423459701832005	0.26075497971979816	0.3849071568870204	0.9423459701832005	0.3552850040951271	-1.2231643549140252	2.5504174819842453	-0.10168437912082852	1.4086359252898621	1	missed	0.0
42.36686499998899	6.180660500074737	nogo_reward	1.0	42.45130259997677	44.11626000003889	46.654482100042515	1.6649574000621215	43.464898800011724	45.632592700072564	47.66166460001841	0.6513612000271678	1.0218893999699503	0.9702985000330955	n/a	1.0	n/a	1	0	7	4	nogo_reward	0	1	0	0	0	1	0	n/a	n/a	0	1.0	1.0	481.5645267999498	524.0158293999266	525.0294255999615	525.6807867999887	527.1971195000224	528.2190088999923	n/a	n/a	529.2261913999682	530.1964899000013	2020-05-14 09:13:12.120279	-1.52004240292274	0.0	0.0	0.0	1.52004240292274	0.0	1.52004240292274	0.0	0.0	0.0	1.52004240292274	0.0	-3.77358183689827	0.3646055759858341	0.9423459701832005	0.26075497971979816	0.3849071568870204	0.9423459701832005	0.3552850040951271	-1.2231643549140252	2.5504174819842453	-0.10168437912082852	1.4086359252898621	1	missed	0.0
48.582848199992384	7.2564446000615135	go_punish	1.0	48.667285799980164	51.44656389998272	53.97709479997866	2.779278100002557	49.68294630001765	52.9557370999828	54.98559389996808	1.7636175999650732	1.0213576999958605	0.9381365000735968	n/a	1.0	n/a	1	0	8	1	go_punish	1	0	-1	1	0	0	0	n/a	n/a	-1	1.0	1.0	481.5645267999498	530.23181259993	531.2474730999675	533.0110906999325	534.5202638999326	535.5416215999285	n/a	n/a	536.5501206999179	537.4882571999915	2020-05-14 09:13:12.120279	-3.32686847011158	0.0	-2.86775480913685	-2.86775480913685	0.459113660974731	-2.86775480913685	3.32686847011158	-2.86775480913685	0.0	-2.86775480913685	0.459113660974731	-8.60842329370155	-5.58040790408711	0.3646055759858341	-1.9254088389536497	-2.606999829417052	-0.6760215850609885	-1.9254088389536497	-8.253138289606424	-4.0909191640508755	1.4894887400362364	-2.9694391882576787	1.4086359252898621	1	missed	0.0
55.90946960006835	6.808527500019409	go_reward	0.3006696000229567	55.99390720005613	58.470568699995056	61.012416500016116	2.4766614999389276	57.00016970001161	59.98805889999494	62.03036610002164	1.4703989999834448	1.024357600021176	0.772068600053899	n/a	1.0	n/a	1	0	9	3	go_reward	1	1	0	1	1	1	0	n/a	n/a	1	0.3006696000229567	1.0	481.5645267999498	537.558434000006	538.5646964999614	540.0350954999449	541.5525856999448	542.5769432999659	n/a	n/a	543.5948928999715	544.3669615000254	2020-05-14 09:13:12.120279	1.52004240292274	0.0	0.0	0.0	1.52004240292274	0.0	-1.52004240292274	0.0	0.0	1.52004240292274	0.0	5.77076774086528	-0.7334970310527897	0.3646055759858341	0.9423459701832005	0.26075497971979816	0.3849071568870204	0.9423459701832005	6.126052744960408	0.29687804800871476	1.0303750790615054	-0.10168437912082852	1.4086359252898621	1	missed	0.0
62.75299629999785	6.436915600090288	nogo_reward	0.5842129000229761	62.837433899985626	64.34811100002844	66.87993459997233	1.5106771000428125	63.845342400018126	65.8644859000342	67.884309999994	0.5027686000103131	1.0154486999381334	1.3900395000819117	n/a	1.0	n/a	1	0	10	4	nogo_reward	0	1	0	0	1	0	0	n/a	n/a	1	0.5842129000229761	1.0	481.5645267999498	544.4019606999354	545.4098691999679	545.9126377999783	547.429012699984	548.4444613999221	n/a	n/a	549.4488367999438	550.8388763000257	2020-05-14 09:13:12.120279	1.52004240292274	0.0	0.0	0.0	1.52004240292274	0.0	-1.52004240292274	0.0	0.0	1.52004240292274	0.0	5.77076774086528	-0.7334970310527897	0.3646055759858341	0.9423459701832005	0.26075497971979816	0.3849071568870204	0.9423459701832005	6.126052744960408	0.29687804800871476	1.0303750790615054	-0.10168437912082852	1.4086359252898621	1	missed	0.0
69.22558040008875	6.202913699904457	nogo_reward	0.4508597999811172	69.31001800007652	70.71446100005414	73.26954800006934	1.4044429999776185	70.32525740005076	72.2491788000334	74.26723200001288	0.38920360000338405	1.0203692000359297	1.2456996999680996	n/a	1.0	n/a	1	0	11	4	nogo_reward	1	0	1	0	1	0	0	n/a	n/a	0	0.4508597999811172	1.0	481.5645267999498	550.8745448000263	551.8897842000006	552.278987800004	553.8137055999832	554.8340748000192	n/a	n/a	555.8317587999627	557.0774584999308	2020-05-14 09:13:12.120279	3.41008392666427	1.33895796977219	0.0	1.33895796977219	3.41008392666427	0.0	-3.41008392666427	1.33895796977219	0.0	3.41008392666427	0.0	-1.33895796977219	1.1565444926887403	1.703563545758024	0.9423459701832005	1.5997129494919882	2.27494868062855	0.9423459701832005	-0.983672965677063	2.186919571750245	1.0303750790615054	1.2372735906513614	1.4086359252898621	1	missed	0.0
75.46403180004557	7.029005200020038	nogo_punish	1.0	75.54846940003335	77.55017140007112	80.07174980000127	2.001702000037767	76.55927950004116	79.05234340007883	81.08554380002897	0.9908919000299647	1.0194063999224454	1.49193080002442	n/a	1.0	n/a	1	0	12	2	nogo_punish	1	-1	0	0	0	1	0	n/a	n/a	0	1.0	1.0	481.5645267999498	557.1129961999832	558.123806299991	559.1146982000209	560.6168702000286	561.6362765999511	n/a	n/a	562.6500705999788	564.1420014000032	2020-05-14 09:13:12.120279	-1.52004240292274	0.0	0.0	0.0	1.52004240292274	0.0	1.52004240292274	0.0	0.0	0.0	1.52004240292274	0.0	-3.77358183689827	0.3646055759858341	0.9423459701832005	0.26075497971979816	0.3849071568870204	0.9423459701832005	0.3552850040951271	-1.2231643549140252	2.5504174819842453	-0.10168437912082852	1.4086359252898621	1	missed	0.0
82.52803000004491	6.38826949999202	nogo_reward	0.396255699917674	82.61246760003269	84.05306810000911	86.59688349999487	1.4406004999764264	83.6325569000328	85.57318249996752	87.60065540007781	0.4205111999763176	1.0237010000273585	1.4000816999468952	n/a	1.0	n/a	1	0	13	4	nogo_reward	0	1	0	0	1	0	1	n/a	n/a	1	0.396255699917674	1.0	481.5645267999498	564.1769943999825	565.1970836999826	565.6175948999589	567.1377092999173	568.1614102999447	n/a	n/a	569.1651822000276	570.5652638999745	2020-05-14 09:13:12.120279	2.8745895033913	0.957654522953888	0.0	0.957654522953888	2.8745895033913	0.0	-2.8745895033913	0.957654522953888	0.0	2.8745895033913	0.0	4.8131132179113925	0.6210500694157703	1.3222600989397222	0.9423459701832005	1.218409502673686	1.7394542573555805	0.9423459701832005	5.16839822200652	1.6514251484772748	1.0303750790615054	0.8559701438330595	1.4086359252898621	1	missed	0.0
88.95218520006159	6.616825499921106	nogo_reward	0.3170923999277875	89.03662280004937	90.89725989999715	93.42878560000099	1.8606370999477804	90.0394806000404	92.40694820007775	94.4411439000396	0.8577792999567464	1.0218373999232426	1.212304399930872	n/a	1.0	n/a	1	0	14	4	nogo_reward	1	0	1	0	1	0	0	n/a	n/a	0	0.3170923999277875	1.0	481.5645267999498	570.6011495999992	571.6040073999902	572.461786699947	573.9714750000276	574.9933123999508	n/a	n/a	576.0056706999894	577.2179750999203	2020-05-14 09:13:12.120279	4.41037550844549	2.04559838488188	0.0	2.04559838488188	4.41037550844549	0.0	-4.41037550844549	2.04559838488188	0.0	4.41037550844549	0.0	-2.04559838488188	2.1568360744699606	2.4102039608677144	0.9423459701832005	2.3063533646016783	3.2752402624097705	0.9423459701832005	-1.690313380786753	3.1872111535314653	1.0303750790615054	1.9439140057610516	1.4086359252898621	1	missed	0.0
95.61225430003827	6.331033100024797	go_reward	0.3507080000126734	95.69669190002605	97.51961750001647	100.06179489998613	1.8229255999904126	96.70009050006047	99.03742259996943	101.07146740006283	0.8195269999559969	1.0243723000166938	0.956257599988021	n/a	1.0	n/a	1	0	15	3	go_reward	1	1	0	1	1	1	0	n/a	n/a	1	0.3507080000126734	1.0	481.5645267999498	577.2612186999759	578.2646173000103	579.0841442999663	580.6019493999192	581.6263216999359	n/a	n/a	582.6359942000126	583.5922518000007	2020-05-14 09:13:12.120279	3.41008392666427	1.33895796977219	0.0	1.33895796977219	3.41008392666427	0.0	-3.41008392666427	1.33895796977219	0.0	3.41008392666427	0.0	4.43180977109309	1.1565444926887403	1.703563545758024	0.9423459701832005	1.5997129494919882	2.27494868062855	0.9423459701832005	4.787094775188217	2.186919571750245	1.0303750790615054	1.2372735906513614	1.4086359252898621	1	missed	0.0
101.97998760000331	6.883186100050807	nogo_punish	0.3374214000068605	102.06442519999109	104.4928262999747	107.02811990003102	2.4284010999836028	103.07295689999592	106.01909149996936	108.03215290000662	1.4198693999787793	1.009028400061652	0.915458400035277	n/a	1.0	n/a	1	0	16	2	nogo_punish	1	-1	0	0	1	0	0	n/a	n/a	-1	0.3374214000068605	1.0	481.5645267999498	583.6289519999409	584.6374836999457	586.0573530999245	587.5836182999192	588.5926466999808	n/a	n/a	589.5966796999564	590.5121380999917	2020-05-14 09:13:12.120279	1.52004240292274	0.0	0.0	0.0	1.52004240292274	0.0	-1.52004240292274	0.0	0.0	1.52004240292274	0.0	-11.4761781028384	-0.7334970310527897	0.3646055759858341	0.9423459701832005	0.26075497971979816	0.3849071568870204	0.9423459701832005	-11.120893098743274	0.29687804800871476	1.0303750790615054	-0.10168437912082852	1.4086359252898621	1	missed	0.0
108.89784310001409	6.036051400005817	go_punish	0.3463437999598682	108.98228070000187	110.66538830008358	113.20688950002659	1.683107600081712	109.99486660002731	112.1866149000125	114.21264140005223	0.6705217000562698	1.0202746000140905	0.8056906999554485	n/a	1.0	n/a	1	0	17	1	go_punish	1	0	-1	1	1	1	0	n/a	n/a	0	0.3463437999598682	1.0	481.5645267999498	590.5468074999517	591.5593933999771	592.2299151000334	593.7511416999623	594.7714162999764	n/a	n/a	595.777168200002	596.5828588999575	2020-05-14 09:13:12.120279	4.56880792062194	0.0	-4.85551824860772	-4.85551824860772	-0.286710327985779	-4.85551824860772	-4.56880792062194	0.0	-4.85551824860772	-0.286710327985779	-4.85551824860772	0.0	2.3152684866464104	0.3646055759858341	-3.9131722784245198	-4.594763268887922	-1.4218455740214986	-3.9131722784245198	0.3552850040951271	-1.5098746828998042	-3.825143169546215	-0.10168437912082852	-3.4468823233178583	1	missed	0.0
114.97555640002241	6.423736899974756	go_reward	0.3395904999924823	115.05999400001019	116.62670150003396	119.14817110006697	1.5667075000237674	116.07068470004015	118.13502280006651	120.15807680005673	0.556016799993813	1.0131483000004664	1.3256540999282151	n/a	1.0	n/a	1	0	18	3	go_reward	1	1	0	1	1	1	0	n/a	n/a	1	0.3395904999924823	1.0	481.5645267999498	596.62452079996	597.63521149999	598.1912282999838	599.6995496000163	600.7126979000168	n/a	n/a	601.7226036000066	603.0482576999348	2020-05-14 09:13:12.120279	4.76463102713282	2.29661249272608	0.0	2.29661249272608	4.76463102713282	0.0	-4.76463102713282	2.29661249272608	0.0	4.76463102713282	0.0	3.4741552481392004	2.5110915931572904	2.6612180687119142	0.9423459701832005	2.557367472445878	3.6294957810971002	0.9423459701832005	3.8294402522343276	3.541466672218795	1.0303750790615054	2.1949281136052514	1.4086359252898621	1	missed	0.0
121.43681850004936	7.205916599952616	nogo_punish	1.0	121.52125610003714	123.74255019996781	126.26554130006116	2.221294099930674	122.53165300004184	125.24496729997918	127.27398429997265	1.2108971999259666	1.0205740000819787	1.4531884000170976	n/a	1.0	n/a	1	0	19	2	nogo_punish	1	-1	0	0	0	1	0	n/a	n/a	0	1.0	1.0	481.5645267999498	603.085782899987	604.0961797999917	605.3070769999176	606.809494099929	607.830068100011	n/a	n/a	608.8385110999225	610.2916994999396	2020-05-14 09:13:12.120279	2.40864114816211	-2.86775480913685	0.0	-2.86775480913685	-2.40864114816211	0.0	-2.40864114816211	0.0	-2.86775480913685	0.0	-2.40864114816211	0.0	0.15510171418658025	-2.503149233151016	0.9423459701832005	-2.606999829417052	-3.5437763941978293	0.9423459701832005	0.3552850040951271	-1.2231643549140252	-1.3782660691006046	-0.10168437912082852	-1.459118883846988	1	missed	0.0
128.68368320004078	7.0637969999806955	go_reward	0.3696157999802381	128.76812080002856	131.4826229000464	134.04802540002856	2.714502100017853	129.7774852999719	133.02437190001365	135.0572968000779	1.7051376000745222	1.023653500014916	0.7746209999313578	n/a	1.0	n/a	1	0	20	3	go_reward	1	1	0	1	1	1	1	n/a	n/a	1	0.3696157999802381	1.0	481.5645267999498	610.3326475999784	611.3420120999217	613.0471496999962	614.5888986999635	615.6125521999784	n/a	n/a	616.6218236000277	617.3964445999591	2020-05-14 09:13:12.120279	5.76492260891404	3.00325290783577	0.0	3.00325290783577	5.76492260891404	0.0	-5.76492260891404	3.00325290783577	0.0	5.76492260891404	0.0	2.7675148330295105	3.5113831749385107	3.367858483821604	0.9423459701832005	3.264007887555568	4.629787362878321	0.9423459701832005	3.1227998371246377	4.541758254000015	1.0303750790615054	2.9015685287149413	1.4086359252898621	1	missed	0.0
135.78641340008465	6.223924899939448	go_reward	0.3700067999307066	135.87085100007243	137.44225560000632	139.98207230004482	1.571404599933885	136.87822800001595	138.95989790000021	140.9923853999935	0.5640275999903679	1.0221744000446051	1.1023905000183731	n/a	1.0	n/a	1	0	21	3	go_reward	1	1	0	1	1	1	0	n/a	n/a	1	0.3700067999307066	1.0	481.5645267999498	617.4353778000223	618.4427547999658	619.0067823999561	620.52442469995	621.5465990999946	n/a	n/a	622.5569121999433	623.6593026999617	2020-05-14 09:13:12.120279	6.52098383458206	3.53737348724479	0.0	3.53737348724479	6.52098383458206	0.0	-6.52098383458206	3.53737348724479	0.0	6.52098383458206	0.0	2.2333942536204905	4.26744440060653	3.901979063230624	0.9423459701832005	3.798128466964588	5.38584858854634	0.9423459701832005	2.5886792577156177	5.297819479668035	1.0303750790615054	3.4356891081239613	1.4086359252898621	1	missed	0.0
142.0439042000798	7.0408607999561355	nogo_reward	0.4277050999226048	142.12834180006757	144.39151380001567	146.9245417000493	2.2631719999480993	143.11881350004114	145.90372319996823	147.9260250000516	1.272700299974531	1.0208185000810772	1.243177599972114	n/a	1.0	n/a	1	0	22	4	nogo_reward	1	0	1	0	1	0	0	n/a	n/a	0	0.4277050999226048	1.0	481.5645267999498	623.6928686000174	624.683340299991	625.9560405999655	627.468249999918	628.4890684999991	n/a	n/a	629.4905518000014	630.7337293999735	2020-05-14 09:13:12.120279	3.63065072905931	1.49177510236291	0.0	1.49177510236291	3.63065072905931	0.0	-3.63065072905931	1.49177510236291	0.0	3.63065072905931	0.0	-1.49177510236291	1.3771112950837803	1.856380678348744	0.9423459701832005	1.752530082082708	2.49551548302359	0.9423459701832005	-1.136490098267783	2.407486374145285	1.0303750790615054	1.3900907232420814	1.4086359252898621	1	missed	0.0
149.1230315000284	7.14682340004947	go_punish	0.5772145999362692	149.20746910001617	151.54401459998917	154.09653720003553	2.336545499972999	150.2141148999799	153.08191329997499	155.1111243000487	1.329899700009264	1.014623900060542	1.243168200016953	n/a	1.0	n/a	1	0	23	1	go_punish	1	0	-1	1	1	1	0	n/a	n/a	0	0.5772145999362692	1.0	481.5645267999498	630.771995899966	631.7786416999297	633.108541399939	634.6464400999248	635.6610639999853	n/a	n/a	636.6756510999985	637.9188193000155	2020-05-14 09:13:12.120279	5.0887100235925	0.0	-4.85551824860772	-3.41704436794139	0.233191774984782	-4.85551824860772	-5.0887100235925	0.0	-4.85551824860772	0.233191774984782	-4.85551824860772	0.0	2.8351705896169705	0.3646055759858341	-3.9131722784245198	-3.156289388221592	-0.9019434710509375	-3.9131722784245198	0.3552850040951271	-0.9899725799292431	-3.825143169546215	-0.10168437912082852	-3.4468823233178583	1	missed	0.0
156.30739630002057	5.899789100047201	nogo_punish	1.0	156.39183390000835	157.75625049998052	160.27797140006442	1.3644165999721736	157.40532909997273	159.2584909000434	161.282772900071	0.3509214000077918	1.019480500021018	1.0088500999845564	n/a	1.0	n/a	1	0	24	2	nogo_punish	1	-1	0	0	0	1	0	n/a	n/a	0	1.0	1.0	481.5645267999498	637.9563606999582	638.9698558999225	639.3207772999303	640.8230176999932	641.8424982000142	n/a	n/a	642.8472997000208	643.8561498000054	2020-05-14 09:13:12.120279	2.09353639517461	-2.86775480913685	0.0	-1.98776343947087	-2.09353639517461	0.0	-2.09353639517461	0.0	-2.86775480913685	0.0	-2.09353639517461	0.0	-0.16000303880091948	-2.503149233151016	0.9423459701832005	-1.727008459751072	-3.2286716412103296	0.9423459701832005	0.3552850040951271	-1.2231643549140252	-1.0631613161131048	-0.10168437912082852	-1.459118883846988	1	missed	0.0
162.24161939998152	6.819961500004865	go_punish	1.0	162.3260569999693	164.24586150003597	166.786245000083	1.9198045000666752	163.33667890005745	165.76363790000323	167.79259059997275	0.9091825999785215	1.0226071000797674	1.3534279000014067	n/a	1.0	n/a	1	0	25	1	go_punish	0	-1	0	1	0	0	1	n/a	n/a	0	1.0	1.0	481.5645267999498	643.8905837999191	644.9012057000073	645.8103882999858	647.328164699953	648.3507718000328	n/a	n/a	649.3571173999226	650.710545299924	2020-05-14 09:13:12.120279	-5.43230368204146	0.0	-4.85551824860772	-2.48653378986316	0.576785433433741	-4.85551824860772	5.43230368204146	-4.85551824860772	0.0	-4.85551824860772	0.576785433433741	4.85551824860772	-7.68584311601699	0.3646055759858341	-3.9131722784245198	-2.2257788101433618	-0.5583498126019786	-3.9131722784245198	5.210803252702847	-6.078682603521745	1.6071605124952464	-4.957202627728549	1.4086359252898621	1	missed	0.0
169.09974630002392	7.289419600041583	go_punish	0.3054647999815643	169.1841839000117	171.77378460008185	174.32171110005584	2.58960070007015	170.197050100076	173.31351660005748	175.33454379998147	1.5767345000058413	1.0081944999983534	1.1390597000718117	n/a	1.0	n/a	1	0	26	1	go_punish	1	0	-1	1	1	1	0	n/a	n/a	0	0.3054647999815643	1.0	481.5645267999498	650.7487106999615	651.7615769000258	653.3383114000317	654.8780434000073	655.8862379000057	n/a	n/a	656.8990705999313	658.0381303000031	2020-05-14 09:13:12.120279	4.22982845611319	0.0	-3.41704436794139	-1.85713545284585	0.812784088171797	-3.41704436794139	-4.22982845611319	0.0	-3.41704436794139	0.812784088171797	-3.41704436794139	0.0	1.9762890221376606	0.3646055759858341	-2.4746983977581896	-1.5963804731260518	-0.32235115786392254	-2.4746983977581896	0.3552850040951271	-0.41038026674222816	-2.386669288879885	-0.10168437912082852	-2.008408442651528	1	missed	0.0
176.43131900008296	7.5596778999315575	go_reward	0.2933518000645563	176.51575660007074	179.1329401000403	181.68680190003943	2.617183499969542	177.52250510000158	180.66157470003236	182.6864588999888	1.6104350000387058	1.0252272000070661	1.3889756000135094	n/a	1.0	n/a	1	0	27	3	go_reward	1	1	0	1	1	1	0	n/a	n/a	1	0.2933518000645563	1.0	481.5645267999498	658.0802834000206	659.0870318999514	660.6974668999901	662.2261014999822	663.2513286999892	n/a	n/a	664.2509856999386	665.6399612999521	2020-05-14 09:13:12.120279	7.10319452259708	3.94890928965576	0.0	3.94890928965576	7.10319452259708	0.0	-7.10319452259708	3.94890928965576	0.0	7.10319452259708	0.0	1.8218584512095206	4.8496550886215495	4.313514865641594	0.9423459701832005	4.209664269375558	5.96805927656136	0.9423459701832005	2.177143455304648	5.880030167683055	1.0303750790615054	3.847224910534931	1.4086359252898621	1	missed	0.0
184.03065540001256	7.179002300021239	go_reward	0.3148348000831902	184.11509300000034	186.6714217000408	189.24438549997285	2.556328700040467	185.12610150000546	188.22053260006942	190.25372250005603	1.5453202000353485	1.0238528999034315	1.040372799965553	n/a	1.0	n/a	1	0	28	3	go_reward	1	1	0	1	1	1	0	n/a	n/a	1	0.3148348000831902	1.0	481.5645267999498	665.6796197999502	666.6906282999553	668.2359484999906	669.7850594000192	670.8089122999227	n/a	n/a	671.8182493000058	672.8586220999714	2020-05-14 09:13:12.120279	7.55845191585362	4.27100510174606	0.0	4.27100510174606	7.55845191585362	0.0	-7.55845191585362	4.27100510174606	0.0	7.55845191585362	0.0	1.4997626391192203	5.304912481878091	4.635610677731894	0.9423459701832005	4.531760081465858	6.4233166698179005	0.9423459701832005	1.8550476432143475	6.335287560939595	1.0303750790615054	4.169320722625232	1.4086359252898621	1	missed	0.0
191.2465399000793	6.20205189997796	nogo_punish	1.0	191.3309775000671	193.03971240005922	195.56253950006794	1.7087348999921232	192.34491179999895	194.54310580005404	196.57117860007565	0.6948006000602618	1.0194337000139058	0.9618507999693975	n/a	1.0	n/a	1	0	29	2	nogo_punish	1	-1	0	0	0	1	0	n/a	n/a	0	1.0	1.0	481.5645267999498	672.8955043000169	673.9094385999488	674.604239200009	676.1076326000039	677.1270663000178	n/a	n/a	678.1357054000255	679.0975561999949	2020-05-14 09:13:12.120279	1.88873904519155	-2.86775480913685	0.0	-1.42928092847052	-1.88873904519155	0.0	-1.88873904519155	0.0	-2.86775480913685	0.0	-1.88873904519155	0.0	-0.3648003887839797	-2.503149233151016	0.9423459701832005	-1.1685259487507218	-3.0238742912272696	0.9423459701832005	0.3552850040951271	-1.2231643549140252	-0.8583639661300446	-0.10168437912082852	-1.459118883846988	1	missed	0.0
197.48814730008593	6.751917399931699	nogo_reward	0.3181842999765649	197.5725849000737	199.62101910007186	202.15682999999262	2.0484341999981552	198.58451209997293	201.13765390007757	203.16407659999095	1.0365070000989363	1.0191760999150574	1.160425700014457	n/a	1.0	n/a	1	0	30	4	nogo_reward	1	0	1	0	1	0	0	n/a	n/a	0	0.3181842999765649	1.0	481.5645267999498	679.1371117000235	680.1490388999227	681.1855459000217	682.7021807000274	683.7213567999424	n/a	n/a	684.7286033999408	685.8890290999552	2020-05-14 09:13:12.120279	3.10254467271898	1.11817621752066	0.0	1.11817621752066	3.10254467271898	0.0	-3.10254467271898	1.11817621752066	0.0	3.10254467271898	0.0	-1.11817621752066	0.8490052387434504	1.482781793506494	0.9423459701832005	1.378931197240458	1.9674094266832605	0.9423459701832005	-0.7628912134255329	1.8793803178049548	1.0303750790615054	1.0164918383998314	1.4086359252898621	1	missed	0.0
204.27622120000882	6.316418000031263	nogo_punish	1.0	204.3606587999966	206.14069650007877	208.67587250005454	1.7800377000821754	205.3764929000754	207.657397700008	209.68396429996938	0.764203600003384	1.0184748000465333	0.9931125000584871	n/a	1.0	n/a	1	0	31	2	nogo_punish	1	-1	0	0	0	1	1	n/a	n/a	0	1.0	1.0	481.5645267999498	685.9251855999464	686.9410197000252	687.7052233000286	689.2219244999578	690.2403993000044	n/a	n/a	691.2484910999192	692.2416035999777	2020-05-14 09:13:12.120279	1.74994273672565	-2.86775480913685	0.0	-1.05725286139265	-1.74994273672565	0.0	-1.74994273672565	0.0	-2.86775480913685	0.0	-1.74994273672565	0.0	-0.5035966972498798	-2.503149233151016	0.9423459701832005	-0.7964978816728518	-2.8850779827613695	0.9423459701832005	0.3552850040951271	-1.2231643549140252	-0.7195676576641445	-0.10168437912082852	-1.459118883846988	1	missed	0.0
210.63156830007205	6.213527699932456	go_punish	0.3723877999000251	210.71600590005983	212.46387470001355	215.0076103999745	1.7478687999537215	211.7316183000803	213.98826220002957	216.01456589996815	0.7322563999332488	1.0193481999449432	0.9149677000241354	n/a	1.0	n/a	1	0	32	1	go_punish	1	0	-1	1	1	1	0	n/a	n/a	0	0.3723877999000251	1.0	481.5645267999498	692.2805327000096	693.2961451000301	694.0284014999634	695.5527889999794	696.5721371999243	n/a	n/a	697.579092699918	698.4940603999421	2020-05-14 09:13:12.120279	4.39692432069708	0.0	-3.41704436794139	-1.41624829954473	0.979879952755688	-3.41704436794139	-4.39692432069708	0.0	-3.41704436794139	0.979879952755688	-3.41704436794139	0.0	2.14338488672155	0.3646055759858341	-2.4746983977581896	-1.155493319824932	-0.15525529328003163	-2.4746983977581896	0.3552850040951271	-0.24328440215833724	-2.386669288879885	-0.10168437912082852	-2.008408442651528	1	missed	0.0
216.8826270999852	6.474301300011575	nogo_punish	1.0	216.96706469997298	218.47924919996876	221.0151575000491	1.512184499995783	217.97894780000206	219.99562589998823	222.0288555000443	0.5003013999667019	1.0195316000608727	1.4125104999402538	n/a	1.0	n/a	1	0	33	2	nogo_punish	1	-1	0	0	0	1	1	n/a	n/a	0	1.0	1.0	481.5645267999498	698.5315914999228	699.5434745999519	700.0437759999186	701.560152699938	702.5796842999989	n/a	n/a	703.5933822999941	705.0058927999344	2020-05-14 09:13:12.120279	1.6527403904535	-2.86775480913685	0.0	-0.799882591453207	-1.6527403904535	0.0	-1.6527403904535	0.0	-2.86775480913685	0.0	-1.6527403904535	0.0	-0.6007990435220296	-2.503149233151016	0.9423459701832005	-0.5391276117334087	-2.7878756364892197	0.9423459701832005	0.3552850040951271	-1.2231643549140252	-0.6223653113919947	-0.10168437912082852	-1.459118883846988	1	missed	0.0
223.39423089998303	6.332723700092174	go_punish	1.0	223.4786684999708	224.92843219998758	227.4617478	1.4497637000167742	224.49277550005354	226.44596769998316	228.46545510005672	0.435656699934043	1.0157801000168547	1.3459371000062674	n/a	1.0	n/a	1	0	34	1	go_punish	1	0	-1	1	0	0	1	n/a	n/a	-1	1.0	1.0	481.5645267999498	705.0431952999206	706.0573023000034	706.4929589999374	708.010494499933	709.0262745999498	n/a	n/a	710.0299819000065	711.3759190000128	2020-05-14 09:13:12.120279	-4.51817858464657	0.0	-3.41704436794139	-1.09860424378848	1.10113421670518	-3.41704436794139	4.51817858464657	-3.41704436794139	0.0	-3.41704436794139	1.10113421670518	-8.05913373489701	-6.771718018622099	0.3646055759858341	-2.4746983977581896	-0.8378492640686819	-0.0340010293305395	-2.4746983977581896	-7.703848730801883	-4.640208722855415	2.1315092957666852	-3.5187287470622186	1.4086359252898621	1	missed	0.0
229.7683570000808	6.242924399906769	go_reward	0.5254322000546381	229.8527946000686	231.20479730004445	233.75192020006943	1.3520026999758556	230.8633700000355	232.73823100002483	234.75434860005043	0.34142730000894517	1.0136892000446096	1.3413703999249265	n/a	1.0	n/a	1	0	35	3	go_reward	1	1	0	1	1	1	0	n/a	n/a	1	0.5254322000546381	1.0	481.5645267999498	711.4173214000184	712.4278967999853	712.7693240999943	714.3027577999746	715.3164470000193	n/a	n/a	716.3188754000003	717.6602457999252	2020-05-14 09:13:12.120279	7.91904615282105	4.52642195593409	0.0	4.52642195593409	7.91904615282105	0.0	-7.91904615282105	4.52642195593409	0.0	7.91904615282105	0.0	1.2443457849311903	5.665506718845521	4.891027531919924	0.9423459701832005	4.787176935653888	6.78391090678533	0.9423459701832005	1.5996307890263175	6.695881797907025	1.0303750790615054	4.4247375768132615	1.4086359252898621	1	missed	0.0
236.04889660002658	5.828963699983433	nogo_reward	0.4551562999840826	236.13333420001436	237.500008800067	240.047583400039	1.3666746000526473	237.14218530000653	239.02562380000018	241.06255929998588	0.35782350006047636	1.0219596000388265	0.899738600011915	n/a	1.0	n/a	1	0	36	4	nogo_reward	1	0	1	0	1	0	0	n/a	n/a	0	0.4551562999840826	1.0	481.5645267999498	717.6978609999642	718.7067120999563	719.0645356000168	720.59015059995	721.6121101999888	n/a	n/a	722.6270860999357	723.5268246999476	2020-05-14 09:13:12.120279	2.7313610218473	0.856216391499316	0.0	0.856216391499316	2.7313610218473	0.0	-2.7313610218473	0.856216391499316	0.0	2.7313610218473	0.0	-0.856216391499316	0.4778215878717704	1.2208219674851502	0.9423459701832005	1.1169713712191143	1.5962257758115805	0.9423459701832005	-0.500931387404189	1.508196666933275	1.0303750790615054	0.7545320123784875	1.4086359252898621	1	missed	0.0
241.91225579997985	6.415131400106475	go_punish	0.3304179001133889	241.99669339996763	243.86583060002886	246.40421419998165	1.8691372000612319	243.01324050000403	245.38481469999533	247.42462240008172	0.8525901000248268	1.0193994999863207	0.987202399992384	n/a	1.0	n/a	1	0	37	1	go_punish	0	-1	0	1	1	1	0	n/a	n/a	-1	0.3304179001133889	1.0	481.5645267999498	723.5612201999174	724.5777672999538	725.4303573999787	726.9493414999451	727.9687409999315	n/a	n/a	728.9891492000315	729.9763516000239	2020-05-14 09:13:12.120279	5.48429100351809	0.0	-5.35428859900001	-3.7321713559295	0.130002404518088	-5.35428859900001	-5.48429100351809	0.0	-5.35428859900001	0.130002404518088	-5.35428859900001	-11.4761781028384	3.23075156954256	0.3646055759858341	-4.411942628816809	-3.4714163762097017	-1.0051328415176315	-4.411942628816809	-11.120893098743274	-1.093161950395937	-4.323913519938505	-0.10168437912082852	-3.945652673710148	1	missed	0.0
248.36896140000312	7.42225539998617	go_reward	0.3456652999157086	248.4533989999909	250.91953850002028	253.4658536000643	2.466139500029385	249.45816769998055	252.44703989999834	254.47638460004237	1.461370800039731	1.018813700065948	1.3992697999347001	n/a	1.0	n/a	1	0	38	3	go_reward	1	1	0	1	1	1	0	n/a	n/a	1	0.3456652999157086	1.0	481.5645267999498	730.0179257999407	731.0226944999304	732.4840652999701	734.0115666999482	735.0303804000141	n/a	n/a	736.0409113999922	737.4401811999269	2020-05-14 09:13:12.120279	8.20781418067862	4.73123058967983	0.0	4.73123058967983	8.20781418067862	0.0	-8.20781418067862	4.73123058967983	0.0	8.20781418067862	0.0	1.03953715118545	5.95427474670309	5.0958361656656646	0.9423459701832005	4.9919855693996285	7.0726789346429	0.9423459701832005	1.3948221552805773	6.984649825764595	1.0303750790615054	4.629546210559002	1.4086359252898621	1	missed	0.0
255.83168350008776	6.966788599966094	nogo_reward	0.3525497999507934	255.91612110007554	257.8375458000228	260.3880915000336	1.921424699947238	256.93320269999094	259.362726100022	261.3972323000198	0.9043431000318378	1.0253654000116512	1.4856774000218138	n/a	1.0	n/a	1	0	39	4	nogo_reward	0	1	0	0	1	0	0	n/a	n/a	1	0.3525497999507934	1.0	481.5645267999498	737.4806479000254	738.4977294999408	739.4020725999726	740.9272528999718	741.9526182999834	n/a	n/a	742.9617590999696	744.4474364999915	2020-05-14 09:13:12.120279	2.46284732790519	0.666952656599011	0.0	0.666952656599011	2.46284732790519	0.0	-2.46284732790519	0.666952656599011	0.0	2.46284732790519	0.0	5.1038150842662695	0.20930789392966043	1.0315582325848451	0.9423459701832005	0.9277076363188093	1.3277120818694705	0.9423459701832005	5.459100088361397	1.239682972991165	1.0303750790615054	0.5652682774781825	1.4086359252898621	1	missed	0.0
262.8390407999977	7.517790300073102	go_reward	0.3827023000922054	262.92347839998547	265.6534253000282	268.1945433000801	2.7299469000427052	263.92117990006227	267.17097320000175	269.19729190005455	1.7322453999659047	1.0235701000783592	1.2439768000040203	n/a	1.0	n/a	1	0	40	3	go_reward	1	1	0	1	1	1	1	n/a	n/a	1	0.3827023000922054	1.0	481.5645267999498	744.4880051999353	745.4857067000121	747.217952099978	748.7354999999516	749.7590701000299	n/a	n/a	750.7618187000044	752.0057955000084	2020-05-14 09:13:12.120279	8.44127243325742	4.89704318582936	0.0	4.89704318582936	8.44127243325742	0.0	-8.44127243325742	4.89704318582936	0.0	8.44127243325742	0.0	0.8737245550359205	6.1877329992818915	5.261648761815194	0.9423459701832005	5.157798165549158	7.306137187221701	0.9423459701832005	1.2290095591310477	7.218108078343396	1.0303750790615054	4.795358806708531	1.4086359252898621	1	missed	0.0
270.39441170007916	7.068828999996185	nogo_punish	1.0	270.47884930006694	273.25294140004553	275.7816875000717	2.7740920999785885	271.48721100005787	274.7623478000751	276.7888313999865	1.7657303999876603	1.0193396999966353	0.7588469000766054	n/a	1.0	n/a	1	0	41	2	nogo_punish	1	-1	0	0	0	1	0	n/a	n/a	0	1.0	1.0	481.5645267999498	752.0433761000168	753.0517378000077	754.8174681999953	756.3268746000249	757.3462143000215	n/a	n/a	758.3533581999363	759.1122051000129	2020-05-14 09:13:12.120279	1.58284687214176	-2.86775480913685	0.0	-0.616365708091519	-1.58284687214176	0.0	-1.58284687214176	0.0	-2.86775480913685	0.0	-1.58284687214176	0.0	-0.6706925618337698	-2.503149233151016	0.9423459701832005	-0.35561072837172086	-2.7179821181774795	0.9423459701832005	0.3552850040951271	-1.2231643549140252	-0.5524717930802545	-0.10168437912082852	-1.459118883846988	1	missed	0.0
277.49858430004673	6.34895440004766	nogo_reward	0.547806299990043	277.5830219000345	278.8813044000417	281.44031269999687	1.2982825000071898	278.6011511000106	280.4210009999806	282.4464445000049	0.2801533000310883	1.0193117000162601	1.4855318000772968	n/a	1.0	n/a	1	0	42	4	nogo_reward	1	0	1	0	1	0	0	n/a	n/a	0	0.547806299990043	1.0	481.5645267999498	759.1475486999843	760.1656778999604	760.4458311999915	761.9855277999304	763.0048394999467	n/a	n/a	764.0109712999547	765.496503100032	2020-05-14 09:13:12.120279	4.15410934777839	1.86586241560822	0.0	1.86586241560822	4.15410934777839	0.0	-4.15410934777839	1.86586241560822	0.0	4.15410934777839	0.0	-1.86586241560822	1.9005699138028604	2.230467991594054	0.9423459701832005	2.1266173953280183	3.0189741017426703	0.9423459701832005	-1.510577411513093	2.930944992864365	1.0303750790615054	1.7641780364873914	1.4086359252898621	1	missed	0.0
283.9157740999944	6.083951500011608	nogo_punish	1.0	284.0002116999822	285.3409170000814	287.8769118000055	1.3407053000992164	285.0146020000102	286.8576679000398	288.8852515000617	0.3263150000711903	1.0192438999656588	1.1989116999320686	n/a	1.0	n/a	1	0	43	2	nogo_punish	1	-1	0	0	0	1	1	n/a	n/a	0	1.0	1.0	481.5645267999498	765.564738499932	766.57912879996	766.9054438000312	768.4221946999896	769.4414385999553	n/a	n/a	770.4497783000115	771.6486899999436	2020-05-14 09:13:12.120279	1.531486126504	-2.86775480913685	0.0	-0.482238535696958	-1.531486126504	0.0	-1.531486126504	0.0	-2.86775480913685	0.0	-1.531486126504	0.0	-0.7220533074715296	-2.503149233151016	0.9423459701832005	-0.22148355597715985	-2.6666213725397196	0.9423459701832005	0.3552850040951271	-1.2231643549140252	-0.5011110474424947	-0.10168437912082852	-1.459118883846988	1	missed	0.0
290.0365753000369	6.284410099964589	nogo_punish	1.0	290.12101290002465	291.90808840002865	294.44375560001936	1.7870755000039935	291.12868129997514	293.4260776999872	295.443074000068	0.7794071000535041	1.0176779000321403	0.9623489999212325	n/a	1.0	n/a	1	0	44	2	nogo_punish	0	0	-1	0	0	1	0	n/a	n/a	-1	1.0	1.0	481.5645267999498	771.6855396999745	772.693208099925	773.4726151999785	774.990604499937	776.0082823999692	n/a	n/a	777.0076008000178	777.9699497999391	2020-05-14 09:13:12.120279	1.49304994238084	-2.86775480913685	0.0	-0.382178011095696	-1.49304994238084	0.0	-1.49304994238084	0.0	-2.86775480913685	0.0	-1.49304994238084	-11.4761781028384	-0.7604894915946896	-2.503149233151016	0.9423459701832005	-0.12142303137589783	-2.62818518841656	0.9423459701832005	-11.120893098743274	-1.2231643549140252	-0.4626748633193347	-0.10168437912082852	-1.459118883846988	1	missed	0.0
296.3555631000781	6.694548600004055	go_punish	0.270232200040482	296.44000070006587	298.29275050002616	300.8383703000145	1.8527497999602929	297.4509160000598	299.81789920001756	301.8445089000743	0.8418344999663532	1.0204710999969393	1.2900403999956325	n/a	1.0	n/a	1	0	45	1	go_punish	1	0	-1	1	1	1	0	n/a	n/a	0	0.270232200040482	1.0	481.5645267999498	778.0045275000157	779.0154428000096	779.857277299976	781.3824259999674	782.4028970999643	n/a	n/a	783.4090357000241	784.6990761000197	2020-05-14 09:13:12.120279	1.93836258022402	-2.86775480913685	-5.35428859900001	-5.54392654959323	-3.41592601877599	-5.35428859900001	-1.93836258022402	-2.86775480913685	-5.35428859900001	-3.41592601877599	-5.35428859900001	2.86775480913685	-0.3151768537515096	-2.503149233151016	-4.411942628816809	-5.283171569873432	-4.551061264811709	-4.411942628816809	3.2230398132319773	-4.639090373690015	-4.323913519938505	-2.9694391882576787	-3.945652673710148	1	missed	0.0
303.0918192000826	6.171154599986039	go_reward	0.3718548000324517	303.1762568000704	304.73515000008047	307.2820146000013	1.5588932000100613	304.18853990000207	306.26753429998644	308.296715100063	0.5466101000783965	1.0144803000148386	1.050696299993433	n/a	1.0	n/a	1	0	46	3	go_reward	0	0	1	1	1	1	0	n/a	n/a	0	0.3718548000324517	1.0	481.5645267999498	784.7407836000202	785.7530666999519	786.2996768000303	787.8320610999363	788.8465413999511	n/a	n/a	789.8612419000128	790.9119382000063	2020-05-14 09:13:12.120279	8.63159452235508	5.03241561290051	0.0	5.03241561290051	8.63159452235508	0.0	-8.63159452235508	5.03241561290051	0.0	8.63159452235508	0.0	-5.03241561290051	6.378055088379551	5.397021188886344	0.9423459701832005	5.293170592620308	7.49645927631936	0.9423459701832005	-4.677130608805383	7.408430167441055	1.0303750790615054	4.930731233779682	1.4086359252898621	1	missed	0.0
309.30062500003254	5.75386219995562	nogo_reward	0.4169812999898568	309.3850626000203	310.74512760003563	313.27592739998363	1.360065000015311	310.3912866000319	312.2659431999782	314.27653050003573	0.3538410000037402	1.0099842000054196	0.8623942999402061	n/a	1.0	n/a	1	0	47	4	nogo_reward	1	0	1	0	1	0	0	n/a	n/a	0	0.4169812999898568	1.0	481.5645267999498	790.9495893999701	791.9558133999817	792.3096543999854	793.830469999928	794.8404541999334	n/a	n/a	795.8410572999856	796.7034515999258	2020-05-14 09:13:12.120279	3.46864199293752	1.37888397329146	0.0	1.37888397329146	3.46864199293752	0.0	-3.46864199293752	1.37888397329146	0.0	3.46864199293752	0.0	-1.37888397329146	1.2151025589619904	1.7434895492772942	0.9423459701832005	1.639638953011258	2.3335067469018007	0.9423459701832005	-1.0235989691963328	2.2454776380234946	1.0303750790615054	1.2771995941706313	1.4086359252898621	1	missed	0.0
315.0958406000863	6.453262499999255	go_reward	0.3362428999971598	315.1802782000741	317.1629447999876	319.7008407000685	1.9826665999135002	316.1855622000294	318.68523270008154	320.6987900000531	0.9773825999582186	1.015607999986969	0.9347507000202313	n/a	1.0	n/a	1	0	48	3	go_reward	1	1	0	1	1	1	1	n/a	n/a	1	0.3362428999971598	1.0	481.5645267999498	796.7448050000239	797.7500889999792	798.7274715999374	800.2497595000314	801.2653675000183	n/a	n/a	802.2633168000029	803.1980675000232	2020-05-14 09:13:12.120279	6.89785871059328	3.80479998659976	0.0	3.80479998659976	6.89785871059328	0.0	-6.89785871059328	3.80479998659976	0.0	6.89785871059328	0.0	1.9659677542655203	4.64431927661775	4.169405562585594	0.9423459701832005	4.065554966319558	5.76272346455756	0.9423459701832005	2.3212527583606475	5.674694355679255	1.0303750790615054	3.7031156074789315	1.4086359252898621	1	missed	0.0
321.5884438999928	6.500165500096045	go_reward	0.3642729000421241	321.6728814999806	323.34087050007656	325.87446169997565	1.6679890000959858	322.6770570999943	324.85462280001957	326.895604899968	0.6638134000822902	1.0198388999560848	1.2774421001086012	n/a	1.0	n/a	1	0	49	3	go_reward	1	1	0	1	1	1	0	n/a	n/a	1	0.3642729000421241	1.0	481.5645267999498	803.2374082999304	804.2415838999441	804.9053973000264	806.4191495999694	807.4389884999255	n/a	n/a	808.4601316999178	809.7375738000264	2020-05-14 09:13:12.120279	7.56257169058674	4.27828805433928	0.0	4.27828805433928	7.56257169058674	0.0	-7.56257169058674	4.27828805433928	0.0	7.56257169058674	0.0	1.4924796865260008	5.309032256611211	4.642893630325114	0.9423459701832005	4.539043034059078	6.42743644455102	0.9423459701832005	1.847764690621128	6.339407335672715	1.0303750790615054	4.176603675218451	1.4086359252898621	1	missed	0.0
328.1270973000209	5.97048540005926	nogo_reward	0.4688328999327495	328.2115349000087	329.77125089999754	332.32084070006385	1.559715999988839	329.2151118000038	331.298046000069	333.33478480007034	0.556139099993743	1.0227946999948472	0.8472354999976233	n/a	1.0	n/a	1	0	50	4	nogo_reward	1	0	1	0	1	0	0	n/a	n/a	0	0.4688328999327495	1.0	481.5645267999498	809.7760616999585	810.7796385999536	811.3357776999474	812.8625728000188	813.8853675000137	n/a	n/a	814.8993116000202	815.7465471000178	2020-05-14 09:13:12.120279	2.9994241016592	1.04682147592657	0.0	1.04682147592657	2.9994241016592	0.0	-2.9994241016592	1.04682147592657	0.0	2.9994241016592	0.0	-1.04682147592657	0.7458846676836703	1.411427051912404	0.9423459701832005	1.307576455646368	1.8642888556234805	0.9423459701832005	-0.6915364718314428	1.7762597467451748	1.0303750790615054	0.9451370968057414	1.4086359252898621	1	missed	0.0
334.1388164000818	6.510901300003752	go_reward	0.4031667999224737	334.2232540000696	335.6999305000063	338.2482743000146	1.4766764999367297	335.2327819999773	337.2330847000703	339.2568669000175	0.46714850002899766	1.0151895999442786	1.4772884000558406	n/a	1.0	n/a	1	0	51	3	go_reward	0	0	1	1	1	1	1	n/a	n/a	0	0.4031667999224737	1.0	481.5645267999498	815.7877808000194	816.7973087999271	817.2644572999561	818.7976115000201	819.8128010999644	n/a	n/a	820.8213936999673	822.2986821000231	2020-05-14 09:13:12.120279	8.02428909790733	4.60607968644765	0.0	4.60607968644765	8.02428909790733	0.0	-8.02428909790733	4.60607968644765	0.0	8.02428909790733	0.0	-4.60607968644765	5.7707496639318006	4.970685262433484	0.9423459701832005	4.866834666167448	6.88915385187161	0.9423459701832005	-4.250794682352523	6.801124742993305	1.0303750790615054	4.5043953073268215	1.4086359252898621	1	missed	0.0
340.68648480006954	6.800915199914016	nogo_reward	0.3194209999637678	340.7709224000573	342.5667574000545	345.09421660006046	1.7958349999971688	341.785207399982	344.0785286000464	346.10009249998257	0.7815500000724569	1.0156880000140518	1.471745099988766	n/a	1.0	n/a	1	0	52	4	nogo_reward	1	0	1	0	1	0	1	n/a	n/a	0	0.3194209999637678	1.0	481.5645267999498	822.3354492000071	823.3497341999318	824.1312842000043	825.6430553999962	826.6587434000103	n/a	n/a	827.6646192999324	829.1363643999211	2020-05-14 09:13:12.120279	2.66586759314928	0.811275519030002	0.0	0.811275519030002	2.66586759314928	0.0	-2.66586759314928	0.811275519030002	0.0	2.66586759314928	0.0	-0.811275519030002	0.4123281591737502	1.175881095015836	0.9423459701832005	1.0720304987498002	1.5307323471135603	0.9423459701832005	-0.45599051493487486	1.4427032382352547	1.0303750790615054	0.7095911399091734	1.4086359252898621	1	missed	0.0
347.5258384000044	7.383875600062311	nogo_punish	0.3630731999874115	347.61027599999215	350.5700835000025	353.11267699999735	2.9598075000103563	348.61555970006157	352.0965831000358	354.11590179998893	1.9545237999409437	1.016093899961561	0.8782498000655323	n/a	1.0	n/a	1	0	53	2	nogo_punish	1	-1	0	0	1	0	0	n/a	n/a	-1	0.3630731999874115	1.0	481.5645267999498	829.174802799942	830.1800865000114	832.1346102999523	833.6611098999856	834.6772037999472	n/a	n/a	835.6804285999388	836.5586784000043	2020-05-14 09:13:12.120279	0.342990315488108	-2.86775480913685	-2.86775480913685	-3.17398509902666	-2.52476449364874	-2.86775480913685	-0.342990315488108	-2.86775480913685	-2.86775480913685	-2.52476449364874	-2.86775480913685	-8.60842329370155	-1.9105491184874217	-2.503149233151016	-1.9254088389536497	-2.9132301193068617	-3.6598997396844597	-1.9254088389536497	-8.253138289606424	-3.747928848562765	-1.8373797300753447	-2.9694391882576787	-1.459118883846988	1	missed	0.0
354.9457923000445	6.637110100011341	go_punish	0.2921057000057772	355.0302299000323	357.09105340007227	359.63795120001305	2.0608235000399873	356.03997540008277	358.61897650000174	360.6468642000109	1.0510779999895021	1.018974700011313	1.0204758000327274	n/a	1.0	n/a	1	0	54	1	go_punish	0	-1	0	1	1	1	0	n/a	n/a	-1	0.2921057000057772	1.0	481.5645267999498	836.5947566999821	837.6045022000326	838.6555802000221	840.1835032999516	841.2024779999629	n/a	n/a	842.2113909999607	843.2318667999934	2020-05-14 09:13:12.120279	3.38997482071049	-1.98776343947087	-5.35428859900001	-3.97100228384517	-1.96431377828952	-5.35428859900001	-3.38997482071049	-1.98776343947087	-5.35428859900001	-1.96431377828952	-5.35428859900001	-9.48841466336753	1.1364353867349601	-1.6231578634850359	-4.411942628816809	-3.710247304125372	-3.0994490243252395	-4.411942628816809	-9.133129659272404	-3.187478133203545	-4.323913519938505	-2.0894478185916987	-3.945652673710148	1	missed	0.0
361.6195195000618	7.424454399966635	go_punish	0.295603800099343	361.7039571000496	364.1515459000366	366.70984060002957	2.4475887999869883	362.72297330002766	365.6855273999972	367.72081990004517	1.4285726000089198	1.0243132000323385	1.407591599971056	n/a	1.0	n/a	1	0	55	1	go_punish	0	-1	0	1	1	1	0	n/a	n/a	-1	0.295603800099343	1.0	481.5645267999498	843.2684838999994	844.2875000999775	845.7160726999864	847.250054199947	848.2743673999794	n/a	n/a	849.285346699995	850.692938299966	2020-05-14 09:13:12.120279	0.40341210709992	-4.29703573760736	-5.35428859900001	-5.804101135297	-4.95087649190009	-5.35428859900001	-0.40341210709992	-4.29703573760736	-5.35428859900001	-4.95087649190009	-5.35428859900001	-7.17914236523104	-1.8501273268756098	-3.932430161621526	-4.411942628816809	-5.5433461555772015	-6.086011737935809	-4.411942628816809	-6.823857361135913	-6.174040846814115	-4.323913519938505	-4.398720116728189	-3.945652673710148	1	missed	0.0
369.07890429999674	6.955956200021319	go_punish	0.3121308000991121	369.1633418999845	371.5199871000368	374.07007380004507	2.3566452000522986	370.1654037999688	373.04772580007557	375.09100090002175	1.3545833000680432	1.0223479999694973	1.028297199984081	n/a	1.0	n/a	1	0	56	1	go_punish	1	0	-1	1	1	1	1	n/a	n/a	0	0.3121308000991121	1.0	481.5645267999498	850.7278686999343	851.7299305999186	853.0845138999866	854.6122526000254	855.6346005999949	n/a	n/a	856.6555276999716	857.6838248999557	2020-05-14 09:13:12.120279	-1.69079596107782	-5.91277111000036	-5.35428859900001	-7.08081576277545	-7.04508456007783	-5.35428859900001	1.69079596107782	-5.91277111000036	-5.35428859900001	-7.04508456007783	-5.35428859900001	5.91277111000036	-3.9443353950533497	-5.548165534014526	-4.411942628816809	-6.820060783055652	-8.180219806113548	-4.411942628816809	6.268056114095487	-8.268248914991855	-4.323913519938505	-6.014455489121189	-3.945652673710148	1	missed	0.0
376.07211040006945	7.120806699967943	nogo_punish	1.0	376.1565480000572	378.3267879000632	380.86381250002887	2.1702399000059813	377.15967409999575	379.84375870006625	381.8775487000821	1.1671138000674546	1.020053799962625	1.3998059999430552	n/a	1.0	n/a	1	0	57	2	nogo_punish	1	-1	0	0	0	1	0	n/a	n/a	0	1.0	1.0	481.5645267999498	857.721074800007	858.7242008999456	859.891314700013	861.4082855000161	862.4283392999787	n/a	n/a	863.4420755000319	864.841881499975	2020-05-14 09:13:12.120279	2.36809253577346	-4.85551824860772	-2.86775480913685	-5.10324587462169	-5.2358473449103	-2.86775480913685	-2.36809253577346	-2.86775480913685	-4.85551824860772	-2.86775480913685	-5.2358473449103	2.86775480913685	0.11455310179793043	-4.490912672621886	-1.9254088389536497	-4.842490894901892	-6.37098259094602	-1.9254088389536497	3.2230398132319773	-4.0909191640508755	-4.205472265848795	-2.9694391882576787	-3.4468823233178583	1	missed	0.0
383.2345004000235	6.023111599963158	go_reward	0.4380774000892415	383.31893800001126	384.88500140002	387.44160540006123	1.5660634000087157	384.32283750001807	386.41725300007965	388.4512909000041	0.5621639000019059	1.0243523999815807	0.8907586999703199	n/a	1.0	n/a	1	0	58	3	go_reward	1	1	0	1	1	1	0	n/a	n/a	1	0.4380774000892415	1.0	481.5645267999498	864.8834647999611	865.8873642999679	866.4495281999698	867.9817798000295	869.006132200011	n/a	n/a	870.0158176999539	870.9065763999242	2020-05-14 09:13:12.120279	6.46832899967629	3.50393149801845	0.0	3.50393149801845	6.46832899967629	0.0	-6.46832899967629	3.50393149801845	0.0	6.46832899967629	0.0	2.2668362428468303	4.214789565700761	3.8685370740042844	0.9423459701832005	3.7646864777382483	5.33319375364057	0.9423459701832005	2.6221212469419575	5.245164644762265	1.0303750790615054	3.4022471188976215	1.4086359252898621	1	missed	0.0
389.297619500081	6.11825920001138	go_reward	1.0	389.3820571000688	390.724454900017	393.2610931000672	1.3423977999482304	390.398233700078	392.24161350005306	394.2778078999836	0.32622119993902743	1.019479600014165	1.222508400096558	n/a	1.0	n/a	1	0	59	3	go_reward	1	1	0	1	0	0	0	n/a	n/a	0	1.0	1.0	481.5645267999498	870.9465839000186	871.9627605000278	872.2889816999668	873.8061403000029	874.825619900017	n/a	n/a	875.8423346999334	877.06484310003	2020-05-14 09:13:12.120279	-7.25317039500333	4.06191731717746	0.0	4.06191731717746	7.25317039500333	0.0	7.25317039500333	0.0	4.06191731717746	0.0	7.25317039500333	0.0	-9.50670982897886	4.426522893163294	0.9423459701832005	4.322672296897258	6.118035148967611	0.9423459701832005	0.3552850040951271	-1.2231643549140252	8.283545474064836	-0.10168437912082852	5.4705532424673216	1	missed	0.0
395.45482950005675	7.351627100026235	nogo_reward	0.2641460000304505	395.5392671000445	397.98094370006584	400.53015160001814	2.44167660002131	396.5520040000556	399.51023430004716	401.54345270001795	1.4289397000102326	1.0199172999709845	1.3474415000528097	n/a	1.0	n/a	1	0	60	4	nogo_reward	1	0	1	0	1	0	0	n/a	n/a	0	0.2641460000304505	1.0	481.5645267999498	877.1037938999943	878.1165308000054	879.5454705000157	881.074761099997	882.094678399968	n/a	n/a	883.1079794999678	884.4554210000206	2020-05-14 09:13:12.120279	2.42179373675591	0.63909285040333	0.0	0.63909285040333	2.42179373675591	0.0	-2.42179373675591	0.63909285040333	0.0	2.42179373675591	0.0	-0.63909285040333	0.16825430278038045	1.003698426389164	0.9423459701832005	0.8998478301231281	1.2866584907201906	0.9423459701832005	-0.2838078463082029	1.198629381841885	1.0303750790615054	0.5374084712825015	1.4086359252898621	1	missed	0.0
