onset	duration	trial_type	response_time	cueOnset	targetOnset	fbOnset	cueRT	firstfixOnset	secondfixOnset	waitOnset	firstfixdur	secondfixdur	waitdur	nback_fbOnset	nback_response_time	nback_targetOnset	block	wm	trial	cue	cond	is_common	outcome_go	outcome_nogo	key_correct	key_pressed	is_correct	key_correct_nback	key_pressed_nback	is_correct_nback	outcome	rt	rt_nback	time_scan	time_onset	time_isi1	time_circle	time_isi2	time_feedback	time_same	time_correct	time_iti	time_done	timestamp_scan	DV	Qgo	Qnogo	SV	Wgo	Wnogo	mDV	Qchosen	Qunchosen	Wchosen	Wunchosen	PE	DVC	QgoC	QnogoC	SVC	WgoC	WnogoC	PEC	WchosenC	WunchosenC	QchosenC	QunchosenC	run	outcome_nback	nback_targetResp
0.0	8.402278600027557	nogo_punish	0.350150000071153	0.026137999957654756	1.846237999969162	4.387085099937622	1.8201000000115073	1.0354958999671453	3.3631819000001997	7.460676699993201	0.8107421000020167	1.023903199937422	0.9677398999920115	6.4502956999931484	0.4831908999476582	5.416087899939157	2	1	61	2	nogo_punish	1	-1	0	0	1	0	0	0.0	1.0	-1	0.350150000071153	0.4831908999476582	2001.7534411000088	2001.7795790999664	2002.788936999976	2003.599679099978	2005.116623000009	2006.1405261999464	2007.169528999948	2008.203736800002	2009.214117800002	2010.181857699994	2020-05-14 09:38:32.298108	-0.442585279613684	-3.24191593841693	-1.07032124494693	-2.55092423535568	-1.51290652456061	-1.07032124494693	0.442585279613684	-3.24191593841693	-1.07032124494693	-1.51290652456061	-1.07032124494693	-8.23426216442147	-2.6961247135892137	-2.877310362431096	-0.12797527476372939	-2.290169255635882	-2.6480417705963295	-0.12797527476372939	-7.878977160326342	-2.736070879474635	-0.039946165885424545	-3.3436003175377587	0.3383146803429322	4	correct	1.0
8.445147800026461	9.006178600015119	nogo_punish	1.0	8.471285799984116	10.4407513999613	12.962073499919143	1.969465599977184	9.479697000002716	11.942789499997161	16.015336700016405	0.9610543999585843	1.0192839999219814	1.4621276999828297	15.0086623999523	0.4236299000913277	13.97966329997871	2	1	62	2	nogo_punish	1	-1	0	0	0	1	0	0.0	1.0	0	1.0	0.4236299000913277	2001.7534411000088	2010.224726899993	2011.2331381000115	2012.19419249997	2013.696230600006	2014.715514599928	2015.7331043999875	2016.762103499961	2017.7687778000252	2019.230905500008	2020-05-14 09:38:32.298108	1.37953202024486	-4.25422356876856	-1.07032124494693	-3.68803547440603	-2.44985326519179	-1.07032124494693	-1.37953202024486	-1.07032124494693	-4.25422356876856	-1.07032124494693	-2.44985326519179	1.07032124494693	-0.8740074137306697	-3.8896179927827257	-0.12797527476372939	-3.427280494686232	-3.5849885112275093	-0.12797527476372939	1.425606249042057	-2.293485599860955	-1.4194781861302845	-1.1720056240677585	-2.845587643478698	4	correct	1.0
17.496510199969634	8.42777210008353	go_reward	0.5674329999601468	17.52264819992729	19.38779029995203	21.938241399940807	1.865142100024741	18.531044199946336	20.914091099984716	24.9946145999711	0.8567461000056937	1.0241502999560907	0.9558057000397184	23.981724899960454	0.8579509000992402	22.96033819997683	2	1	63	3	go_reward	1	1	0	1	1	1	0	0.0	1.0	1	0.5674329999601468	0.8579509000992402	2001.7534411000088	2019.276089299936	2020.2844852999551	2021.1412313999608	2022.6675321999935	2023.6916824999496	2024.7137792999856	2025.7351659999692	2026.74805569998	2027.7038614000196	2020-05-14 09:38:32.298108	3.79792724267248	3.72281418378543	1.19214626834942	3.52253387234022	4.9900735110219	1.19214626834942	-3.79792724267248	3.72281418378543	1.19214626834942	4.9900735110219	1.19214626834942	2.0479535570798504	1.5443878086969502	4.087419759771264	2.1344922385326206	3.7832888520600183	3.8549382649861803	2.1344922385326206	2.4032385611749776	3.766909156107875	2.2225213474109253	3.6211298046646014	2.600782193639282	4	correct	1.0
25.9682306000027	8.629230899969343	nogo_punish	1.0	25.994368599960353	27.562595699913572	30.087782199960202	1.5682270999532193	27.001338299945928	29.064699899987318	33.146469499916066	0.5612573999676442	1.0230822999728844	1.4771300000136307	32.1395042999643	0.4004126000218093	31.110296799917705	2	1	64	2	nogo_punish	0	0	-1	0	0	1	1	1.0	1.0	-1	1.0	0.4004126000218093	2001.7534411000088	2027.7478096999691	2028.7547793999547	2029.3160367999224	2030.818140999996	2031.841223299969	2032.8637378999265	2033.892945399973	2034.8999105999249	2036.3770405999385	2020-05-14 09:38:32.298108	1.56141176680263	-4.25422356876856	-0.917677428799227	-3.17828938153033	-2.47908919560185	-0.917677428799227	-1.56141176680263	-0.917677428799227	-4.25422356876856	-0.917677428799227	-2.47908919560185	-10.558500674039173	-0.6921276671728998	-3.8896179927827257	0.024668541383973563	-2.917534401810532	-3.6142244416375693	0.024668541383973563	-10.203215669944047	-2.140841783713252	-1.4487141165403445	-1.0193618079200555	-2.845587643478698	4	correct	1.0
34.62901290005516	8.556193299940787	go_punish	0.6951604000059888	34.65515090001281	36.34421739995014	38.877611799980514	1.6890664999373257	35.674550399999134	37.86018640000793	41.921647300011955	0.669666999951005	1.0174253999725806	1.2896968999416458	40.92028969991952	0.3733667000196874	39.89394530002028	2	1	65	1	go_punish	1	0	-1	1	1	1	0	0.0	1.0	0	0.6951604000059888	0.3733667000196874	2001.7534411000088	2036.4085920000216	2037.427991500008	2038.097658499959	2039.6136275000167	2040.6310528999893	2041.647386400029	2042.6737307999283	2043.6750884000207	2044.9647852999624	2020-05-14 09:38:32.298108	2.51775154960934	-1.99398269372458	-2.73011685285988	-3.28560377725462	-0.212365303250538	-2.73011685285988	-2.51775154960934	-1.99398269372458	-2.73011685285988	-0.212365303250538	-2.73011685285988	1.99398269372458	0.2642121156338102	-1.6293771177387457	-1.7877708826766794	-3.0248487975348217	-1.3475005492862575	-1.7877708826766794	2.349267697819707	-1.4355296581645631	-1.6997417737983744	-2.0956670728454085	-1.3214809275700177	4	correct	1.0
43.23034090001602	9.724097799975198	go_reward	0.2812419000547379	43.25647889997367	45.96111719997111	48.5172780000139	2.704638299997441	44.25999890000071	47.49407209991523	51.56924829992931	1.7011182999704033	1.0232059000986737	1.4113284000195563	50.5557673999574	0.5052756000077352	49.53194299992174	2	1	66	3	go_reward	1	1	0	1	1	1	0	0.0	1.0	1	0.2812419000547379	0.5052756000077352	2001.7534411000088	2045.0099199999825	2046.0134400000095	2047.71455829998	2049.247513199924	2050.2707191000227	2051.2853840999305	2052.309208499966	2053.322689399938	2054.7340177999577	2020-05-14 09:38:32.298108	4.02137880140131	3.96333759564892	1.19214626834942	3.80183536361253	5.21352506975072	1.19214626834942	-4.02137880140131	3.96333759564892	1.19214626834942	5.21352506975072	1.19214626834942	1.8074301452163604	1.7678393674257804	4.327943171634754	2.1344922385326206	4.062590343332328	4.078389823715	2.1344922385326206	2.1627151493114876	3.9903607148366946	2.2225213474109253	3.8616532165280915	2.600782193639282	4	correct	1.0
52.98357859998964	8.191480200038768	go_punish	0.3180236000334844	53.009716599947296	54.4722987000132	57.027128999936394	1.4625821000659016	54.00461659999564	56.0071340999566	60.08897879999131	0.46768210001755506	1.0199948999797925	1.1122179999947548	59.07435589993838	0.4699206000659615	58.04479499999434	2	1	67	1	go_punish	1	0	-1	1	1	1	1	1.0	1.0	0	0.3180236000334844	0.4699206000659615	2001.7534411000088	2054.763157699956	2055.7580577000044	2056.225739800022	2057.7605751999654	2058.780570099945	2059.798236100003	2060.827796999947	2061.8424199	2062.954637899995	2020-05-14 09:38:32.298108	2.75728736074141	-1.72759157423351	-2.73011685285988	-2.8405989393214	0.0271705078815279	-2.73011685285988	-2.75728736074141	-1.72759157423351	-2.73011685285988	0.0271705078815279	-2.73011685285988	1.72759157423351	0.5037479267658802	-1.3629859982476757	-1.7877708826766794	-2.579843959601602	-1.1079647381541917	-1.7877708826766794	2.082876578328637	-1.1959938470324973	-1.6997417737983744	-1.8292759533543386	-1.3214809275700177	4	correct	1.0
61.22286390000977	8.714171099941723	go_reward	0.3167773999739438	61.249001899967425	63.031602300005034	65.57085509994022	1.7826004000376088	62.25232779991347	64.55264020001096	68.61289549991534	0.7792745000915602	1.0182148999292622	1.3502774999938083	67.6099542999873	0.5026056000497192	66.58067589998245	2	1	68	3	go_reward	1	1	0	1	1	1	1	1.0	1.0	1	0.3167773999739438	0.5026056000497192	2001.7534411000088	2063.002442999976	2064.0057688999223	2064.785043400014	2066.3060813000197	2067.324296199949	2068.3341169999912	2069.363395399996	2070.366336599924	2071.716614099918	2020-05-14 09:38:32.298108	4.21358649305815	4.17113401937206	1.19214626834942	4.0406090428666	5.40573276140757	1.19214626834942	-4.21358649305815	4.17113401937206	1.19214626834942	5.40573276140757	1.19214626834942	1.5996337214932206	1.9600470590826204	4.535739595357894	2.1344922385326206	4.301364022586398	4.2705975153718505	2.1344922385326206	1.9549187255883478	4.182568406493545	2.2225213474109253	4.069449640251231	2.600782193639282	4	correct	1.0
69.96463750000134	8.627866500056825	nogo_reward	0.4650420000543818	69.990775499959	71.67109869990963	74.20730679994449	1.6803231999506352	70.99272589990824	73.18778879998717	77.26189399999566	0.678372800001398	1.0195179999573156	1.3567480000201613	76.24820999999065	0.4350499999709427	75.22720969992224	2	1	69	4	nogo_reward	1	0	1	0	1	0	0	0.0	1.0	0	0.4650420000543818	0.4350499999709427	2001.7534411000088	2071.744216599968	2072.746166999917	2073.4245397999184	2074.941229899996	2075.9607478999533	2076.980650799931	2078.0016510999994	2079.0153351000044	2080.3720831000246	2020-05-14 09:38:32.298108	1.84165714427268	1.18831841881971	0.758679608432237	1.44289670689273	2.60033675270492	0.758679608432237	-1.84165714427268	1.18831841881971	0.758679608432237	2.60033675270492	0.758679608432237	-1.18831841881971	-0.4118822897028498	1.552923994805544	1.7010255786154376	1.7036516866125282	1.4652015066692006	1.7010255786154376	-0.8330334147245829	1.377172397790895	1.7890546874937425	1.0866340396988814	2.1673155337220993	4	correct	1.0
78.63832350005373	8.891083800000615	go_reward	0.27853689994663	78.66446150001138	80.69582599995192	83.25381469994318	2.031364499940537	79.66163539991248	82.2301041999599	86.31183479994024	1.0341906000394374	1.023710499983281	1.2437105000717565	85.29605439992156	0.3532336999196559	84.26804699993227	2	1	70	3	go_reward	1	1	0	1	1	1	1	1.0	1.0	1	0.27853689994663	0.3532336999196559	2001.7534411000088	2080.41790260002	2081.4150764999213	2082.4492670999607	2083.9835452999687	2085.007255799952	2086.021488099941	2087.0494954999303	2088.065275899949	2089.308986400021	2020-05-14 09:38:32.298108	4.37954977214584	4.35128504957047	1.19214626834942	4.24562265997539	5.57169604049526	1.19214626834942	-4.37954977214584	4.35128504957047	1.19214626834942	5.57169604049526	1.19214626834942	1.4194826912948102	2.12601033817031	4.7158906255563044	2.1344922385326206	4.506377639695188	4.43656079445954	2.1344922385326206	1.7747676953899374	4.348531685581235	2.2225213474109253	4.249600670449642	2.600782193639282	4	correct	1.0
87.55929700005777	7.886770999990404	go_punish	1.0	87.58543500001542	88.9520091000013	91.46814080001741	1.3665740999858826	88.58644659991842	90.45498089992907	94.51000319991726	0.3655625000828877	1.0131599000883398	0.9622028000885621	93.49684979999438	0.6177376999985427	92.47340649995022	2	1	71	1	go_punish	1	0	-1	1	0	0	0	0.0	1.0	-1	1.0	0.6177376999985427	2001.7534411000088	2089.338876100024	2090.339887699927	2090.70545020001	2092.208421999938	2093.221581900026	2094.226847599959	2095.250290900003	2096.263444299926	2097.2256471000146	2020-05-14 09:38:32.298108	-2.95890761828233	-1.50195531715188	-2.73011685285988	-2.4650149934668	0.22879076542245	-2.73011685285988	2.95890761828233	-2.73011685285988	-1.50195531715188	-2.73011685285988	0.22879076542245	-8.74606124997852	-5.212447052257859	-1.1373497411660458	-1.7877708826766794	-2.204260013747002	-0.9063444806132696	-1.7877708826766794	-8.390776245883394	-3.9532812077739052	1.2591658444839553	-2.8318012319807084	-0.09331939186201788	4	correct	1.0
95.47364209999773	9.272498999955587	nogo_reward	0.2780378001043573	95.49978009995539	98.35218659997918	100.90158820000943	2.8524065000237897	96.51574740000024	99.88492189999624	103.94166839995933	1.8364391999789405	1.0166663000131848	0.8306106999516487	102.92794229998299	1.0	101.91910249995999	2	1	72	4	nogo_reward	0	1	0	0	1	0	0	n/a	0.0	0	0.2780378001043573	1.0	2001.7534411000088	2097.253221199964	2098.269188500009	2100.105627699988	2101.638363000005	2102.655029300018	2103.672543599969	2104.681383399992	2105.695109499968	2106.5257201999198	2020-05-14 09:38:32.298108	1.69292381794067	1.02915866110022	0.758679608432237	1.25036999359853	2.45160342637291	0.758679608432237	-1.69292381794067	1.02915866110022	0.758679608432237	2.45160342637291	0.758679608432237	4.741609079765061	-0.5606156160348597	1.393764237086054	1.7010255786154376	1.511124973318328	1.3164681803371903	1.7010255786154376	5.096894083860188	1.2284390714588846	1.7890546874937425	0.9274742819793914	2.1673155337220993	4	missed	0.0
104.7758832999973	9.757473499979369	go_punish	0.2837357999524101	104.80202129995496	107.56567599996924	110.11924879997969	2.7636547000142855	105.7990469000074	109.09895070001949	113.16100309998728	1.7666290999618468	1.0202980999602005	1.3984916999470443	112.14798629994038	0.402991900104098	111.13017819996458	2	1	73	1	go_punish	1	0	-1	1	1	1	1	1.0	1.0	0	0.2837357999524101	0.402991900104098	2001.7534411000088	2106.5554623999637	2107.552488000016	2109.319117099978	2110.8523918000283	2111.8726898999885	2112.8836192999734	2113.901427399949	2114.914444199996	2116.312935899943	2020-05-14 09:38:32.298108	4.10463722303414	-1.50195531715188	-3.80043809780681	-3.62269017110285	0.304199125227339	-3.80043809780681	-4.10463722303414	-1.50195531715188	-3.80043809780681	0.304199125227339	-3.80043809780681	1.50195531715188	1.8510977890586102	-1.1373497411660458	-2.8580921276236095	-3.361935191383052	-0.8309361208083805	-2.8580921276236095	1.8572403212470072	-0.9189652296866861	-2.7700630187453044	-1.6036396962727086	-2.3918021725169476	4	correct	1.0
114.58210620004661	7.868943499983288	nogo_punish	1.0	114.60824420000426	116.11655959999189	118.65609820000827	1.508315399987623	115.62529409991112	117.63406139996368	121.71823629993014	0.49126550008077174	1.0220368000445887	0.7589514000574127	120.71085759997368	0.3228960999986157	119.67332659999374	2	1	74	2	nogo_punish	1	-1	0	0	0	1	0	0.0	1.0	0	1.0	0.3228960999986157	2001.7534411000088	2116.361685300013	2117.37873519992	2117.8700007000007	2119.3875024999725	2120.409539300017	2121.4267677000025	2122.4642986999825	2123.471677399939	2124.2306287999963	2020-05-14 09:38:32.298108	0.142158012170911	-4.25422356876856	-2.26622489502241	-4.22614856934341	-2.40838290719332	-2.26622489502241	-0.142158012170911	-2.26622489502241	-4.25422356876856	-2.26622489502241	-2.40838290719332	2.26622489502241	-2.1113814218046185	-3.8896179927827257	-1.3238789248392098	-3.965393589623612	-3.54351815322904	-1.3238789248392098	2.6215098991175374	-3.489389249936435	-1.3780078281318147	-2.367909274143239	-2.845587643478698	4	correct	1.0
122.49581750004995	7.880277099902742	nogo_punish	1.0	122.5219555000076	123.88506809994578	126.40947549999692	1.3631125999381766	123.52790149999782	125.39439879998099	129.45262619992718	0.3571665999479592	1.0150767000159249	0.9496063999831676	128.43666579993442	0.5694920000387356	127.42465439997613	2	1	75	2	nogo_punish	1	-1	0	0	0	1	0	0.0	1.0	0	1.0	0.5694920000387356	2001.7534411000088	2124.2753966000164	2125.2813426000066	2125.6385091999546	2127.14783989999	2128.1629166000057	2129.178095499985	2130.190106899943	2131.206067299936	2132.155673699919	2020-05-14 09:38:32.298108	0.505175016277629	-4.25422356876856	-1.9366281757798	-3.64202077288818	-2.44180319205743	-1.9366281757798	-0.505175016277629	-1.9366281757798	-4.25422356876856	-1.9366281757798	-2.44180319205743	1.9366281757798	-1.7483644176979007	-3.8896179927827257	-0.9942822055965995	-3.381265793168382	-3.5769384380931495	-0.9942822055965995	2.291913179874927	-3.1597925306938253	-1.4114281129959247	-2.0383125549006285	-2.845587643478698	4	correct	1.0
130.40553320001368	9.52981790003787	nogo_reward	0.2995872000465169	130.43167119997133	132.91173459996935	135.464380000019	2.4800633999980164	131.44566289999102	134.44474389997777	138.51145109999925	1.466071699978329	1.0196361000412253	1.450038000009954	137.4980139000113	0.3331368999788537	136.47694469999988	2	1	76	4	nogo_reward	1	0	1	0	1	0	0	0.0	1.0	0	0.2995872000465169	0.3331368999788537	2001.7534411000088	2132.18511229998	2133.199104	2134.665175699978	2136.1981849999866	2137.217821100028	2138.2303858000087	2139.25145500002	2140.264892200008	2141.714930200018	2020-05-14 09:38:32.298108	1.56739540437049	0.894144766131524	0.758679608432237	1.08693229857589	2.32607501280273	0.758679608432237	-1.56739540437049	0.894144766131524	0.758679608432237	2.32607501280273	0.758679608432237	-0.894144766131524	-0.6861440296050396	1.258750342117358	1.7010255786154376	1.3476872782956881	1.1909397667670103	1.7010255786154376	-0.538859762036397	1.1029106578887047	1.7890546874937425	0.7924603870106955	2.1673155337220993	4	correct	1.0
139.96500570001058	8.137404700043135	go_punish	0.3022923999233171	139.99114369996823	141.70392619993072	144.23607049998827	1.7127824999624863	140.98450129991397	143.21885249996558	147.26180029998022	0.7194249000167474	1.0172180000226945	0.8667481000311454	146.2477358999895	0.3844294999726116	145.23963379999623	2	1	77	1	go_punish	0	-1	0	1	1	1	0	0.0	1.0	-1	0.3022923999233171	0.3844294999726116	2001.7534411000088	2141.744584799977	2142.7379423999228	2143.4573672999395	2144.9722935999744	2145.989511599997	2146.993074900005	2148.0011769999983	2149.015241399989	2149.88198950002	2020-05-14 09:38:32.298108	4.26738735101924	-1.31001047607134	-3.80043809780681	-3.12908310343212	0.466949253212439	-3.80043809780681	-4.26738735101924	-1.31001047607134	-3.80043809780681	0.466949253212439	-3.80043809780681	-10.16616762676706	2.01384791704371	-0.9454049000855059	-2.8580921276236095	-2.8683281237123217	-0.6681859928232805	-2.8580921276236095	-9.810882622671933	-0.7562151017015861	-2.7700630187453044	-1.4116948551921686	-2.3918021725169476	4	correct	1.0
148.1497611000666	9.393941499991342	go_reward	0.3058753999648615	148.17589910002425	150.94939039996825	153.49362419999625	2.7734912999439985	149.1869286999572	152.47482200001832	156.54492639994714	1.7624617000110447	1.0188021999779266	1.0249142000684515	155.5402065999806	0.4347294999752193	154.51050819992088	2	1	78	3	go_reward	1	1	0	1	1	1	0	0.0	1.0	1	0.3058753999648615	0.4347294999752193	2001.7534411000088	2149.929340200033	2150.940369799966	2152.702831499977	2154.228263100027	2155.247065300005	2156.2639492999297	2157.2936476999894	2158.298367499956	2159.3232817000244	2020-05-14 09:38:32.298108	4.52336379804869	4.50798086357369	1.19214626834942	4.42235505133114	5.71551006639811	1.19214626834942	-4.52336379804869	4.50798086357369	1.19214626834942	5.71551006639811	1.19214626834942	1.2627868772915907	2.2698243640731603	4.872586439559524	2.1344922385326206	4.683110031050938	4.58037482036239	2.1344922385326206	1.6180718813867179	4.492345711484085	2.2225213474109253	4.406296484452861	2.600782193639282	4	correct	1.0
157.57315159996529	8.688286400050401	go_punish	0.3095894999569282	157.59928959992294	159.2505856999196	161.78560529998504	1.6512960999966708	158.60590139997657	160.7721771999495	164.82033669995144	0.6446842999430373	1.0134281000355259	1.4672393000219017	163.81665960000828	0.4130245000123977	162.80342479993124	2	1	79	1	go_punish	1	0	-1	1	1	1	1	1.0	1.0	0	0.3095894999569282	0.4130245000123977	2001.7534411000088	2159.3527306999317	2160.3593424999854	2161.0040267999284	2162.5256182999583	2163.539046399994	2164.55686589994	2165.570100700017	2166.57377779996	2168.041017099982	2020-05-14 09:38:32.298108	3.02586392420733	-2.62227049829418	-3.80043809780681	-4.18962830120262	-0.774574173599477	-3.80043809780681	-3.02586392420733	-2.62227049829418	-3.80043809780681	-0.774574173599477	-3.80043809780681	2.62227049829418	0.7723244902318003	-2.257664922308346	-2.8580921276236095	-3.928873321482822	-1.9097094196351967	-2.8580921276236095	2.977555502389307	-1.9977385285135023	-2.7700630187453044	-2.7239548774150086	-2.3918021725169476	4	correct	1.0
166.31137759995158	7.831930300104432	go_reward	0.8528622998856008	166.33751559990924	167.7032266999595	170.25335219991393	1.3657111000502482	167.34644160000607	169.2363989999285	173.2749724999303	0.356785099953413	1.016953199985437	0.8944734000833705	172.2733520999318	0.5167149000335485	171.26053899992303	2	1	80	3	go_reward	1	1	0	1	1	1	1	1.0	1.0	1	0.8528622998856008	0.5167149000335485	2001.7534411000088	2168.090956699918	2169.099882700015	2169.4566677999683	2170.9898400999373	2172.0067932999227	2173.013980099932	2174.0267931999406	2175.028413599939	2175.9228870000225	2020-05-14 09:38:32.298108	4.6484024169587	4.64469561160632	1.19214626834942	4.57527458890947	5.84054868530812	1.19214626834942	-4.6484024169587	4.64469561160632	1.19214626834942	5.84054868530812	1.19214626834942	1.1260721292589606	2.3948629829831707	5.009301187592154	2.1344922385326206	4.836029568629268	4.7054134392724	2.1344922385326206	1.4813571333540878	4.617384330394095	2.2225213474109253	4.543011232485491	2.600782193639282	4	correct	1.0
174.18559350003466	8.336860399926081	nogo_punish	1.0	174.2117314999923	176.06402970000636	178.59319439996034	1.8522982000140473	175.22233969997615	177.5733607999282	181.64222039992455	0.8416900000302121	1.0198336000321433	0.9063714999938384	180.6328284000042	0.4234572999412194	179.61067750002303	2	1	81	2	nogo_punish	1	-1	0	0	0	1	0	0.0	1.0	0	1.0	0.4234572999412194	2001.7534411000088	2175.965172600001	2176.975780799985	2177.817470800015	2179.326801899937	2180.346635499969	2181.364118600032	2182.386269500013	2183.3956614999333	2184.302032999927	2020-05-14 09:38:32.298108	0.80934046006565	-4.25422356876856	-1.66238219788886	-3.15128950607497	-2.47172265795451	-1.66238219788886	-0.80934046006565	-1.66238219788886	-4.25422356876856	-1.66238219788886	-2.47172265795451	1.66238219788886	-1.4441989739098797	-3.8896179927827257	-0.7200362277056594	-2.890534526355172	-3.60685790399023	-0.7200362277056594	2.017667201983987	-2.885546552802885	-1.4413475788930048	-1.7640665770096886	-2.845587643478698	4	correct	1.0
182.56505360000278	8.297372100059874	nogo_punish	1.0	182.59119159996044	183.925060799927	186.44187979993876	1.333869199966557	183.60037979995832	185.4272388999816	189.47383669996634	0.3246809999686775	1.0146408999571577	1.414727000053972	188.4648294999497	0.3519802000373602	187.45213390002027	2	1	82	2	nogo_punish	1	-1	0	0	0	1	0	0.0	1.0	0	1.0	0.3519802000373602	2001.7534411000088	2184.344632699969	2185.353820899967	2185.678501899936	2187.1806799999904	2188.1953208999475	2189.205575000029	2190.2182705999585	2191.227277799975	2192.642004800029	2020-05-14 09:38:32.298108	1.06565742596791	-4.25422356876856	-1.43282689649175	-2.73681047547008	-2.49848432245967	-1.43282689649175	-1.06565742596791	-1.43282689649175	-4.25422356876856	-1.43282689649175	-2.49848432245967	1.43282689649175	-1.1878820080076198	-3.8896179927827257	-0.49048092630854956	-2.476055495750282	-3.63361956849539	-0.49048092630854956	1.7881119005868773	-2.6559912514057755	-1.4681092433981646	-1.5345112756125787	-2.845587643478698	4	correct	1.0
190.89046110003233	8.746665699989535	nogo_reward	0.3012707999441772	190.91659909998998	193.08295989991166	195.62238979991525	2.1663607999216765	191.9216631000163	194.6001539999852	198.66974599997093	1.1612967998953536	1.0222357999300584	0.9935188000085873	197.65633399994113	0.3863076999550685	196.63493109995034	2	1	83	4	nogo_reward	1	0	1	0	1	0	0	0.0	1.0	0	0.3012707999441772	0.3863076999550685	2001.7534411000088	2192.6700401999988	2193.675104200025	2194.8364009999204	2196.353595099994	2197.375830899924	2198.388372199959	2199.40977509995	2200.4231870999797	2201.4167058999883	2020-05-14 09:38:32.298108	1.46101312590172	0.779165274191524	0.758679608432237	0.947652673624867	2.21969273433396	0.758679608432237	-1.46101312590172	0.779165274191524	0.758679608432237	2.21969273433396	0.758679608432237	-0.779165274191524	-0.7925263080738096	1.1437708501773582	1.7010255786154376	1.2084076533446653	1.0845574882982405	1.7010255786154376	-0.42388027009639695	0.9965283794199349	1.7890546874937425	0.6774808950706955	2.1673155337220993	4	correct	1.0
199.6646495000457	8.7552621000209	nogo_reward	0.5386640999931842	199.69078750000335	201.68757670000196	204.25312629994005	1.9967891999986023	200.6880316999741	203.22992319997866	207.2801762999734	0.9995450000278652	1.0232030999613926	1.1658733000508619	206.27638970001135	0.3413868999341503	205.2617476999294	2	1	84	4	nogo_reward	0	1	0	0	1	0	0	0.0	1.0	1	0.5386640999931842	0.3413868999341503	2001.7534411000088	2201.444228600012	2202.441472799983	2203.4410178000107	2204.9833642999874	2206.006567399949	2207.015188799938	2208.02983080002	2209.033617399982	2210.199490700033	2020-05-14 09:38:32.298108	1.37050807283684	0.680889636702431	0.758679608432237	0.828532014713394	2.12918768126908	0.758679608432237	-1.37050807283684	0.680889636702431	0.758679608432237	2.12918768126908	0.758679608432237	5.08987810416285	-0.8830313611386897	1.045495212688265	1.7010255786154376	1.0892869944331922	0.9940524352333606	1.7010255786154376	5.445163108257977	0.906023326355055	1.7890546874937425	0.5792052575816025	2.1673155337220993	4	correct	1.0
208.46586029999867	8.251169300056063	go_reward	0.551315400050953	208.49199829995632	209.99381110002332	212.521585399983	1.5018128000670004	209.49608700000726	211.51128159998916	215.5517312999582	0.4977241000160575	1.0103037999938351	1.1914363000541925	214.5441590999253	0.4924072000430897	213.53077429998666	2	1	85	3	go_reward	1	1	0	1	1	1	0	0.0	1.0	1	0.551315400050953	0.4924072000430897	2001.7534411000088	2210.245439399965	2211.249528100016	2211.747252200032	2213.264722699998	2214.275026499992	2215.2842153999954	2216.297600199934	2217.305172399967	2218.496608700021	2020-05-14 09:38:32.298108	4.75746013793827	4.76432431093597	1.19214626834942	4.70804959545722	5.94960640628769	1.19214626834942	-4.75746013793827	4.76432431093597	1.19214626834942	5.94960640628769	1.19214626834942	1.0064434299293108	2.50392070396274	5.128929886921804	2.1344922385326206	4.9688045751770185	4.81447116025197	2.1344922385326206	1.361728434024438	4.726442051373665	2.2225213474109253	4.662639931815141	2.600782193639282	4	correct	1.0
216.76016079995338	8.789686700096354	nogo_punish	1.0	216.78629879991104	218.7681634000037	221.29065320000518	1.9818646000926492	217.78975979995494	220.27126930002123	224.34849020000547	0.9784036000487504	1.01938389998395	1.2274953000019195	223.3440155999274	0.3310625000158325	222.3142235999694	2	1	86	2	nogo_punish	1	-1	0	0	0	1	0	0.0	1.0	0	1.0	0.3310625000158325	2001.7534411000088	2218.53973989992	2219.5432008999637	2220.5216045000125	2222.02471040003	2223.044094300014	2224.067664699978	2225.097456699936	2226.1019313000143	2227.329426600016	2020-05-14 09:38:32.298108	1.28275177378122	-4.25422356876856	-1.23965245274012	-2.38504373554185	-2.52240422652135	-1.23965245274012	-1.28275177378122	-1.23965245274012	-4.25422356876856	-1.23965245274012	-2.52240422652135	1.23965245274012	-0.9707876601943097	-3.8896179927827257	-0.2973064825569195	-2.124288755822052	-3.65753947255707	-0.2973064825569195	1.5949374568352472	-2.4628168076541455	-1.4920291474598446	-1.3413368318609487	-2.845587643478698	4	correct	1.0
225.5793121999593	9.402114900062315	go_punish	0.3294478999450803	225.60545019991696	228.03871459991205	230.58020009996835	2.433264399995096	226.611382199917	229.559473300003	233.61663609999232	1.4273323999950662	1.0207267999653595	1.3909289999869543	232.60495810001157	1.0	231.59640529996295	2	1	87	1	go_punish	1	0	-1	1	1	1	0	n/a	0.0	-1	0.3294478999450803	1.0	2001.7534411000088	2227.3588912999257	2228.364823299926	2229.792155699921	2231.312914400012	2232.333641199977	2233.3498463999717	2234.3583992000204	2235.370077200001	2236.761006199988	2020-05-14 09:38:32.298108	3.35528728398483	-2.25944409101122	-3.80043809780681	-3.61547883020337	-0.445150813821979	-3.80043809780681	-3.35528728398483	-2.25944409101122	-3.80043809780681	-0.445150813821979	-3.80043809780681	2.25944409101122	1.1017478500093003	-1.894838515025386	-2.8580921276236095	-3.354723850483572	-1.5802860598576987	-2.8580921276236095	2.6147290951063473	-1.6683151687360043	-2.7700630187453044	-2.3611284701320487	-2.3918021725169476	4	missed	0.0
235.00954870006558	8.98024019994773	nogo_reward	0.3476077999221161	235.03568670002323	237.4096221999498	239.9609243000159	2.3739354999265743	236.05255539994732	238.9363821999873	243.007325700019	1.3570668000024853	1.0245421000286115	1.0086011999519542	241.99856169999111	0.3378918999806046	240.97422350000124	2	1	88	4	nogo_reward	0	1	0	0	1	0	0	0.0	1.0	1	0.3476077999221161	0.3378918999806046	2001.7534411000088	2236.789127800032	2237.805996499956	2239.1630632999586	2240.689823299996	2241.7143654000247	2242.72766460001	2243.7520028	2244.760766800028	2245.7693679999797	2020-05-14 09:38:32.298108	2.01108495074521	1.35528305781175	0.758679608432237	1.48498718665088	2.76976455917745	0.758679608432237	-2.01108495074521	1.35528305781175	0.758679608432237	2.76976455917745	0.758679608432237	4.41548468305353	-0.2424544832303197	1.7198886337975843	1.7010255786154376	1.745742166370678	1.6346293131417304	1.7010255786154376	4.770769687148658	1.5466002042634248	1.7890546874937425	1.2535986786909215	2.1673155337220993	4	correct	1.0
244.03502519999142	8.976528799976222	go_reward	0.3593028000323102	244.06116319994908	246.09980839991476	248.6516725999536	2.0386451999656856	245.05530729994643	247.628076100023	251.68954629998188	1.044501099968329	1.0235964999305907	1.3481456999434158	250.6781260999851	0.3531879999209195	249.66503369994462	2	1	89	3	go_reward	1	1	0	1	1	1	0	0.0	1.0	1	0.3593028000323102	0.3531879999209195	2001.7534411000088	2245.814604299958	2246.808748399955	2247.8532494999235	2249.381517200032	2250.4051136999624	2251.4184747999534	2252.431567199994	2253.4429873999907	2254.791133099934	2020-05-14 09:38:32.298108	4.85286317118436	4.86929062990206	1.19214626834942	4.82370949031186	6.04500943953378	1.19214626834942	-4.85286317118436	4.86929062990206	1.19214626834942	6.04500943953378	1.19214626834942	0.9014771109632207	2.5993237372088305	5.233896205887894	2.1344922385326206	5.084464470031658	4.9098741934980605	2.1344922385326206	1.256762115058348	4.821845084619755	2.2225213474109253	4.767606250781231	2.600782193639282	4	correct	1.0
253.0424295000264	7.995476300013252	go_punish	0.533807500032708	253.06856749998406	254.41436579998117	256.9741576999659	1.3457982999971136	254.07323450001422	255.94946309993975	260.0239434000109	0.34113129996694624	1.0246946000261232	1.040100399986386	259.0053538000211	0.5173338999738917	257.9826893999707	2	1	90	1	go_punish	0	-1	0	1	1	1	0	0.0	1.0	-1	0.533807500032708	0.5173338999738917	2001.7534411000088	2254.822008599993	2255.826675600023	2256.16780689999	2257.7029041999485	2258.7275987999747	2259.7361304999795	2260.75879490003	2261.7773845000197	2262.817484900006	2020-05-14 09:38:32.298108	2.25054627936377	-3.43113822661456	-3.80043809780681	-4.60879355657819	-1.54989181844303	-3.80043809780681	-2.25054627936377	-3.43113822661456	-3.80043809780681	-1.54989181844303	-3.80043809780681	-8.04503987622384	-0.002993154611759863	-3.0665326506287256	-2.8580921276236095	-4.348038576858392	-2.6850270644787493	-2.8580921276236095	-7.689754872128712	-2.7730561733570553	-2.7700630187453044	-3.5328226057353884	-2.3918021725169476	4	correct	1.0
261.0656696000367	9.577848899993114	nogo_reward	0.2447679999750107	261.09180759999435	263.8582652999321	266.4155921000056	2.766457699937746	262.0992662999779	265.39213249995373	269.4569576999638	1.7589989999542013	1.023459600051865	1.2126988000236452	268.454063499928	0.2881548999575898	267.42397260002326	2	1	91	4	nogo_reward	0	1	0	0	1	0	0	0.0	1.0	1	0.2447679999750107	0.2881548999575898	2001.7534411000088	2262.845248700003	2263.8527073999867	2265.611706399941	2267.1455735999625	2268.1690332000144	2269.177413700032	2270.207504599937	2271.2103987999726	2272.4230975999963	2020-05-14 09:38:32.298108	2.55113685478735	1.92640565004283	0.758679608432237	2.04062634057458	3.30981646321959	0.758679608432237	-2.55113685478735	1.92640565004283	0.758679608432237	3.30981646321959	0.758679608432237	3.8443620908224503	0.29759742081182017	2.291011226028664	1.7010255786154376	2.3013813202943783	2.1746812171838705	1.7010255786154376	4.1996470949175775	2.0866521083055645	1.7890546874937425	1.8247212709220013	2.1673155337220993	4	correct	1.0
270.6883059999666	8.821416000021145	nogo_punish	0.4060461999615654	270.71444399992424	272.4740638999501	275.0232904999284	1.759619900025882	271.7110673999414	274.00011259992607	278.0741981000174	0.7629965000087395	1.023177900002338	1.4616618999280035	277.07131309993565	0.6208078000927344	276.0373470999766	2	1	92	2	nogo_punish	1	-1	0	0	1	0	0	0.0	1.0	-1	0.4060461999615654	0.6208078000927344	2001.7534411000088	2272.467885099933	2273.46450849995	2274.227504999959	2275.753553699935	2276.776731599937	2277.7907881999854	2278.8247541999444	2279.827639200026	2281.289301099954	2020-05-14 09:38:32.298108	-1.46746881679879	-4.25422356876856	-1.07630526492535	-2.08518467173445	-2.54377408172414	-1.07630526492535	1.46746881679879	-4.25422356876856	-1.07630526492535	-2.54377408172414	-1.07630526492535	-7.22195453406984	-3.72100825077432	-3.8896179927827257	-0.1339592947421494	-1.824429692014652	-3.6789093277598592	-0.1339592947421494	-6.866669529974713	-3.7669384366381653	-0.045930185863844564	-4.3559079478893885	0.3323306603645122	4	correct	1.0
279.53777549997835	9.320099900011428	nogo_reward	0.2857645000331104	279.563913499936	282.0893501000246	284.63129179994576	2.5254366000885966	280.57313639996573	283.6164583999198	287.6877433999907	1.51621370005887	1.0148334000259638	1.1962699999567121	286.6745287999511	0.2809343000408262	285.6452856999822	2	1	93	4	nogo_reward	1	0	1	0	1	0	1	1.0	1.0	0	0.2857645000331104	0.2809343000408262	2001.7534411000088	2281.317354599945	2282.3265774999745	2283.8427912000334	2285.3698994999286	2286.3847328999545	2287.398726799991	2288.42796989996	2289.4411844999995	2290.637454499956	2020-05-14 09:38:32.298108	3.00865846862	2.4123194702327	0.758679608432237	2.51313730121175	3.76733807705224	0.758679608432237	-3.00865846862	2.4123194702327	0.758679608432237	3.76733807705224	0.758679608432237	-2.4123194702327	0.7551190346444705	2.776925046218534	1.7010255786154376	2.7738922809315483	2.632202831016521	1.7010255786154376	-2.057034466137573	2.544173722138215	1.7890546874937425	2.3106350911118714	2.1673155337220993	4	correct	1.0
288.90336060000095	9.042990199988708	nogo_punish	1.0	288.9294985999586	291.1496510999277	293.67358499998227	2.2201524999691173	289.93561189994216	292.6670873999833	296.71962539991364	1.2140391999855638	1.0064975999989656	1.2528634000336751	295.7048706000205	0.2869499999796971	294.6911428999156	2	1	94	2	nogo_punish	1	-1	0	0	0	1	1	1.0	1.0	0	1.0	0.2869499999796971	2001.7534411000088	2290.6829396999674	2291.689052999951	2292.9030921999365	2294.420528499992	2295.427026099991	2296.4445839999244	2297.4583117000293	2298.4730664999224	2299.725929899956	2020-05-14 09:38:32.298108	2.25599447343426	-5.12053049960144	-1.07630526492535	-3.30473539661216	-3.33229973835961	-1.07630526492535	-2.25599447343426	-1.07630526492535	-5.12053049960144	-1.07630526492535	-3.33229973835961	1.07630526492535	0.002455039458730379	-4.755924923615606	-0.1339592947421494	-3.043980416892362	-4.46743498439533	-0.1339592947421494	1.431590269020477	-2.299469619839375	-2.3019246592981046	-1.1779896440461786	-3.711894574311578	4	correct	1.0
297.992389300023	9.526686299941503	go_reward	0.2288087999913841	298.01852729998063	300.9843656999292	303.52681449998636	2.9658383999485523	299.02454110002145	302.5157499000197	306.58094729995355	1.9598245999077335	1.0110645999666303	0.9642662999685854	305.56714689999353	0.4016432999633252	304.5414972999133	2	1	95	3	go_reward	1	1	0	1	1	1	0	0.0	1.0	1	0.2288087999913841	0.4016432999633252	2001.7534411000088	2299.7719683999894	2300.7779822000302	2302.737806799938	2304.2691910000285	2305.280255599995	2306.294938399922	2307.3205880000023	2308.3343883999623	2309.298654699931	2020-05-14 09:38:32.298108	4.93655692048247	4.9616324145354	1.19214626834942	4.92476960458042	6.12870318883189	1.19214626834942	-4.93655692048247	4.9616324145354	1.19214626834942	6.12870318883189	1.19214626834942	0.8091353263298808	2.6830174865069405	5.326237990521234	2.1344922385326206	5.185524584300218	4.9935679427961706	2.1344922385326206	1.164420330425008	4.905538833917865	2.2225213474109253	4.859948035414571	2.600782193639282	4	correct	1.0
307.54887729999587	8.828662800020538	go_punish	0.348267100052908	307.5750152999535	309.41690399998333	311.95243559998926	1.8418887000298128	308.57516479992773	310.9325446999869	315.0121134999208	0.8417392000555992	1.0198909000023377	1.3915646000532433	313.9980928999139	0.6392547999275848	312.9706707999576	2	1	96	1	go_punish	1	0	-1	1	1	1	0	0.0	1.0	0	0.348267100052908	0.6392547999275848	2001.7534411000088	2309.3284563999623	2310.3286058999365	2311.170345099992	2312.6859857999957	2313.705876699998	2314.7241118999664	2315.7515339999227	2316.7655545999296	2318.157119199983	2020-05-14 09:38:32.298108	1.31370399762499	-4.4280510949861	-3.80043809780681	-5.4543938583731	-2.48673410018182	-3.80043809780681	-1.31370399762499	-4.4280510949861	-3.80043809780681	-2.48673410018182	-3.80043809780681	4.4280510949861	-0.9398354363505397	-4.063445519000266	-2.8580921276236095	-5.193638878653302	-3.6218693462175393	-2.8580921276236095	4.783336099081227	-3.7098984550958454	-2.7700630187453044	-4.5297354741069285	-2.3918021725169476	4	correct	1.0
316.4226422000213	8.943781099980242	nogo_punish	0.4613004999700933	316.44878019997896	318.34088519995566	320.8770190000073	1.8921049999767092	317.44214139995165	319.8520266999258	323.9102654999592	0.8987438000040129	1.0249923000815215	1.4822957999999744	322.91017839999404	0.6385883999755606	321.88631630002055	2	1	97	2	nogo_punish	1	-1	0	0	1	0	0	0.0	1.0	-1	0.4613004999700933	0.6385883999755606	2001.7534411000088	2318.2022212999877	2319.1955824999604	2320.0943262999645	2321.6054677999346	2322.630460100016	2323.6397574000293	2324.663619500003	2325.663706599968	2327.146002399968	2020-05-14 09:38:32.298108	-2.42181042204552	-5.12053049960144	-0.937566267400198	-2.86196010934191	-3.35937668944571	-0.937566267400198	2.42181042204552	-5.12053049960144	-0.937566267400198	-3.35937668944571	-0.937566267400198	-6.35564760323696	-4.67534985602105	-4.755924923615606	0.0047797027830025485	-2.601205129622112	-4.494511935481429	0.0047797027830025485	-6.000362599141833	-4.582541044359735	0.09280881166130739	-5.222214878722268	0.47106965788966415	4	correct	1.0
325.4087385999735	8.425412900047831	nogo_punish	0.5887987999012694	325.43487659993116	327.0002231999533	329.56531809992157	1.565346600022167	326.4398745999206	328.5420769000193	332.60899189999327	0.5603486000327393	1.0232411999022588	1.251297599985719	331.6009161999682	0.6603314999956638	330.58772359997965	2	1	98	2	nogo_punish	1	-1	0	0	1	0	0	0.0	1.0	-1	0.5887987999012694	0.6603314999956638	2001.7534411000088	2327.18831769994	2328.1933156999294	2328.753664299962	2330.295518000028	2331.3187591999304	2332.3411646999884	2333.354357299977	2334.362433000002	2335.613730599988	2020-05-14 09:38:32.298108	-3.09389613679044	-5.86523526869107	-0.937566267400198	-3.96446684874144	-4.03146240419064	-0.937566267400198	3.09389613679044	-5.86523526869107	-0.937566267400198	-4.03146240419064	-0.937566267400198	-5.61094283414733	-5.3474355707659695	-5.500629692705235	0.0047797027830025485	-3.703711869021642	-5.16659765022636	0.0047797027830025485	-5.255657830052203	-5.254626759104665	0.09280881166130739	-5.966919647811898	0.47106965788966415	4	correct	1.0
333.87869729998033	7.890070000081323	nogo_punish	1.0	333.904835299938	335.29855269996915	337.82472679996863	1.3937174000311643	334.91060579998884	336.8008974000113	340.865864399937	0.3879468999803066	1.0238293999573216	0.9290409000823274	339.85859640000854	0.3915057999547571	338.8334012000123	2	1	99	2	nogo_punish	0	0	-1	0	0	1	1	1.0	1.0	-1	1.0	0.3915057999547571	2001.7534411000088	2335.6582763999468	2336.6640468999976	2337.051993799978	2338.55433850002	2339.5781678999774	2340.586842300021	2341.6120375000173	2342.6193054999458	2343.548346400028	2020-05-14 09:38:32.298108	3.67156399535585	-6.50803685834952	-0.937566267400198	-4.90130867763571	-4.60913026275605	-0.937566267400198	-3.67156399535585	-0.937566267400198	-6.50803685834952	-0.937566267400198	-4.60913026275605	-10.538611835438202	1.4180245613803204	-6.143431282363686	0.0047797027830025485	-4.640553697915912	-5.74426550879177	0.0047797027830025485	-10.183326831343075	-2.1607306223142233	-3.578755183694545	-1.0392506465210265	-5.099400933059658	4	correct	1.0
341.79720589995827	9.555140500073321	nogo_reward	0.5026264999760315	341.8233438999159	344.5602850000141	347.11659619992133	2.7369411000981927	342.8304998999233	346.09309599990956	350.16070150001906	1.729785100090794	1.0235002000117674	1.2177828999701887	349.15255889995024	0.8132486999966204	348.13086979999207	2	1	100	4	nogo_reward	0	1	0	0	1	0	0	0.0	1.0	1	0.5026264999760315	0.8132486999966204	2001.7534411000088	2343.5767849999247	2344.583940999932	2346.313726100023	2347.8465370999184	2348.87003729993	2349.884310900001	2350.905999999959	2351.914142600028	2353.131925499998	2020-05-14 09:38:32.298108	2.68014843045129	2.06882310908157	0.758679608432237	2.15800746156715	3.43882803888353	0.758679608432237	-2.68014843045129	2.06882310908157	0.758679608432237	3.43882803888353	0.758679608432237	3.7019446317837104	0.42660899647576045	2.4334286850674043	1.7010255786154376	2.418762441286948	2.3036927928478104	1.7010255786154376	4.057229635878837	2.215663683969505	1.7890546874937425	1.9671387299607415	2.1673155337220993	4	correct	1.0
351.3804044000574	9.02358849998518	nogo_reward	0.4407881000079214	351.40654240001504	353.3283216999844	355.87295280001126	1.9217792999693302	352.41086439997935	354.86291839997284	358.93651719996706	0.9174573000050259	1.0100344000384212	1.4936137000331655	357.92045699991286	0.4211934000486508	356.89071669999976	2	1	101	4	nogo_reward	1	0	1	0	1	0	0	0.0	1.0	0	0.4407881000079214	0.4211934000486508	2001.7534411000088	2353.159983500024	2354.164305499988	2355.081762799993	2356.6163594999816	2357.62639390002	2358.6441578000085	2359.6738980999216	2360.689958299976	2362.183572000009	2020-05-14 09:38:32.298108	3.12444747189916	2.54000987317706	0.758679608432237	2.61907030898708	3.8831270803314	0.758679608432237	-3.12444747189916	2.54000987317706	0.758679608432237	3.8831270803314	0.758679608432237	-2.54000987317706	0.8709080379236305	2.904615449162894	1.7010255786154376	2.8798252887068783	2.7479918342956804	1.7010255786154376	-2.1847248690819328	2.659962725417375	1.7890546874937425	2.4383254940562313	2.1673155337220993	4	correct	1.0
360.45079749997217	7.946470600087196	go_reward	0.5235250000841916	360.4769354999298	361.80650279996917	364.3338410999859	1.3295673000393435	361.4810301999096	363.32400459994096	367.3746773999883	0.3254726000595838	1.009836500044912	1.0487287000287324	366.3677632999602	0.386900300043635	365.3421406999696	2	1	102	3	go_reward	1	1	0	1	1	1	0	0.0	1.0	1	0.5235250000841916	0.386900300043635	2001.7534411000088	2362.2303765999386	2363.2344712999184	2363.559943899978	2365.0774456999497	2366.0872821999947	2367.0955817999784	2368.121204399969	2369.128118499997	2370.176847200026	2020-05-14 09:38:32.298108	5.0101754056968	5.04307003169444	1.19214626834942	5.0133288023342	6.20232167404622	1.19214626834942	-5.0101754056968	5.04307003169444	1.19214626834942	6.20232167404622	1.19214626834942	0.7276977091708403	2.7566359717212703	5.407675607680274	2.1344922385326206	5.2740837820539985	5.0671864280105	2.1344922385326206	1.0829827132659675	4.979157319132195	2.2225213474109253	4.9413856525736115	2.600782193639282	4	correct	1.0
368.42693700001087	9.361934000043675	nogo_reward	0.2816795000107959	368.4530749999685	370.9494989999803	373.4956792999292	2.496424000011757	369.4668330999557	372.48323080001865	376.54754059994593	1.4826659000245854	1.0124484999105334	1.2674684000662637	375.5343820999842	0.5184008000651374	374.50444479996804	2	1	103	4	nogo_reward	1	0	1	0	1	0	1	1.0	1.0	0	0.2816795000107959	0.5184008000651374	2001.7534411000088	2370.2065160999773	2371.2202741999645	2372.702940099989	2374.2366719000274	2375.249120399938	2376.257885899977	2377.287823199993	2378.3009816999547	2379.568450100021	2020-05-14 09:38:32.298108	2.78383359030093	2.18310919054236	0.758679608432237	2.25333752899342	3.54251319873317	0.758679608432237	-2.78383359030093	2.18310919054236	0.758679608432237	3.54251319873317	0.758679608432237	-2.18310919054236	0.5302941563254002	2.5477147665281943	1.7010255786154376	2.514092508713218	2.40737795269745	1.7010255786154376	-1.8278241864472329	2.319348843819145	1.7890546874937425	2.0814248114215315	2.1673155337220993	4	correct	1.0
377.8186914999967	8.96144290000666	go_punish	0.3056328999809921	377.84482949995436	380.4255698999623	382.94491700001527	2.580740400007926	378.84987219993536	381.9315288999351	386.00036209996324	1.5756977000269217	1.013388100080192	0.8059102999977767	384.99352439993527	0.3574707000516355	383.95743549999315	2	1	104	1	go_punish	1	0	-1	1	1	1	0	0.0	1.0	0	0.3056328999809921	0.3574707000516355	2001.7534411000088	2379.598270599963	2380.603313299944	2382.179010999971	2383.684969999944	2384.698358100024	2385.710876600002	2386.746965499944	2387.753803199972	2388.55971349997	2020-05-14 09:38:32.298108	1.89460580334574	-3.80416369911141	-3.80043809780681	-4.70157636171242	-1.90583229446106	-3.80043809780681	-1.89460580334574	-3.80416369911141	-3.80043809780681	-1.90583229446106	-3.80043809780681	3.80416369911141	-0.35893363062978967	-3.439558123125576	-2.8580921276236095	-4.440821381992622	-3.0409675404967795	-2.8580921276236095	4.159448703206537	-3.128996649375085	-2.7700630187453044	-3.9058480782322387	-2.3918021725169476	4	correct	1.0
386.8269448999779	9.530141500057653	go_reward	0.2572791000129655	386.85308289993554	389.39581929997075	391.935479199979	2.54273640003521	387.8570238999091	390.91229709994514	394.99359149998054	1.5387954000616446	1.0231821000338641	1.389632900012657	393.98010379995685	0.5366145999869332	392.94935289991554	2	1	105	3	go_reward	1	1	0	1	1	1	0	0.0	1.0	1	0.2572791000129655	0.5366145999869332	2001.7534411000088	2388.6065239999443	2389.610464999918	2391.1492603999795	2392.665738199954	2393.688920299988	2394.7027939999243	2395.7335448999656	2396.7470325999893	2398.136665500002	2020-05-14 09:38:32.298108	5.0750967076047	5.11506133123335	1.19214626834942	5.09114648800223	6.26724297595412	1.19214626834942	-5.0750967076047	5.11506133123335	1.19214626834942	6.26724297595412	1.19214626834942	0.6557064096319305	2.8215572736291707	5.479666907219184	2.1344922385326206	5.351901467722028	5.1321077299184	2.1344922385326206	1.0109914137270577	5.044078621040095	2.2225213474109253	5.013376952112521	2.600782193639282	4	correct	1.0
396.3874315000137	7.904779799981043	go_punish	0.3619286000030115	396.41356949997135	397.8490875000134	400.3787265999713	1.435518000042066	397.419073499972	399.36263819993474	403.42583159997594	0.4300140000414103	1.0160884000365513	0.8925176999764517	402.4120449000038	0.3849944999674335	401.38310420000926	2	1	106	1	go_punish	0	-1	0	1	1	1	1	1.0	1.0	-1	0.3619286000030115	0.3849944999674335	2001.7534411000088	2398.16701059998	2399.172514599981	2399.602528600022	2401.1160792999435	2402.13216769998	2403.136545300018	2404.1654860000126	2405.1792726999847	2406.071790399961	2020-05-14 09:38:32.298108	2.37811121376441	-3.28214671609478	-3.80043809780681	-4.06924535937146	-1.4223268840424	-3.80043809780681	-2.37811121376441	-3.28214671609478	-3.80043809780681	-1.4223268840424	-3.80043809780681	-8.194031386743621	0.12457177978888012	-2.9175411401089457	-2.8580921276236095	-3.808490379651662	-2.5574621300781195	-2.8580921276236095	-7.838746382648494	-2.645491238956425	-2.7700630187453044	-3.3838310952156085	-2.3918021725169476	4	correct	1.0
404.3207158000439	8.260803299956024	nogo_reward	1.0	404.34685380000155	405.63312389992643	408.17194029991515	1.2862700999248773	405.3541250999551	407.1485173999099	411.2202890999615	0.27899879997130483	1.0234229000052437	1.3873679999960586	410.20552710001357	0.7020350000821054	409.17997739999555	2	1	107	4	nogo_reward	1	0	1	0	0	1	0	0.0	1.0	1	1.0	0.7020350000821054	2001.7534411000088	2406.1002949000103	2407.107566199964	2407.386564999935	2408.9019584999187	2409.925381399924	2410.9334185000043	2411.9589682000224	2412.9737301999703	2414.3610981999664	2020-05-14 09:38:32.298108	-2.49932334197382	1.88353036710692	0.758679608432237	1.94603529706628	3.25800295040606	0.758679608432237	2.49932334197382	0.758679608432237	1.88353036710692	0.758679608432237	3.25800295040606	5.0120881324330435	-4.75286277594935	2.248135943092754	1.7010255786154376	2.2067902767860783	2.12286770437034	1.7010255786154376	5.367373136528171	-0.46448474648178817	4.288378029467565	0.6569952293114085	3.2921662923967823	4	correct	1.0
412.62978930002987	7.9098634999245405	nogo_punish	1.0	412.6559272999875	414.19576589995995	416.73244649998423	1.539838599972427	413.65846980002243	415.7114362999564	419.79511790000834	0.5372960999375209	1.0210102000278312	0.7706728999037296	418.78010630002245	0.3213127000490203	417.74677500000735	2	1	108	2	nogo_punish	1	-1	0	0	0	1	0	0.0	1.0	0	1.0	0.3213127000490203	2001.7534411000088	2414.4093683999963	2415.411910900031	2415.9492069999687	2417.464877399965	2418.485887599993	2419.500216100016	2420.5335474000312	2421.548559000017	2422.319231899921	2020-05-14 09:38:32.298108	2.25528654296905	-6.50803685834952	-2.29544399423195	-5.70130442803175	-4.550730537201	-2.29544399423195	-2.25528654296905	-2.29544399423195	-6.50803685834952	-2.29544399423195	-4.550730537201	2.29544399423195	0.0017471089935203743	-6.143431282363686	-1.3530980240487493	-5.440549448311952	-5.68586578323672	-1.3530980240487493	2.650728998327077	-3.5186083491459748	-3.5203554581394947	-2.3971283733527784	-5.099400933059658	4	correct	1.0
420.5697518000377	9.270401099929586	go_punish	0.316556500038132	420.59588979999535	423.02055899996776	425.56896880001295	2.4246691999724135	421.600931799971	424.5481116999872	428.61399779992644	1.4196271999967394	1.0208571000257507	1.2522930999984965	427.600219200016	0.3803622999694198	426.57866419991524	2	1	109	1	go_punish	1	0	-1	1	1	1	0	0.0	1.0	0	0.316556500038132	0.3803622999694198	2001.7534411000088	2422.349330900004	2423.35437289998	2424.7740000999765	2426.301552799996	2427.3224099000217	2428.332105299924	2429.353660300025	2430.367438899935	2431.6197319999337	2020-05-14 09:38:32.298108	1.40358096877082	-4.31907564722072	-3.80043809780681	-5.0114251112695	-2.39685712903599	-3.80043809780681	-1.40358096877082	-4.31907564722072	-3.80043809780681	-2.39685712903599	-3.80043809780681	4.31907564722072	-0.8499584652047096	-3.954470071234886	-2.8580921276236095	-4.750670131549702	-3.5319923750717095	-2.8580921276236095	4.6743606513158475	-3.6200214839500156	-2.7700630187453044	-4.420760026341549	-2.3918021725169476	4	correct	1.0
429.88718389999053	8.488445800031059	go_reward	0.375591600080952	429.9133218999482	431.4743920000037	434.01722829998425	1.561070100055531	430.9205711999675	433.0000964999199	437.04823840002064	0.5538208000361919	1.0171318000643623	1.353529299958609	436.03454109991435	0.3942237000446766	435.02174449991435	2	1	110	3	go_reward	1	1	0	1	1	1	0	0.0	1.0	1	0.375591600080952	0.3942237000446766	2001.7534411000088	2431.666762999957	2432.6740122999763	2433.2278331000125	2434.7535375999287	2435.770669399993	2436.775185599923	2437.787982199923	2438.8016795000294	2440.155208799988	2020-05-14 09:38:32.298108	5.13248751969199	5.17884610716079	1.19214626834942	5.15970381737291	6.32463378804141	1.19214626834942	-5.13248751969199	5.17884610716079	1.19214626834942	6.32463378804141	1.19214626834942	0.5919216337044908	2.8789480857164604	5.543451683146624	2.1344922385326206	5.420458797092708	5.1894985420056905	2.1344922385326206	0.9472066377996179	5.101469433127385	2.2225213474109253	5.077161728039961	2.600782193639282	4	correct	1.0
438.42027540004324	9.419992999988608	nogo_punish	1.0	438.4464134000009	441.0630819000071	443.59381140000187	2.616668500006199	439.44701579993125	442.5810356999282	446.64833829994313	1.616066100075841	1.0127757000736892	1.2180681000463665	445.6340360000031	0.299273099983111	444.6088215999771	2	1	111	2	nogo_punish	1	-1	0	0	0	1	0	0.0	1.0	0	1.0	0.299273099983111	2001.7534411000088	2440.1998545000097	2441.20045689994	2442.816523000016	2444.334476799937	2445.3472525000107	2446.362262699986	2447.387477100012	2448.401779399952	2449.6198474999983	2020-05-14 09:38:32.298108	2.62337926810635	-6.50803685834952	-1.97186678780019	-4.91131018228622	-4.59524605590654	-1.97186678780019	-2.62337926810635	-1.97186678780019	-6.50803685834952	-1.97186678780019	-4.59524605590654	1.97186678780019	0.3698398341308202	-6.143431282363686	-1.0295208176169894	-4.650555202566422	-5.73038130194226	-1.0295208176169894	2.327151791895317	-3.1950311427142153	-3.564870976845035	-2.0735511669210185	-5.099400933059658	4	correct	1.0
447.87060570006656	8.479044599924691	go_punish	0.7528245999710634	447.8967437000242	449.31001759995706	451.86030449997634	1.4132738999328467	448.89683310000737	450.8396353999851	454.889376899926	0.4131844999496934	1.0206690999912098	1.4864114000229165	453.8920430999715	0.3811649000272155	452.8788538000081	2	1	112	1	go_punish	1	0	-1	1	1	1	0	0.0	1.0	0	0.7528245999710634	0.3811649000272155	2001.7534411000088	2449.650184800033	2450.650274200016	2451.063458699966	2452.593076499994	2453.613745599985	2454.632294900017	2455.6454841999803	2456.642817999935	2458.1292293999577	2020-05-14 09:38:32.298108	1.95653980858993	-3.72526034533119	-3.80043809780681	-4.3359369644642	-1.84389828921687	-3.80043809780681	-1.95653980858993	-3.72526034533119	-3.80043809780681	-1.84389828921687	-3.80043809780681	3.72526034533119	-0.29699962538559976	-3.3606547693453557	-2.8580921276236095	-4.075181984744402	-2.9790335352525896	-2.8580921276236095	4.080545349426317	-3.0670626441308952	-2.7700630187453044	-3.8269447244520185	-2.3918021725169476	4	correct	1.0
456.39603319996945	8.015516499988735	nogo_punish	1.0	456.4221711999271	457.9803070999915	460.51030969992325	1.5581359000643715	457.4199156999821	459.4907012999756	463.55499679991044	0.5603914000093937	1.0196083999476286	0.8826909000054002	462.5416729999706	0.3335595000535249	461.52848330000415	2	1	113	2	nogo_punish	1	-1	0	0	0	1	1	1.0	1.0	0	1.0	0.3335595000535249	2001.7534411000088	2458.175612299936	2459.173356799991	2459.7337482000003	2461.2441423999844	2462.263750799932	2463.281924400013	2464.2951140999794	2465.308437899919	2466.1911287999246	2020-05-14 09:38:32.298108	2.93390974673317	-6.50803685834952	-1.70124268735948	-4.24842273028449	-4.63515243409266	-1.70124268735948	-2.93390974673317	-1.70124268735948	-6.50803685834952	-1.70124268735948	-4.63515243409266	1.70124268735948	0.6803703127576401	-6.143431282363686	-0.7588967171762794	-3.9876677505646922	-5.77028768012838	-0.7588967171762794	2.056527691454607	-2.924407042273505	-3.604777355031155	-1.8029270664803085	-5.099400933059658	4	correct	1.0
464.45897150004726	9.35491859994363	go_reward	0.2874509000685066	464.4851095000049	466.9185702999821	469.47057659993925	2.4334607999771833	465.48981739999726	468.4528599999612	472.5161897999933	1.4287528999848291	1.01771659997803	1.3238382999552414	471.51172249997035	0.396126199979335	470.4848639999982	2	1	114	3	go_reward	1	1	0	1	1	1	0	0.0	1.0	1	0.2874509000685066	0.396126199979335	2001.7534411000088	2466.2385506000137	2467.243258500006	2468.672011399991	2470.20630109997	2471.224017699948	2472.238305100007	2473.265163599979	2474.269630900002	2475.5934691999573	2020-05-14 09:38:32.298108	5.18333915113687	5.23548225958554	1.19214626834942	5.22025268826076	6.37548541948629	1.19214626834942	-5.18333915113687	5.23548225958554	1.19214626834942	6.37548541948629	1.19214626834942	0.5352854812797405	2.9297997171613406	5.600087835571374	2.1344922385326206	5.481007667980558	5.240350173450571	2.1344922385326206	0.8905704853748676	5.1523210645722655	2.2225213474109253	5.133797880464711	2.600782193639282	4	correct	1.0
473.85849070001836	8.347073800047383	nogo_punish	1.0	473.884628699976	475.67037790000904	478.1848011999391	1.785749200033024	474.89181709999684	477.17313010001135	481.24561360001144	0.7785608000122011	1.011671099927753	0.9860889000119641	480.23970269993924	0.3871992999920621	479.20492849999573	2	1	115	2	nogo_punish	1	-1	0	0	0	1	1	1.0	1.0	0	1.0	0.3871992999920621	2001.7534411000088	2475.638069799985	2476.6452582000056	2477.423819000018	2478.92657120002	2479.938242299948	2480.9583696000045	2481.993143799948	2482.99905470002	2483.985143600032	2020-05-14 09:38:32.298108	3.1973118061396	-6.50803685834952	-1.47357710923285	-3.68910379428431	-4.67088891537245	-1.47357710923285	-3.1973118061396	-1.47357710923285	-6.50803685834952	-1.47357710923285	-4.67088891537245	1.47357710923285	0.9437723721640703	-6.143431282363686	-0.5312311390496495	-3.428348814564512	-5.80602416140817	-0.5312311390496495	1.8288621133279772	-2.696741464146875	-3.6405138363109453	-1.5752614883536786	-5.099400933059658	4	correct	1.0
482.2346199000019	8.207145899999432	nogo_reward	0.2746833999408409	482.2607578999596	484.1082678999519	486.6546266999794	1.847509999992326	483.2673920999514	485.63404989999253	489.70429629995533	0.8408758000005037	1.020576799986884	0.7636075000036726	488.69543959992006	0.634738799999468	487.6673070999095	2	1	116	4	nogo_reward	1	0	1	0	1	0	0	0.0	1.0	0	0.2746833999408409	0.634738799999468	2001.7534411000088	2484.0141989999684	2485.02083319996	2485.8617089999607	2487.3874910000013	2488.408067799988	2489.4207481999183	2490.448880699929	2491.457737399964	2492.221344899968	2020-05-14 09:38:32.298108	1.82868691983565	1.88353036710692	1.40232344679411	2.44524854384513	3.23101036662976	1.40232344679411	-1.82868691983565	1.88353036710692	1.40232344679411	3.23101036662976	1.40232344679411	-1.88353036710692	-0.4248525141398798	2.248135943092754	2.3446694169773106	2.7060035235649282	2.09587512059404	2.3446694169773106	-1.5282453630117927	2.007846011715735	2.4326985258556153	1.7818459879860913	2.810959372083972	4	correct	1.0
490.4871314000336	8.765691299922764	nogo_punish	1.0	490.51326939999126	492.7913074999815	495.31070559995715	2.2780380999902263	491.50983899994753	494.2932987000095	498.3547441000119	1.2814685000339523	1.017406899947673	0.9242165999021381	497.34102759999223	0.3727346999803558	496.3251733999932	2	1	117	2	nogo_punish	0	0	-1	0	0	1	1	1.0	1.0	-1	1.0	0.3727346999803558	2001.7534411000088	2492.2667105	2493.2632800999563	2494.5447485999903	2496.0467398000183	2497.064146699966	2498.078614500002	2499.094468700001	2500.1081852000207	2501.032401799923	2020-05-14 09:38:32.298108	3.42181512666971	-6.50803685834952	-1.28104834649552	-3.21481323885131	-4.70286347316523	-1.28104834649552	-3.42181512666971	-1.28104834649552	-6.50803685834952	-1.28104834649552	-4.70286347316523	-10.19512975634288	1.1682756926941802	-6.143431282363686	-0.3387023763123195	-2.954058259131512	-5.83799871920095	-0.3387023763123195	-9.839844752247753	-2.5042127014095454	-3.672488394103725	-1.3827327256163486	-5.099400933059658	4	correct	1.0
499.29710039996985	8.283800500095822	nogo_punish	1.0	499.3232383999275	500.9920277999481	503.528619299992	1.6687894000206143	500.3380778999999	502.5075711000245	506.5798521999968	0.6539498999482021	1.0210481999674812	1.0271867000265047	505.5736465000082	0.2992968999315053	504.5437135999091	2	1	118	2	nogo_punish	1	-1	0	0	0	1	0	0.0	1.0	0	1.0	0.2992968999315053	2001.7534411000088	2501.0766794999363	2502.0915190000087	2502.745468899957	2504.2610122000333	2505.282060400001	2506.297154699918	2507.327087600017	2508.3332933000056	2509.360480000032	2020-05-14 09:38:32.298108	2.04092440380098	-6.50803685834952	-2.59366199816685	-4.28699194696089	-4.63458640196783	-2.59366199816685	-2.04092440380098	-2.59366199816685	-6.50803685834952	-2.59366199816685	-4.63458640196783	2.59366199816685	-0.21261503017454952	-6.143431282363686	-1.6513160279836496	-4.026236967241092	-5.76972164800355	-1.6513160279836496	2.9489470022619773	-3.8168263530808755	-3.604211322906325	-2.6953463772876787	-5.099400933059658	4	correct	1.0
507.609166900045	7.823750399984419	nogo_reward	0.550004499964416	507.63530490000267	509.109002099955	511.64809949998744	1.473697199952312	508.642239099951	510.6337852999568	514.700896199909	0.4667630000039935	1.0143142000306398	0.7581591000780463	513.6849716999568	0.3123280999716371	512.6626608999213	2	1	119	4	nogo_reward	1	0	1	0	1	0	0	0.0	1.0	0	0.550004499964416	0.3123280999716371	2001.7534411000088	2509.3887460000115	2510.3956801999598	2510.8624431999638	2512.3872263999656	2513.401540599996	2514.41610199993	2515.4384127999656	2516.454337299918	2517.212496399996	2020-05-14 09:38:32.298108	1.59205716461569	1.63083326521547	1.40232344679411	2.11015797429188	2.9943806114098	1.40232344679411	-1.59205716461569	1.63083326521547	1.40232344679411	2.9943806114098	1.40232344679411	-1.63083326521547	-0.6614822693598397	1.9954388412013042	2.3446694169773106	2.3709129540116782	1.8592453653740806	2.3446694169773106	-1.2755482611203428	1.771216256495775	2.4326985258556153	1.5291488860946414	2.810959372083972	4	correct	1.0
515.4615738999557	9.038790900027834	nogo_reward	1.0	515.4877118999134	517.8176374000032	520.3489903999725	2.3299255000897574	516.4910269000102	519.3344096000073	523.3928276000079	1.3266104999929667	1.014580799965188	1.13367519993335	522.3775889999233	0.3563618999905884	521.3576498000184	2	1	120	4	nogo_reward	0	1	0	0	0	1	0	0.0	1.0	0	1.0	0.3563618999905884	2001.7534411000088	2517.241152999922	2518.244468000019	2519.571078500012	2521.087850700016	2522.1024314999813	2523.111090900027	2524.131030099932	2525.1462687000167	2526.27994389995	2020-05-14 09:38:32.298108	-1.39273302412671	1.41672440797888	1.40232344679411	1.82761808768278	2.79505647092082	1.40232344679411	1.39273302412671	1.40232344679411	1.41672440797888	1.40232344679411	2.79505647092082	-1.40232344679411	-3.6462724581022394	1.781329983964714	2.3446694169773106	2.088373067402578	1.6599212248851003	2.3446694169773106	-1.047038442698983	0.17915909188008472	3.8254315499823255	1.3006390676732813	2.8253603332687423	4	correct	1.0
