onset	duration	trial_type	response_time	cueOnset	targetOnset	fbOnset	cueRT	firstfixOnset	secondfixOnset	waitOnset	firstfixdur	secondfixdur	waitdur	nback_fbOnset	nback_response_time	nback_targetOnset	block	wm	trial	cue	cond	is_common	outcome_go	outcome_nogo	key_correct	key_pressed	is_correct	key_correct_nback	key_pressed_nback	is_correct_nback	outcome	rt	rt_nback	time_scan	time_onset	time_isi1	time_circle	time_isi2	time_feedback	time_same	time_correct	time_iti	time_done	timestamp_scan	DV	Qgo	Qnogo	SV	Wgo	Wnogo	mDV	Qchosen	Qunchosen	Wchosen	Wunchosen	PE	DVC	QgoC	QnogoC	SVC	WgoC	WnogoC	PEC	WchosenC	WunchosenC	QchosenC	QunchosenC	run	outcome_nback	nback_targetResp
0.0	6.4001193000003695	go_punish	0.8645948999910615	0.025491399981660834	1.3908293999847956	3.9321893000160344	1.3653380000031348	1.0309316000203808	2.9222930999824257	4.940500300028475	0.35989779996441484	1.0098962000336087	1.4851103999535553	n/a	1.0	n/a	1	0	61	2	go_punish	1	0	-1	1	1	1	1	n/a	n/a	0	0.8645948999910615	1.0	966.7184000000124	966.743891399994	967.7493316000327	968.1092293999972	969.6406930999948	970.6505893000284	n/a	n/a	971.6589003000408	973.1440106999944	2020-08-25 14:27:02.658608	3.41424728221758	-2.21638122650179	-6.19999374467497	-2.2720939631835	-2.78574646245739	-6.19999374467497	-3.41424728221758	-2.21638122650179	-6.19999374467497	-2.78574646245739	-6.19999374467497	2.21638122650179	-6.8868262785528955	-7.1474722811854665	-8.714784488860191	-10.5515198866897	-11.289126266928918	-8.714784488860191	-1.0813885222978041	-13.445368517171005	-6.558542238618101	-10.471227245220565	-5.391029524825099	2	missed	0.0
6.435719400004018	7.409690400003569	go_reward	0.4642027000081725	6.461210799985679	9.219056300004013	11.761718299996687	2.757845500018334	7.465344800031858	10.748546499992017	12.76850290002767	1.7537114999721553	1.0131718000046703	1.1023982999615782	n/a	1.0	n/a	1	0	62	4	go_reward	1	1	0	1	1	1	0	n/a	n/a	1	0.4642027000081725	1.0	966.7184000000124	973.179610799998	974.1837448000442	975.9374563000164	977.4669465000044	978.480118300009	n/a	n/a	979.48690290004	980.5893012000016	2020-08-25 14:27:02.658608	53.4737750023324	38.7963266350377	0.0	38.7963266350377	53.4737750023324	0.0	-53.4737750023324	38.7963266350377	0.0	53.4737750023324	0.0	1.5875059318156985	43.17270144156193	33.865235580354025	-2.514790744185221	30.5169007115315	44.970395197860874	-2.514790744185221	-1.7102638169838955	42.81415294761879	-0.3585484939431317	30.54148061631893	0.8089642198498711	2	missed	0.0
13.890177200024368	7.707506600010788	nogo_reward	1.0	13.915668600006029	16.748139700037655	19.266719700012004	2.8324711000316256	14.919189000036681	18.25330260000203	20.273345699999595	1.8289507000009735	1.013417100009974	1.349829500017222	n/a	1.0	n/a	1	0	63	3	nogo_reward	1	0	1	0	0	1	0	n/a	n/a	1	1.0	1.0	966.7184000000124	980.6340686000184	981.637589000049	983.46653970005	984.9717026000144	985.9851197000244	n/a	n/a	986.991745700012	988.3415752000292	2020-08-25 14:27:02.658608	6.61158489674223	0.0	11.1917538359268	11.1917538359268	4.58016893918458	11.1917538359268	-6.61158489674223	11.1917538359268	0.0	11.1917538359268	4.58016893918458	29.1920787309266	-3.6894886640282456	-4.931091054683677	8.676963091741579	2.912327912420599	-3.923210865286946	8.676963091741579	25.894308982127004	0.5321317812131845	4.221620445241449	2.9369078172080254	0.8089642198498711	2	missed	0.0
21.633288800018022	7.11009169998556	go_reward	0.4843959999852814	21.658780199999683	23.82809780002583	26.373302899999658	2.1693176000261474	22.663701899990087	25.35965260001842	27.38017980003508	1.1643959000357427	1.0136502999812365	1.3886920999501626	n/a	1.0	n/a	1	0	64	4	go_reward	1	1	0	1	1	1	1	n/a	n/a	1	0.4843959999852814	1.0	966.7184000000124	988.377180200012	989.3821019000025	990.5464978000382	992.0780526000308	993.091702900012	n/a	n/a	994.0985798000474	995.4872718999976	2020-08-25 14:27:02.658608	54.3395397749454	39.4181852851884	0.0	39.4181852851884	54.3395397749454	0.0	-54.3395397749454	39.4181852851884	0.0	54.3395397749454	0.0	0.9656472816649995	44.038466214174925	34.487094230504724	-2.514790744185221	31.138759361682197	45.83615997047387	-2.514790744185221	-2.3321224671345946	43.679917720231785	-0.3585484939431317	31.163339266469627	0.8089642198498711	2	missed	0.0
28.782395400048813	5.778646999969965	nogo_punish	1.0	28.807886800030474	30.30571520002559	32.82319050002843	1.4978283999951145	29.812403500022015	31.810052899993252	33.82991159998369	0.4933117000035736	1.0131376000351793	0.75662220001675	n/a	1.0	n/a	1	0	65	1	nogo_punish	0	0	-1	0	0	1	0	n/a	n/a	-1	1.0	1.0	966.7184000000124	995.5262868000428	996.5308035000344	997.024115200038	998.5284529000056	999.5415905000408	n/a	n/a	1000.548311599996	1001.3049338000128	2020-08-25 14:27:02.658608	2.03068798678538	-4.06732392337034	-2.80666600269434	-2.80975701523525	-4.83735398947973	-2.80666600269434	-2.03068798678538	-2.80666600269434	-4.06732392337034	-2.80666600269434	-4.83735398947973	-6.17950038750112	-8.270385573985095	-8.998414978054017	-5.321456746879561	-11.089182938741452	-13.340733793951257	-5.321456746879561	-9.477270136300714	-13.466288057407956	-5.195902483422862	-11.061512021413115	-3.258359703520469	2	missed	0.0
34.60219870001322	7.360758199996781	nogo_reward	1.0	34.62769009999488	36.98102439998206	39.50003679998929	2.353334299987182	35.63278960000048	38.48634290002519	40.50707560003525	1.348234799981583	1.013693899964096	1.4813726999564096	n/a	1.0	n/a	1	0	66	3	nogo_reward	1	0	1	0	0	1	0	n/a	n/a	1	1.0	1.0	966.7184000000124	1001.3460901000072	1002.3511896000128	1003.6994243999944	1005.2047429000376	1006.2184368000017	n/a	n/a	1007.2254756000476	1008.706848300004	2020-08-25 14:27:02.658608	15.4314381909392	0.0	24.9355013788726	24.9355013788726	9.5040631879334	24.9355013788726	-15.4314381909392	24.9355013788726	0.0	24.9355013788726	9.5040631879334	15.448331187980799	5.1303646301687245	-4.931091054683677	22.42071063468738	16.6560754553664	1.0006833834618742	22.42071063468738	12.150561439181205	14.275879324158986	9.145514693990268	16.68065536015383	0.8089642198498711	2	missed	0.0
42.0016367000062	6.178908900008537	go_reward	0.3609486000495963	42.02712809998786	43.720406399981584	46.26291380001942	1.6932782999937217	43.032140700030254	45.25236370001244	47.26998769998329	0.6882656999513301	1.0105501000069808	0.93604930001311	n/a	1.0	n/a	1	0	67	4	go_reward	0	0	1	1	1	1	0	n/a	n/a	0	0.3609486000495963	1.0	966.7184000000124	1008.7455281000002	1009.7505407000426	1010.438806399994	1011.9707637000248	1012.9813138000318	n/a	n/a	1013.9883876999957	1014.9244370000088	2020-08-25 14:27:02.658608	54.8513668558801	39.7845078995535	0.0	39.7845078995535	54.8513668558801	0.0	-54.8513668558801	39.7845078995535	0.0	54.8513668558801	0.0	-39.7845078995535	44.550293295109626	34.85341684486983	-2.514790744185221	31.5050819760473	46.34798705140857	-2.514790744185221	-43.0822776483531	44.191744801166486	-0.3585484939431317	31.52966188083473	0.8089642198498711	2	missed	0.0
48.22781480004778	6.0634727999567986	nogo_reward	1.0	48.25330620002944	49.815292900020836	52.333216700004414	1.5619866999913938	49.25746530003403	51.31965289998345	53.34006349998526	0.5578275999868083	1.013563800020961	0.976715500000978	n/a	1.0	n/a	1	0	68	3	nogo_reward	1	0	1	0	0	1	1	n/a	n/a	1	1.0	1.0	966.7184000000124	1014.9717062000418	1015.9758653000464	1016.5336929000332	1018.0380528999958	1019.0516167000168	n/a	n/a	1020.0584634999976	1021.0351789999986	2020-08-25 14:27:02.658608	19.8413865837177	0.0	31.9028906162978	31.9028906162978	12.06150403258	31.9028906162978	-19.8413865837177	31.9028906162978	0.0	31.9028906162978	12.06150403258	8.4809419505556	9.540313022947224	-4.931091054683677	29.38809987211258	23.6234646927916	3.5581242281084737	29.38809987211258	5.1831722017560065	21.243268561584184	11.702955538636868	23.648044597579023	0.8089642198498711	2	missed	0.0
54.33046490000561	6.495341600035317	nogo_reward	1.0	54.35595629998727	56.1205946999836	58.63616669998771	1.764638399996329	55.360165800026266	57.62497629999427	59.64204970002186	0.7604288999573328	1.0111903999934384	1.2092482000007294	n/a	1.0	n/a	1	0	69	3	nogo_reward	0	1	0	0	0	1	0	n/a	n/a	0	1.0	1.0	966.7184000000124	1021.0743562999996	1022.0785658000386	1022.838994699996	1024.3433763000066	1025.3545667	n/a	n/a	1026.3604497000342	1027.569697900035	2020-08-25 14:27:02.658608	22.1381475955362	0.0	35.5764152352051	35.5764152352051	13.4382676396688	35.5764152352051	-22.1381475955362	35.5764152352051	0.0	35.5764152352051	13.4382676396688	-35.5764152352051	11.837074034765724	-4.931091054683677	33.06162449101988	27.296989311698894	4.934887835197273	33.06162449101988	-38.87418498400469	24.91679318049148	13.079719145725667	27.321569216486324	0.8089642198498711	2	missed	0.0
60.866205400030594	7.330862000002526	nogo_punish	0.6692449999973178	60.891696800012255	63.46311439998692	66.00808830000472	2.571417599974666	61.895821199985335	64.99325900000997	67.0153939999874	1.5672932000015862	1.0148292999947444	1.2071648000273854	n/a	1.0	n/a	1	0	70	1	nogo_punish	1	-1	0	0	1	0	0	n/a	n/a	-1	0.6692449999973178	1.0	966.7184000000124	1027.6100968000246	1028.6142211999977	1030.1815143999993	1031.7116590000223	1032.726488300017	n/a	n/a	1033.7337939999998	1034.9409588000271	2020-08-25 14:27:02.658608	-0.20999629866221	-4.06732392337034	-5.61910727900374	-5.62126511577005	-5.82910357766595	-5.61910727900374	0.20999629866221	-4.06732392337034	-5.61910727900374	-5.82910357766595	-5.61910727900374	-4.9188424668251205	-10.511069859432686	-8.998414978054017	-8.13389802318896	-13.90069103927625	-14.332483382137475	-8.13389802318896	-8.216612215624714	-16.488725632379566	-5.977655772946871	-12.322169942089115	-4.8101430591538685	2	missed	0.0
68.23913110001013	6.361820499994792	go_punish	0.5990004999912344	68.26462249999179	70.1254070000142	72.66576499998348	1.8607845000224188	69.26884309999889	71.65562119998515	73.67269199999294	0.8565639000153169	1.0101437999983318	0.9537509999936447	n/a	1.0	n/a	1	0	71	2	go_punish	1	0	-1	1	1	1	0	n/a	n/a	0	0.5990004999912344	1.0	966.7184000000124	1034.9830225000042	1035.9872431000113	1036.8438070000266	1038.3740211999975	1039.3841649999958	n/a	n/a	1040.3910920000053	1041.344842999999	2020-08-25 14:27:02.658608	4.78141717422385	-1.21315317696118	-6.19999374467497	-1.24958038718091	-1.41857657045112	-6.19999374467497	-4.78141717422385	-1.21315317696118	-6.19999374467497	-1.41857657045112	-6.19999374467497	1.21315317696118	-5.519656386546626	-6.144244231644857	-8.714784488860191	-9.52900631068711	-9.921956374922647	-8.714784488860191	-2.084616571838414	-12.078198625164735	-6.558542238618101	-9.467999195679955	-5.391029524825099	2	missed	0.0
74.63737590005621	6.53298639995046	nogo_punish	1.0	74.66286730003787	76.62894969998172	79.14218740002264	1.9660823999438435	75.6680239000126	78.13331280002615	80.14931680000166	0.9609257999691181	1.0088745999964885	1.0465368999866769	n/a	1.0	n/a	1	0	72	1	nogo_punish	1	-1	0	0	0	1	1	n/a	n/a	0	1.0	1.0	966.7184000000124	1041.3812673000502	1042.386423900025	1043.347349699994	1044.8517128000385	1045.860587400035	n/a	n/a	1046.867716800014	1047.9142537000007	2020-08-25 14:27:02.658608	2.87329442209897	-6.19999374467497	-5.61910727900374	-7.08658395533793	-8.49240170110271	-5.61910727900374	-2.87329442209897	-5.61910727900374	-6.19999374467497	-5.61910727900374	-8.49240170110271	5.61910727900374	-7.4277791386715055	-11.131084799358646	-8.13389802318896	-15.366009878844132	-16.995781505574236	-8.13389802318896	2.3213375302041457	-16.278729333717354	-8.850950195045842	-13.873953297722515	-5.391029524825099	2	missed	0.0
81.20696160005173	7.097176899958868	go_punish	0.4301245000096969	81.23245300003339	83.51236759999313	86.05306700000085	2.2799145999597386	82.23743010003852	85.04267729999276	87.05983320000826	1.2749374999546035	1.0103897000080906	1.2697966999839991	n/a	1.0	n/a	1	0	73	2	go_punish	1	0	-1	1	1	1	1	n/a	n/a	0	0.4301245000096969	1.0	966.7184000000124	1047.9508530000458	1048.955830100051	1050.2307676000055	1051.7610773000051	1052.7714670000132	n/a	n/a	1053.7782332000206	1055.0480299000046	2020-08-25 14:27:02.658608	5.50542430817564	-0.6858053415657	-6.19999374467497	-0.709951220824899	-0.694569436499332	-6.19999374467497	-5.50542430817564	-0.6858053415657	-6.19999374467497	-0.694569436499332	-6.19999374467497	0.6858053415657	-4.795649252594836	-5.616896396249377	-8.714784488860191	-8.989377144331101	-9.197949240970859	-8.714784488860191	-2.611964407233894	-11.354191491212948	-6.558542238618101	-8.940651360284475	-5.391029524825099	2	missed	0.0
88.34806240000762	5.9851200000266545	go_punish	0.5088875000365078	88.37355379998928	90.04059839999547	92.57905910001148	1.667044600006193	89.37818870000785	91.57056449999811	93.58636970003147	0.6624096999876201	1.008494600013364	0.772304099984467	n/a	1.0	n/a	1	0	74	2	go_punish	1	0	-1	1	1	1	0	n/a	n/a	0	0.5088875000365078	1.0	966.7184000000124	1055.0919538000016	1056.0965887000202	1056.7589984000078	1058.2889645000105	1059.2974591000238	n/a	n/a	1060.3047697000438	1061.0770738000283	2020-08-25 14:27:02.658608	5.90210615663491	-0.39882776337814	-6.19999374467497	-0.415037388061109	-0.297887588040063	-6.19999374467497	-5.90210615663491	-0.39882776337814	-6.19999374467497	-0.297887588040063	-6.19999374467497	0.39882776337814	-4.398967404135566	-5.329918818061817	-8.714784488860191	-8.69446331156731	-8.801267392511589	-8.714784488860191	-2.898941985421454	-10.957509642753678	-6.558542238618101	-8.653673782096915	-5.391029524825099	2	missed	0.0
94.37454899999989	6.4842298000005485	nogo_reward	1.0	94.40004039998155	95.96203270001581	98.48098410002433	1.5619923000342624	95.40402890002599	97.4667744000327	99.48811600002239	0.5580037999898195	1.0142096999916248	1.3961541999597102	n/a	1.0	n/a	1	0	75	3	nogo_reward	1	0	1	0	0	1	0	n/a	n/a	1	1.0	1.0	966.7184000000124	1061.118440399994	1062.1224289000384	1062.6804327000282	1064.185174400045	1065.1993841000367	n/a	n/a	1066.2065160000348	1067.6026701999945	2020-08-25 14:27:02.658608	11.5861624528385	0.0	19.0632278281161	19.0632278281161	7.47706537527762	19.0632278281161	-11.5861624528385	19.0632278281161	0.0	19.0632278281161	7.47706537527762	21.3206047387373	1.2850888920680248	-4.931091054683677	16.54843708393088	10.7838019046099	-1.0263144291939064	16.54843708393088	18.022834989937703	8.403605773402486	7.118516881334489	10.808381809397327	0.8089642198498711	2	missed	0.0
100.89712250005687	6.267775399959419	go_punish	1.0	100.92261390003853	102.27841510000883	104.79189310001686	1.3558011999703012	101.92755520000367	103.78255250002269	105.79872510000143	0.35085990000516176	1.0093405999941751	1.3916641999965123	n/a	1.0	n/a	1	0	76	2	go_punish	0	-1	0	1	0	0	1	n/a	n/a	0	1.0	1.0	966.7184000000124	1067.641013900051	1068.645955200016	1068.9968151000212	1070.500952500035	1071.5102931000292	n/a	n/a	1072.5171251000138	1073.9087893000103	2020-08-25 14:27:02.658608	-6.1260510958242	-0.237830187395707	-6.19999374467497	-0.248841438416136	-0.0739426488507715	-6.19999374467497	6.1260510958242	-6.19999374467497	-0.237830187395707	-6.19999374467497	-0.0739426488507715	6.19999374467497	-16.427124656594675	-5.168921242079383	-8.714784488860191	-8.528267361922337	-8.577322453322298	-8.714784488860191	2.9022239958753757	-16.859615799388585	-0.4324911427939032	-14.454839763393744	0.571134032454164	2	missed	0.0
107.20451560005313	6.675435399985872	go_punish	0.4742371999891475	107.23000700003479	109.07582460000424	111.6158233000316	1.8458175999694504	108.23448390001442	110.60722700000053	112.62227930000529	0.8413406999898143	1.0085963000310585	1.283163100015372	n/a	1.0	n/a	1	0	77	2	go_punish	1	0	-1	1	1	1	0	n/a	n/a	0	0.4742371999891475	1.0	966.7184000000124	1073.9484070000472	1074.9528839000268	1075.7942246000166	1077.325627000013	1078.334223300044	n/a	n/a	1079.3406793000177	1080.623842400033	2020-08-25 14:27:02.658608	3.25619822147977	-0.237830187395707	-3.29310177984589	-0.152600881924467	-0.0369035583661168	-3.29310177984589	-3.25619822147977	-0.237830187395707	-3.29310177984589	-0.0369035583661168	-3.29310177984589	0.237830187395707	-7.044875339290706	-5.168921242079383	-5.807892524031111	-8.432026805430668	-8.540283362837643	-5.807892524031111	-3.059939561403887	-10.696525613079732	-3.6516502737890217	-8.492676206114481	-2.484137559996019	2	missed	0.0
113.91703420004342	6.305938799981959	nogo_punish	1.0	113.94252560002508	115.91947359999187	118.43733049999003	1.9769479999667965	114.94675350002956	117.42425530002254	119.44315589999326	0.9727200999623165	1.0130751999674885	0.8053085000137798	n/a	1.0	n/a	1	0	78	1	nogo_punish	0	0	-1	0	0	1	0	n/a	n/a	-1	1.0	1.0	966.7184000000124	1080.6609256000374	1081.665153500042	1082.6378736000042	1084.142655300035	1085.1557305000024	n/a	n/a	1086.1615559000056	1086.9668644000194	2020-08-25 14:27:02.658608	4.32772312447785	-6.19999374467497	-3.01773943716266	-3.81296532994461	-7.34546256164051	-3.01773943716266	-4.32772312447785	-3.01773943716266	-6.19999374467497	-3.01773943716266	-7.34546256164051	-5.9684269530328	-5.973350436292626	-11.131084799358646	-5.532530181347881	-12.092391253450812	-15.848842366112036	-5.532530181347881	-9.266196701832394	-13.677361491876276	-7.704011055583641	-11.272585455881435	-5.391029524825099	2	missed	0.0
120.2582130000228	7.688063399982866	nogo_punish	1.0	120.28370440000447	122.99286390002828	125.50772080000036	2.709159500023816	121.28905349998979	124.49729800003126	126.51528749999113	1.703810400038492	1.010422799969092	1.4564802999962012	n/a	1.0	n/a	1	0	79	1	nogo_punish	1	-1	0	0	0	1	0	n/a	n/a	0	1.0	1.0	966.7184000000124	1087.0021044000168	1088.0074535000022	1089.7112639000406	1091.2156980000436	1092.2261208000127	n/a	n/a	1093.2336875000035	1094.6901677999997	2020-08-25 14:27:02.658608	2.43288970970204	-6.19999374467497	-5.74653835288893	-6.19211359855186	-8.17942806259097	-5.74653835288893	-2.43288970970204	-5.74653835288893	-6.19999374467497	-5.74653835288893	-8.17942806259097	5.74653835288893	-7.868183851068435	-11.131084799358646	-8.261329097074151	-14.47153952205806	-16.682807867062497	-8.261329097074151	2.4487686040893357	-16.406160407602545	-8.537976556534103	-14.001384371607704	-5.391029524825099	2	missed	0.0
127.98990800004685	6.000267900002655	go_punish	0.3831662999582477	128.0153994000285	129.5562495000196	132.0965518000304	1.5408500999910757	129.02026110002782	131.08740240003692	133.10360289999528	0.5359883999917656	1.0091493999934755	0.912064400035888	n/a	1.0	n/a	1	0	80	2	go_punish	1	0	-1	1	1	1	0	n/a	n/a	0	0.3831662999582477	1.0	966.7184000000124	1094.7337994000409	1095.7386611000402	1096.274649500032	1097.8058024000493	1098.8149518000428	n/a	n/a	1099.8220029000076	1100.7340673000435	2020-08-25 14:27:02.658608	3.37128327756915	-0.145037785753759	-3.29310177984589	-0.0954994218950103	0.0781814977232543	-3.29310177984589	-3.37128327756915	-0.145037785753759	-3.29310177984589	0.0781814977232543	-3.29310177984589	0.145037785753759	-6.929790283201326	-5.076128840437436	-5.807892524031111	-8.374925345401211	-8.425198306748273	-5.807892524031111	-3.1527319630458353	-10.581440556990362	-3.6516502737890217	-8.399883804472534	-2.484137559996019	2	missed	0.0
134.03325450001284	7.311317500018049	nogo_reward	1.0	134.0587458999945	136.4988667999861	139.014053800027	2.440120899991598	135.06402879999962	138.0045077999822	140.02083950000826	1.4348379999864846	1.009546000044793	1.34922390000429	n/a	1.0	n/a	1	0	81	3	nogo_reward	0	1	0	0	0	1	0	n/a	n/a	0	1.0	1.0	966.7184000000124	1100.7771459000069	1101.782428800012	1103.2172667999985	1104.7229077999946	1105.7324538000394	n/a	n/a	1106.7392395000206	1108.088463400025	2020-08-25 14:27:02.658608	18.0337904816503	0.0	29.1036913800596	29.1036913800596	11.0699008984093	29.1036913800596	-18.0337904816503	29.1036913800596	0.0	29.1036913800596	11.0699008984093	-29.1036913800596	7.732716920879824	-4.931091054683677	26.58890063587438	20.824265456553398	2.566521093937773	26.58890063587438	-32.4014611288592	18.444069325345986	10.711352404466167	20.848845361340828	0.8089642198498711	2	missed	0.0
141.38503000000492	7.0474920000415295	nogo_reward	1.0	141.41052139998658	143.88991570001247	146.40716030000488	2.479394300025888	142.41542670002684	145.39421529998083	147.41422470001282	1.474488999985624	1.0129450000240467	1.0437887000152841	n/a	1.0	n/a	1	0	82	3	nogo_reward	1	0	1	0	0	1	0	n/a	n/a	1	1.0	1.0	966.7184000000124	1108.128921399999	1109.1338267000392	1110.6083157000248	1112.1126152999932	1113.1255603000172	n/a	n/a	1114.1326247000252	1115.1764134000405	2020-08-25 14:27:02.658608	9.45997290499209	0.0	15.668584307314	15.668584307314	6.20861140232187	15.668584307314	-9.45997290499209	15.668584307314	0.0	15.668584307314	6.20861140232187	24.7152482595394	-0.8411006557783853	-4.931091054683677	13.153793563128778	7.389158383807798	-2.294768402149656	13.153793563128778	21.417478510739805	5.008962252600384	5.850062908378739	7.4137382885952245	0.8089642198498711	2	missed	0.0
148.47418360004667	6.678188999998383	go_punish	0.4954762000124901	148.49967500002833	150.2839076999809	152.82628560002206	1.784232699952554	149.50438350002526	151.81636629998673	153.8322564000265	0.779524199955631	1.0099193000353353	1.3456076000002213	n/a	1.0	n/a	1	0	83	2	go_punish	1	0	-1	1	1	1	0	n/a	n/a	0	0.4954762000124901	1.0	966.7184000000124	1115.2180750000407	1116.2227835000376	1117.0023076999933	1118.534766299999	1119.5446856000344	n/a	n/a	1120.5506564000389	1121.896264000039	2020-08-25 14:27:02.658608	3.43976473052349	-0.0902505725877882	-3.29310177984589	-0.0608717336209609	0.1466629506776	-3.29310177984589	-3.43976473052349	-0.0902505725877882	-3.29310177984589	0.1466629506776	-3.29310177984589	0.0902505725877882	-6.861308830246986	-5.021341627271465	-5.807892524031111	-8.340297657127161	-8.356716853793927	-5.807892524031111	-3.207519176211806	-10.512959104036016	-3.6516502737890217	-8.345096591306563	-2.484137559996019	2	missed	0.0
155.1885900000343	5.849355400016066	go_reward	0.5799687000107951	155.21408140001597	156.56331330002274	159.1037602000289	1.349231900006771	156.21955989999708	158.0944618000068	160.11040070001047	0.3437534000256619	1.0092984000220895	0.9530361000215635	n/a	1.0	n/a	1	0	84	4	go_reward	0	0	1	1	1	1	0	n/a	n/a	0	0.5799687000107951	1.0	966.7184000000124	1121.9324814000283	1122.9379599000094	1123.281713300035	1124.8128618000192	1125.8221602000413	n/a	n/a	1126.8288007000228	1127.7818368000444	2020-08-25 14:27:02.658608	29.9166740299165	21.4873782653457	0.0	21.4873782653457	29.9166740299165	0.0	-29.9166740299165	21.4873782653457	0.0	29.9166740299165	0.0	-21.4873782653457	19.615600469146024	16.556287210662024	-2.514790744185221	13.2079523418395	21.41329422544497	-2.514790744185221	-24.785148014145296	19.257051975202884	-0.3585484939431317	13.232532246626926	0.8089642198498711	2	missed	0.0
161.075082400057	6.792304499947932	go_punish	0.3269780999980867	161.10057380003866	163.14731969998672	165.68772190000175	2.046745899948064	162.1046825000086	164.67798889998824	166.6948607999949	1.0426371999781168	1.0097330000135116	1.1980174999916926	n/a	1.0	n/a	1	0	85	2	go_punish	1	0	-1	1	1	1	1	n/a	n/a	0	0.3269780999980867	1.0	966.7184000000124	1127.818973800051	1128.823082500021	1129.865719699999	1131.3963889000006	1132.406121900014	n/a	n/a	1133.4132608000073	1134.611278299999	2020-08-25 14:27:02.658608	3.48139201235834	-0.0571933020497167	-3.29310177984589	-0.0394536348960861	0.18829023251245	-3.29310177984589	-3.48139201235834	-0.0571933020497167	-3.29310177984589	0.18829023251245	-3.29310177984589	0.0571933020497167	-6.819681548412136	-4.988284356733393	-5.807892524031111	-8.318879558402287	-8.315089571959076	-5.807892524031111	-3.2405764467498774	-10.471331822201165	-3.6516502737890217	-8.312039320768491	-2.484137559996019	2	missed	0.0
167.9090445000329	7.3158582000178285	go_punish	0.3655094999703578	167.93453590001457	170.2648095000187	172.80360280000593	2.3302736000041477	168.93836820003355	171.79506830003822	173.81052110000758	1.326441299985163	1.008534499967709	1.4398730000248179	n/a	1.0	n/a	1	0	86	2	go_punish	1	0	-1	1	1	1	0	n/a	n/a	0	0.3655094999703578	1.0	966.7184000000124	1134.652935900027	1135.656768200046	1136.983209500031	1138.5134683000506	1139.5220028000183	n/a	n/a	1140.52892110002	1141.9687941000448	2020-08-25 14:27:02.658608	3.50718840238718	-0.0368519609697648	-3.29310177984589	-0.0259657733881797	0.214086622541291	-3.29310177984589	-3.50718840238718	-0.0368519609697648	-3.29310177984589	0.214086622541291	-3.29310177984589	0.0368519609697648	-6.793885158383295	-4.967943015653441	-5.807892524031111	-8.30539169689438	-8.289293181930235	-5.807892524031111	-3.2609177878298294	-10.445535432172324	-3.6516502737890217	-8.29169797968854	-2.484137559996019	2	missed	0.0
175.26049610000337	6.972636300022714	nogo_punish	1.0	175.28598749998503	177.82847230002528	180.3424435000053	2.5424848000402562	176.2911392999814	179.3337767000197	181.34944259998167	1.5373330000438727	1.0086667999855763	0.9091812000260688	n/a	1.0	n/a	1	0	87	1	nogo_punish	1	-1	0	0	0	1	0	n/a	n/a	0	1.0	1.0	966.7184000000124	1142.0043874999974	1143.0095392999938	1144.5468723000376	1146.052176700032	1147.0608435000177	n/a	n/a	1148.067842599994	1148.97702380002	2020-08-25 14:27:02.658608	4.08474393057024	-6.19999374467497	-3.09625246869727	-3.35332985144753	-7.18099639926752	-3.09625246869727	-4.08474393057024	-3.09625246869727	-6.19999374467497	-3.09625246869727	-7.18099639926752	3.09625246869727	-6.216329630200236	-11.131084799358646	-5.611043212882491	-11.632755774953731	-15.684376203739046	-5.611043212882491	-0.20151728010232395	-13.755874523410885	-7.5395448932106515	-11.351098487416046	-5.391029524825099	2	missed	0.0
182.27571130002616	6.829058300005499	nogo_reward	1.0	182.30120270000782	184.13752640003793	186.6531883000281	1.836323700030107	183.30610859999445	185.64282670000114	187.66136500000732	0.8314178000434822	1.010361600026954	1.4688960000059978	n/a	1.0	n/a	1	0	88	3	nogo_reward	0	1	0	0	0	1	0	n/a	n/a	0	1.0	1.0	966.7184000000124	1149.0196027000202	1150.0245086000068	1150.8559264000503	1152.3612267000135	1153.3715883000405	n/a	n/a	1154.3797650000197	1155.8486610000257	2020-08-25 14:27:02.658608	16.8921737600118	0.0	27.2607661588073	27.2607661588073	10.3685923987954	27.2607661588073	-16.8921737600118	27.2607661588073	0.0	27.2607661588073	10.3685923987954	-27.2607661588073	6.591100199241325	-4.931091054683677	24.74597541462208	18.981340235301097	1.8652125943238733	24.74597541462208	-30.558535907606895	16.601144104093684	10.010043904852267	19.005920140088527	0.8089642198498711	2	missed	0.0
189.14707390003605	6.162972199963633	go_punish	0.6742808999842964	189.1725653000177	190.5651409000276	193.10480640002072	1.3925756000098772	190.17665700003283	192.09625140001333	194.112571100006	0.3884838999947533	1.0085550000073908	1.2229663999753484	n/a	1.0	n/a	1	0	89	2	go_punish	1	0	-1	1	1	1	0	n/a	n/a	0	0.6742808999842964	1.0	966.7184000000124	1155.89096530003	1156.8950570000452	1157.28354090004	1158.8146514000257	1159.823206400033	n/a	n/a	1160.8309711000184	1162.0539374999937	2020-08-25 14:27:02.658608	3.52345762464884	-0.0241096250191716	-3.29310177984589	-0.0173311884779355	0.230355844802946	-3.29310177984589	-3.52345762464884	-0.0241096250191716	-3.29310177984589	0.230355844802946	-3.29310177984589	0.0241096250191716	-6.777615936121636	-4.955200679702848	-5.807892524031111	-8.296757111984137	-8.273023959668581	-5.807892524031111	-3.2736601237804224	-10.42926620991067	-3.6516502737890217	-8.278955643737946	-2.484137559996019	2	missed	0.0
195.35256750002736	6.724499100004323	nogo_reward	1.0	195.37805890000902	197.19438649999222	199.71314100001484	1.8163275999831967	196.38210370001627	198.69891859998472	200.7200812000084	0.8122827999759465	1.0142224000301212	1.3824768000049517	n/a	1.0	n/a	1	0	90	3	nogo_reward	1	0	1	0	0	1	1	n/a	n/a	1	1.0	1.0	966.7184000000124	1162.0964589000214	1163.1005037000286	1163.9127865000046	1165.417318599997	1166.4315410000272	n/a	n/a	1167.4384812000208	1168.8209580000257	2020-08-25 14:27:02.658608	8.82735603709306	0.0	14.6371183170381	14.6371183170381	5.80976227994504	14.6371183170381	-8.82735603709306	14.6371183170381	0.0	14.6371183170381	5.80976227994504	25.746714249815298	-1.4737175236774167	-4.931091054683677	12.122327572852878	6.357692393531899	-2.693617524526487	12.122327572852878	22.448944501015703	3.9774962623244843	5.451213786001908	6.382272298319325	0.8089642198498711	2	missed	0.0
202.1163986000463	5.926728899998579	nogo_reward	1.0	202.14189000002796	203.7906941000257	206.30821829999343	1.648804099997733	203.14573039999243	205.29538850003166	207.31533280003362	0.6449637000332586	1.0128297999617644	0.7532860999929198	n/a	1.0	n/a	1	0	91	3	nogo_reward	1	0	1	0	0	1	0	n/a	n/a	1	1.0	1.0	966.7184000000124	1168.8602900000403	1169.8641304000048	1170.509094100038	1172.013788500044	1173.0266183000058	n/a	n/a	1174.033732800046	1174.787018900039	2020-08-25 14:27:02.658608	16.5316680263512	0.0	26.6676332299298	26.6676332299298	10.1359652035786	26.6676332299298	-16.5316680263512	26.6676332299298	0.0	26.6676332299298	10.1359652035786	13.716199336923601	6.230594465580722	-4.931091054683677	24.15284248574458	18.388207306423595	1.6325853991070733	24.15284248574458	10.418429588124008	16.008011175216183	9.777416709635467	18.412787211211025	0.8089642198498711	2	missed	0.0
208.0848476000249	7.693566599976975	nogo_punish	1.0	208.11033900000655	210.87282920000155	213.3865350999987	2.762490199995	209.11511670000652	212.377325700014	214.39317340002174	1.7577124999950229	1.0092093999846838	1.4107321999617852	n/a	1.0	n/a	1	0	92	1	nogo_punish	1	-1	0	0	0	1	0	n/a	n/a	0	1.0	1.0	966.7184000000124	1174.828739000019	1175.833516700019	1177.591229200014	1179.0957257000264	1180.104935100011	n/a	n/a	1181.111573400034	1182.522305599996	2020-08-25 14:27:02.658608	4.92101862634882	-6.19999374467497	-1.72848749308879	-1.88070069749661	-6.64950611943761	-1.72848749308879	-4.92101862634882	-1.72848749308879	-6.19999374467497	-1.72848749308879	-6.64950611943761	1.72848749308879	-5.380054934421656	-11.131084799358646	-4.243278237274011	-10.160126621002812	-15.152885923909135	-4.243278237274011	-1.5692822557108042	-12.388109547802406	-7.008054613380741	-9.983333511807565	-5.391029524825099	2	missed	0.0
215.82171680004103	5.8360197999863885	nogo_reward	1.0	215.8472082000227	217.26542200002598	219.7837645999972	1.4182138000032865	216.8511142000208	218.7701825000114	220.790277799999	0.4143078000051901	1.013582099985797	0.8929502000100911	n/a	1.0	n/a	1	0	93	3	nogo_reward	1	0	1	0	0	1	1	n/a	n/a	1	1.0	1.0	966.7184000000124	1182.565608200035	1183.5695142000332	1183.9838220000383	1185.4885825000238	1186.5021646000096	n/a	n/a	1187.5086778000114	1188.4016280000214	2020-08-25 14:27:02.658608	20.408214419351	0.0	32.8053460382531	32.8053460382531	12.3971316189021	32.8053460382531	-20.408214419351	32.8053460382531	0.0	32.8053460382531	12.3971316189021	7.578486528600301	10.107140858580525	-4.931091054683677	30.29055529406788	24.525920114746896	3.8937518144305727	30.29055529406788	4.2807167798007075	22.145723983539483	12.038583124958967	24.550500019534326	0.8089642198498711	2	missed	0.0
221.69566600001417	6.7100707000354305	nogo_punish	1.0	221.72115739999583	224.14413510001043	226.6587294000202	2.4229777000145987	222.72688420000475	225.64913059998082	227.66451590001827	1.4172509000056834	1.0095988000393845	0.7667122000129893	n/a	1.0	n/a	1	0	94	1	nogo_punish	1	-1	0	0	0	1	1	n/a	n/a	0	1.0	1.0	966.7184000000124	1188.4395574000082	1189.445284200017	1190.8625351000228	1192.3675305999932	1193.3771294000326	n/a	n/a	1194.3829159000306	1195.1496281000436	2020-08-25 14:27:02.658608	5.36171714658092	-6.19999374467497	-0.995029348958006	-1.08725913120051	-6.35674649553892	-0.995029348958006	-5.36171714658092	-0.995029348958006	-6.19999374467497	-0.995029348958006	-6.35674649553892	0.995029348958006	-4.939356414189556	-11.131084799358646	-3.509820093143227	-9.36668505470671	-14.860126300010446	-3.509820093143227	-2.3027403998415883	-11.654651403671622	-6.715294989482052	-9.24987536767678	-5.391029524825099	2	missed	0.0
228.45109290001005	6.702574299997423	nogo_reward	1.0	228.4765842999917	230.69445290003193	233.21309149998717	2.2178686000402195	229.4815477000085	232.19934799999476	234.2201808000101	1.2129052000234424	1.0137434999924153	0.9589777999790385	n/a	1.0	n/a	1	0	95	3	nogo_reward	1	0	1	0	0	1	1	n/a	n/a	1	1.0	1.0	966.7184000000124	1195.194984300004	1196.1999477000209	1197.4128529000443	1198.9177480000071	1199.9314914999995	n/a	n/a	1200.9385808000225	1201.8975586000015	2020-08-25 14:27:02.658608	22.4399015601575	0.0	36.0618015033771	36.0618015033771	13.6218999432196	36.0618015033771	-22.4399015601575	36.0618015033771	0.0	36.0618015033771	13.6218999432196	4.322031063476302	12.138827999387026	-4.931091054683677	33.54701075919188	27.782375579870894	5.118520138748073	33.54701075919188	1.0242613146767083	25.40217944866348	13.263351449276467	27.806955484658324	0.8089642198498711	2	missed	0.0
235.19412450003438	6.22373799997149	go_punish	0.6964474999695085	235.21961590001604	236.6548604000128	239.1974481000217	1.4352444999967702	236.2246146000108	238.18661889998486	240.20536190003634	0.4302458000020124	1.0108292000368237	1.2379919999511912	n/a	1.0	n/a	1	0	96	2	go_punish	1	0	-1	1	1	1	0	n/a	n/a	0	0.6964474999695085	1.0	966.7184000000124	1201.9380159000284	1202.9430146000232	1203.3732604000252	1204.9050188999972	1205.915848100034	n/a	n/a	1206.9237619000487	1208.1617539	2020-08-25 14:27:02.658608	3.53388458355384	-0.0159960167717987	-3.29310177984589	-0.0117194468811515	0.240782803707948	-3.29310177984589	-3.53388458355384	-0.0159960167717987	-3.29310177984589	0.240782803707948	-3.29310177984589	0.0159960167717987	-6.767188977216636	-4.947087071455475	-5.807892524031111	-8.291145370387353	-8.262597000763579	-5.807892524031111	-3.2817737320277955	-10.418839251005668	-3.6516502737890217	-8.270842035490574	-2.484137559996019	2	missed	0.0
241.45446380000794	7.436489000043139	go_punish	0.3002661999780684	241.4799551999896	243.90705460001493	246.44674889999453	2.4270994000253268	242.4853569000262	245.43751519999944	247.45399290003127	1.4216976999887265	1.009233699995093	1.4624513000014758	n/a	1.0	n/a	1	0	97	2	go_punish	1	0	-1	1	1	1	0	n/a	n/a	0	0.3002661999780684	1.0	966.7184000000124	1208.198355200002	1209.2037569000386	1210.6254546000273	1212.1559152000118	1213.165148900007	n/a	n/a	1214.1723929000436	1215.634844200045	2020-08-25 14:27:02.658608	3.5406668545883	-0.0107515364137218	-3.29310177984589	-0.0080210873428465	0.247565074742407	-3.29310177984589	-3.5406668545883	-0.0107515364137218	-3.29310177984589	0.247565074742407	-3.29310177984589	0.0107515364137218	-6.7604067061821755	-4.941842591097398	-5.807892524031111	-8.287447010849048	-8.255814729729119	-5.807892524031111	-3.287018212385872	-10.412056979971208	-3.6516502737890217	-8.265597555132496	-2.484137559996019	2	missed	0.0
248.93155480001587	6.420046699990053	go_punish	0.4611389000201598	248.95704619999754	250.4271791999928	252.96550230000878	1.4701329999952577	249.96203570003865	251.95637010002986	253.97209639998653	0.46514349995413795	1.0091321999789216	1.4049965000010616	n/a	1.0	n/a	1	0	98	2	go_punish	1	0	-1	1	1	1	1	n/a	n/a	0	0.4611389000201598	1.0	966.7184000000124	1215.67544620001	1216.680435700051	1217.1455792000052	1218.6747701000422	1219.6839023000211	n/a	n/a	1220.690496399999	1222.0954929	2020-08-25 14:27:02.658608	3.54513920867794	-0.0073142366382554	-3.29310177984589	-0.0055519971056051	0.252037428832046	-3.29310177984589	-3.54513920867794	-0.0073142366382554	-3.29310177984589	0.252037428832046	-3.29310177984589	0.0073142366382554	-6.755934352092536	-4.938405291321932	-5.807892524031111	-8.284977920611807	-8.25134237563948	-5.807892524031111	-3.290455512161339	-10.407584625881569	-3.6516502737890217	-8.26216025535703	-2.484137559996019	2	missed	0.0
255.38863910001237	6.11061339999992	go_punish	0.6450082000228576	255.41413049999403	257.14043139998114	259.67989130003855	1.726300899987109	256.4186453000294	258.6694601000057	260.68637780001166	0.7217860999517143	1.0104312000328264	0.838366099982295	n/a	1.0	n/a	1	0	99	2	go_punish	1	0	-1	1	1	1	1	n/a	n/a	0	0.6450082000228576	1.0	966.7184000000124	1222.1325305000064	1223.1370453000418	1223.8588313999935	1225.387860100018	1226.398291300051	n/a	n/a	1227.404777800024	1228.2431439000063	2020-08-25 14:27:02.658608	3.54812609849969	-0.0050321860883107	-3.29310177984589	-0.0038836143463125	0.255024318653799	-3.29310177984589	-3.54812609849969	-0.0050321860883107	-3.29310177984589	0.255024318653799	-3.29310177984589	0.0050321860883107	-6.752947462270786	-4.9361232407719875	-5.807892524031111	-8.283309537852514	-8.248355485817727	-5.807892524031111	-3.292737562711283	-10.404597736059817	-3.6516502737890217	-8.259878204807086	-2.484137559996019	2	missed	0.0
261.53488530003233	7.341610200004652	go_reward	0.3253590000094846	261.560376700014	264.32990399998414	266.8745837000316	2.76952729997015	262.56508919998316	265.86022690002585	267.88131150003767	1.764814800000977	1.0143568000057712	1.0206753999809735	n/a	1.0	n/a	1	0	100	4	go_reward	1	1	0	1	1	1	0	n/a	n/a	1	0.3253590000094846	1.0	966.7184000000124	1228.2787767000264	1229.2834891999955	1231.0483039999965	1232.5786269000382	1233.592983700044	n/a	n/a	1234.59971150005	1235.620386900031	2020-08-25 14:27:02.658608	16.9320255709931	12.0182220494854	0.0	12.0182220494854	16.9320255709931	0.0	-16.9320255709931	12.0182220494854	0.0	16.9320255709931	0.0	28.365610517367998	6.630952010222625	7.087130994801724	-2.514790744185221	3.7387961259791993	8.428645766521575	-2.514790744185221	25.067840768568402	6.272403516279486	-0.3585484939431317	3.7633760307666257	0.8089642198498711	2	missed	0.0
268.9208479000372	7.411523999995552	go_punish	0.3591505999793298	268.94633930001885	271.90925500000606	274.4488092000248	2.9629156999872066	269.9521216999857	273.438977700018	275.4555982000312	1.9571333000203595	1.0098315000068396	0.9022650999831967	n/a	1.0	n/a	1	0	101	2	go_punish	1	0	-1	1	1	1	1	n/a	n/a	0	0.3591505999793298	1.0	966.7184000000124	1235.6647393000312	1236.670521699998	1238.6276550000184	1240.1573777000303	1241.1672092000372	n/a	n/a	1242.1739982000436	1243.0762633000268	2020-08-25 14:27:02.658608	3.55014471613997	-0.0034988205498265	-3.29310177984589	-0.0027435101305866	0.257042936294074	-3.29310177984589	-3.55014471613997	-0.0034988205498265	-3.29310177984589	0.257042936294074	-3.29310177984589	0.0034988205498265	-6.750928844630506	-4.934589875233503	-5.807892524031111	-8.282169433636788	-8.246336868177453	-5.807892524031111	-3.2942709282497677	-10.402579118419542	-3.6516502737890217	-8.2583448392686	-2.484137559996019	2	missed	0.0
276.3795772000449	6.396547699987423	nogo_reward	1.0	276.40506860002654	278.0661149999943	280.5839068000206	1.661046399967745	277.40982609998935	279.57074679998925	281.59025790001044	0.6562889000049381	1.0131600000313483	1.211358400003519	n/a	1.0	n/a	1	0	102	3	nogo_reward	1	0	1	0	0	1	0	n/a	n/a	1	1.0	1.0	966.7184000000124	1243.123468600039	1244.1282261000017	1244.7845150000066	1246.2891468000016	1247.302306800033	n/a	n/a	1248.3086579000228	1249.5200163000263	2020-08-25 14:27:02.658608	23.5430885317822	0.0	37.8495162335578	37.8495162335578	14.3064277017756	37.8495162335578	-23.5430885317822	37.8495162335578	0.0	37.8495162335578	14.3064277017756	2.5343163332955996	13.242014971011724	-4.931091054683677	35.33472548937258	29.570090310051597	5.803047897304074	35.33472548937258	-0.7634534155039945	27.189894178844185	13.947879207832468	29.594670214839027	0.8089642198498711	2	missed	0.0
282.8132207000165	6.330946800007723	go_punish	0.437240400002338	282.83871209999813	284.75907889998064	287.3000793000102	1.920366799982503	283.8431804000285	286.2905931000133	288.3077718000278	0.9158984999521635	1.0094861999968998	0.8618870999780484	n/a	1.0	n/a	1	0	103	2	go_punish	1	0	-1	1	1	1	1	n/a	n/a	0	0.437240400002338	1.0	966.7184000000124	1249.5571121000105	1250.5615804000408	1251.477478899993	1253.0089931000257	1254.0184793000226	n/a	n/a	1255.0261718000402	1255.8880589000182	2020-08-25 14:27:02.658608	3.55152419016812	-0.0024568794619866	-3.29310177984589	-0.0019561379924838	0.258422410322226	-3.29310177984589	-3.55152419016812	-0.0024568794619866	-3.29310177984589	0.258422410322226	-3.29310177984589	0.0024568794619866	-6.749549370602356	-4.933547934145663	-5.807892524031111	-8.281382061498684	-8.244957394149301	-5.807892524031111	-3.2953128693376073	-10.40119964439139	-3.6516502737890217	-8.257302898180761	-2.484137559996019	2	missed	0.0
289.18590050004445	6.01719179999759	go_reward	0.7033872000174597	289.2113919000261	290.4879653999816	293.0325840000297	1.2765734999554752	290.21614790003525	292.0183378999935	294.0395466000192	0.2718174999463372	1.014246100036189	1.189037100004498	n/a	1.0	n/a	1	0	104	4	go_reward	1	1	0	1	1	1	0	n/a	n/a	1	0.7033872000174597	1.0	966.7184000000124	1255.9297919000385	1256.9345479000476	1257.206365399994	1258.736737900006	1259.750984000042	n/a	n/a	1260.7579466000316	1261.946983700036	2020-08-25 14:27:02.658608	35.1600534659831	25.4471449784242	0.0	25.4471449784242	35.1600534659831	0.0	-35.1600534659831	25.4471449784242	0.0	35.1600534659831	0.0	14.936687588429201	24.85897990521262	20.51605392374052	-2.514790744185221	17.167719054917995	26.65667366151157	-2.514790744185221	11.638917839629608	24.50043141126948	-0.3585484939431317	17.192298959705425	0.8089642198498711	2	missed	0.0
295.2390463000047	7.313418700010516	go_reward	0.3413622000371106	295.26453769998636	297.7840546999943	300.3286934000208	2.519517000007909	296.26913740002794	299.3147285000306	301.3356734000264	1.5149172999663278	1.013964899990242	1.2422829999704845	n/a	1.0	n/a	1	0	105	4	go_reward	1	1	0	1	1	1	0	n/a	n/a	1	0.3413622000371106	1.0	966.7184000000124	1261.9829376999987	1262.9875374000403	1264.5024547000066	1266.033128500043	1267.0470934000332	n/a	n/a	1268.0540734000388	1269.2963564000092	2020-08-25 14:27:02.658608	44.4202932183939	32.2256874352436	0.0	32.2256874352436	44.4202932183939	0.0	-44.4202932183939	32.2256874352436	0.0	44.4202932183939	0.0	8.1581451316098	34.119219657623425	27.294596380559923	-2.514790744185221	23.946261511737397	35.91691341392237	-2.514790744185221	4.860375382810206	33.760671163680286	-0.3585484939431317	23.970841416524827	0.8089642198498711	2	missed	0.0
302.5891134000267	6.342644000018481	nogo_punish	1.0	302.61460480000835	303.94552020001004	306.46036720002314	1.330915400001686	303.61880779999785	305.45009260001837	307.46804390003683	0.32671240001218393	1.0102746000047773	1.4892048999899998	n/a	1.0	n/a	1	0	106	1	nogo_punish	1	-1	0	0	0	1	0	n/a	n/a	0	1.0	1.0	966.7184000000124	1269.3330048000207	1270.3372078000102	1270.6639202000224	1272.1684926000307	1273.1787672000355	n/a	n/a	1274.1864439000492	1275.6756488000392	2020-08-25 14:27:02.658608	5.60215479367932	-6.19999374467497	-0.58843690506442	-0.645492926622577	-6.19059169874374	-0.58843690506442	-5.60215479367932	-0.58843690506442	-6.19999374467497	-0.58843690506442	-6.19059169874374	0.58843690506442	-4.698918767091156	-11.131084799358646	-3.103227649249641	-8.924918850128778	-14.693971503215266	-3.103227649249641	-2.709332843735174	-11.248058959778035	-6.549140192686871	-8.843282923783194	-5.391029524825099	2	missed	0.0
308.9732236000127	6.946051200036891	go_reward	0.31996390002314	308.9987149999944	311.46737140003836	314.0106885000133	2.468656400043983	310.00275670003623	313.0010445000372	315.01728780003043	1.4646147000021301	1.009643999976106	0.9274784000008367	n/a	1.0	n/a	1	0	107	4	go_reward	0	0	1	1	1	1	1	n/a	n/a	0	0.31996390002314	1.0	966.7184000000124	1275.7171150000067	1276.7211567000486	1278.1857714000507	1279.7194445000496	1280.7290885000257	n/a	n/a	1281.7356878000428	1282.6631662000436	2020-08-25 14:27:02.658608	49.3081145485176	35.783610748124	0.0	35.783610748124	49.3081145485176	0.0	-49.3081145485176	35.783610748124	0.0	49.3081145485176	0.0	-35.783610748124	39.007040987747125	30.85251969344032	-2.514790744185221	27.504184824617795	40.80473474404607	-2.514790744185221	-39.08138049692359	38.648492493803985	-0.3585484939431317	27.528764729405225	0.8089642198498711	2	missed	0.0
315.9610719000341	7.139000299968529	nogo_reward	1.0	315.98656330001575	318.71632300002955	321.23570530000154	2.729759700013801	316.98995800002024	320.2213582000114	322.2428882000387	1.7263650000093094	1.0143470999901183	0.8826753999455832	n/a	1.0	n/a	1	0	108	3	nogo_reward	1	0	1	0	0	1	0	n/a	n/a	1	1.0	1.0	966.7184000000124	1282.704963300028	1283.7083580000326	1285.434723000042	1286.9397582000238	1287.954105300014	n/a	n/a	1288.961288200051	1289.8439635999966	2020-08-25 14:27:02.658608	24.1610206795326	0.0	38.8608082159129	38.8608082159129	14.6997875363803	38.8608082159129	-24.1610206795326	38.8608082159129	0.0	38.8608082159129	14.6997875363803	1.5230243509405028	13.859947118762125	-4.931091054683677	36.34601747172768	30.581382292406694	6.196407731908774	36.34601747172768	-1.7747453978590912	28.20118616119928	14.341239042437168	30.605962197194124	0.8089642198498711	2	missed	0.0
323.13809480000054	6.502420700038783	go_punish	0.6145668999524787	323.1635861999822	324.73084720002964	327.27249850000965	1.5672610000474378	324.1679068999948	326.2623012000114	328.2801039000045	0.5629403000348248	1.0101972999982536	1.3859030000164694	n/a	1.0	n/a	1	0	109	2	go_punish	1	0	-1	1	1	1	0	n/a	n/a	0	0.6145668999524787	1.0	966.7184000000124	1289.8819861999946	1290.8863069000072	1291.449247200042	1292.9807012000238	1293.990898500022	n/a	n/a	1294.9985039000169	1296.3844069000334	2020-08-25 14:27:02.658608	3.55247678017976	-0.0017413631265519	-3.29310177984589	-0.0014069391003629	0.259375000333873	-3.29310177984589	-3.55247678017976	-0.0017413631265519	-3.29310177984589	0.259375000333873	-3.29310177984589	0.0017413631265519	-6.7485967805907165	-4.9328324178102285	-5.807892524031111	-8.280832862606564	-8.244004804137653	-5.807892524031111	-3.296028385673042	-10.400247054379742	-3.6516502737890217	-8.256587381845327	-2.484137559996019	2	missed	0.0
329.68278280005325	6.029319099965505	go_reward	0.513865299988538	329.7082742000349	331.0303184000078	333.57287660002487	1.3220441999728791	330.71342560002824	332.55972690001374	334.5793670000277	0.31689279997954145	1.0131497000111267	1.158226299972739	n/a	1.0	n/a	1	0	110	4	go_reward	1	1	0	1	1	1	0	n/a	n/a	1	0.513865299988538	1.0	966.7184000000124	1296.4266742000473	1297.4318256000406	1297.7487184000202	1299.278126900026	1300.2912766000372	n/a	n/a	1301.29776700004	1302.4559933000128	2020-08-25 14:27:02.658608	26.7321309288396	19.1983402542014	0.0	19.1983402542014	26.7321309288396	0.0	-26.7321309288396	19.1983402542014	0.0	26.7321309288396	0.0	21.185492312652	16.431057368069123	14.267249199517725	-2.514790744185221	10.9189143306952	18.228751124368074	-2.514790744185221	17.887722563852403	16.072508874125983	-0.3585484939431317	10.943494235482627	0.8089642198498711	2	missed	0.0
335.74853420001455	7.266261500015389	nogo_punish	1.0	335.7740255999962	338.3857554999996	340.90407930000254	2.611729900003411	336.77826290001406	339.89088309998635	341.91055560001394	1.6074925999855623	1.013196200016182	1.1297314999976606	n/a	1.0	n/a	1	0	111	1	nogo_punish	0	0	-1	0	0	1	0	n/a	n/a	-1	1.0	1.0	966.7184000000124	1302.4924256000086	1303.4966629000264	1305.104155500012	1306.6092830999987	1307.622479300015	n/a	n/a	1308.6289556000263	1309.758687100024	2020-08-25 14:27:02.658608	5.73738098006387	-6.19999374467497	-0.3563836201431	-0.392348729313605	-6.09376460020697	-0.3563836201431	-5.73738098006387	-0.3563836201431	-6.19999374467497	-0.3563836201431	-6.09376460020697	-8.62978277005236	-4.563692580706606	-11.131084799358646	-2.871174364328321	-8.671774652819806	-14.597144404678495	-2.871174364328321	-11.927552518851954	-11.016005674856716	-6.452313094150101	-8.611229638861875	-5.391029524825099	2	missed	0.0
343.0543271000495	6.650403499952745	go_punish	0.3243004999822005	343.07981850003114	344.8651038000245	347.40744340000685	1.7852852999933475	344.0849133000012	346.39652569999464	348.4149957000046	0.7801905000233091	1.0109177000122145	1.3152262999792583	n/a	1.0	n/a	1	0	112	2	go_punish	1	0	-1	1	1	1	0	n/a	n/a	0	0.3243004999822005	1.0	966.7184000000124	1309.7982185000435	1310.8033133000135	1311.5835038000369	1313.114925700007	1314.1258434000192	n/a	n/a	1315.133395700017	1316.4486219999962	2020-08-25 14:27:02.658608	3.5531410882163	-0.0012451045962553	-3.29310177984589	-0.0010202637025732	0.260039308370412	-3.29310177984589	-3.5531410882163	-0.0012451045962553	-3.29310177984589	0.260039308370412	-3.29310177984589	0.0012451045962553	-6.747932472554176	-4.932336159279932	-5.807892524031111	-8.280446187208774	-8.243340496101114	-5.807892524031111	-3.296524644203339	-10.399582746343203	-3.6516502737890217	-8.25609112331503	-2.484137559996019	2	missed	0.0
349.74547860003076	6.027228399994783	go_reward	1.0	349.7709700000124	351.2760035999821	353.79025230003765	1.5050335999696927	350.77572000003454	352.78056739998294	354.7974717000037	0.5002835999475792	1.0096849000547081	1.0007267000034972	n/a	1.0	n/a	1	0	113	4	go_reward	1	1	0	1	0	0	0	n/a	n/a	0	1.0	1.0	966.7184000000124	1316.4893700000248	1317.494120000047	1317.9944035999945	1319.4989673999953	1320.50865230005	n/a	n/a	1321.515871700016	1322.5165984000196	2020-08-25 14:27:02.658608	-40.3008328387852	29.1930912191807	0.0	29.1930912191807	40.3008328387852	0.0	40.3008328387852	0.0	29.1930912191807	0.0	40.3008328387852	0.0	-50.60190639955567	24.262000164497024	-2.514790744185221	20.913665295674498	31.79745303431367	-2.514790744185221	-3.297769748799594	-10.659622054713616	39.942284344842065	-8.254846018718775	30.00205543903057	2	missed	0.0
355.81206370005407	6.127065099950414	go_reward	0.6265092000248842	355.83755510003573	357.3937152000145	359.93840019998595	1.556160099978797	356.8415369000287	358.9250672000345	360.9458567000112	0.552178299985826	1.0133329999514444	1.0187634999749662	n/a	1.0	n/a	1	0	114	4	go_reward	1	1	0	1	1	1	0	n/a	n/a	1	0.6265092000248842	1.0	966.7184000000124	1322.555955100048	1323.559936900041	1324.112115200027	1325.6434672000469	1326.6568001999983	n/a	n/a	1327.6642567000235	1328.6830201999985	2020-08-25 14:27:02.658608	35.4272776152392	29.1930912191807	0.0	15.7285414493805	35.4272776152392	0.0	-35.4272776152392	29.1930912191807	0.0	35.4272776152392	0.0	11.190741347672699	25.126204054468722	24.262000164497024	-2.514790744185221	7.4491155258743	26.92389781076767	-2.514790744185221	7.892971598873105	24.767655560525583	-0.3585484939431317	20.938245200461928	0.8089642198498711	2	missed	0.0
361.980492600007	6.337643800012302	nogo_reward	1.0	362.00598399998864	363.4744898999926	365.992284499982	1.4685059000039473	363.0102229000187	364.978758900019	366.9993653999992	0.4642669999739155	1.0135255999630317	1.3442624000017531	n/a	1.0	n/a	1	0	115	3	nogo_reward	1	0	1	0	0	1	0	n/a	n/a	1	1.0	1.0	966.7184000000124	1328.724384000001	1329.728622900031	1330.192889900005	1331.6971589000314	1332.7106844999944	n/a	n/a	1333.7177654000116	1335.0620278000133	2020-08-25 14:27:02.658608	24.5167942315973	0.0	39.4482892075521	39.4482892075521	14.9314949759547	39.4482892075521	-24.5167942315973	39.4482892075521	0.0	39.4482892075521	14.9314949759547	0.935543359301299	14.215720670826823	-4.931091054683677	36.93349846336688	31.168863284045898	6.428115171483174	36.93349846336688	-2.362226389498295	28.788667152838485	14.572946482011568	31.193443188833328	0.8089642198498711	2	missed	0.0
368.36030270002084	6.591130000015028	go_reward	0.2967705000191927	368.3857941000025	370.42851460003305	372.9734995000182	2.042720500030555	369.390032800031	371.95921619999	373.9807027000353	1.038481800002046	1.0142833000281826	0.9962213999822325	n/a	1.0	n/a	1	0	116	4	go_reward	1	1	0	1	1	1	1	n/a	n/a	1	0.2967705000191927	1.0	966.7184000000124	1335.1041941000149	1336.1084328000434	1337.1469146000454	1338.6776162000024	1339.6918995000306	n/a	n/a	1340.6991027000477	1341.69532410003	2020-08-25 14:27:02.658608	44.6322737774764	34.2461838503929	0.0	27.3014859185301	44.6322737774764	0.0	-44.6322737774764	34.2461838503929	0.0	44.6322737774764	0.0	6.137648716460497	34.33120021670592	29.315092795709226	-2.514790744185221	19.022059995023902	36.12889397300487	-2.514790744185221	2.8398789676609026	33.972651722762784	-0.3585484939431317	25.99133783167413	0.8089642198498711	2	missed	0.0
374.99422720004804	6.838738299964234	nogo_reward	1.0	375.0197186000297	376.8690879000352	379.38335760001803	1.8493693000054918	376.02530079998553	378.3740452000055	380.3900805999875	0.8437871000496671	1.0093124000125044	1.4683763000064118	n/a	1.0	n/a	1	0	117	3	nogo_reward	0	1	0	0	0	1	1	n/a	n/a	0	1.0	1.0	966.7184000000124	1341.738118600042	1342.743700799998	1343.5874879000476	1345.092445200018	1346.1017576000304	n/a	n/a	1347.1084806	1348.5768569000063	2020-08-25 14:27:02.658608	24.7267070496244	0.0	39.7977508810995	39.7977508810995	15.0710438314752	39.7977508810995	-24.7267070496244	39.7977508810995	0.0	39.7977508810995	15.0710438314752	-39.7977508810995	14.425633488853926	-4.931091054683677	37.282960136914284	31.5183249575933	6.567664027003673	37.282960136914284	-43.0955206298991	29.138128826385888	14.712495337532067	31.54290486238073	0.8089642198498711	2	missed	0.0
381.8722832000349	6.757576200005133	nogo_punish	1.0	381.89777460001653	383.89762559998815	386.41221999999846	1.9998509999716134	382.9019107000205	385.4022666999957	387.41912030003743	0.995714899967652	1.009953300002735	1.2362304999842308	n/a	1.0	n/a	1	0	118	1	nogo_punish	1	-1	0	0	0	1	0	n/a	n/a	0	1.0	1.0	966.7184000000124	1348.616174600029	1349.6203107000329	1350.6160256000005	1352.120666700008	1353.1306200000108	n/a	n/a	1354.1375203000498	1355.373750800034	2020-08-25 14:27:02.658608	3.18906170430151	-6.19999374467497	-4.2878097850445	-4.31087071569028	-7.47687148934601	-4.2878097850445	-3.18906170430151	-4.2878097850445	-6.19999374467497	-4.2878097850445	-7.47687148934601	4.2878097850445	-7.112011856468966	-11.131084799358646	-6.802600529229721	-12.590296639196481	-15.980251293817537	-6.802600529229721	0.9900400362449058	-14.947431839758115	-7.835419983289142	-12.542655803763274	-5.391029524825099	2	missed	0.0
388.6680228000039	5.844059900031652	nogo_punish	1.0	388.69351419998554	390.0533370000197	392.56813259999046	1.3598228000341805	389.6976798999825	391.5585931999959	393.57561220001674	0.35565710003720596	1.0095393999945372	0.9619619000004604	n/a	1.0	n/a	1	0	119	1	nogo_punish	1	-1	0	0	0	1	0	n/a	n/a	0	1.0	1.0	966.7184000000124	1355.411914199998	1356.4160798999949	1356.771737000032	1358.2769932000083	1359.2865326000028	n/a	n/a	1360.294012200029	1361.2559741000296	2020-08-25 14:27:02.658608	4.50382738698319	-6.19999374467497	-2.27171686674665	-2.28673648178675	-6.77554425372985	-2.27171686674665	-4.50382738698319	-2.27171686674665	-6.19999374467497	-2.27171686674665	-6.77554425372985	2.27171686674665	-5.797246173787286	-11.131084799358646	-4.786507610931871	-10.566162405292951	-15.278924058201376	-4.786507610931871	-1.026052882052944	-12.931338921460267	-7.134092747672981	-10.526562885465424	-5.391029524825099	2	missed	0.0
394.5480464000141	6.66795510001225	nogo_punish	1.0	394.57353779999573	396.47902520000946	398.9928163000151	1.905487400013726	395.57801719999395	397.98349369998334	399.99929100001475	0.9010080000155085	1.0093226000317372	1.2422018999932334	n/a	1.0	n/a	1	0	120	1	nogo_punish	1	-1	0	0	0	1	1	n/a	n/a	0	1.0	1.0	966.7184000000124	1361.291937800008	1362.2964172000063	1363.1974252000218	1364.7018936999957	1365.7112163000274	n/a	n/a	1366.7176910000271	1367.9598929000203	2020-08-25 14:27:02.658608	5.16001865190077	-6.19999374467497	-1.24965531414509	-1.25957927464004	-6.40967396604586	-1.24965531414509	-5.16001865190077	-1.24965531414509	-6.19999374467497	-1.24965531414509	-6.40967396604586	1.24965531414509	-5.141054908869706	-11.131084799358646	-3.7644460583303108	-9.539005198146242	-14.913053770517386	-3.7644460583303108	-2.0481144346545044	-11.909277368858705	-6.7682224599889915	-9.504501332863864	-5.391029524825099	2	missed	0.0
