onset	duration	trial_type	response_time	cueOnset	targetOnset	fbOnset	cueRT	firstfixOnset	secondfixOnset	waitOnset	firstfixdur	secondfixdur	waitdur	nback_fbOnset	nback_response_time	nback_targetOnset	block	wm	trial	cue	cond	is_common	outcome_go	outcome_nogo	key_correct	key_pressed	is_correct	key_correct_nback	key_pressed_nback	is_correct_nback	outcome	rt	rt_nback	time_scan	time_onset	time_isi1	time_circle	time_isi2	time_feedback	time_same	time_correct	time_iti	time_done	timestamp_scan	DV	Qgo	Qnogo	SV	Wgo	Wnogo	mDV	Qchosen	Qunchosen	Wchosen	Wunchosen	PE	DVC	QgoC	QnogoC	SVC	WgoC	WnogoC	PEC	WchosenC	WunchosenC	QchosenC	QunchosenC	run	outcome_nback	nback_targetResp
0.0	5.829621600045357	go_reward	0.6801145999925211	0.06411159998970106	1.4091081999940798	3.9511576000368223	1.3449966000043787	1.0818113000132143	2.931427400035318	4.9605082999914885	0.3272968999808654	1.0197302000015043	0.9332249000435695	n/a	1.0	n/a	2	0	1	2	go_reward	1	1	0	1	1	1	0	n/a	n/a	1	0.6801145999925211	1.0	1690.6202246000175	1690.6843362000072	1691.7020359000308	1692.0293328000116	1693.5516520000529	1694.5713822000544	n/a	n/a	1695.580732900009	1696.5139578000526	2020-05-12 13:36:14.235545	0.316155762821525	0.0	0.0	0.0	0.316155762821525	0.0	-0.316155762821525	0.0	0.0	0.316155762821525	0.0	12.3982156393478	-3.167295257101676	-1.5801227355107885	-0.6546936972155126	-2.740936661314255	-1.608558323348551	-0.6546936972155126	11.880341144927563	-2.7152736388328726	0.4520216182688079	-2.7737950841310495	0.5389786514047473	3	missed	0.0
5.89105480001308	6.086288299993612	nogo_reward	0.6013960000127554	5.955166400002781	7.533988200011663	10.070973500027321	1.5788218000088818	6.973504199995659	9.051509800017584	11.084276899986435	0.5604840000160038	1.0194637000097373	0.9571778000099584	n/a	1.0	n/a	2	0	2	1	nogo_reward	1	0	1	0	1	0	0	n/a	n/a	0	0.6013960000127554	1.0	1690.6202246000175	1696.5753910000203	1697.5937288000132	1698.1542128000292	1699.6717344000351	1700.6911981000449	n/a	n/a	1701.704501500004	1702.661679300014	2020-05-12 13:36:14.235545	0.316155762821525	0.0	0.0	0.0	0.316155762821525	0.0	-0.316155762821525	0.0	0.0	0.316155762821525	0.0	0.0	-3.167295257101676	-1.5801227355107885	-0.6546936972155126	-2.740936661314255	-1.608558323348551	-0.6546936972155126	-0.5178744944202365	-2.7152736388328726	0.4520216182688079	-2.7737950841310495	0.5389786514047473	3	missed	0.0
12.022261900012381	5.969927099999268	go_reward	0.4015829000272788	12.086373500002082	13.546773999987636	16.082295100030024	1.4604004999855533	13.080278300040163	15.064165499992669	17.09394260001136	0.46649569994747253	1.018129600037355	0.9623579999899903	n/a	1.0	n/a	2	0	3	2	go_reward	1	1	0	1	1	1	1	n/a	n/a	1	0.4015829000272788	1.0	1690.6202246000175	1702.7065981000196	1703.7005029000577	1704.1669986000052	1705.6843901000102	1706.7025197000476	n/a	n/a	1707.714167200029	1708.676525200019	2020-05-12 13:36:14.235545	5.56843964573532	5.81199919919446	0.0	5.81199919919446	5.56843964573532	0.0	-5.56843964573532	5.81199919919446	0.0	5.56843964573532	0.0	6.58621644015334	2.0849886258121186	4.231876463683672	-0.6546936972155126	3.0710625378802052	3.643725559565244	-0.6546936972155126	6.068341945733104	2.5370102440809226	0.4520216182688079	3.0382041150634107	0.5389786514047473	3	missed	0.0
18.024659999995492	6.531050200050231	nogo_reward	1.0	18.088771599985193	20.011646900034975	22.550577100017108	1.9228753000497818	19.092042800039053	21.52753040002426	23.564029500004835	0.9196040999959223	1.0230466999928467	1.055792300030589	n/a	1.0	n/a	2	0	4	1	nogo_reward	0	1	0	0	0	1	1	n/a	n/a	0	1.0	1.0	1690.6202246000175	1708.7089962000027	1709.7122674000566	1710.6318715000525	1712.1477550000418	1713.1708017000346	n/a	n/a	1714.1842541000224	1715.240046400053	2020-05-12 13:36:14.235545	-0.316155762821525	0.0	0.0	0.0	0.316155762821525	0.0	0.316155762821525	0.0	0.0	0.0	0.316155762821525	0.0	-3.7996067827447266	-1.5801227355107885	-0.6546936972155126	-2.740936661314255	-1.608558323348551	-0.6546936972155126	-0.5178744944202365	-3.0314294016543974	0.768177381090333	-2.7737950841310495	0.5389786514047473	3	missed	0.0
24.584452200040687	6.440185499959625	nogo_reward	0.3346806000336073	24.648563800030388	26.14169459999539	28.69475439999951	1.4931307999650016	25.64421639998909	27.671644299989566	29.704694500018377	0.4974782000062987	1.0231101000099443	1.3840547999716364	n/a	1.0	n/a	2	0	5	1	nogo_reward	0	1	0	0	1	0	0	n/a	n/a	1	0.3346806000336073	1.0	1690.6202246000175	1715.268788400048	1716.2644410000066	1716.761919200013	1718.291868900007	1719.314979000017	n/a	n/a	1720.324919100036	1721.7089739000075	2020-05-12 13:36:14.235545	0.316155762821525	0.0	0.0	0.0	0.316155762821525	0.0	-0.316155762821525	0.0	0.0	0.316155762821525	0.0	12.3982156393478	-3.167295257101676	-1.5801227355107885	-0.6546936972155126	-2.740936661314255	-1.608558323348551	-0.6546936972155126	11.880341144927563	-2.7152736388328726	0.4520216182688079	-2.7737950841310495	0.5389786514047473	3	missed	0.0
31.10309710004367	6.730305899982341	nogo_punish	0.2654319999855943	31.16720870003337	32.94369980000215	35.49986889999127	1.77649109996878	32.176851900003385	34.47683679999318	36.5107568000094	0.7668478999987656	1.0230320999980904	1.3867578000063077	n/a	1.0	n/a	2	0	6	3	nogo_punish	1	-1	0	0	1	0	0	n/a	n/a	-1	0.2654319999855943	1.0	1690.6202246000175	1721.787433300051	1722.797076500021	1723.5639244000197	1725.0970614000107	1726.1200935000088	n/a	n/a	1727.130981400027	1728.5177392000332	2020-05-12 13:36:14.235545	0.316155762821525	0.0	0.0	0.0	0.316155762821525	0.0	-0.316155762821525	0.0	0.0	0.316155762821525	0.0	-5.26273157378244	-3.167295257101676	-1.5801227355107885	-0.6546936972155126	-2.740936661314255	-1.608558323348551	-0.6546936972155126	-5.780606068202676	-2.7152736388328726	0.4520216182688079	-2.7737950841310495	0.5389786514047473	3	missed	0.0
37.86248820001492	6.365669600025285	nogo_reward	0.3732233999762684	37.926599800004624	39.43013560003601	41.97984240000369	1.5035358000313863	38.93285400001332	40.96353850001469	42.99639580002986	0.4972816000226885	1.0163038999889977	1.29587360000005	n/a	1.0	n/a	2	0	7	1	nogo_reward	0	1	0	0	1	0	1	n/a	n/a	1	0.3732233999762684	1.0	1690.6202246000175	1728.5468244000222	1729.5530786000309	1730.0503602000535	1731.5837631000322	1732.6000670000212	n/a	n/a	1733.6166204000474	1734.9124940000474	2020-05-12 13:36:14.235545	5.56843964573532	5.81199919919446	0.0	5.81199919919446	5.56843964573532	0.0	-5.56843964573532	5.81199919919446	0.0	5.56843964573532	0.0	6.58621644015334	2.0849886258121186	4.231876463683672	-0.6546936972155126	3.0710625378802052	3.643725559565244	-0.6546936972155126	6.068341945733104	2.5370102440809226	0.4520216182688079	3.0382041150634107	0.5389786514047473	3	missed	0.0
44.28783600003226	6.793224699969869	go_punish	0.245248100021854	44.35194760002196	46.19709989998955	48.7392581999884	1.8451522999675944	45.355399499996565	47.72129810001934	49.75212299998384	0.8417003999929875	1.0179600999690592	1.3930493000079878	n/a	1.0	n/a	2	0	8	4	go_punish	1	0	-1	1	1	1	0	n/a	n/a	0	0.245248100021854	1.0	1690.6202246000175	1734.9721722000395	1735.975624100014	1736.817324500007	1738.3415227000369	1739.359482800006	n/a	n/a	1740.3723476000014	1741.7653969000094	2020-05-12 13:36:14.235545	0.316155762821525	0.0	0.0	0.0	0.316155762821525	0.0	-0.316155762821525	0.0	0.0	0.316155762821525	0.0	0.0	-3.167295257101676	-1.5801227355107885	-0.6546936972155126	-2.740936661314255	-1.608558323348551	-0.6546936972155126	-0.5178744944202365	-2.7152736388328726	0.4520216182688079	-2.7737950841310495	0.5389786514047473	3	missed	0.0
51.108153000008315	6.391344700008631	go_punish	1.0	51.172264599998016	53.01683030003937	55.55501330003608	1.8445657000413576	52.174098399991635	54.5308702000184	56.56478509999556	0.8427319000477382	1.0241431000176817	0.9988242000110858	n/a	1.0	n/a	2	0	9	4	go_punish	1	0	-1	1	0	0	0	n/a	n/a	-1	1.0	1.0	1690.6202246000175	1741.7924892000156	1742.7943230000092	1743.637054900057	1745.151094800036	1746.1752379000536	n/a	n/a	1747.185009700013	1748.1838339000242	2020-05-12 13:36:14.235545	-0.316155762821525	0.0	0.0	0.0	0.316155762821525	0.0	0.316155762821525	0.0	0.0	0.0	0.316155762821525	-5.26273157378244	-3.7996067827447266	-1.5801227355107885	-0.6546936972155126	-2.740936661314255	-1.608558323348551	-0.6546936972155126	-5.780606068202676	-3.0314294016543974	0.768177381090333	-2.7737950841310495	0.5389786514047473	3	missed	0.0
57.54303570004413	6.3806634999928065	go_reward	0.4462294999975711	57.60714730003383	59.014010999992024	61.542940700019244	1.406863699958194	58.62638780003158	60.53187559999037	62.54158150003036	0.38762319996044425	1.0110651000288726	1.4462292999962756	n/a	1.0	n/a	2	0	10	2	go_reward	1	1	0	1	1	1	0	n/a	n/a	1	0.4462294999975711	1.0	1690.6202246000175	1748.2273719000514	1749.2466124000491	1749.6342356000096	1751.152100200008	1752.1631653000368	n/a	n/a	1753.161806100048	1754.6080354000442	2020-05-12 13:36:14.235545	8.14052602798178	8.72386791659552	0.0	8.72386791659552	8.14052602798178	0.0	-8.14052602798178	8.72386791659552	0.0	8.14052602798178	0.0	3.6743477227522803	4.6570750080585785	7.143745181084731	-0.6546936972155126	5.982931255281265	6.215811941811704	-0.6546936972155126	3.156473228332044	5.109096626327382	0.4520216182688079	5.95007283246447	0.5389786514047473	3	missed	0.0
63.95175730000483	6.720623900007922	go_punish	0.2481260999920778	64.01586889999453	66.37414650002029	68.92367440002295	2.358277600025758	65.0174917000113	67.8994111000211	69.93338410003344	1.3566548000089824	1.0242633000018486	0.803108699969016	n/a	1.0	n/a	2	0	11	4	go_punish	0	-1	0	1	1	1	1	n/a	n/a	-1	0.2481260999920778	1.0	1690.6202246000175	1754.636093500012	1755.6377163000288	1756.9943711000378	1758.5196357000386	1759.5438990000405	n/a	n/a	1760.553608700051	1761.35671740002	2020-05-12 13:36:14.235545	2.94200118605166	0.0	-2.37185020109809	-2.37185020109809	0.570150984953565	-2.37185020109809	-2.94200118605166	0.0	-2.37185020109809	0.570150984953565	-2.37185020109809	-5.26273157378244	-0.5414498338715412	-1.5801227355107885	-3.0265438983136024	-5.112786862412345	-1.354563101216511	-3.0265438983136024	-5.780606068202676	-2.4612784167008326	-1.919828582829282	-2.7737950841310495	-1.8328715496933428	3	missed	0.0
70.6990216000122	5.699145900027361	go_punish	0.4798013999825343	70.7631332000019	72.12752809998346	74.67323800001759	1.364394899981562	71.76942329999292	73.65383860003203	75.68803990003653	0.35810479999054223	1.0193993999855593	0.7742391999927349	n/a	1.0	n/a	2	0	12	4	go_punish	1	0	-1	1	1	1	0	n/a	n/a	0	0.4798013999825343	1.0	1690.6202246000175	1761.3833578000194	1762.3896479000105	1762.747752700001	1764.2740632000496	1765.2934626000351	n/a	n/a	1766.308264500054	1767.0825037000468	2020-05-12 13:36:14.235545	0.725341336644457	-2.37185020109809	-2.37185020109809	-3.60325850803716	-1.64650886445363	-2.37185020109809	-0.725341336644457	-2.37185020109809	-2.37185020109809	-1.64650886445363	-2.37185020109809	2.37185020109809	-2.7581096832787444	-3.9519729366088785	-3.0265438983136024	-6.344195169351416	-3.571222950623706	-3.0265438983136024	1.8539757066778535	-4.677938266108027	-1.919828582829282	-5.14564528522914	-1.8328715496933428	3	missed	0.0
76.42833040002733	6.287884099991061	nogo_reward	0.3151190999778919	76.49244200001704	77.96304280002369	80.51736639998853	1.4706008000066504	77.4920201000059	79.50313020002795	81.52751510002417	0.4710227000177838	1.0142361999605782	1.2528109999839216	n/a	1.0	n/a	2	0	13	1	nogo_reward	1	0	1	0	1	0	0	n/a	n/a	0	0.3151190999778919	1.0	1690.6202246000175	1767.1126666000346	1768.1122447000234	1768.5832674000412	1770.1233548000455	1771.137591000006	n/a	n/a	1772.1477397000417	1773.4005507000256	2020-05-12 13:36:14.235545	8.14052602798178	8.72386791659552	0.0	8.72386791659552	8.14052602798178	0.0	-8.14052602798178	8.72386791659552	0.0	8.14052602798178	0.0	-8.72386791659552	4.6570750080585785	7.143745181084731	-0.6546936972155126	5.982931255281265	6.215811941811704	-0.6546936972155126	-9.241742411015757	5.109096626327382	0.4520216182688079	5.95007283246447	0.5389786514047473	3	missed	0.0
82.76074160000985	7.066360700002406	nogo_punish	1.0	82.82485319999955	85.43915069999639	87.96346490003657	2.6142974999968374	83.83463220001431	86.95038759999443	88.97468240000308	1.6045184999820776	1.0130773000421414	0.9165314999988823	n/a	1.0	n/a	2	0	14	3	nogo_punish	1	-1	0	0	0	1	0	n/a	n/a	0	1.0	1.0	1690.6202246000175	1773.445077800017	1774.4548568000318	1776.059375300014	1777.570612200012	1778.583689500054	n/a	n/a	1779.5949070000206	1780.5114385000195	2020-05-12 13:36:14.235545	1.80169921614453	-2.37185020109809	0.0	-2.37185020109809	-1.80169921614453	0.0	-1.80169921614453	0.0	-2.37185020109809	0.0	-1.80169921614453	0.0	-1.6817518037786714	-3.9519729366088785	-0.6546936972155126	-5.112786862412345	-3.726413302314606	-0.6546936972155126	-0.5178744944202365	-3.0314294016543974	-1.349677597875722	-2.7737950841310495	-1.8328715496933428	3	missed	0.0
89.85440260003065	7.318645999999944	go_punish	0.2410471999901347	89.91851420002035	92.34114550001686	94.88765029999217	2.4226312999965103	90.92191640002397	93.86782720003976	95.89599430002295	1.41922909999289	1.0198230999524185	1.3411658999973497	n/a	1.0	n/a	2	0	15	4	go_punish	1	0	-1	1	1	1	0	n/a	n/a	0	0.2410471999901347	1.0	1690.6202246000175	1780.538738800038	1781.5421410000415	1782.9613701000344	1784.4880518000573	1785.5078749000097	n/a	n/a	1786.5162189000405	1787.8573848000378	2020-05-12 13:36:14.235545	1.70796808159722	-1.23140830693907	-2.37185020109809	-1.90249294625162	-0.663882119500867	-2.37185020109809	-1.70796808159722	-1.23140830693907	-2.37185020109809	-0.663882119500867	-2.37185020109809	1.23140830693907	-1.7754829383259814	-2.8115310424498583	-3.0265438983136024	-4.643429607565875	-2.588596205670943	-3.0265438983136024	0.7135338125188335	-3.6953115211552645	-1.919828582829282	-4.005203391070119	-1.8328715496933428	3	missed	0.0
97.20312730001751	7.25385079998523	nogo_reward	0.3031156999641098	97.26723890000721	99.5901832000236	102.12704970000777	2.3229443000163883	98.26494810002623	101.10753460001456	103.13548510003602	1.3252350999973714	1.0195150999932139	1.385604599956423	n/a	1.0	n/a	2	0	16	1	nogo_reward	1	0	1	0	1	0	0	n/a	n/a	0	0.3031156999641098	1.0	1690.6202246000175	1787.8874635000248	1788.8851727000438	1790.2104078000411	1791.727759200032	1792.7472743000253	n/a	n/a	1793.7557097000536	1795.14131430001	2020-05-12 13:36:14.235545	4.21948581166617	4.45155615413722	0.0	4.45155615413722	4.21948581166617	0.0	-4.21948581166617	4.45155615413722	0.0	4.21948581166617	0.0	-4.45155615413722	0.736034791742969	2.871433418626432	-0.6546936972155126	1.7106194928229654	2.294771725496094	-0.6546936972155126	-4.969430648557457	1.188056410011773	0.4520216182688079	1.677761070006171	0.5389786514047473	3	missed	0.0
104.50105000002077	8.000345900014281	go_reward	0.2528494999860413	104.56516160001047	107.5314531000331	110.08281630004058	2.966291500022635	105.57006120000733	109.0650852000108	111.08096170000476	1.9613919000257738	1.0177311000297777	1.484545800019987	n/a	1.0	n/a	2	0	17	2	go_reward	1	1	0	1	1	1	0	n/a	n/a	1	0.2528494999860413	1.0	1690.6202246000175	1795.185386200028	1796.1902858000249	1798.1516777000506	1799.6853098000283	1800.703040900058	n/a	n/a	1801.7011863000223	1803.1857321000423	2020-05-12 13:36:14.235545	9.47176969457996	10.2635553533317	0.0	10.2635553533317	9.47176969457996	0.0	-9.47176969457996	10.2635553533317	0.0	9.47176969457996	0.0	2.1346602860161	5.9883186746567585	8.683432617820912	-0.6546936972155126	7.522618692017446	7.547055608409884	-0.6546936972155126	1.6167857915958634	6.440340292925562	0.4520216182688079	7.489760269200651	0.5389786514047473	3	missed	0.0
112.52995090000309	7.118700999999646	nogo_reward	0.3718459999654442	112.59406249999279	115.13285570003814	117.66371620004088	2.5387932000453475	113.59545279998565	116.6421283000384	118.68580109998607	1.5374029000524843	1.021587900002487	1.0269624000063686	n/a	1.0	n/a	2	0	18	1	nogo_reward	1	0	1	0	1	0	1	n/a	n/a	0	0.3718459999654442	1.0	1690.6202246000175	1803.2142871000103	1804.2156774000032	1805.7530803000557	1807.262352900056	1808.2839408000584	n/a	n/a	1809.3060257000036	1810.33298810001	2020-05-12 13:36:14.235545	2.36896696133971	2.39108024169531	0.0	2.39108024169531	2.36896696133971	0.0	-2.36896696133971	2.39108024169531	0.0	2.36896696133971	0.0	-2.39108024169531	-1.1144840585834914	0.8109575061845216	-0.6546936972155126	-0.34985641961894487	0.44425287516963397	-0.6546936972155126	-2.908954736115547	-0.6624624403146875	0.4520216182688079	-0.3827148424357394	0.5389786514047473	3	missed	0.0
119.6780226000119	6.38379749999126	nogo_reward	1.0	119.7421342000016	121.18309170001885	123.70974860002752	1.440957500017248	120.74800490000052	122.6930687000272	124.71096480003325	0.43508680001832545	1.0166799000003266	1.4149668999596088	n/a	1.0	n/a	2	0	19	1	nogo_reward	1	0	1	0	0	1	0	n/a	n/a	1	1.0	1.0	1690.6202246000175	1810.3623588000191	1811.368229500018	1811.8033163000364	1813.3132933000447	1814.329973200045	n/a	n/a	1815.3311894000508	1816.7461563000104	2020-05-12 13:36:14.235545	-1.44445216200877	1.34033721709819	0.0	1.34033721709819	1.44445216200877	0.0	1.44445216200877	0.0	1.34033721709819	0.0	1.44445216200877	12.3982156393478	-4.927903181931971	-0.23978551841259854	-0.6546936972155126	-1.400599444216065	-0.480261924161306	-0.6546936972155126	11.880341144927563	-3.0314294016543974	1.896473780277578	-2.7737950841310495	1.8793158685029372	3	missed	0.0
126.10704190004594	5.937474799982738	nogo_punish	0.4359783999971114	126.17115350003564	127.52129080001055	130.07119119999697	1.3501372999749037	127.16478440002538	129.04754759999923	131.0808297999904	0.35650639998516453	1.0236435999977402	1.0277985000279841	n/a	1.0	n/a	2	0	20	3	nogo_punish	1	-1	0	0	1	0	0	n/a	n/a	-1	0.4359783999971114	1.0	1690.6202246000175	1816.7913781000532	1817.785009000043	1818.141515400028	1819.6677722000168	1820.6914158000145	n/a	n/a	1821.701054400008	1822.728852900036	2020-05-12 13:36:14.235545	-1.90050408658567	-2.37185020109809	0.0	-1.23140830693907	-1.90050408658567	0.0	1.90050408658567	-2.37185020109809	0.0	-1.90050408658567	0.0	-2.89088137268435	-5.383955106508871	-3.9519729366088785	-0.6546936972155126	-3.972344968253325	-3.825218172755746	-0.6546936972155126	-3.4087558671045866	-4.931933488240068	0.4520216182688079	-5.14564528522914	0.5389786514047473	3	missed	0.0
132.07347170001594	6.27121999999531	go_punish	0.3465193000156432	132.13758330000564	133.6836562000101	136.23914970003534	1.5460729000044466	133.13727440004004	135.21717230003537	137.25278430001345	0.5463817999700495	1.0219773999999688	1.1560189999875092	n/a	1.0	n/a	2	0	21	4	go_punish	1	0	-1	1	1	1	0	n/a	n/a	0	0.3465193000156432	1.0	1690.6202246000175	1822.7578079000232	1823.7574990000576	1824.3038808000276	1825.837396900053	1826.8593743000529	n/a	n/a	1827.873008900031	1829.0290279000185	2020-05-12 13:36:14.235545	2.1737302914603	-0.671084639312545	-2.37185020109809	-1.05197635543761	-0.198119909637793	-2.37185020109809	-2.1737302914603	-0.671084639312545	-2.37185020109809	-0.198119909637793	-2.37185020109809	0.671084639312545	-1.3097207284629016	-2.2512073748233337	-3.0265438983136024	-3.792913016751865	-2.122833995807869	-3.0265438983136024	0.15321014489230855	-3.2295493112921903	-1.919828582829282	-3.4448797234435946	-1.8328715496933428	3	missed	0.0
138.3721514000208	6.023239800008014	go_punish	0.3478255000081844	138.4362630000105	139.72339769999917	142.24775029998295	1.2871346999886555	139.44501309999055	141.24201260000677	143.2478892999934	0.2783846000086214	1.00573769997618	1.2116135000251234	n/a	1.0	n/a	2	0	22	4	go_punish	1	0	-1	1	1	1	0	n/a	n/a	0	0.3478255000081844	1.0	1690.6202246000175	1829.056487600028	1830.065237700008	1830.3436223000167	1831.8622372000243	1832.8679749000005	n/a	n/a	1833.868113900011	1835.079727400036	2020-05-12 13:36:14.235545	2.40663743998828	-0.380891716125061	-2.37185020109809	-0.604707261424389	0.0347872388901903	-2.37185020109809	-2.40663743998828	-0.380891716125061	-2.37185020109809	0.0347872388901903	-2.37185020109809	0.380891716125061	-1.0768135799349214	-1.9610144516358496	-3.0265438983136024	-3.345643922738644	-1.8899268472798858	-3.0265438983136024	-0.13698277829517547	-2.996642162764207	-1.919828582829282	-3.1546868002561106	-1.8328715496933428	3	missed	0.0
144.43951799999923	6.468605400005117	go_reward	0.3219616000424139	144.50362959998893	146.16420649999054	148.71582019998436	1.6605769000016153	145.5101274999904	147.69826560001843	149.72625880001556	0.654079000000138	1.0175545999659334	1.245976199978486	n/a	1.0	n/a	2	0	23	2	go_reward	1	1	0	1	1	1	0	n/a	n/a	1	0.3219616000424139	1.0	1690.6202246000175	1835.1238542000065	1836.130352100008	1836.784431100008	1838.318490200036	1839.336044800002	n/a	n/a	1840.346483400033	1841.5924596000116	2020-05-12 13:36:14.235545	10.1933372265	11.1149481582908	0.0	11.1149481582908	10.1933372265	0.0	-10.1933372265	11.1149481582908	0.0	10.1933372265	0.0	1.2832674810570008	6.709886206576799	9.53482542278001	-0.6546936972155126	8.374011496976545	8.268623140329925	-0.6546936972155126	0.7653929866367644	7.161907824845603	0.4520216182688079	8.341153074159749	0.5389786514047473	3	missed	0.0
150.93719210004156	6.143435499980342	nogo_reward	1.0	151.00130370003126	152.56914279999933	155.0952814000193	1.5678390999680687	152.00868660002016	154.07867950003128	156.10362629999895	0.5604561999791713	1.016601899988018	1.0411129000126493	n/a	1.0	n/a	2	0	24	1	nogo_reward	0	1	0	0	0	1	0	n/a	n/a	0	1.0	1.0	1690.6202246000175	1841.6215283000488	1842.6289112000377	1843.1893674000169	1844.6989041000488	1845.7155060000368	n/a	n/a	1846.7238509000165	1847.7649638000291	2020-05-12 13:36:14.235545	4.85037557904774	1.34033721709819	5.81199919919446	6.59100076002457	0.961623620146717	5.81199919919446	-4.85037557904774	5.81199919919446	1.34033721709819	5.81199919919446	0.961623620146717	-5.81199919919446	1.3669245591245387	-0.23978551841259854	5.157305501978947	3.8500640987103147	-0.963090466023359	5.157305501978947	-6.329873693614696	2.7805697975400627	1.413645238415525	3.0382041150634107	1.8793158685029372	3	missed	0.0
157.10822950000875	7.272616700036451	go_punish	0.2715653000050224	157.17234109999845	159.99870530003682	162.52841349999653	2.8263642000383697	158.17986630002247	161.50872550002532	163.54305730003398	1.81883900001435	1.019687999971211	0.9019005000009201	n/a	1.0	n/a	2	0	25	4	go_punish	1	0	-1	1	1	1	0	n/a	n/a	0	0.2715653000050224	1.0	1690.6202246000175	1847.792565700016	1848.80009090004	1850.6189299000544	1852.1289501000429	1853.148638100014	n/a	n/a	1854.1632819000515	1855.0651824000524	2020-05-12 13:36:14.235545	2.52846545527234	-0.223815545299329	-2.37185020109809	-0.35934153615108	0.156615254174249	-2.37185020109809	-2.52846545527234	-0.223815545299329	-2.37185020109809	0.156615254174249	-2.37185020109809	0.223815545299329	-0.9549855646508614	-1.8039382808101174	-3.0265438983136024	-3.100278197465335	-1.768098831995827	-3.0265438983136024	-0.29405894912090746	-2.8748141474801483	-1.919828582829282	-2.9976106294303784	-1.8328715496933428	3	missed	0.0
164.42513920000079	6.229956599999923	go_reward	0.3698569000116549	164.4892507999905	165.82139200001257	168.35864769999125	1.332141200022079	165.49569670000346	167.3390570000049	169.36678029998438	0.32569530000910163	1.0195906999863382	1.3524271000060253	n/a	1.0	n/a	2	0	26	2	go_reward	0	0	1	1	1	1	0	n/a	n/a	0	0.3698569000116549	1.0	1690.6202246000175	1855.109475400008	1856.115921300021	1856.44161660003	1857.9592816000225	1858.9788723000088	n/a	n/a	1859.987004900002	1861.339432000008	2020-05-12 13:36:14.235545	10.6000660937672	11.6038925704299	0.0	11.6038925704299	10.6000660937672	0.0	-10.6000660937672	11.6038925704299	0.0	10.6000660937672	0.0	-11.6038925704299	7.116615073843999	10.023769834919111	-0.6546936972155126	8.862955909115646	8.675352007597125	-0.6546936972155126	-12.121767064850138	7.568636692112802	0.4520216182688079	8.83009748629885	0.5389786514047473	3	missed	0.0
170.68651260004867	6.957473699992988	nogo_reward	1.0	170.75062420003837	173.23553870001342	175.77229170000646	2.484914499975048	171.75685380003438	174.75285829999484	176.79325550003	1.4786848999790436	1.0194334000116214	0.914842400001362	n/a	1.0	n/a	2	0	27	1	nogo_reward	0	1	0	0	0	1	0	n/a	n/a	0	1.0	1.0	1690.6202246000175	1861.370848800056	1862.377078400052	1863.855763300031	1865.3730829000124	1866.392516300024	n/a	n/a	1867.4134801000475	1868.328322500049	2020-05-12 13:36:14.235545	1.68273221681017	1.34033721709819	2.91186871740106	3.37891363693801	1.22913650059088	2.91186871740106	-1.68273221681017	2.91186871740106	1.34033721709819	2.91186871740106	1.22913650059088	-2.91186871740106	-1.8007188031130315	-0.23978551841259854	2.2571750201855476	0.6379769756237552	-0.6955775855791959	2.2571750201855476	-3.4297432118212967	-0.11956068425333743	1.681158118859688	0.13807363327001054	1.8793158685029372	3	missed	0.0
177.67309380002553	7.4798617999767885	nogo_reward	1.0	177.73720540001523	180.4415391000225	182.9677687000369	2.7043337000072825	178.73805280000647	181.94409800000722	183.97373920003884	1.7034863000160385	1.0236707000296974	1.2433279999531806	n/a	1.0	n/a	2	0	28	1	nogo_reward	1	0	1	0	0	1	0	n/a	n/a	1	1.0	1.0	1690.6202246000175	1868.3574300000328	1869.358277400024	1871.06176370004	1872.5643226000248	1873.5879933000544	n/a	n/a	1874.5939638000564	1875.8372918000096	2020-05-12 13:36:14.235545	0.149277765515421	1.34033721709819	1.53968743673617	1.82737087879919	1.39040967122074	1.53968743673617	-0.149277765515421	1.53968743673617	1.34033721709819	1.53968743673617	1.39040967122074	10.85852820261163	-3.3341732544077805	-0.23978551841259854	0.8849937395206573	-0.9135657825150649	-0.5343044149493359	0.8849937395206573	10.340653708191393	-1.4917419649182275	1.842431289489548	-1.2341076473948795	1.8793158685029372	3	missed	0.0
185.1977861000339	6.415672499977745	go_reward	0.3031720999861136	185.2618977000236	187.17205900000408	189.7048608000041	1.910161299980473	186.26782410003943	188.68053050001618	190.722803300014	0.9042348999646492	1.0243302999879234	0.9547668999873622	n/a	1.0	n/a	2	0	29	2	go_reward	1	1	0	1	1	1	0	n/a	n/a	1	0.3031720999861136	1.0	1690.6202246000175	1875.8821223000411	1876.888048700057	1877.7922836000216	1879.3007551000337	1880.3250854000216	n/a	n/a	1881.3430279000315	1882.297794800019	2020-05-12 13:36:14.235545	5.58490086092394	6.08195051992647	0.0	6.08195051992647	5.58490086092394	0.0	-5.58490086092394	6.08195051992647	0.0	5.58490086092394	0.0	6.31626511942133	2.101449841000739	4.501827784415681	-0.6546936972155126	3.341013858612215	3.660186774753864	-0.6546936972155126	5.798390625001094	2.553471459269543	0.4520216182688079	3.3081554357954204	0.5389786514047473	3	missed	0.0
191.65536170004634	6.977792499994393	go_reward	0.2927719000144861	191.71947330003604	194.29945930000372	196.84798600000772	2.5799859999676755	192.72883560002083	195.8221070999864	197.851737499994	1.5706236999828889	1.0258789000213255	0.8455283000364489	n/a	1.0	n/a	2	0	30	2	go_reward	1	1	0	1	1	1	0	n/a	n/a	1	0.2927719000144861	1.0	1690.6202246000175	1882.3396979000536	1883.3490602000384	1884.9196839000213	1886.442331700004	1887.4682106000253	n/a	n/a	1888.4719621000115	1889.317490400048	2020-05-12 13:36:14.235545	8.40745048688345	9.15906877256578	0.0	9.15906877256578	8.40745048688345	0.0	-8.40745048688345	9.15906877256578	0.0	8.40745048688345	0.0	3.2391468667820202	4.9239994669602485	7.578946037054991	-0.6546936972155126	6.418132111251525	6.482736400713374	-0.6546936972155126	2.721272372361784	5.376021085229052	0.4520216182688079	6.38527368843473	0.5389786514047473	3	missed	0.0
198.66205129999435	7.775782600045204	nogo_reward	1.0	198.72616289998405	201.48609770002076	204.01714429998538	2.759934800036717	199.73352140001953	203.00338010000996	205.02175870002247	1.7525763000012375	1.0137641999754123	1.480186800006777	n/a	1.0	n/a	2	0	31	1	nogo_reward	0	1	0	0	0	1	0	n/a	n/a	0	1.0	1.0	1690.6202246000175	1889.3463875000016	1890.353746000037	1892.1063223000383	1893.6236047000275	1894.637368900003	n/a	n/a	1895.64198330004	1897.1221701000468	2020-05-12 13:36:14.235545	5.73493739911438	1.34033721709819	6.6633920041536	6.84484967932236	0.928454605039221	6.6633920041536	-5.73493739911438	6.6633920041536	1.34033721709819	6.6633920041536	0.928454605039221	-6.6633920041536	2.2514863791911788	-0.23978551841259854	6.008698306938087	4.103913018008106	-0.996259481130855	6.008698306938087	-7.181266498573836	3.6319626024992027	1.3804762233080288	3.8895969200225506	1.8793158685029372	3	missed	0.0
206.48241009999765	6.5560376000360066	nogo_punish	1.0	206.54652169998735	208.20692130003567	210.73014190001436	1.660399600048322	207.55368790001398	209.71752920001745	211.74793040001532	0.6532334000216906	1.0126126999969074	1.3546289000080378	n/a	1.0	n/a	2	0	32	3	nogo_punish	1	-1	0	0	0	1	0	n/a	n/a	0	1.0	1.0	1690.6202246000175	1897.166746300005	1898.1739125000315	1898.8271459000532	1900.337753800035	1901.350366500032	n/a	n/a	1902.3681550000329	1903.722783900041	2020-05-12 13:36:14.235545	2.93692745015781	-3.60325850803716	0.0	-3.04293484041064	-2.93692745015781	0.0	-2.93692745015781	0.0	-3.60325850803716	0.0	-2.93692745015781	0.0	-0.5465235697653914	-5.183381243547949	-0.6546936972155126	-5.783871501724895	-4.861641536327886	-0.6546936972155126	-0.5178744944202365	-3.0314294016543974	-2.484905831889002	-2.7737950841310495	-3.064279856632413	3	missed	0.0
213.08058690000325	6.497391000041034	nogo_punish	0.3576705000014044	213.14469849999296	215.13154169998597	217.68262069998332	1.986843199993018	214.14977260003798	216.65970459999517	218.69256970001152	0.9817690999479964	1.0229160999881515	0.9495198000224718	n/a	1.0	n/a	2	0	33	3	nogo_punish	1	-1	0	0	1	0	0	n/a	n/a	-1	0.3576705000014044	1.0	1690.6202246000175	1903.7649231000105	1904.7699972000555	1905.7517663000035	1907.2799292000127	1908.3028453000009	n/a	n/a	1909.312794300029	1910.2623141000515	2020-05-12 13:36:14.235545	-3.0712834995973	-3.60325850803716	0.0	-1.61230002306413	-3.0712834995973	0.0	3.0712834995973	-3.60325850803716	0.0	-3.0712834995973	0.0	-1.6594730657452796	-6.554734519520501	-5.183381243547949	-0.6546936972155126	-4.353236684378385	-4.995997585767376	-0.6546936972155126	-2.177347560165516	-6.102712901251698	0.4520216182688079	-6.37705359216821	0.5389786514047473	3	missed	0.0
219.6072470000363	6.3570221000120455	nogo_reward	1.0	219.671358600026	221.0927953000064	223.6182470000349	1.4214366999804042	220.67355479998537	222.59482290002052	224.62314849998802	0.41924050002103286	1.023424100014381	1.4052322000500226	n/a	1.0	n/a	2	0	34	1	nogo_reward	1	0	1	0	0	1	0	n/a	n/a	1	1.0	1.0	1690.6202246000175	1910.2915832000435	1911.293779400003	1911.713019900024	1913.215047500038	1914.2384716000524	n/a	n/a	1915.2433731000056	1916.6486053000556	2020-05-12 13:36:14.235545	2.19238391852217	1.34033721709819	3.40081312954011	3.51769693066231	1.20842921101794	3.40081312954011	-2.19238391852217	3.40081312954011	1.34033721709819	3.40081312954011	1.20842921101794	8.99740250980769	-1.2910671014010315	-0.23978551841259854	2.7461194323245977	0.7767602693480549	-0.716284875152136	2.7461194323245977	8.479528015387453	0.3693837278857126	1.660450829286748	0.6270180454090606	1.8793158685029372	3	missed	0.0
225.99148870003387	7.500593199976947	go_punish	0.2765938999946229	226.05560030002357	228.79363520001039	231.34696639998606	2.7380348999868147	227.0610309999904	230.32668190001277	232.36005580000347	1.7326042000199777	1.020284499973286	1.1961376999970526	n/a	1.0	n/a	2	0	35	4	go_punish	1	0	-1	1	1	1	0	n/a	n/a	0	0.2765938999946229	1.0	1690.6202246000175	1916.675824900041	1917.681255600008	1919.413859800028	1920.9469065000303	1921.9671910000036	n/a	n/a	1922.980280400021	1924.176418100018	2020-05-12 13:36:14.235545	2.59469326287865	-0.135525990851751	-2.37185020109809	-0.219778139236419	0.222843061780564	-2.37185020109809	-2.59469326287865	-0.135525990851751	-2.37185020109809	0.222843061780564	-2.37185020109809	0.135525990851751	-0.8887577570445515	-1.7156487263625395	-3.0265438983136024	-2.960714800550674	-1.7018710243895119	-3.0265438983136024	-0.3823485035684855	-2.8085863398738335	-1.919828582829282	-2.9093210749828007	-1.8328715496933428	3	missed	0.0
233.5189479000403	6.6843136000095456	go_punish	0.2803100000019185	233.58305950003	235.4277124000364	237.98461789998692	1.8446529000063947	234.5862516000052	236.96525559999282	238.99111360003053	0.8414608000312	1.0193622999940999	1.2762595000090187	n/a	1.0	n/a	2	0	36	4	go_punish	1	0	-1	1	1	1	0	n/a	n/a	0	0.2803100000019185	1.0	1690.6202246000175	1924.2032841000475	1925.2064762000227	1926.047937000054	1927.5854802000104	1928.6048425000045	n/a	n/a	1929.611338200048	1930.887597700057	2020-05-12 13:36:14.235545	2.63192009192165	-0.0842521483846677	-2.37185020109809	-0.137861940187727	0.260069890823557	-2.37185020109809	-2.63192009192165	-0.0842521483846677	-2.37185020109809	0.260069890823557	-2.37185020109809	0.0842521483846677	-0.8515309280015515	-1.6643748838954562	-3.0265438983136024	-2.8787986015019817	-1.664644195346519	-3.0265438983136024	-0.43362234603556876	-2.77135951083084	-1.919828582829282	-2.8580472325157174	-1.8328715496933428	3	missed	0.0
240.2305102000248	6.810466199996654	go_punish	0.3348100000293925	240.2946218000145	242.77123690000735	245.31697540002642	2.4766150999928414	241.30483819998335	244.29702550004004	246.3302185999928	1.4663987000240013	1.0199498999863863	0.7748694000183605	n/a	1.0	n/a	2	0	37	4	go_punish	1	0	-1	1	1	1	1	n/a	n/a	0	0.3348100000293925	1.0	1690.6202246000175	1930.914846400032	1931.925062800001	1933.391461500025	1934.9172501000576	1935.937200000044	n/a	n/a	1936.9504432000103	1937.7253126000287	2020-05-12 13:36:14.235545	2.65346938127243	-0.0536097918030595	-2.37185020109809	-0.088436559905211	0.281619180174337	-2.37185020109809	-2.65346938127243	-0.0536097918030595	-2.37185020109809	0.281619180174337	-2.37185020109809	0.0536097918030595	-0.8299816386507715	-1.633732527313848	-3.0265438983136024	-2.8293732212194658	-1.643094905995739	-3.0265438983136024	-0.464264702617177	-2.7498102214800606	-1.919828582829282	-2.827404875934109	-1.8328715496933428	3	missed	0.0
247.08955680002668	5.81146080000326	go_reward	0.4192753999959677	247.1536684000164	248.51085040002317	251.06084640003974	1.3571820000067873	248.1693074000068	250.03680549998535	252.06413499999326	0.3415430000163724	1.0240409000543877	0.9009942000263891	n/a	1.0	n/a	2	0	38	2	go_reward	1	1	0	1	1	1	0	n/a	n/a	1	0.4192753999959677	1.0	1690.6202246000175	1937.773893000034	1938.7895320000243	1939.1310750000407	1940.6570301000029	1941.6810710000573	n/a	n/a	1942.6843596000108	1943.5853538000372	2020-05-12 13:36:14.235545	9.7359849807416	10.6419457244478	0.0	10.6419457244478	9.7359849807416	0.0	-9.7359849807416	10.6419457244478	0.0	9.7359849807416	0.0	1.7562699149000007	6.252533960818399	9.06182298893701	-0.6546936972155126	7.901009063133545	7.811270894571524	-0.6546936972155126	1.2383954204797643	6.704555579087202	0.4520216182688079	7.86815064031675	0.5389786514047473	3	missed	0.0
252.94623270002148	6.4533427000283154	nogo_punish	1.0	253.01034430001118	254.81900399999017	257.35173260001443	1.808659699978989	254.01581650000276	256.33648200001335	258.36560110002756	0.8031874999874162	1.0152506000010817	1.098085900011938	n/a	1.0	n/a	2	0	39	3	nogo_punish	1	-1	0	0	0	1	0	n/a	n/a	0	1.0	1.0	1690.6202246000175	1943.6305689000287	1944.6360411000203	1945.4392286000077	1946.9567066000309	1947.971957200032	n/a	n/a	1948.985825700045	1950.083911600057	2020-05-12 13:36:14.235545	3.56911779120407	-4.27434314734971	0.0	-3.26675038570996	-3.56911779120407	0.0	-3.56911779120407	0.0	-4.27434314734971	0.0	-3.56911779120407	0.0	0.08566677128086875	-5.854465882860499	-0.6546936972155126	-6.0076870470242145	-5.493831877374146	-0.6546936972155126	-0.5178744944202365	-3.0314294016543974	-3.117096172935262	-2.7737950841310495	-3.735364495944963	3	missed	0.0
259.45480190002127	7.528566399996407	go_punish	0.3698724000132642	259.51891350001097	262.29797730001155	264.8296016000095	2.7790638000005856	260.525270299986	263.81568970001535	265.83559660002356	1.772707000025548	1.0139118999941275	1.2118832999838105	n/a	1.0	n/a	2	0	40	4	go_punish	1	0	-1	1	1	1	0	n/a	n/a	0	0.3698724000132642	1.0	1690.6202246000175	1950.1391381000285	1951.1454949000035	1952.918201900029	1954.435914300033	1955.449826200027	n/a	n/a	1956.455821200041	1957.667704500025	2020-05-12 13:36:14.235545	2.66627323193578	-0.0348267681021515	-2.37185020109809	-0.0578761980289734	0.294423030837686	-2.37185020109809	-2.66627323193578	-0.0348267681021515	-2.37185020109809	0.294423030837686	-2.37185020109809	0.0348267681021515	-0.8171777879874216	-1.61494950361294	-3.0265438983136024	-2.7988128593432284	-1.63029105533239	-3.0265438983136024	-0.48304772631808496	-2.7370063708167116	-1.919828582829282	-2.808621852233201	-1.8328715496933428	3	missed	0.0
267.0176387000247	6.835777600004803	nogo_reward	1.0	267.0817503000144	269.14540460001444	271.67871589999436	2.063654300000053	268.098746500036	270.6557576000346	272.68985950003844	1.0466580999784583	1.0229582999597824	1.2276683999807574	n/a	1.0	n/a	2	0	41	1	nogo_reward	1	0	1	0	0	1	0	n/a	n/a	1	1.0	1.0	1690.6202246000175	1957.701974900032	1958.7189711000535	1959.765629200032	1961.275982200052	1962.298940500012	n/a	n/a	1963.310084100056	1964.5377525000367	2020-05-12 13:36:14.235545	6.82422112318089	1.34033721709819	7.64174378462168	7.71845418386035	0.817522661440785	7.64174378462168	-6.82422112318089	7.64174378462168	1.34033721709819	7.64174378462168	0.817522661440785	4.75647185472612	3.3407701032576886	-0.23978551841259854	6.987050087406167	4.977517522546096	-1.107191424729291	6.987050087406167	4.238597360305884	4.610314382967282	1.2695442797095928	4.86794870049063	1.8793158685029372	3	missed	0.0
273.88091250002594	6.092597900016926	go_punish	0.3332487000152468	273.94502410001564	275.61687399999937	278.1470982999888	1.6718498999837266	274.9473210999861	277.1351373000073	279.160865099984	0.6695529000132865	1.0119609999815111	0.8767569000485764	n/a	1.0	n/a	2	0	42	4	go_punish	1	0	-1	1	1	1	1	n/a	n/a	0	0.3332487000152468	1.0	1690.6202246000175	1964.5652487000332	1965.5675457000036	1966.237098600017	1967.7553619000248	1968.7673229000063	n/a	n/a	1969.7810897000015	1970.65784660005	2020-05-12 13:36:14.235545	2.67406071056572	-0.0230494299268219	-2.37185020109809	-0.0385622769766103	0.302210509467633	-2.37185020109809	-2.67406071056572	-0.0230494299268219	-2.37185020109809	0.302210509467633	-2.37185020109809	0.0230494299268219	-0.8093903093574815	-1.6031721654376103	-3.0265438983136024	-2.7794989382908653	-1.622503576702443	-3.0265438983136024	-0.49482506449341457	-2.7292188921867644	-1.919828582829282	-2.7968445140578715	-1.8328715496933428	3	missed	0.0
280.00370790000306	6.124635000014678	nogo_reward	1.0	280.06781949999277	281.43007760000205	283.9480623999841	1.362258100009285	281.0730492	282.93195180001203	284.9557758999872	0.3570284000020365	1.0161105999720803	1.236678600020241	n/a	1.0	n/a	2	0	43	1	nogo_reward	0	1	0	0	0	1	1	n/a	n/a	0	1.0	1.0	1690.6202246000175	1970.6880441000103	1971.6932738000176	1972.0503022000196	1973.5521764000296	1974.5682870000016	n/a	n/a	1975.5760005000047	1976.812679100025	2020-05-12 13:36:14.235545	9.17211274876082	1.34033721709819	9.75224849240056	9.80344319954449	0.580135743639748	9.75224849240056	-9.17211274876082	9.75224849240056	1.34033721709819	9.75224849240056	0.580135743639748	-9.75224849240056	5.688661728837619	-0.23978551841259854	9.097554795185047	7.062506538230236	-1.344578342530328	9.097554795185047	-10.270122986820796	6.720819090746161	1.0321573619085558	6.97845340826951	1.8793158685029372	3	missed	0.0
286.15804100001674	7.307089600013569	nogo_reward	1.0	286.22215260000644	288.5015926000192	291.0418693000104	2.2794400000127553	287.2226998000406	290.01866569998697	292.0520917000249	1.278892799978621	1.0232036000234075	1.4771504999951048	n/a	1.0	n/a	2	0	44	1	nogo_reward	1	0	1	0	0	1	0	n/a	n/a	1	1.0	1.0	1690.6202246000175	1976.842377200024	1977.842924400058	1979.1218172000367	1980.6388903000045	1981.662093900028	n/a	n/a	1982.6723163000424	1984.1494668000375	2020-05-12 13:36:14.235545	4.0568431762926	1.34033721709819	5.0511962374934	5.08588072376113	0.994353061200796	5.0511962374934	-4.0568431762926	5.0511962374934	1.34033721709819	5.0511962374934	0.994353061200796	7.3470194018544	0.5733921563693984	-0.23978551841259854	4.396502540277887	2.3449440624468747	-0.93036102496928	4.396502540277887	6.829144907434164	2.0197668358390026	1.446374679469604	2.2774011533623506	1.8793158685029372	3	missed	0.0
293.49335619999306	7.187965800054599	go_punish	0.3337651999900117	293.55746779998276	295.9703277000224	298.5181674000344	2.4128599000396207	294.55760350002697	297.49757970002247	299.52550779999	1.4127241999954094	1.0205877000119017	1.2199258000473492	n/a	1.0	n/a	2	0	45	4	go_punish	1	0	-1	1	1	1	0	n/a	n/a	0	0.3337651999900117	1.0	1690.6202246000175	1984.1776924000003	1985.1778281000445	1986.59055230004	1988.11780430004	1989.138392000052	n/a	n/a	1990.1457324000075	1991.365658200055	2020-05-12 13:36:14.235545	2.67889807156609	-0.0155128470497884	-2.37185020109809	-0.0261132269371241	0.307047870468004	-2.37185020109809	-2.67889807156609	-0.0155128470497884	-2.37185020109809	0.307047870468004	-2.37185020109809	0.0155128470497884	-0.8045529483571112	-1.595635582560577	-3.0265438983136024	-2.767049888251379	-1.617666215702072	-3.0265438983136024	-0.5023616473704481	-2.7243815311863933	-1.919828582829282	-2.7893079311808378	-1.8328715496933428	3	missed	0.0
300.7080728000144	7.130829400034372	go_punish	0.5070533999823965	300.7721844000041	302.9429009000305	305.49055729998486	2.1707165000264013	301.78079679998336	304.47407679999037	306.50114910001844	1.162104100047145	1.0164804999944863	1.4018647000200417	n/a	1.0	n/a	2	0	46	4	go_punish	0	-1	0	1	1	1	0	n/a	n/a	-1	0.5070533999823965	1.0	1690.6202246000175	1991.3924090000216	1992.401021400001	1993.563125500048	1995.094301400008	1996.1107819000024	n/a	n/a	1997.121373700036	1998.523238400056	2020-05-12 13:36:14.235545	2.68196093858763	-0.0106003798873357	-2.37185020109809	-0.0179447196372898	0.310110737489537	-2.37185020109809	-2.68196093858763	-0.0106003798873357	-2.37185020109809	0.310110737489537	-2.37185020109809	-5.252131193895104	-0.8014900813355714	-1.5907231153981243	-3.0265438983136024	-2.7588813809515447	-1.614603348680539	-3.0265438983136024	-5.77000568831534	-2.7213186641648606	-1.919828582829282	-2.784395464018385	-1.8328715496933428	3	missed	0.0
307.8834298000438	7.359809699992184	go_reward	0.2921727000502869	307.9475414000335	310.3897444999893	312.9459663000305	2.4422030999558046	308.94429330003936	311.9229940000225	313.9561272999854	1.4454511999499573	1.0229723000079503	1.3512238000403158	n/a	1.0	n/a	2	0	47	2	go_reward	1	1	0	1	1	1	0	n/a	n/a	1	0.2921727000502869	1.0	1690.6202246000175	1998.567766000051	1999.564517900057	2001.0099691000069	2002.54321860004	2003.566190900048	n/a	n/a	2004.576351900003	2005.9275757000432	2020-05-12 13:36:14.235545	10.400929226818	11.4010023601765	0.0	11.4010023601765	10.400929226818	0.0	-10.400929226818	11.4010023601765	0.0	10.400929226818	0.0	0.9972132791712998	6.917478206894799	9.82087962466571	-0.6546936972155126	8.660065698862246	8.476215140647925	-0.6546936972155126	0.4793387847510633	7.369499825163603	0.4520216182688079	8.62720727604545	0.5389786514047473	3	missed	0.0
315.2870257000325	6.240753999969229	nogo_punish	1.0	315.3511373000222	316.9190600999864	319.45051950000925	1.567922799964208	316.35854809999	318.4301090000081	320.45830030000093	0.560511999996379	1.0204105000011623	1.1335909999904743	n/a	1.0	n/a	2	0	48	3	nogo_punish	1	-1	0	0	0	1	0	n/a	n/a	0	1.0	1.0	1690.6202246000175	2005.9713619000397	2006.9787727000075	2007.539284700004	2009.0503336000256	2010.0707441000268	n/a	n/a	2011.0785249000185	2012.212115900009	2020-05-12 13:36:14.235545	3.71698740052408	-4.27434314734971	0.0	-1.74782601391588	-3.71698740052408	0.0	-3.71698740052408	0.0	-4.27434314734971	0.0	-3.71698740052408	0.0	0.23353638060087878	-5.854465882860499	-0.6546936972155126	-4.488762675230135	-5.641701486694156	-0.6546936972155126	-0.5178744944202365	-3.0314294016543974	-3.2649657822552722	-2.7737950841310495	-3.735364495944963	3	missed	0.0
321.57060680002905	6.761813999968581	go_reward	0.3243524000281468	321.63471840001876	323.8555768000076	326.40785300004086	2.220858399988856	322.6395169000025	325.38486759999046	327.4191376999952	1.2160599000051207	1.022985400050402	0.9773946999921463	n/a	1.0	n/a	2	0	49	2	go_reward	1	1	0	1	1	1	1	n/a	n/a	1	0.3243524000281468	1.0	1690.6202246000175	2012.2549430000363	2013.25974150002	2014.4758014000251	2016.005092200008	2017.0280776000584	n/a	n/a	2018.0393623000127	2019.0167570000049	2020-05-12 13:36:14.235545	10.7513176923194	11.8095725501671	0.0	11.8095725501671	10.7513176923194	0.0	-10.7513176923194	11.8095725501671	0.0	10.7513176923194	0.0	0.5886430891806995	7.267866672396199	10.229449814656313	-0.6546936972155126	9.068635888852846	8.826603606149325	-0.6546936972155126	0.07076859476046304	7.719888290665002	0.4520216182688079	9.035777466036052	0.5389786514047473	3	missed	0.0
328.3604888000407	7.551034300005995	go_punish	0.2595957000157796	328.4246004000304	330.9435415000189	333.48068290000083	2.518941099988524	329.43166270002257	332.4609266000334	334.4944904000149	1.5118787999963388	1.019756299967412	1.4811443000214695	n/a	1.0	n/a	2	0	50	4	go_punish	1	0	-1	1	1	1	0	n/a	n/a	0	0.2595957000157796	1.0	1690.6202246000175	2019.044825000048	2020.05188730004	2021.5637661000364	2023.081151200051	2024.1009075000184	n/a	n/a	2025.1147150000324	2026.595859300054	2020-05-12 13:36:14.235545	0.566079396926024	-2.37919454084804	-2.37185020109809	-2.38434756484188	-1.80577080417207	-2.37185020109809	-0.566079396926024	-2.37919454084804	-2.37185020109809	-1.80577080417207	-2.37185020109809	2.37919454084804	-2.9173716229971776	-3.9593172763588287	-3.0265438983136024	-5.125284226156134	-3.730484890342146	-3.0265438983136024	1.8613200464278037	-4.837200205826467	-1.919828582829282	-5.15298962497909	-1.8328715496933428	3	missed	0.0
335.9567060000263	6.619141499977559	go_reward	0.5295622999547049	336.020817600016	337.88258810003754	340.4345030999975	1.861770500021521	337.0257115000272	339.4155318000121	341.4436768000014	0.8568766000103096	1.0189712999854237	1.1962822999921627	n/a	1.0	n/a	2	0	51	2	go_reward	1	1	0	1	1	1	1	n/a	n/a	1	0.5295622999547049	1.0	1690.6202246000175	2026.6410422000336	2027.6459361000448	2028.502812700055	2030.0357564000296	2031.054727700015	n/a	n/a	2032.063901400019	2033.260183700011	2020-05-12 13:36:14.235545	10.9442157744664	12.0390484156832	0.0	12.0390484156832	10.9442157744664	0.0	-10.9442157744664	12.0390484156832	0.0	10.9442157744664	0.0	0.35916722366460085	7.460764754543199	10.45892568017241	-0.6546936972155126	9.298111754368945	9.019501688296325	-0.6546936972155126	-0.15870727075563562	7.912786372812002	0.4520216182688079	9.265253331552149	0.5389786514047473	3	missed	0.0
342.60826990002556	6.283729900023673	nogo_reward	1.0	342.67238150001526	344.6757345999945	347.20151119999355	2.003353099979222	343.67820200003916	346.1781717999836	348.1997698000048	0.9975325999553206	1.0233394000099452	0.7563416000341476	n/a	1.0	n/a	2	0	52	1	nogo_reward	1	0	1	0	0	1	0	n/a	n/a	1	1.0	1.0	1690.6202246000175	2033.2926061000328	2034.2984266000567	2035.295959200012	2036.7983964000011	2037.821735800011	n/a	n/a	2038.8199944000223	2039.5763360000565	2020-05-12 13:36:14.235545	7.87998018473093	1.34033721709819	8.56389859353245	8.58771908064046	0.683918408801519	8.56389859353245	-7.87998018473093	8.56389859353245	1.34033721709819	8.56389859353245	0.683918408801519	3.83431704581535	4.3965291648077285	-0.23978551841259854	7.909204896316937	5.846782419326205	-1.2407956773685571	7.909204896316937	3.316442551395114	5.532469191878052	1.1359400270703268	5.7901035094014	1.8793158685029372	3	missed	0.0
348.9216813000385	6.245017100009136	nogo_reward	1.0	348.9857929000282	350.6803549000181	353.2137606000181	1.6945619999899009	349.9838439000305	352.19077929999935	354.2270357999953	0.6965109999875949	1.0229813000187278	1.0037742000420167	n/a	1.0	n/a	2	0	53	1	nogo_reward	1	0	1	0	0	1	0	n/a	n/a	1	1.0	1.0	1690.6202246000175	2039.6060175000457	2040.604068500048	2041.3005795000356	2042.8110039000169	2043.8339852000356	n/a	n/a	2044.8472604000128	2045.8510346000548	2020-05-12 13:36:14.235545	9.79196951052768	1.34033721709819	10.2873147017102	10.3038769146186	0.495345191182497	10.2873147017102	-9.79196951052768	10.2873147017102	1.34033721709819	10.2873147017102	0.495345191182497	2.1109009376376004	6.308518490604479	-0.23978551841259854	9.632621004494688	7.562940253304346	-1.429368894987579	9.632621004494688	1.593026443217364	7.255885300055802	0.9473668094513048	7.51351961757915	1.8793158685029372	3	missed	0.0
355.1954261000499	6.587513399950922	go_punish	0.4850184000097215	355.2595377000396	356.82690290000755	359.3806784999906	1.5673651999679805	356.2662808999885	358.35990889999084	360.38469149998855	0.560622000019066	1.0207695999997668	1.462359600001946	n/a	1.0	n/a	2	0	54	4	go_punish	1	0	-1	1	1	1	0	n/a	n/a	0	0.4850184000097215	1.0	1690.6202246000175	2045.879762300057	2046.886505500006	2047.447127500025	2048.9801335000084	2050.000903100008	n/a	n/a	2051.004916100006	2052.467275700008	2020-05-12 13:36:14.235545	1.60900839528919	-1.2365613309329	-2.37185020109809	-1.24021886826872	-0.762841805808904	-2.37185020109809	-1.60900839528919	-1.2365613309329	-2.37185020109809	-0.762841805808904	-2.37185020109809	1.2365613309329	-1.8744426246340113	-2.8166840664436883	-3.0265438983136024	-3.981155529582975	-2.68755589197898	-3.0265438983136024	0.7186868365126635	-3.7942712074633014	-1.919828582829282	-4.010356415063949	-1.8328715496933428	3	missed	0.0
361.8283266000217	7.811545400007162	nogo_punish	1.0	361.8924382000114	364.66083190002246	367.19382340001175	2.7683937000110745	362.8978299000305	366.1707724999869	368.2109259000281	1.7630019999919568	1.0230509000248276	1.4930576999904588	n/a	1.0	n/a	2	0	55	3	nogo_punish	0	0	-1	0	0	1	0	n/a	n/a	-1	1.0	1.0	1690.6202246000175	2052.512662800029	2053.518054500048	2055.28105650004	2056.7909971000045	2057.8140480000293	n/a	n/a	2058.8311505000456	2060.324208200036	2020-05-12 13:36:14.235545	3.80628046191109	-4.27434314734971	0.0	-0.979152332996541	-3.80628046191109	0.0	-3.80628046191109	0.0	-4.27434314734971	0.0	-3.80628046191109	-5.26273157378244	0.32282944198788854	-5.854465882860499	-0.6546936972155126	-3.720088994310796	-5.730994548081166	-0.6546936972155126	-5.780606068202676	-3.0314294016543974	-3.354258843642282	-2.7737950841310495	-3.735364495944963	3	missed	0.0
369.6835706999991	6.711067700001877	nogo_punish	1.0	369.7476822999888	371.4813591000275	373.99843790003797	1.7336768000386655	370.74973340000724	372.98368820000906	375.0036459999974	0.7316257000202313	1.014749700028915	1.4551039999932982	n/a	1.0	n/a	2	0	56	3	nogo_punish	1	-1	0	0	0	1	0	n/a	n/a	0	1.0	1.0	1690.6202246000175	2060.3679069000063	2061.369958000025	2062.101583700045	2063.6039128000266	2064.6186625000555	n/a	n/a	2065.623870600015	2067.078974600008	2020-05-12 13:36:14.235545	1.23499860402316	-4.27434314734971	-2.37185020109809	-2.94187769987796	-3.60684880512126	-2.37185020109809	-1.23499860402316	-2.37185020109809	-4.27434314734971	-2.37185020109809	-3.60684880512126	2.37185020109809	-2.2484524159000414	-5.854465882860499	-3.0265438983136024	-5.682814361192214	-5.531562891291336	-3.0265438983136024	1.8539757066778535	-5.403279602752487	-3.1548271868524522	-5.14564528522914	-3.735364495944963	3	missed	0.0
376.4385597000369	6.212529899959918	go_reward	0.405425600009039	376.5026713000266	378.2887486999971	380.8377996000345	1.7860773999705088	377.51066989998753	379.8199767000042	381.84764210000867	0.7780788000095527	1.0178229000302963	0.8675590999778251	n/a	1.0	n/a	2	0	57	2	go_reward	1	1	0	1	1	1	0	n/a	n/a	1	0.405425600009039	1.0	1690.6202246000175	2067.122895900044	2068.130894500005	2068.9089733000146	2070.4402013000217	2071.458024200052	n/a	n/a	2072.467866700026	2073.335425800004	2020-05-12 13:36:14.235545	11.0544904751865	12.1727238986042	0.0	12.1727238986042	11.0544904751865	0.0	-11.0544904751865	12.1727238986042	0.0	11.0544904751865	0.0	0.22549174074359968	7.571039455263298	10.592601163093413	-0.6546936972155126	9.431787237289946	9.129776389016424	-0.6546936972155126	-0.2923827536766368	8.023061073532102	0.4520216182688079	9.398928814473152	0.5389786514047473	3	missed	0.0
382.67888290004294	6.657252899953619	go_punish	0.3482531000045128	382.74299450003264	384.52382240002044	387.0713068000041	1.7808278999877984	383.7515592999989	386.05190520000224	388.07827110000653	0.7722631000215188	1.0194016000018564	1.321976299979724	n/a	1.0	n/a	2	0	58	4	go_punish	1	0	-1	1	1	1	0	n/a	n/a	0	0.3482531000045128	1.0	1690.6202246000175	2073.36321910005	2074.3717839000165	2075.144047000038	2076.67212980002	2077.6915314000216	n/a	n/a	2078.698495700024	2080.020472000004	2020-05-12 13:36:14.235545	2.11118011733019	-0.674742176648358	-2.37185020109809	-0.677365942423484	-0.260670083767898	-2.37185020109809	-2.11118011733019	-0.674742176648358	-2.37185020109809	-0.260670083767898	-2.37185020109809	0.674742176648358	-1.3722709025930113	-2.2548649121591464	-3.0265438983136024	-3.418302603737739	-2.185384169937974	-3.0265438983136024	0.15686768222812153	-3.2920994854222956	-1.919828582829282	-3.4485372607794074	-1.8328715496933428	3	missed	0.0
389.38291800004663	6.549938099982683	nogo_punish	1.0	389.44702960003633	391.49751479999395	394.03424820001237	2.0504851999576204	390.4515659000026	393.01501189998817	395.0482653999934	1.0459488999913447	1.019236300024204	0.9487023000256158	n/a	1.0	n/a	2	0	59	3	nogo_punish	1	-1	0	0	0	1	0	n/a	n/a	0	1.0	1.0	1690.6202246000175	2080.067254200054	2081.07179050002	2082.1177394000115	2083.6352365000057	2084.65447280003	n/a	n/a	2085.668490000011	2086.6171923000365	2020-05-12 13:36:14.235545	2.50812239201272	-4.27434314734971	-1.23140830693907	-1.57430276872522	-3.73953069895179	-1.23140830693907	-2.50812239201272	-1.23140830693907	-4.27434314734971	-1.23140830693907	-3.73953069895179	1.23140830693907	-0.9753286279104816	-5.854465882860499	-1.8861020041545826	-4.315239430039475	-5.664244785121866	-1.8861020041545826	0.7135338125188335	-4.262837708593468	-3.287509080682982	-4.005203391070119	-3.735364495944963	3	missed	0.0
395.96143850003136	6.274977499968372	go_punish	0.2552191999857314	396.02555010002106	398.00089830003026	400.5359689000179	1.9753482000091935	397.03286490001483	399.5178348000045	401.5457164000254	0.9680334000154289	1.0181341000134125	0.7548111999640241	n/a	1.0	n/a	2	0	60	4	go_punish	0	-1	0	1	1	1	1	n/a	n/a	-1	0.2552191999857314	1.0	1690.6202246000175	2086.6457747000386	2087.6530895000324	2088.621122900048	2090.138059400022	2091.1561935000354	n/a	n/a	2092.165941000043	2092.920752200007	2020-05-12 13:36:14.235545	2.36639986228818	-0.383515481900187	-2.37185020109809	-0.38541616402408	-0.0054503388099157	-2.37185020109809	-2.36639986228818	-0.383515481900187	-2.37185020109809	-0.0054503388099157	-2.37185020109809	-4.8792160918822525	-1.1170511576350215	-1.9636382174109754	-3.0265438983136024	-3.126352825338335	-1.9301644249799916	-3.0265438983136024	-5.397090586302489	-3.0368797404643133	-1.919828582829282	-3.1573105660312364	-1.8328715496933428	3	missed	0.0
