onset	duration	trial_type	response_time	cueOnset	targetOnset	fbOnset	cueRT	firstfixOnset	secondfixOnset	waitOnset	firstfixdur	secondfixdur	waitdur	nback_fbOnset	nback_response_time	nback_targetOnset	block	wm	trial	cue	cond	is_common	outcome_go	outcome_nogo	key_correct	key_pressed	is_correct	key_correct_nback	key_pressed_nback	is_correct_nback	outcome	rt	rt_nback	time_scan	time_onset	time_isi1	time_circle	time_isi2	time_feedback	time_same	time_correct	time_iti	time_done	timestamp_scan	DV	Qgo	Qnogo	SV	Wgo	Wnogo	mDV	Qchosen	Qunchosen	Wchosen	Wunchosen	PE	DVC	QgoC	QnogoC	SVC	WgoC	WnogoC	PEC	WchosenC	WunchosenC	QchosenC	QunchosenC	run	outcome_nback	nback_targetResp
0.0	6.305867100018531	nogo_punish	0.3332673999830149	0.026902399957180023	1.8858770999941044	4.429675799969118	1.8589747000369243	1.0424831999698654	3.4121831000084057	5.4420643000048585	0.843393900024239	1.0174926999607123	0.8907051999708528	n/a	1.0	n/a	2	0	61	3	nogo_punish	0	0	-1	0	1	0	1	n/a	n/a	0	0.3332673999830149	1.0	2157.715912100044	2157.7428145000013	2158.758395300014	2159.601789200038	2161.1280952000525	2162.145587900013	n/a	n/a	2163.157976400049	2164.04868160002	2020-05-12 13:44:01.333453	-3.14885365701829	-4.27434314734971	-0.671084639312545	-0.883269851894178	-3.81993829633083	-0.671084639312545	3.14885365701829	-4.27434314734971	-0.671084639312545	-3.81993829633083	-0.671084639312545	4.27434314734971	-6.632304676941491	-5.854465882860499	-1.3257783365280575	-3.624206513208433	-5.744652382500906	-1.3257783365280575	3.756468652929474	-6.851367697985228	-0.21906302104373715	-7.04813823148076	-0.1321059879077977	4	missed	0.0
6.3370477000135	6.530264500004705	nogo_reward	0.3386268999893218	6.36395009997068	8.19762880000053	10.726178999990225	1.83367870002985	7.37914340000134	9.70676470000808	11.740723099967	0.8184853999991901	1.0194142999821452	1.1534915000083856	n/a	1.0	n/a	2	0	62	1	nogo_reward	1	0	1	0	1	0	0	n/a	n/a	0	0.3386268999893218	1.0	2157.715912100044	2164.0798622000148	2165.0950555000454	2165.9135409000446	2167.422676800052	2168.4420911000343	n/a	n/a	2169.456635200011	2170.6101267000195	2020-05-12 13:44:01.333453	-10.8039216640058	1.34033721709819	11.183841187447	11.1954865958431	0.379919523441195	11.183841187447	10.8039216640058	1.34033721709819	11.183841187447	0.379919523441195	11.183841187447	-1.34033721709819	-14.287372683929002	-0.23978551841259854	10.529147490231487	8.454549934528846	-1.544794562728881	10.529147490231487	-1.8582117115184265	-2.6515098782132025	11.635862805715806	-1.4334578670328595	11.722819838851747	4	missed	0.0
12.896841600013431	5.651497000013478	nogo_reward	1.0	12.923743999970611	14.286576299986336	16.81207970000105	1.3628323000157252	13.929615299974103	15.788821699970867	17.81532850000076	0.35696100001223385	1.0232580000301823	0.7599124999833293	n/a	1.0	n/a	2	0	63	1	nogo_reward	1	0	1	0	0	1	0	n/a	n/a	1	1.0	1.0	2157.715912100044	2170.6396561000147	2171.645527400018	2172.0024884000304	2173.504733800015	2174.527991800045	n/a	n/a	2175.531240600045	2176.291153100028	2020-05-12 13:44:01.333453	10.8772072468794	0.779001560830105	11.183841187447	5.86963445928499	0.306633940567665	11.183841187447	-10.8772072468794	11.183841187447	0.779001560830105	11.183841187447	0.306633940567665	1.2143744519008006	7.393756226956199	-0.8011211746806836	10.529147490231487	3.128697797970735	-1.618080145602411	10.529147490231487	0.6964999574805641	8.152411785792602	0.758655558836473	8.410046103315949	1.3179802122348523	4	missed	0.0
18.5944288000469	6.305068899992875	nogo_punish	1.0	18.62133120000408	20.480079900007695	22.998110499989707	1.8587487000036162	19.61476450000191	21.983463099983055	24.009638899995934	0.8653154000057839	1.0146474000066519	0.9167612000010195	n/a	1.0	n/a	2	0	64	3	nogo_punish	1	-1	0	0	0	1	0	n/a	n/a	0	1.0	1.0	2157.715912100044	2176.337243300048	2177.330676600046	2178.195992000052	2179.699375200027	2180.714022600034	n/a	n/a	2181.72555100004	2182.642312200041	2020-05-12 13:44:01.333453	1.20719370604714	-2.28338466237668	-0.671084639312545	-0.515483479661668	-1.87827834535968	-0.671084639312545	-1.20719370604714	-0.671084639312545	-2.28338466237668	-0.671084639312545	-1.87827834535968	0.671084639312545	-2.2762573138760613	-3.8635073978874686	-1.3257783365280575	-3.256420140975923	-3.802992431529756	-1.3257783365280575	0.15321014489230855	-3.7025140409669426	-1.4262567270908721	-3.4448797234435946	-1.7444060109719328	4	missed	0.0
24.93024520005565	7.2952577999681125	nogo_reward	1.0	24.95714760001283	27.24081409996097	29.76240740000503	2.28366649994814	25.961926199961	28.748762100004114	30.774577300006058	1.2788878999999724	1.013645300000917	1.4778280999748858	n/a	1.0	n/a	2	0	65	1	nogo_reward	1	0	1	0	0	1	1	n/a	n/a	1	1.0	1.0	2157.715912100044	2182.673059700057	2183.677838300005	2184.956726200005	2186.464674200048	2187.478319500049	n/a	n/a	2188.49048940005	2189.968317500025	2020-05-12 13:44:01.333453	11.6318999382852	0.779001560830105	11.6733611868552	9.04583927826991	0.0414612485700201	11.6733611868552	-11.6318999382852	11.6733611868552	0.779001560830105	11.6733611868552	0.0414612485700201	0.7248544524926004	8.148448918361998	-0.8011211746806836	11.018667489639688	6.304902616955655	-1.883252837600056	11.018667489639688	0.2069799580723639	8.641931785200802	0.49348286683882797	8.899566102724151	1.3179802122348523	4	missed	0.0
32.27073690004181	6.5922409999770935	go_reward	0.3427712999982759	32.29763929999899	34.217328700004146	36.7738137000124	1.9196894000051543	33.298232099972665	35.750759799964726	37.7924455999746	0.9190966000314802	1.023053900047671	1.097434700001486	n/a	1.0	n/a	2	0	66	2	go_reward	1	1	0	1	1	1	0	n/a	n/a	1	0.3427712999982759	1.0	2157.715912100044	2190.013551400043	2191.0141442000167	2191.933240800048	2193.466671900009	2194.4897258000565	n/a	n/a	2195.5083577000187	2196.60579240002	2020-05-12 13:44:01.333453	11.1196327570475	12.2530943794249	0.0	12.2530943794249	11.1196327570475	0.0	-11.1196327570475	12.2530943794249	0.0	11.1196327570475	0.0	0.1451212599229006	7.636181737124298	10.67297164391411	-0.6546936972155126	9.512157718110645	9.194918670877424	-0.6546936972155126	-0.3727532344973359	8.088203355393102	0.4520216182688079	9.479299295293849	0.5389786514047473	4	missed	0.0
38.893418100022245	7.29756630002521	nogo_reward	1.0	38.920320499979425	41.27674509998178	43.809783899981994	2.356424600002356	39.91950379998889	42.79417079995619	44.82039289997192	1.357241299992893	1.0156131000258029	1.397493900032714	n/a	1.0	n/a	2	0	67	1	nogo_reward	1	0	1	0	0	1	1	n/a	n/a	1	1.0	1.0	2157.715912100044	2196.6362326000235	2197.635415900033	2198.992657200026	2200.5100829000003	2201.525696000026	n/a	n/a	2202.536305000016	2203.9337989000487	2020-05-12 13:44:01.333453	12.0707001560894	0.779001560830105	11.9517761908554	10.5803408967268	-0.118923965233993	11.9517761908554	-12.0707001560894	11.9517761908554	0.779001560830105	11.9517761908554	-0.118923965233993	0.44643944849240036	8.587249136166198	-0.8011211746806836	11.297082493639888	7.839404235412545	-2.043638051404069	11.297082493639888	-0.07143504592783612	8.920346789201002	0.33309765303481487	9.17798110672435	1.3179802122348523	4	missed	0.0
46.2347129000118	6.667103299987957	go_reward	0.304089399985969	46.26161529996898	48.43220729997847	50.962762799987104	2.170592000009492	47.26864999998406	49.95379800000228	51.96660919999704	1.1635572999944088	1.008964799984824	0.9621093999598997	n/a	1.0	n/a	2	0	68	2	go_reward	0	0	1	1	1	1	1	n/a	n/a	0	0.304089399985969	1.0	2157.715912100044	2203.977527400013	2204.984562100028	2206.1481194000226	2207.6697101000464	2208.678674900031	n/a	n/a	2209.682521300041	2210.644630700001	2020-05-12 13:44:01.333453	11.159237155702	12.3027701526065	0.0	12.3027701526065	11.159237155702	0.0	-11.159237155702	12.3027701526065	0.0	11.159237155702	0.0	-12.3027701526065	7.675786135778798	10.722647417095711	-0.6546936972155126	9.561833491292246	9.234523069531924	-0.6546936972155126	-12.820644647026738	8.127807754047602	0.4520216182688079	9.52897506847545	0.5389786514047473	4	missed	0.0
52.92916810000315	6.544705700012855	go_punish	0.3070676000206731	52.95607049996033	54.742182999965735	57.279232000000775	1.7861125000054017	53.96303300000773	56.25975049997214	58.28788389998954	0.7791499999580083	1.0194815000286326	1.2128922999836504	n/a	1.0	n/a	2	0	69	4	go_punish	1	0	-1	1	1	1	0	n/a	n/a	0	0.3070676000206731	1.0	2157.715912100044	2210.6719826000044	2211.678945100052	2212.45809510001	2213.975662600016	2214.995144100045	n/a	n/a	2216.0037960000336	2217.2166883000173	2020-05-12 13:44:01.333453	0.384280575406837	-2.59756642852131	-2.37185020109809	-2.59895580599048	-1.98756962569125	-2.37185020109809	-0.384280575406837	-2.59756642852131	-2.37185020109809	-1.98756962569125	-2.37185020109809	2.59756642852131	-3.099170444516364	-4.177689164032099	-3.0265438983136024	-5.339892467304734	-3.912283711861326	-3.0265438983136024	2.0796919341010733	-5.0189990273456475	-1.919828582829282	-5.37136151265236	-1.8328715496933428	4	missed	0.0
59.51975080004195	5.954995199979749	nogo_punish	0.4076314999838359	59.54665319999913	61.04058259999147	63.59155750001082	1.4939293999923393	60.539827700005844	62.57392439997011	64.60161819995847	0.5007548999856226	1.0176331000407117	0.9000302000204101	n/a	1.0	n/a	2	0	70	3	nogo_punish	1	-1	0	0	1	0	0	n/a	n/a	-1	0.4076314999838359	1.0	2157.715912100044	2217.262565300043	2218.25573980005	2218.7564947000355	2220.289836500014	2221.307469600055	n/a	n/a	2222.3175303000025	2223.217560500023	2020-05-12 13:44:01.333453	-1.52809927823055	-2.28338466237668	-0.380891716125061	-0.311075146916546	-1.90899099435561	-0.380891716125061	1.52809927823055	-2.28338466237668	-0.380891716125061	-1.90899099435561	-0.380891716125061	-2.97934691140576	-5.011550298153751	-3.8635073978874686	-1.0355854133405735	-3.0520118082308008	-3.833705080525686	-1.0355854133405735	-3.4972214058259965	-4.9404203960100075	0.07112990214374687	-5.05717974650773	0.1580869352796863	4	missed	0.0
65.51875200000359	7.854175800050143	nogo_punish	1.0	65.54565439996077	68.37622279999778	70.90636470000027	2.8305684000370093	66.54505379998591	69.88658910000231	71.91386719996808	1.8311690000118688	1.0197755999979563	1.4859630000428297	n/a	1.0	n/a	2	0	71	3	nogo_punish	1	-1	0	0	0	1	0	n/a	n/a	0	1.0	1.0	2157.715912100044	2223.261566500005	2224.26096590003	2226.092134900042	2227.6025012000464	2228.6222768000443	n/a	n/a	2229.629779300012	2231.115742300055	2020-05-12 13:44:01.333453	2.65782952901973	-3.64764210183503	-0.380891716125061	-2.56506014685174	-3.03872124514479	-0.380891716125061	-2.65782952901973	-0.380891716125061	-3.64764210183503	-0.380891716125061	-3.03872124514479	0.380891716125061	-0.8256214909034716	-5.227764837345818	-1.0355854133405735	-5.305996808165995	-4.963435331314866	-1.0355854133405735	-0.13698277829517547	-3.4123211177794586	-2.586699626875982	-3.1546868002561106	-3.108663450430283	4	missed	0.0
73.41665190004278	6.94966340000974	go_reward	0.3168909999658353	73.44355429999996	75.86941240000306	78.39225500001294	2.425858100003097	74.45043899997836	77.38014219998149	79.39990519999992	1.4189734000246972	1.0121128000314457	0.9933125000097789	n/a	1.0	n/a	2	0	72	2	go_reward	0	0	1	1	1	1	0	n/a	n/a	0	0.3168909999658353	1.0	2157.715912100044	2231.159466400044	2232.1663511000224	2233.585324500047	2235.0960543000256	2236.108167100057	n/a	n/a	2237.115817300044	2238.109129800054	2020-05-12 13:44:01.333453	5.93165138688799	6.52223126718536	0.0	6.52223126718536	5.93165138688799	0.0	-5.93165138688799	6.52223126718536	0.0	5.93165138688799	0.0	-6.52223126718536	2.4482003669647883	4.942108531674571	-0.6546936972155126	3.7812946058711048	4.006937300717913	-0.6546936972155126	-7.040105761605596	2.900221985233592	0.4520216182688079	3.7484361830543103	0.5389786514047473	4	missed	0.0
80.39611950004473	6.462004799977876	nogo_reward	1.0	80.42302190000191	82.11337999999569	84.6469087000005	1.690358099993773	81.42843159998301	83.62373140000273	85.65680789999897	0.6849484000126722	1.0231772999977693	1.228218799980823	n/a	1.0	n/a	2	0	73	1	nogo_reward	1	0	1	0	0	1	0	n/a	n/a	1	1.0	1.0	2157.715912100044	2238.138934000046	2239.144343700027	2239.8292921000398	2241.339643500047	2242.3628208000446	n/a	n/a	2243.372720000043	2244.600938800024	2020-05-12 13:44:01.333453	12.3322392514216	0.779001560830105	12.1157381022739	11.3669824103988	-0.21650114914769	12.1157381022739	-12.3322392514216	12.1157381022739	0.779001560830105	12.1157381022739	-0.21650114914769	0.2824775370739001	8.848788231498398	-0.8011211746806836	11.461044405058388	8.626045749084545	-2.141215235317766	11.461044405058388	-0.23539695734633637	9.084308700619502	0.23552046912111788	9.34194301814285	1.3179802122348523	4	missed	0.0
86.88570800004527	7.119598699966446	go_punish	1.0	86.91261040000245	89.12596999999369	91.66694269998698	2.213359599991236	87.91518229997018	90.64379800000461	92.6775913999877	1.2107877000235021	1.0231446999823675	1.3546176999811905	n/a	1.0	n/a	2	0	74	4	go_punish	1	0	-1	1	0	0	0	n/a	n/a	-1	1.0	1.0	2157.715912100044	2244.6285225000465	2245.6310944000143	2246.8418821000378	2248.3597101000487	2249.382854800031	n/a	n/a	2250.393503500032	2251.748121200013	2020-05-12 13:44:01.333453	-1.50096545430993	-1.36832367525999	-2.37185020109809	-1.36934784059232	-0.870884746788159	-2.37185020109809	1.50096545430993	-2.37185020109809	-1.36832367525999	-2.37185020109809	-0.870884746788159	-2.89088137268435	-4.984416474233131	-2.948446410770779	-3.0265438983136024	-4.110284501906575	-2.795598832958235	-3.0265438983136024	-3.4087558671045866	-5.403279602752487	-0.4188631285193511	-5.14564528522914	-0.8293450238552428	4	missed	0.0
94.03283970005577	6.690826799953356	go_punish	0.299798300024122	94.05974210001295	95.87730739999097	98.42772239999613	1.817565299978014	95.06776700000046	97.4141572999647	99.42947089998052	0.8095403999905102	1.0135651000314283	1.3210979999857955	n/a	1.0	n/a	2	0	75	4	go_punish	1	0	-1	1	1	1	0	n/a	n/a	0	0.299798300024122	1.0	2157.715912100044	2251.775654200057	2252.7836791000445	2253.593219500035	2255.130069400009	2256.14363450004	n/a	n/a	2257.1453830000246	2258.4664810000104	2020-05-12 13:44:01.333453	2.91863485973546	-1.36832367525999	-3.60325850803716	-3.12897200879453	-0.684623648301702	-3.60325850803716	-2.91863485973546	-1.36832367525999	-3.60325850803716	-0.684623648301702	-3.60325850803716	1.36832367525999	-0.5648161601877413	-2.948446410770779	-4.257952205252673	-5.869908670108785	-2.609337734471778	-4.257952205252673	0.8504491808397536	-3.7160530499560993	-3.1512368897683523	-4.14211875939104	-3.064279856632413	4	missed	0.0
100.7698456000071	7.427349200006574	nogo_punish	1.0	100.79674799996428	103.5050052999868	106.01847939996514	2.708257300022524	101.80183010001201	105.01010829996085	107.02630500000669	1.703175199974794	1.0083711000042967	1.1977921999641694	n/a	1.0	n/a	2	0	76	3	nogo_punish	1	-1	0	0	0	1	0	n/a	n/a	0	1.0	1.0	2157.715912100044	2258.5126601000084	2259.517742200056	2261.220917400031	2262.726020400005	2263.734391500009	n/a	n/a	2264.7422171000508	2265.940009300015	2020-05-12 13:44:01.333453	2.92626528141216	-3.64764210183503	-0.223815545299329	-1.35446328913173	-3.15008082671149	-0.223815545299329	-2.92626528141216	-0.223815545299329	-3.64764210183503	-0.223815545299329	-3.15008082671149	0.223815545299329	-0.5571857385110413	-5.227764837345818	-0.8785092425148416	-4.0953999504459855	-5.074794912881566	-0.8785092425148416	-0.29405894912090746	-3.2552449469537263	-2.698059208442682	-2.9976106294303784	-3.108663450430283	4	missed	0.0
108.24049240001477	6.502061200037133	nogo_punish	1.0	108.26739479997195	109.84450690000085	112.36141149996502	1.5771121000288986	109.28444119996857	111.33871420001378	113.37170519999972	0.5600657000322826	1.0226972999512327	1.3977508000093621	n/a	1.0	n/a	2	0	77	3	nogo_punish	0	0	-1	0	0	1	0	n/a	n/a	-1	1.0	1.0	2157.715912100044	2265.983306900016	2267.0003533000126	2267.560419000045	2269.054626300058	2270.077323600009	n/a	n/a	2271.087617300044	2272.485368100053	2020-05-12 13:44:01.333453	3.08179621772052	-3.64764210183503	-0.135525990851751	-0.75120915525116	-3.21732220857227	-0.135525990851751	-3.08179621772052	-0.135525990851751	-3.64764210183503	-0.135525990851751	-3.21732220857227	-5.127205582930689	-0.40165480220268135	-5.227764837345818	-0.7902196880672636	-3.492145816565415	-5.142036294742346	-0.7902196880672636	-5.645080077350925	-3.166955392506148	-2.765300590303462	-2.9093210749828007	-3.108663450430283	4	missed	0.0
114.77102450001985	6.494322200014722	go_punish	0.3558279999997467	114.79792689997703	116.45846669998764	119.00004879996413	1.6605398000106106	115.80483819998335	117.99169190000976	120.00713189999806	0.6536285000042881	1.0083568999543786	1.2851171999936923	n/a	1.0	n/a	2	0	78	4	go_punish	1	0	-1	1	1	1	0	n/a	n/a	0	0.3558279999997467	1.0	2157.715912100044	2272.513839000021	2273.5207503000274	2274.1743788000317	2275.707604000054	2276.715960900008	n/a	n/a	2277.723044000042	2279.008161200036	2020-05-12 13:44:01.333453	3.39061289009059	-0.756360953029546	-3.60325850803716	-1.66724002579519	-0.212645617946568	-3.60325850803716	-3.39061289009059	-0.756360953029546	-3.60325850803716	-0.212645617946568	-3.60325850803716	0.756360953029546	-0.0928381298326113	-2.3364836885403344	-4.257952205252673	-4.408176687109445	-2.137359704116644	-4.257952205252673	0.2384864586093095	-3.2440750196009653	-3.1512368897683523	-3.5301560371605953	-3.064279856632413	4	missed	0.0
121.3115008000168	6.022187600028701	go_reward	0.3016476000193506	121.33840319997398	123.02662119996967	125.58373259997461	1.6882179999956861	122.35683239996433	124.5608311999822	126.59379359998275	0.6697888000053354	1.0229013999924064	0.766797200019937	n/a	1.0	n/a	2	0	79	2	go_reward	1	1	0	1	1	1	0	n/a	n/a	1	0.3016476000193506	1.0	2157.715912100044	2279.054315300018	2280.0727445000084	2280.7425333000137	2282.2767433000263	2283.2996447000187	n/a	n/a	2284.309705700027	2285.0765029000468	2020-05-12 13:44:01.333453	3.37531918409792	3.63072104629055	0.0	3.63072104629055	3.37531918409792	0.0	-3.37531918409792	3.63072104629055	0.0	3.37531918409792	0.0	8.76749459305725	-0.10813183582528119	2.0505983107797614	-0.6546936972155126	0.889784384976295	1.4506050979278442	-0.6546936972155126	8.249620098637013	0.34388978244352275	0.4520216182688079	0.8569259621595005	0.5389786514047473	4	missed	0.0
127.36353310005507	6.018861799966544	nogo_reward	1.0	127.39043550001225	128.94337990001077	131.47353119996842	1.5529443999985233	128.3832533999812	130.45349340001167	132.47894130001077	0.5601265000295825	1.0200377999567536	0.9303559999680147	n/a	1.0	n/a	2	0	80	1	nogo_reward	0	1	0	0	0	1	0	n/a	n/a	0	1.0	1.0	2157.715912100044	2285.1063476000563	2286.0991655000253	2286.659292000055	2288.1694055000557	2289.1894433000125	n/a	n/a	2290.194853400055	2291.125209400023	2020-05-12 13:44:01.333453	12.4919262556266	0.779001560830105	12.2152475031571	11.7905998720529	-0.276678752469497	12.2152475031571	-12.4919262556266	12.2152475031571	0.779001560830105	12.2152475031571	-0.276678752469497	-12.2152475031571	9.008475235703399	-0.8011211746806836	11.560553805941588	9.049663210738645	-2.201392838639573	11.560553805941588	-12.733121997577337	9.183818101502702	0.17534286579931085	9.44145241902605	1.3179802122348523	4	missed	0.0
133.42886640003417	6.101737599994522	nogo_punish	1.0	133.45576879999135	135.24329309997847	137.76555339997867	1.7875242999871261	134.45495449996088	136.7461939000059	138.7793321000063	0.788338600017596	1.0193594999727793	0.7781742999795824	n/a	1.0	n/a	2	0	81	3	nogo_punish	1	-1	0	0	0	1	0	n/a	n/a	0	1.0	1.0	2157.715912100044	2291.1716809000354	2292.170866600005	2292.9592052000226	2294.46210600005	2295.4814655000228	n/a	n/a	2296.4952442000504	2297.27341850003	2020-05-12 13:44:01.333453	0.548256758279002	-3.64764210183503	-2.45610234948276	-2.8059458549816	-3.00435910776176	-2.45610234948276	-0.548256758279002	-2.45610234948276	-3.64764210183503	-2.45610234948276	-3.00435910776176	2.45610234948276	-2.9351942616441993	-5.227764837345818	-3.1107960466982725	-5.546882516295855	-4.929073193931836	-3.1107960466982725	1.9382278550625236	-5.4875317511371575	-2.552337489492952	-5.229897433613809	-3.108663450430283	4	missed	0.0
139.55853700003354	6.375949100009166	go_punish	0.6365814000018872	139.58543939999072	141.1526448999648	143.70074409997324	1.5672054999740794	140.5927807000121	142.6810920999851	144.71220879996008	0.559864199952699	1.0196519999881275	1.2491797000398037	n/a	1.0	n/a	2	0	82	4	go_punish	1	0	-1	1	1	1	0	n/a	n/a	0	0.6365814000018872	1.0	2157.715912100044	2297.301351500035	2298.308692800056	2298.868557000009	2300.397004200029	2301.4166562000173	n/a	n/a	2302.428120900004	2303.677300600044	2020-05-12 13:44:01.333453	3.62727576280922	-0.435262362595012	-3.60325850803716	-0.930725261289941	0.0240172547720588	-3.60325850803716	-3.62727576280922	-0.435262362595012	-3.60325850803716	0.0240172547720588	-3.60325850803716	0.435262362595012	0.14382474288601843	-2.0153850981058006	-4.257952205252673	-3.671661922604196	-1.9006968313980173	-4.257952205252673	-0.08261213182522448	-3.0074121468823387	-3.1512368897683523	-3.2090574467260615	-3.064279856632413	4	missed	0.0
145.9841225000564	7.383575799991377	go_reward	0.2814029000001028	146.01102490001358	148.6038270999561	151.15557529998478	2.5928021999425255	147.0276867999928	150.13134779996471	152.17428859998472	1.5761402999632992	1.0242275000200607	1.2203121000202373	n/a	1.0	n/a	2	0	83	2	go_reward	1	1	0	1	1	1	0	n/a	n/a	1	0.2814029000001028	1.0	2157.715912100044	2303.7269370000577	2304.743598900037	2306.3197392	2307.847259900009	2308.871487400029	n/a	n/a	2309.890200700029	2311.110512800049	2020-05-12 13:44:01.333453	7.30661327859764	7.91646247596156	0.0	7.91646247596156	7.30661327859764	0.0	-7.30661327859764	7.91646247596156	0.0	7.30661327859764	0.0	4.48175316338624	3.8231622586744383	6.3363397404507715	-0.6546936972155126	5.175525814647305	5.381899192427563	-0.6546936972155126	3.9638786689660037	4.275183876943242	0.4520216182688079	5.142667391830511	0.5389786514047473	4	missed	0.0
153.41523170005576	5.672211299999162	nogo_punish	1.0	153.44213410001294	154.79057339998008	157.330453499977	1.34843929996714	154.43986929999664	156.30802080000285	158.35069839999778	0.35070409998343166	1.0224326999741606	0.7636470000143163	n/a	1.0	n/a	2	0	84	3	nogo_punish	0	0	-1	0	0	1	0	n/a	n/a	-1	1.0	1.0	2157.715912100044	2311.158046200057	2312.1557814000407	2312.506485500024	2314.023932900047	2315.046365600021	n/a	n/a	2316.066610500042	2316.830257500056	2020-05-12 13:44:01.333453	1.8435834178799	-3.64764210183503	-1.28501809874213	-1.49117584137488	-3.12860151662203	-1.28501809874213	-1.8435834178799	-1.28501809874213	-3.64764210183503	-1.28501809874213	-3.12860151662203	-3.97771347504031	-1.6398676020433014	-5.227764837345818	-1.9397117959576426	-4.232112502689135	-5.053315602792106	-1.9397117959576426	-4.495587969460546	-4.316447500396528	-2.676579898353222	-4.0588131828731795	-3.108663450430283	4	missed	0.0
159.1314283000538	7.7303031999617815	nogo_punish	0.2994694000226445	159.158330700011	161.91265139996494	164.4697218000074	2.7543206999539507	160.15975399996387	163.44665860000532	165.48888479999732	1.7528974000010749	1.0230632000020705	1.3997490999754518	n/a	1.0	n/a	2	0	85	3	nogo_punish	1	-1	0	0	1	0	0	n/a	n/a	-1	0.2994694000226445	1.0	2157.715912100044	2316.874242800055	2317.875666100008	2319.628563500009	2321.1625707000494	2322.1856339000515	n/a	n/a	2323.2047969000414	2324.604546000017	2020-05-12 13:44:01.333453	0.128095835547293	-3.64764210183503	-3.07776160851279	-3.2031398455503	-2.94966577296549	-3.07776160851279	-0.128095835547293	-3.64764210183503	-3.07776160851279	-2.94966577296549	-3.07776160851279	-1.6150894719474098	-3.355355184375908	-5.227764837345818	-3.732455305728303	-5.944076506864555	-4.874379859135566	-3.732455305728303	-2.1329639663676465	-5.981095174619887	-2.625739990243982	-6.421437185966079	-2.538782957108043	4	missed	0.0
166.89219540002523	6.324660899990704	nogo_reward	1.0	166.9190977999824	168.81634239997993	171.34977440000512	1.8972445999975207	167.91699040000094	170.32662969996454	172.360029199976	0.8993519999789896	1.0231447000405751	0.8837294999971164	n/a	1.0	n/a	2	0	86	1	nogo_reward	1	0	1	0	0	1	0	n/a	n/a	1	1.0	1.0	2157.715912100044	2324.6350099000265	2325.632902500045	2326.532254500024	2328.0425418000086	2329.065686500049	n/a	n/a	2330.07594130002	2330.959670800017	2020-05-12 13:44:01.333453	6.21994137575255	0.779001560830105	6.46524804382388	6.21642135580586	0.245306668071321	6.46524804382388	-6.21994137575255	6.46524804382388	0.779001560830105	6.46524804382388	0.245306668071321	5.93296759552392	2.736490355829349	-0.8011211746806836	5.810554346608368	3.475484694491605	-1.679407418098755	5.810554346608368	5.415093101103683	3.433818642169483	0.6973282863401289	3.691452959692831	1.3179802122348523	4	missed	0.0
173.25766750000184	6.386977800051682	go_reward	0.484658999950625	173.28456989995902	174.70752190001076	177.26792000001296	1.4229520000517368	174.29531369998585	176.24517919996288	178.2780073999893	0.41220820002490655	1.0227408000500873	1.3935403000214137	n/a	1.0	n/a	2	0	87	2	go_reward	1	1	0	1	1	1	0	n/a	n/a	1	0.484658999950625	1.0	2157.715912100044	2331.000482000003	2332.01122580003	2332.423434000055	2333.961091300007	2334.983832100057	n/a	n/a	2335.9939195000334	2337.387459800055	2020-05-12 13:44:01.333453	9.16392779627136	9.98595074688254	0.0	9.98595074688254	9.16392779627136	0.0	-9.16392779627136	9.98595074688254	0.0	9.16392779627136	0.0	2.4122648924652594	5.680476776348158	8.405828011371753	-0.6546936972155126	7.245014085568286	7.239213710101283	-0.6546936972155126	1.894390398045023	6.132498394616961	0.4520216182688079	7.212155662751491	0.5389786514047473	4	missed	0.0
179.6910725000198	5.993811000022106	nogo_punish	1.0	179.71797489997698	181.15884699998423	183.6786967999651	1.4408721000072546	180.72412929998245	182.65921000001254	184.69328129995847	0.43471770000178367	1.019486799952574	1.0185046000406146	n/a	1.0	n/a	2	0	88	3	nogo_punish	1	-1	0	0	0	1	0	n/a	n/a	0	1.0	1.0	2157.715912100044	2337.433887000021	2338.4400414000265	2338.8747591000283	2340.3751221000566	2341.394608900009	n/a	n/a	2342.4091934000026	2343.427698000043	2020-05-12 13:44:01.333453	0.45842097518521	-4.3434917603133	-3.07776160851279	-4.08558513722627	-3.536182583698	-3.07776160851279	-0.45842097518521	-3.07776160851279	-4.3434917603133	-3.07776160851279	-3.536182583698	3.07776160851279	-3.025030044737991	-5.923614495824088	-3.732455305728303	-6.826521798540526	-5.460896669868076	-3.732455305728303	2.559887114092554	-6.109191010167187	-3.084160965429192	-5.85155669264384	-3.8045131089085524	4	missed	0.0
185.72768320003524	6.816181099973619	go_reward	0.2803689000429585	185.75458559999242	187.76585839997279	190.31307289999677	2.011272799980361	186.76270949997706	189.29929039999843	191.32554960000562	1.0031488999957219	1.0137824999983422	1.2452170999604277	n/a	1.0	n/a	2	0	89	2	go_reward	0	0	1	1	1	1	1	n/a	n/a	0	0.2803689000429585	1.0	2157.715912100044	2343.4704977000365	2344.478621600021	2345.481770500017	2347.0152025000425	2348.028985000041	n/a	n/a	2349.0414617000497	2350.28667880001	2020-05-12 13:44:01.333453	10.0930201793758	11.0428356433494	0.0	11.0428356433494	10.0930201793758	0.0	-10.0930201793758	11.0428356433494	0.0	10.0930201793758	0.0	-11.0428356433494	6.609569159452599	9.462712907838611	-0.6546936972155126	8.301898982035146	8.168306093205725	-0.6546936972155126	-11.560710137769638	7.061590777721403	0.4520216182688079	8.26904055921835	0.5389786514047473	4	missed	0.0
192.57389130000956	6.795657400041819	nogo_reward	1.0	192.60079369996674	194.36932669999078	196.9033718999708	1.7685330000240356	193.60631639999292	195.8803595000063	197.91337819996988	0.763010299997859	1.0230123999645002	1.4830729000386782	n/a	1.0	n/a	2	0	90	1	nogo_reward	1	0	1	0	0	1	0	n/a	n/a	1	1.0	1.0	2157.715912100044	2350.316705800011	2351.322228500037	2352.085238800035	2353.5962716000504	2354.619284000015	n/a	n/a	2355.629290300014	2357.1123632000526	2020-05-12 13:44:01.333453	9.40360156210248	0.779001560830105	9.40491043101498	9.25491373380993	0.0013088689125	9.40491043101498	-9.40360156210248	9.40491043101498	0.779001560830105	9.40491043101498	0.0013088689125	2.9933052083328207	5.920150542179279	-0.8011211746806836	8.750216733799467	6.513977072495676	-1.923405217257576	8.750216733799467	2.4754307139125844	6.3734810293605815	0.45333048718130786	6.63111534688393	1.3179802122348523	4	missed	0.0
199.39726120000705	5.941389100044034	go_punish	0.4974302999908104	199.42416359996423	200.82067990000405	203.37389809999195	1.3965163000398206	200.43219009996392	202.35434650001116	204.37782609998249	0.38848980004013356	1.0195515999807867	0.9877266000257805	n/a	1.0	n/a	2	0	91	4	go_punish	1	0	-1	1	1	1	0	n/a	n/a	0	0.4974302999908104	1.0	2157.715912100044	2357.1400757000083	2358.148102200008	2358.536592000048	2360.0702586000552	2361.089810200036	n/a	n/a	2362.0937382000266	2363.0814648000523	2020-05-12 13:44:01.333453	3.75180442958649	-0.259211669662591	-3.60325850803716	-0.540221317393243	0.14854592154933	-3.60325850803716	-3.75180442958649	-0.259211669662591	-3.60325850803716	0.14854592154933	-3.60325850803716	0.259211669662591	0.26835340966328847	-1.8393344051733795	-4.257952205252673	-3.281157978707498	-1.7761681646207461	-4.257952205252673	-0.25866282475764546	-2.8828834801050673	-3.1512368897683523	-3.0330067537936403	-3.064279856632413	4	missed	0.0
205.3851757000084	6.500571400043555	nogo_punish	1.0	205.41207809996558	206.88267109997105	209.404114999983	1.470593000005465	206.41666489996715	208.38490040000806	210.41923669999233	0.46600620000390336	1.01921459997493	1.493412800016813	n/a	1.0	n/a	2	0	92	3	nogo_punish	1	-1	0	0	0	1	0	n/a	n/a	0	1.0	1.0	2157.715912100044	2363.1279902000097	2364.132577000011	2364.598583200015	2366.100812500052	2367.120027100027	n/a	n/a	2368.1351488000364	2369.628561600053	2020-05-12 13:44:01.333453	2.08711494232195	-4.3434917603133	-1.63534945299095	-2.19203662101514	-3.7224643953129	-1.63534945299095	-2.08711494232195	-1.63534945299095	-4.3434917603133	-1.63534945299095	-3.7224643953129	1.63534945299095	-1.3963360776012514	-5.923614495824088	-2.2900431502064627	-4.932973282329395	-5.647178481482976	-2.2900431502064627	1.1174749585707136	-4.666778854645347	-3.2704427770440923	-4.409144537122	-3.8045131089085524	4	missed	0.0
211.92905510001583	6.455319100001361	nogo_punish	1.0	211.955957499973	213.6106344999862	216.12374549999367	1.65467700001318	212.95667869999306	215.12097789999098	217.13374660001136	0.6539557999931276	1.0027676000026986	1.2775299999630079	n/a	1.0	n/a	2	0	93	3	nogo_punish	1	-1	0	0	0	1	0	n/a	n/a	0	1.0	1.0	2157.715912100044	2369.671869600017	2370.672590800037	2371.3265466000303	2372.836890000035	2373.8396576000378	n/a	n/a	2374.8496587000554	2376.1271887000185	2020-05-12 13:44:01.333453	2.92459501541236	-4.3434917603133	-0.910413031661662	-1.23097634210268	-3.83500804707402	-0.910413031661662	-2.92459501541236	-0.910413031661662	-4.3434917603133	-0.910413031661662	-3.83500804707402	0.910413031661662	-0.5588560045108415	-5.923614495824088	-1.5651067288771747	-3.971913003416935	-5.759722133244096	-1.5651067288771747	0.3925385372414255	-3.9418424333160593	-3.382986428805212	-3.6842081157927113	-3.8045131089085524	4	missed	0.0
218.4121627000277	7.172263899992686	go_punish	0.3051008000038564	218.43906509998487	221.22206759999972	223.75709179998375	2.7830025000148453	219.44729659997392	222.73701879999135	224.7628340999945	1.774771000025794	1.0200729999924079	0.8484948999830522	n/a	1.0	n/a	2	0	94	4	go_punish	1	0	-1	1	1	1	0	n/a	n/a	0	0.3051008000038564	1.0	2157.715912100044	2376.154977200029	2377.163208700018	2378.937979700044	2380.4529309000354	2381.473003900028	n/a	n/a	2382.4787462000386	2383.3272411000216	2020-05-12 13:44:01.333453	3.82006949029257	-0.159004373093378	-3.60325850803716	-0.324153825449251	0.216810982255412	-3.60325850803716	-3.82006949029257	-0.159004373093378	-3.60325850803716	0.216810982255412	-3.60325850803716	0.159004373093378	0.3366184703693684	-1.7391271086041664	-4.257952205252673	-3.065090486763506	-1.707903103914664	-4.257952205252673	-0.35887012132685847	-2.8146184193989856	-3.1512368897683523	-2.9327994572244274	-3.064279856632413	4	missed	0.0
225.6294747000211	6.940204199985601	go_reward	0.2912658000132069	225.65637709997827	227.7078764999751	230.2425809999695	2.0514993999968283	226.66364459996112	229.22643320000498	231.2537689000019	1.0442319000139832	1.0161477999645285	1.3428123999619856	n/a	1.0	n/a	2	0	95	2	go_reward	1	1	0	1	1	1	0	n/a	n/a	1	0.2912658000132069	1.0	2157.715912100044	2383.3722892000224	2384.379556700005	2385.423788600019	2386.942345300049	2387.9584931000136	n/a	n/a	2388.969681000046	2390.312493400008	2020-05-12 13:44:01.333453	5.32831419723884	5.79641621495373	0.0	5.79641621495373	5.32831419723884	0.0	-5.32831419723884	5.79641621495373	0.0	5.32831419723884	0.0	6.60179942439407	1.8448631773156388	4.216293479442942	-0.6546936972155126	3.055479553639475	3.403600111068764	-0.6546936972155126	6.083924929973834	2.2968847955844427	0.4520216182688079	3.0226211308226807	0.5389786514047473	4	missed	0.0
232.61748820001958	6.718209300015587	go_reward	0.2667642000014893	232.64439059997676	234.9954352999921	237.54408479999984	2.3510447000153363	233.65903629997047	236.52095430000918	238.55431839998346	1.336399000021629	1.023130499990657	0.8082815000088885	n/a	1.0	n/a	2	0	96	2	go_reward	1	1	0	1	1	1	0	n/a	n/a	1	0.2667642000014893	1.0	2157.715912100044	2390.360302700021	2391.3749484000145	2392.711347400036	2394.2368664000533	2395.259996900044	n/a	n/a	2396.2702305000275	2397.0785120000364	2020-05-12 13:44:01.333453	8.27505584378386	9.01147306919549	0.0	9.01147306919549	8.27505584378386	0.0	-8.27505584378386	9.01147306919549	0.0	8.27505584378386	0.0	3.3867425701523093	4.791604823860659	7.431350333684702	-0.6546936972155126	6.270536407881236	6.350341757613784	-0.6546936972155126	2.868868075732073	5.243626442129463	0.4520216182688079	6.237677985064441	0.5389786514047473	4	missed	0.0
239.3812058000476	6.514073700003792	nogo_punish	1.0	239.4081082000048	240.9062463999726	243.4346094999928	1.4981381999677978	240.40865739999572	242.42163950001168	244.44950899999822	0.4975889999768697	1.0129699999811237	1.472672900010366	n/a	1.0	n/a	2	0	97	3	nogo_punish	1	-1	0	0	0	1	0	n/a	n/a	0	1.0	1.0	2157.715912100044	2397.124020300049	2398.12456950004	2398.6221585000167	2400.1375516000558	2401.150521600037	n/a	n/a	2402.1654211000423	2403.6380940000527	2020-05-12 13:44:01.333453	3.37683502903435	-4.3434917603133	-0.527018086864148	-0.718245561522554	-3.9038531158985	-0.527018086864148	-3.37683502903435	-0.527018086864148	-4.3434917603133	-0.527018086864148	-3.9038531158985	0.527018086864148	-0.10661599088885154	-5.923614495824088	-1.1817117840796607	-3.4591822228368088	-5.828567202068576	-1.1817117840796607	0.009143592443911497	-3.5584474885185453	-3.451831497629692	-3.3008131709951973	-3.8045131089085524	4	missed	0.0
245.93870510003762	6.782606499968097	go_reward	0.3419739999808371	245.9656074999948	247.7051508000004	250.27400430000853	1.7395433000056073	246.973783799971	249.24669409997296	251.28672529995674	0.7313670000294223	1.027310200035572	1.4614887000061572	n/a	1.0	n/a	2	0	98	2	go_reward	1	1	0	1	1	1	1	n/a	n/a	1	0.3419739999808371	1.0	2157.715912100044	2403.681519600039	2404.689695900015	2405.4210629000445	2406.962606200017	2407.9899164000526	n/a	n/a	2409.002637400001	2410.464126100007	2020-05-12 13:44:01.333453	9.66684491714758	10.5651175882263	0.0	10.5651175882263	9.66684491714758	0.0	-9.66684491714758	10.5651175882263	0.0	9.66684491714758	0.0	1.8330980511214996	6.183393897224379	8.984994852715513	-0.6546936972155126	7.824180926912046	7.742130830977504	-0.6546936972155126	1.3152235567012631	6.635415515493182	0.4520216182688079	7.791322504095251	0.5389786514047473	4	missed	0.0
252.76500910002505	6.995480099983979	go_reward	0.3150246000150218	252.79191149998223	255.265149999992	257.8148878999641	2.4732385000097565	253.7991103999666	256.79180229996564	258.8248868999649	1.4660396000253968	1.023085599998467	0.9625047000013183	n/a	1.0	n/a	2	0	99	2	go_reward	1	1	0	1	1	1	0	n/a	n/a	1	0.3150246000150218	1.0	2157.715912100044	2410.5078236000263	2411.5150225000107	2412.981062100036	2414.5077144000097	2415.530800000008	n/a	n/a	2416.540799000009	2417.5033037000103	2020-05-12 13:44:01.333453	10.3646820466285	11.3611409247098	0.0	11.3611409247098	10.3646820466285	0.0	-10.3646820466285	11.3611409247098	0.0	10.3646820466285	0.0	1.0370747146380008	6.881231026705299	9.78101818919901	-0.6546936972155126	8.620204263395545	8.439967960458425	-0.6546936972155126	0.5192002202177644	7.3332526449741025	0.4520216182688079	8.587345840578749	0.5389786514047473	4	missed	0.0
259.80650030000834	5.9211063000261674	go_reward	0.5093996999785304	259.8334026999655	261.18073500000173	263.7336735999561	1.3473323000362143	260.8393936000066	262.71102200000314	264.75117319996934	0.34134139999514446	1.022651599952951	1.0033358000223416	n/a	1.0	n/a	2	0	100	2	go_reward	1	1	0	1	1	1	1	n/a	n/a	1	0.5093996999785304	1.0	2157.715912100044	2417.5493148000096	2418.5553057000507	2418.896647100046	2420.426934100047	2421.4495857	n/a	n/a	2422.4670853000134	2423.4704211000358	2020-05-12 13:44:01.333453	10.7324336975107	11.7892481180667	0.0	11.7892481180667	10.7324336975107	0.0	-10.7324336975107	11.7892481180667	0.0	10.7324336975107	0.0	0.6089675212810999	7.248982677587499	10.20912538255591	-0.6546936972155126	9.048311456752446	8.807719611340625	-0.6546936972155126	0.0910930268608634	7.701004295856302	0.4520216182688079	9.01545303393565	0.5389786514047473	4	missed	0.0
265.7771142999991	6.626515100011602	nogo_punish	1.0	265.80401669995626	267.66290180000897	270.1779659999884	1.858885100052703	266.8114622000139	269.1649260999984	271.186608399963	0.8514395999950466	1.0130398999899626	1.24392340000486	n/a	1.0	n/a	2	0	101	3	nogo_punish	1	-1	0	0	0	1	0	n/a	n/a	0	1.0	1.0	2157.715912100044	2423.5199288000003	2424.527374300058	2425.378813900053	2426.8808382000425	2427.8938781000325	n/a	n/a	2428.902520500007	2430.146443900012	2020-05-12 13:44:01.333453	3.63124558530439	-4.3434917603133	-0.315412033433951	-0.433006690547303	-3.94665761873834	-0.315412033433951	-3.63124558530439	-0.315412033433951	-4.3434917603133	-0.315412033433951	-3.94665761873834	0.315412033433951	0.14779456538118874	-5.923614495824088	-0.9701057306494636	-3.173943351861558	-5.871371704908416	-0.9701057306494636	-0.20246246098628545	-3.3468414350883484	-3.4946360004695323	-3.0892071175650004	-3.8045131089085524	4	missed	0.0
272.4515693000285	6.354262600012589	nogo_punish	1.0	272.4784716999857	273.845651799988	276.3624429999618	1.3671801000023152	273.4892469999613	275.35004990000743	277.37644929997623	0.35640480002666663	1.0123930999543518	1.456285000022035	n/a	1.0	n/a	2	0	102	3	nogo_punish	1	-1	0	0	0	1	0	n/a	n/a	0	1.0	1.0	2157.715912100044	2430.1943838000298	2431.2051591000054	2431.561563900032	2433.0659620000515	2434.078355100006	n/a	n/a	2435.0923614000203	2436.5486464000423	2020-05-12 13:44:01.333453	3.77944905793994	-4.3434917603133	-0.194288806648644	-0.268543832872158	-3.97373786458859	-0.194288806648644	-3.77944905793994	-0.194288806648644	-4.3434917603133	-0.194288806648644	-3.97373786458859	0.194288806648644	0.29599803801673863	-5.923614495824088	-0.8489825038641566	-3.009480494186413	-5.898451950758666	-0.8489825038641566	-0.32358568777159247	-3.2257182083030416	-3.521716246319782	-2.9680838907796936	-3.8045131089085524	4	missed	0.0
278.8502702000551	7.373961399949621	nogo_punish	1.0	278.8771726000123	281.3038440999808	283.83605340000895	2.4266714999685064	279.883472699963	282.8132265000022	284.8400990999653	1.420371400017757	1.0228269000067485	1.4110348999965936	n/a	1.0	n/a	2	0	103	3	nogo_punish	0	0	-1	0	0	1	1	n/a	n/a	-1	1.0	1.0	2157.715912100044	2436.5930847000564	2437.599384800007	2439.019756200025	2440.5291386000463	2441.551965500053	n/a	n/a	2442.5560112000094	2443.967046100006	2020-05-12 13:44:01.333453	3.86843116377069	-4.3434917603133	-0.122736453822632	-0.170729928922666	-3.99116761759332	-0.122736453822632	-3.86843116377069	-0.122736453822632	-4.3434917603133	-0.122736453822632	-3.99116761759332	-5.139995119959808	0.3849801438474887	-5.923614495824088	-0.7774301510381446	-2.911666590236921	-5.915881703763396	-0.7774301510381446	-5.657869614380044	-3.1541658554770295	-3.539145999324512	-2.8965315379536816	-3.8045131089085524	4	missed	0.0
286.2691121000098	7.352812000026006	go_reward	0.2697795999702066	286.296014499967	288.9112426000065	291.44194940000307	2.6152281000395305	287.30209849996027	290.42636659997515	292.4527117999969	1.609144100046251	1.0155828000279143	1.1961146999960874	n/a	1.0	n/a	2	0	104	2	go_reward	1	1	0	1	1	1	0	n/a	n/a	1	0.2697795999702066	1.0	2157.715912100044	2444.011926600011	2445.0180106000043	2446.6271547000506	2448.1422787000192	2449.157861500047	n/a	n/a	2450.168623900041	2451.364738600037	2020-05-12 13:44:01.333453	10.9345812000419	12.0290987683265	0.0	12.0290987683265	10.9345812000419	0.0	-10.9345812000419	12.0290987683265	0.0	10.9345812000419	0.0	0.36911687102129953	7.451130180118698	10.448976032815711	-0.6546936972155126	9.288162107012246	9.009867113871824	-0.6546936972155126	-0.14875762339893694	7.903151798387501	0.4520216182688079	9.25530368419545	0.5389786514047473	4	missed	0.0
293.6628949000151	5.723334799986333	nogo_punish	1.0	293.68979729997227	295.02313389995834	297.55257770000026	1.333336599986069	294.6972332999576	296.53282939997735	298.5536127999658	0.3259006000007503	1.0197483000229113	0.8595192999928258	n/a	1.0	n/a	2	0	105	3	nogo_punish	1	-1	0	0	0	1	1	n/a	n/a	0	1.0	1.0	2157.715912100044	2451.4057094000163	2452.4131454000017	2452.7390460000024	2454.2487415000214	2455.2684898000443	n/a	n/a	2456.26952490001	2457.1290442000027	2020-05-12 13:44:01.333453	1.29744406450217	-4.3434917603133	-2.4511331886031	-2.48280050177638	-3.74857725310527	-2.4511331886031	-1.29744406450217	-2.4511331886031	-4.3434917603133	-2.4511331886031	-3.74857725310527	2.4511331886031	-2.186006955421031	-5.923614495824088	-3.1058268858186127	-5.223737163090635	-5.673291339275346	-3.1058268858186127	1.9332586941828633	-5.482562590257498	-3.296555634836462	-5.224928272734149	-3.8045131089085524	4	missed	0.0
299.4306153000216	6.522543400002178	nogo_punish	1.0	299.4575176999788	301.41701109998394	303.9483498999616	1.959493400005158	300.4580998999877	302.93027979996987	304.9609883999801	0.958911199996237	1.0180700999917462	1.0190727000008337	n/a	1.0	n/a	2	0	106	3	nogo_punish	0	0	-1	0	0	1	0	n/a	n/a	-1	1.0	1.0	2157.715912100044	2457.173429800023	2458.174012000032	2459.132923200028	2460.646191900014	2461.6642620000057	n/a	n/a	2462.676900500024	2463.695973200025	2020-05-12 13:44:01.333453	2.57131293126304	-4.3434917603133	-1.2836486042149	-1.30493243276299	-3.85496153547794	-1.2836486042149	-2.57131293126304	-1.2836486042149	-4.3434917603133	-1.2836486042149	-3.85496153547794	-3.97908296956754	-0.9121380886601616	-5.923614495824088	-1.9383423014304126	-4.045869094077245	-5.779675621648016	-1.9383423014304126	-4.496957463987776	-4.315078005869298	-3.402939917209132	-4.057443688345949	-3.8045131089085524	4	missed	0.0
306.0032312000403	6.338789400004316	go_reward	0.8173108999617398	306.0301335999975	307.59080760000506	310.1435683000018	1.560674000007566	307.04628989996854	309.1218923999695	311.15670240001054	0.544517700036522	1.0216759000322782	1.2122205999912694	n/a	1.0	n/a	2	0	107	2	go_reward	0	0	1	1	1	1	0	n/a	n/a	0	0.8173108999617398	1.0	2157.715912100044	2463.7460457000416	2464.7622020000126	2465.306719700049	2466.8378045000136	2467.859480400046	n/a	n/a	2468.8726145000546	2470.084835100046	2020-05-12 13:44:01.333453	11.0497951986445	12.1682636612161	0.0	12.1682636612161	11.0497951986445	0.0	-11.0497951986445	12.1682636612161	0.0	11.0497951986445	0.0	-12.1682636612161	7.566344178721298	10.58814092570531	-0.6546936972155126	9.427326999901846	9.125081112474424	-0.6546936972155126	-12.686138155636337	8.018365796990102	0.4520216182688079	9.39446857708505	0.5389786514047473	4	missed	0.0
312.3689583000378	7.200296900002286	nogo_reward	1.0	312.39586069999496	315.1239240000141	317.640744099976	2.72806330001913	313.40077060001204	316.61976039997535	318.6495686999988	1.7231534000020474	1.02098370000067	0.94658889999846	n/a	1.0	n/a	2	0	108	1	nogo_reward	0	1	0	0	0	1	0	n/a	n/a	0	1.0	1.0	2157.715912100044	2470.111772800039	2471.116682700056	2472.839836100058	2474.3356725000194	2475.35665620002	n/a	n/a	2476.365480800043	2477.3120697000413	2020-05-12 13:44:01.333453	10.9484568726123	0.779001560830105	10.8028187534252	10.7101201322026	-0.145638119187124	10.8028187534252	-10.9484568726123	10.8028187534252	0.779001560830105	10.8028187534252	-0.145638119187124	-10.8028187534252	7.465005852689099	-0.8011211746806836	10.148125056209688	7.969183470888346	-2.0703522053572	10.148125056209688	-11.320693247845437	7.771389351770802	0.3063834990816839	8.029023669294151	1.3179802122348523	4	missed	0.0
319.59779580001486	7.4310910000349395	go_punish	0.3317223000340163	319.62469819997204	322.1464162999764	324.6968902999647	2.521718100004364	320.64010769996094	323.677375699976	325.70525130000897	1.5063086000154726	1.0195145999887245	1.3505378999980167	n/a	1.0	n/a	2	0	109	4	go_punish	1	0	-1	1	1	1	0	n/a	n/a	0	0.3317223000340163	1.0	2157.715912100044	2477.340610300016	2478.356019800005	2479.8623284000205	2481.39328780002	2482.412802400009	n/a	n/a	2483.421163400053	2484.771701300051	2020-05-12 13:44:01.333453	3.8588356311301	-0.10009022360926	-3.60325850803716	-0.200174476235892	0.255577123092937	-3.60325850803716	-3.8588356311301	-0.10009022360926	-3.60325850803716	0.255577123092937	-3.60325850803716	0.10009022360926	0.3753846112068988	-1.6802129591200485	-4.257952205252673	-2.941111137550147	-1.6691369630771389	-4.257952205252673	-0.41778427081097647	-2.7758522785614606	-3.1512368897683523	-2.8738853077403093	-3.064279856632413	4	missed	0.0
327.0785997000057	5.886775300023146	go_reward	0.6166842000093311	327.1055020999629	328.40022439998575	330.9338988999957	1.2947223000228405	328.120869699982	329.91770290001296	331.93868869997095	0.2793547000037506	1.016195999982756	1.0535887000150979	n/a	1.0	n/a	2	0	110	2	go_reward	1	1	0	1	1	1	0	n/a	n/a	1	0.6166842000093311	1.0	2157.715912100044	2484.821414200007	2485.836781800026	2486.11613650003	2487.633615000057	2488.64981100004	n/a	n/a	2489.654600800015	2490.70818950003	2020-05-12 13:44:01.333453	5.86527558994783	6.439495493806	0.0	6.439495493806	5.86527558994783	0.0	-5.86527558994783	6.439495493806	0.0	5.86527558994783	0.0	5.9587201455418	2.3818245700246283	4.859372758295211	-0.6546936972155126	3.6985588324917447	3.9405615037777535	-0.6546936972155126	5.440845651121564	2.8338461882934323	0.4520216182688079	3.66570040967495	0.5389786514047473	4	missed	0.0
333.01071920001414	6.495556500041857	go_reward	0.0249416999868117	333.0376215999713	334.60317660000874	337.13933589996304	1.5655550000374205	334.0431379000074	336.1129639999708	338.14944349997677	0.5600387000013143	1.0263718999922276	1.383734600036405	n/a	1.0	n/a	2	0	111	2	go_reward	1	1	0	1	1	1	0	n/a	n/a	1	0.0249416999868117	1.0	2157.715912100044	2490.7535337000154	2491.7590500000515	2492.319088700053	2493.828876100015	2494.855248000007	n/a	n/a	2495.865355600021	2497.2490902000573	2020-05-12 13:44:01.333453	8.58644458386845	9.39074279087986	0.0	9.39074279087986	8.58644458386845	0.0	-8.58644458386845	9.39074279087986	0.0	8.58644458386845	0.0	3.0074728484679394	5.102993563945249	7.810620055369072	-0.6546936972155126	6.649806129565606	6.661730497698374	-0.6546936972155126	2.489598354047703	5.555015182214053	0.4520216182688079	6.616947706748811	0.5389786514047473	4	missed	0.0
339.5380509000388	6.951953199983109	nogo_reward	1.0	339.564953299996	341.99976589996413	344.54052549996413	2.4348125999681542	340.56985390000045	343.51684419997036	345.54343690001406	1.4299119999636787	1.0236812999937683	0.9734695999650285	n/a	1.0	n/a	2	0	112	1	nogo_reward	1	0	1	0	0	1	0	n/a	n/a	1	1.0	1.0	2157.715912100044	2497.28086540004	2498.2857660000445	2499.715678000008	2501.2327563000144	2502.256437600008	n/a	n/a	2503.259349000058	2504.232818600023	2020-05-12 13:44:01.333453	5.37099233535192	0.779001560830105	5.69616494532637	5.63760155251084	0.325172609974456	5.69616494532637	-5.37099233535192	5.69616494532637	0.779001560830105	5.69616494532637	0.325172609974456	6.70205069402143	1.8875413154287184	-0.8011211746806836	5.041471248110857	2.896664891196585	-1.59954147619562	5.041471248110857	6.184176199601194	2.664735543671972	0.7771942282432639	2.92236986119532	1.3179802122348523	4	missed	0.0
346.5197577000358	6.948241100006726	go_punish	0.4350812999764457	346.546660099993	349.02898549998645	351.5667983999597	2.4823253999934423	347.55214119999437	350.5527950999681	352.5796848000027	1.4768442999920808	1.0140032999916002	0.9152163999970071	n/a	1.0	n/a	2	0	113	4	go_punish	1	0	-1	1	1	1	0	n/a	n/a	0	0.4350812999764457	1.0	2157.715912100044	2504.262572200037	2505.2680533000384	2506.7448976000305	2508.268707200012	2509.2827105000038	n/a	n/a	2510.295596900047	2511.210813300044	2020-05-12 13:44:01.333453	3.88153839814968	-0.0644582282310571	-3.60325850803716	-0.126760208931509	0.278279890112515	-3.60325850803716	-3.88153839814968	-0.0644582282310571	-3.60325850803716	0.278279890112515	-3.60325850803716	0.0644582282310571	0.39808737822647844	-1.6445809637418456	-4.257952205252673	-2.867696870245764	-1.646434196057561	-4.257952205252673	-0.4534162661891794	-2.7531495115418823	-3.1512368897683523	-2.8382533123621068	-3.064279856632413	4	missed	0.0
353.5162493000389	7.339223499991931	nogo_punish	1.0	353.5431516999961	356.3053500999813	358.82170039997436	2.762198399985209	354.54810769995674	357.80249639996373	359.8356257000123	1.757242400024552	1.0192040000106317	1.0467494999757037	n/a	1.0	n/a	2	0	114	3	nogo_punish	1	-1	0	0	0	1	0	n/a	n/a	0	1.0	1.0	2157.715912100044	2511.25906380004	2512.264019800001	2514.0212622000254	2515.518408500008	2516.5376125000184	n/a	n/a	2517.5515378000564	2518.598287300032	2020-05-12 13:44:01.333453	0.587113346635787	-4.3434917603133	-3.07797402769396	-3.09251782538876	-3.66508737432975	-3.07797402769396	-0.587113346635787	-3.07797402769396	-4.3434917603133	-3.07797402769396	-3.66508737432975	3.07797402769396	-2.896337673287414	-5.923614495824088	-3.732667724909472	-5.833454486703015	-5.589801460499826	-3.732667724909472	2.560099533273723	-6.109403429348357	-3.213065756060942	-5.851769111825009	-3.8045131089085524	4	missed	0.0
360.89976340002613	6.288708799984761	go_reward	0.49400579999201	360.9266657999833	362.25306469999487	364.80368049995695	1.3263989000115544	361.941711099993	363.78139309998414	365.8062757999869	0.31135360000189394	1.0222873999728108	1.409098799981166	n/a	1.0	n/a	2	0	115	2	go_reward	1	1	0	1	1	1	0	n/a	n/a	1	0.49400579999201	1.0	2157.715912100044	2518.6425779000274	2519.657623200037	2519.968976800039	2521.497305200028	2522.519592600001	n/a	n/a	2523.522187900031	2524.931286700012	2020-05-12 13:44:01.333453	9.85267181428627	10.7950616491774	0.0	10.7950616491774	9.85267181428627	0.0	-9.85267181428627	10.7950616491774	0.0	9.85267181428627	0.0	1.6031539901703997	6.369220794363068	9.21493891366661	-0.6546936972155126	8.054124987863146	7.927957728116193	-0.6546936972155126	1.0852794957501632	6.821242412631872	0.4520216182688079	8.02126656504635	0.5389786514047473	4	missed	0.0
367.2191051000268	6.356192999984614	nogo_reward	1.0	367.246007499984	368.71888209995814	371.24426549999043	1.4728745999741477	368.2514925999567	370.22087399999145	372.24896910000825	0.4673895000014454	1.0233914999989793	1.3532313999603502	n/a	1.0	n/a	2	0	116	1	nogo_reward	1	0	1	0	0	1	0	n/a	n/a	1	1.0	1.0	2157.715912100044	2524.961919600028	2525.9674047000008	2526.434794200002	2527.9367861000355	2528.9601776000345	n/a	n/a	2529.9648812000523	2531.3181126000127	2020-05-12 13:44:01.333453	8.91948055418103	0.779001560830105	8.9702300386457	8.9324992293401	0.0507494844646745	8.9702300386457	-8.91948055418103	8.9702300386457	0.779001560830105	8.9702300386457	0.0507494844646745	3.4279856007020992	5.436029534257829	-0.8011211746806836	8.315536341430189	6.191562568025846	-1.8739646017054015	8.315536341430189	2.910111106281863	5.938800636991303	0.5027711027334824	6.196434954514651	1.3179802122348523	4	missed	0.0
373.6081112000393	7.354365599981975	go_punish	0.3016919000074267	373.63501359999646	376.18138309998903	378.7305542000104	2.546369499992579	374.637407000002	377.7101464999723	379.7351544999983	1.5439760999870487	1.0204077000380494	1.2542246999801137	n/a	1.0	n/a	2	0	117	4	go_punish	1	0	-1	1	1	1	0	n/a	n/a	0	0.3016919000074267	1.0	2157.715912100044	2531.3509257000405	2532.353319100046	2533.897295200033	2535.4260586000164	2536.4464663000545	n/a	n/a	2537.4510666000424	2538.7052913000225	2020-05-12 13:44:01.333453	3.89520007965644	-0.0423613650051886	-3.60325850803716	-0.082072611842386	0.291941571619276	-3.60325850803716	-3.89520007965644	-0.0423613650051886	-3.60325850803716	0.291941571619276	-3.60325850803716	0.0423613650051886	0.4117490597332387	-1.6224841005159771	-4.257952205252673	-2.8230092731566407	-1.6327725145508	-4.257952205252673	-0.47551312941504786	-2.7394878300351215	-3.1512368897683523	-2.816156449136238	-3.064279856632413	4	missed	0.0
380.99417489999905	6.646587200055819	nogo_reward	1.0	381.02107729995623	382.9852787000127	385.5223319999641	1.9642014000564814	382.01750439999205	384.50261249998584	386.5365396999987	0.9677743000206647	1.0197194999782369	1.1311248000133673	n/a	1.0	n/a	2	0	118	1	nogo_reward	0	1	0	0	0	1	1	n/a	n/a	0	1.0	1.0	2157.715912100044	2538.7369894000003	2539.733416500036	2540.701190800057	2542.21852460003	2543.238244100008	n/a	n/a	2544.2524518000428	2545.383576600056	2020-05-12 13:44:01.333453	10.6636830710197	0.779001560830105	10.5491504337727	10.5244107153204	-0.114532637246947	10.5491504337727	-10.6636830710197	10.5491504337727	0.779001560830105	10.5491504337727	-0.114532637246947	-10.5491504337727	7.180232051096498	-0.8011211746806836	9.894456736557188	7.783474054006145	-2.039246723417023	9.894456736557188	-11.067024928192938	7.517721032118303	0.33748898102186087	7.775355349641651	1.3179802122348523	4	missed	0.0
387.669452800008	6.562184500042804	go_punish	0.2565481000347063	387.6963551999652	389.7509900999721	392.28199749998794	2.0546349000069313	388.7027686999645	391.2684034999693	393.2955985000008	1.0482214000076056	1.0135940000186565	0.962941200007208	n/a	1.0	n/a	2	0	119	4	go_punish	1	0	-1	1	1	1	1	n/a	n/a	0	0.2565481000347063	1.0	2157.715912100044	2545.4122673000093	2546.4186808000086	2547.466902200016	2548.9843156000134	2549.997909600032	n/a	n/a	2551.011510600045	2551.974451800052	2020-05-12 13:44:01.333453	3.90362251242033	-0.0283491494623078	-3.60325850803716	-0.0541993171977778	0.300364004383165	-3.60325850803716	-3.90362251242033	-0.0283491494623078	-3.60325850803716	0.300364004383165	-3.60325850803716	0.0283491494623078	0.4201714924971287	-1.6084718849730963	-4.257952205252673	-2.795135978512033	-1.624350081786911	-4.257952205252673	-0.48952534495792865	-2.7310653972712324	-3.1512368897683523	-2.8021442335933573	-3.064279856632413	4	missed	0.0
394.27781240001787	7.934462000033818	nogo_punish	1.0	394.30471479997505	397.25589550001314	399.77884399995673	2.951180700038094	395.2974108000053	398.75919909996446	400.7929064999921	1.9584847000078298	1.0196448999922723	1.4462703000167494	n/a	1.0	n/a	2	0	120	3	nogo_punish	1	-1	0	0	0	1	0	n/a	n/a	0	1.0	1.0	2157.715912100044	2552.020626900019	2553.0133229000494	2554.971807600057	2556.4751112000085	2557.494756100001	n/a	n/a	2558.508818600036	2559.955088900053	2020-05-12 13:44:01.333453	2.16675513862007	-4.3434917603133	-1.63618137519621	-1.64626903605758	-3.80293651381627	-1.63618137519621	-2.16675513862007	-1.63618137519621	-4.3434917603133	-1.63618137519621	-3.80293651381627	1.63618137519621	-1.3166958813031315	-5.923614495824088	-2.2908750724117226	-4.387205697371835	-5.727650599986346	-2.2908750724117226	1.1183068807759735	-4.667610776850608	-3.350914895547462	-4.409976459327259	-3.8045131089085524	4	missed	0.0
