onset	duration	trial_type	response_time	cueOnset	targetOnset	fbOnset	cueRT	firstfixOnset	secondfixOnset	waitOnset	firstfixdur	secondfixdur	waitdur	nback_fbOnset	nback_response_time	nback_targetOnset	block	wm	trial	cue	cond	is_common	outcome_go	outcome_nogo	key_correct	key_pressed	is_correct	key_correct_nback	key_pressed_nback	is_correct_nback	outcome	rt	rt_nback	time_scan	time_onset	time_isi1	time_circle	time_isi2	time_feedback	time_same	time_correct	time_iti	time_done	timestamp_scan	DV	Qgo	Qnogo	SV	Wgo	Wnogo	mDV	Qchosen	Qunchosen	Wchosen	Wunchosen	PE	DVC	QgoC	QnogoC	SVC	WgoC	WnogoC	PEC	WchosenC	WunchosenC	QchosenC	QunchosenC	run	outcome_nback	nback_targetResp
0.0	8.110929199960538	go_punish	0.2926487999502569	0.02759349998086691	1.6074568000622094	4.158238699892536	1.5798633000813425	1.0397582000587136	3.1374534000642598	7.207743400009804	0.5676986000034958	1.020785299828276	0.9307792999316007	6.198550600092858	0.2560600000433624	5.171344199916348	2	1	61	2	go_punish	1	0	-1	1	1	1	1	0.0	0.0	0	0.2926487999502569	0.2560600000433624	2104.9024581999984	2104.9300516999792	2105.942216400057	2106.5099150000606	2108.0399116000626	2109.060696899891	2110.0738023999147	2111.101008800091	2112.110201600008	2113.0409808999398	2020-06-03 15:53:30.979523	-1.47101221274902	-2.76503538890945	-1.62306552331268	-2.77613505987131	-3.0940777360617	-1.62306552331268	1.47101221274902	-2.76503538890945	-1.62306552331268	-3.0940777360617	-1.62306552331268	2.76503538890945	-8.765509985712207	-6.00008661904033	-5.931645068777851	-10.28893356254975	-8.971722525563713	-5.931645068777851	2.1083818869604305	-11.834438790026887	-3.0689288043146785	-10.242069489385155	-1.6896621984330276	4	wrong	1.0
8.13970319996588	8.883842200040817	go_reward	0.2601932999677956	8.167296699946746	10.61311209993437	13.175988500006497	2.445815399987623	9.183550199959427	12.151682500029438	16.213201199891046	1.4295618999749422	1.0243059999770594	0.8379377000965178	15.202389999991283	0.2306381999514997	14.181675199885376	2	1	62	4	go_reward	1	1	0	1	1	1	0	0.0	1.0	1	0.2601932999677956	0.2306381999514997	2104.9024581999984	2113.069754899945	2114.086008399958	2115.5155702999327	2117.054140700028	2118.078446700005	2119.0841333998837	2120.1048481999896	2121.1156593998894	2121.953597099986	2020-06-03 15:53:30.979523	15.6670671115382	18.4702916776331	12.3800262911225	18.8057296699197	28.0470934026607	12.3800262911225	-15.6670671115382	18.4702916776331	12.3800262911225	28.0470934026607	12.3800262911225	5.1062334245016	8.372569338575012	15.23524044750222	8.07144674565733	11.29293116724126	22.169448613158686	8.07144674565733	4.44957992255258	19.306732348695512	10.934163010120502	10.993257577157394	12.313429616002152	4	correct	1.0
17.051228899974376	8.642351400107145	nogo_punish	1.0	17.078822399955243	18.732248099986464	21.264470600057848	1.653425700031221	18.07719109999016	20.244015000062063	24.330703099956736	0.6550569999963045	1.0204555999957847	1.3904707001056522	23.318150599952787	0.2497694999910891	22.288182500051335	2	1	63	1	nogo_punish	1	-1	0	0	0	1	0	0.0	1.0	0	1.0	0.2497694999910891	2104.9024581999984	2121.9812805999536	2122.9796492999885	2123.634706299985	2125.1464732000604	2126.166928800056	2127.1906407000497	2128.220608799951	2129.233161299955	2130.6236320000608	2020-06-03 15:53:30.979523	0.30989260095109	-2.45121826768253	-2.27441229543644	-2.29390694125413	-2.58430489638753	-2.27441229543644	-0.30989260095109	-2.27441229543644	-2.45121826768253	-2.27441229543644	-2.58430489638753	2.27441229543644	-6.984605172012097	-5.686269497813409	-6.582991840901611	-9.806705443932568	-8.461949685889543	-6.582991840901611	1.6177587934874205	-11.014773349401626	-4.030168177389529	-9.751446395912145	-2.517814942802877	4	correct	1.0
25.739335400052823	7.760062299901165	nogo_reward	1.0	25.76692890003369	27.116820299997926	29.664709700038657	1.3498913999642355	26.774501400068402	28.633383499924093	32.721272399881855	0.34231889992952347	1.031326200114563	0.8057188000530005	31.708611299982294	0.3426292000804096	30.679746400099248	2	1	64	3	nogo_reward	1	0	1	0	0	1	0	0.0	1.0	1	1.0	0.3426292000804096	2104.9024581999984	2130.669387100032	2131.6769596000668	2132.0192784999963	2133.5358416999225	2134.567167900037	2135.5822046000976	2136.6110694999807	2137.62373059988	2138.429449399933	2020-06-03 15:53:30.979523	4.15557531273489	7.39608280381991	23.312638291241	23.3851006553643	19.1570629785061	23.312638291241	-4.15557531273489	23.312638291241	7.39608280381991	23.312638291241	19.1570629785061	0.26388681089369825	-3.1389224602282972	4.16103157368903	19.00405874577583	15.872302152685862	13.279418189004087	19.00405874577583	-0.39276669105532136	14.572277237275815	17.711199697504103	15.835604190765295	7.329486128699562	4	correct	1.0
33.54082840005867	8.298578500049189	go_punish	0.6375725001562387	33.56842190003954	34.98055300000169	37.537611099891365	1.4121310999621528	34.56828989996575	36.51687199994967	40.591803800081834	0.41226310003594335	1.020739099941693	1.2751966000068933	39.57425449998118	0.323577499948442	38.55542459990829	2	1	65	2	go_punish	1	0	-1	1	1	1	0	0.0	1.0	0	0.6375725001562387	0.323577499948442	2104.9024581999984	2138.470880100038	2139.470748099964	2139.8830112	2141.419330199948	2142.4400692998897	2143.4578827999067	2144.4767126999795	2145.49426200008	2146.769458600087	2020-06-03 15:53:30.979523	-0.195058584387226	-1.85941373423089	-1.62306552331268	-1.86746260153017	-1.8181241076999	-1.62306552331268	0.195058584387226	-1.85941373423089	-1.62306552331268	-1.8181241076999	-1.62306552331268	1.85941373423089	-7.489556357350414	-5.094464964361769	-5.931645068777851	-9.380261104208609	-7.695768897201914	-5.931645068777851	1.2027602322818705	-10.558485161665086	-3.0689288043146785	-9.336447834706595	-1.6896621984330276	4	correct	1.0
41.863944800104946	8.693813099991985	go_reward	0.3608105001039803	41.89153830008581	43.76915910001844	46.32013099989854	1.8776207999326289	42.90236530010543	45.29331290000118	49.35897829988971	0.8667937999130118	1.0268180998973548	1.2263731001880842	48.354010900016874	0.3318260998930782	47.33444290002808	2	1	66	4	go_reward	1	1	0	1	1	1	0	0.0	1.0	1	0.3608105001039803	0.3318260998930782	2104.9024581999984	2146.793996500084	2147.804823500104	2148.671617300017	2150.1957710999995	2151.222589199897	2152.2369011000264	2153.2564691000152	2154.261436499888	2155.487809600076	2020-06-03 15:53:30.979523	17.8774847725921	20.0039632762272	12.3800262911225	20.2425626359256	30.2575110637146	12.3800262911225	-17.8774847725921	20.0039632762272	12.3800262911225	30.2575110637146	12.3800262911225	3.572561825907499	10.582986999628915	16.76891204609632	8.07144674565733	12.729764133247162	24.379866274212585	8.07144674565733	2.9159083239584795	21.517150009749415	10.934163010120502	12.526929175751494	12.313429616002152	4	correct	1.0
50.60299629997462	8.128171799937263	nogo_reward	1.0	50.63058979995549	52.18777969991743	54.723620699951425	1.5571898999619407	51.63526350003667	53.70364130008966	57.76514340005815	0.5525161998807562	1.0199793998617679	0.9936181998346001	56.75260680005886	0.4583764001727104	55.739736600080505	2	1	67	3	nogo_reward	1	0	1	0	0	1	0	0.0	1.0	1	1.0	0.4583764001727104	2104.9024581999984	2155.533047999954	2156.537721700035	2157.090237899916	2158.606099500088	2159.62607889995	2160.642194800079	2161.655065000057	2162.6676016000565	2163.661219799891	2020-06-03 15:53:30.979523	4.202135788365	7.39608280381991	23.3851006553643	23.4372797070786	19.1829648669993	23.3851006553643	-4.202135788365	23.3851006553643	7.39608280381991	23.3851006553643	19.1829648669993	0.19142444677039805	-3.0923619845981873	4.16103157368903	19.07652110989913	15.92448120440016	13.305320077497285	19.07652110989913	-0.46522905517862156	14.644739601399115	17.7371015859973	15.908066554888595	7.329486128699562	4	correct	1.0
58.75790209998377	8.512279100017622	nogo_punish	1.0	58.785495599964634	60.212703600060195	62.751522300066426	1.4272080000955611	59.78917509992607	61.72815049998462	65.79824890010059	0.42352850013412535	1.0233718000818044	1.499525799881667	64.78404720011167	0.2480566001031547	63.76521479990333	2	1	68	1	nogo_punish	0	0	-1	0	0	1	0	0.0	1.0	-1	1.0	0.2480566001031547	2104.9024581999984	2163.687953799963	2164.6916332999244	2165.1151618000586	2166.630608699983	2167.653980500065	2168.6676729999017	2169.68650540011	2170.700707100099	2172.2002328999806	2020-06-03 15:53:30.979523	0.743875239081678	-2.45121826768253	-1.53487724358453	-1.54873879050913	-2.27875248266621	-1.53487724358453	-0.743875239081678	-1.53487724358453	-2.45121826768253	-1.53487724358453	-2.27875248266621	-5.9817418163089995	-6.550622533881509	-5.686269497813409	-5.843456789049701	-9.061537293187568	-8.156397272168224	-5.843456789049701	-6.638395318258019	-10.275238297549716	-3.7246157636682082	-9.011911344060234	-2.517814942802877	4	correct	1.0
67.29645240004174	8.126484700012952	nogo_punish	1.0	67.32404590002261	68.71425560000353	71.2456851999741	1.3902096999809146	68.3241194000002	70.22498319996566	74.29462060006335	0.39013620000332594	1.0207020000084412	1.1559099999722093	73.2864204000216	0.0020588999614119	72.26216330006719	2	1	69	1	nogo_punish	1	-1	0	0	0	1	0	0.0	1.0	0	1.0	0.0020588999614119	2104.9024581999984	2172.226504100021	2173.2265775999986	2173.616713800002	2175.127441399964	2176.1481433999725	2177.1646215000656	2178.18887860002	2179.1970788000617	2180.352988800034	2020-06-03 15:53:30.979523	-0.420228796099263	-2.45121826768253	-3.49521075236727	-3.50509903214015	-3.07498195626801	-3.49521075236727	0.420228796099263	-3.49521075236727	-2.45121826768253	-3.49521075236727	-3.07498195626801	3.49521075236727	-7.71472656906245	-5.686269497813409	-7.803790297832441	-11.017897534818589	-8.952626745770024	-7.803790297832441	2.8385572504182504	-12.235571806332455	-4.520845237270008	-10.972244852842975	-2.517814942802877	4	correct	1.0
75.44988110009581	8.62319349986501	nogo_punish	1.0	75.47747460007668	77.39073109999345	79.92312619998165	1.9132564999167698	76.47780380002223	78.90895080007613	82.97660219995305	0.9129272999712157	1.0141753999055254	1.1240658999886364	81.96422900003381	0.2853498000185936	80.94187989993952	2	1	70	1	nogo_punish	1	-1	0	0	0	1	1	1.0	1.0	0	1.0	0.2853498000185936	2104.9024581999984	2180.379932800075	2181.3802620000206	2182.293189299992	2183.8114090000745	2184.82558439998	2185.844338099938	2186.866687200032	2187.8790603999514	2189.00312629994	2020-06-03 15:53:30.979523	0.268537873815913	-2.45121826768253	-2.33790875630134	-2.34498495284286	-2.60644663011725	-2.33790875630134	-0.268537873815913	-2.33790875630134	-2.45121826768253	-2.33790875630134	-2.60644663011725	2.33790875630134	-7.025959899147274	-5.686269497813409	-6.64648830176651	-9.857783455521298	-8.484091419619265	-6.64648830176651	1.6812552543523203	-11.078269810266526	-4.052309911119249	-9.814942856777044	-2.517814942802877	4	correct	1.0
84.09689379995689	9.172993100015901	go_reward	0.2532759001478553	84.12448729993775	86.67901639989577	89.20810899999924	2.5545290999580175	85.13253049994819	88.19438620004803	92.25658209994435	1.5464858999475837	1.0137227999512106	1.040898300009303	91.2426924998872	0.3260508000385016	90.21317599993199	2	1	71	4	go_reward	1	1	0	1	1	1	0	0.0	1.0	1	0.2532759001478553	0.3260508000385016	2104.9024581999984	2189.026945499936	2190.0349886999466	2191.581474599894	2193.0968444000464	2194.1105671999976	2195.1156341999304	2196.1451506998856	2197.1590402999427	2198.199938599952	2020-06-03 15:53:30.979523	19.4091196699932	21.0645902250407	12.3800262911225	21.2348879759427	31.7891459611158	12.3800262911225	-19.4091196699932	21.0645902250407	12.3800262911225	31.7891459611158	12.3800262911225	2.5119348770939993	12.114621897030013	17.82953899490982	8.07144674565733	13.722089473264262	25.911501171613786	8.07144674565733	1.8552813751449797	23.048784907150612	10.934163010120502	13.587556124564994	12.313429616002152	4	correct	1.0
93.31466130004264	9.256042700028047	nogo_reward	1.0	93.34225480002351	95.91613329993561	98.45283329999074	2.573878499912098	94.34774899994954	97.43216659990185	101.49554769997485	1.5683842999860644	1.0206667000888956	1.1027498000767082	100.4836424998939	0.4222230999730527	99.46302030002698	2	1	72	3	nogo_reward	1	0	1	0	0	1	0	0.0	1.0	1	1.0	0.4222230999730527	2104.9024581999984	2198.244713000022	2199.250207199948	2200.818591499934	2202.3346247999	2203.355291499989	2204.3654785000253	2205.3861006998923	2206.398005899973	2207.50075570005	2020-06-03 15:53:30.979523	4.23556023247332	7.39608280381991	23.4372797070786	23.47495946004	19.2017194746053	23.4372797070786	-4.23556023247332	23.4372797070786	7.39608280381991	23.4372797070786	19.2017194746053	0.13924539505610056	-3.0589375404898673	4.16103157368903	19.128700161613427	15.962160957361561	13.324074685103287	19.128700161613427	-0.517408106892919	14.696918653113412	17.755856193603304	15.960245606602893	7.329486128699562	4	correct	1.0
102.61302049993537	9.083101800177246	nogo_reward	1.0	102.64061399991624	104.68648799997754	107.20479219988965	2.0458740000613034	103.64943469990976	106.19375559990294	110.24623799999245	1.0370533000677824	1.01103659998671	1.4774778001010418	109.24117489997343	0.1700120999012142	108.22238179994747	2	1	73	3	nogo_reward	0	1	0	0	0	1	0	0.0	1.0	0	1.0	0.1700120999012142	2104.9024581999984	2207.5430721999146	2208.551892899908	2209.588946199976	2211.0962137999013	2212.107250399888	2213.124839999946	2214.143633099972	2215.148696199991	2216.626174000092	2020-06-03 15:53:30.979523	4.25962477285826	7.39608280381991	23.47495946004	23.5022440617442	19.2153346871817	23.47495946004	-4.25962477285826	23.47495946004	7.39608280381991	23.47495946004	19.2153346871817	-23.47495946004	-3.0348730001049278	4.16103157368903	19.16637991457483	15.98944555906576	13.337689897679684	19.16637991457483	-24.13161296198902	14.734598406074815	17.7694714061797	15.997925359564295	7.329486128699562	4	correct	1.0
111.72322220006026	8.114823099924706	nogo_punish	1.0	111.75081570004113	113.25840030005202	115.79599129990675	1.5075846000108868	112.75898750009947	114.77108970005065	118.86065110005438	0.4994127999525517	1.0249015998560935	1.004987699911453	117.84730989998206	0.431860800134018	116.81531880004331	2	1	74	1	nogo_punish	1	-1	0	0	0	1	0	1.0	0.0	0	1.0	0.431860800134018	2104.9024581999984	2216.6532739000395	2217.661445700098	2218.1608585000504	2219.673547900049	2220.698449499905	2221.7177770000417	2222.7497680999804	2223.7631093000527	2224.768096999964	2020-06-03 15:53:30.979523	0.715225980027506	-2.45121826768253	-1.57892690697038	-1.58400630277855	-2.29415288699789	-1.57892690697038	-0.715225980027506	-1.57892690697038	-2.45121826768253	-1.57892690697038	-2.29415288699789	1.57892690697038	-6.579271792935682	-5.686269497813409	-5.8875064524355505	-9.096804805456989	-8.171797676499905	-5.8875064524355505	0.9222734050213603	-10.319287960935567	-3.7400161679998885	-9.055961007446085	-2.517814942802877	4	wrong	1.0
119.86474699992687	8.847932600182958	nogo_punish	1.0	119.89234049990773	121.69254499999806	124.22826709994115	1.8002045000903308	120.91196130006574	123.20840030000545	127.27889510011346	0.7805836999323219	1.0198667999356985	1.4613779999772305	126.26563009992242	0.6374845998361707	125.23663299996406	2	1	75	1	nogo_punish	1	-1	0	0	0	1	0	0.0	1.0	0	1.0	0.6374845998361707	2104.9024581999984	2224.794798699906	2225.814419500064	2226.5950031999964	2228.110858500004	2229.1307252999395	2230.1390911999624	2231.168088299921	2232.181353300112	2233.642731300089	2020-06-03 15:53:30.979523	1.00915032727631	-2.45121826768253	-1.07469286769732	-1.07834986766455	-2.08384319497363	-1.07469286769732	-1.00915032727631	-1.07469286769732	-2.45121826768253	-1.07469286769732	-2.08384319497363	1.07469286769732	-6.285347445686877	-5.686269497813409	-5.383272413162491	-8.591148370342989	-7.961487984475644	-5.383272413162491	0.41803936574830036	-9.815053921662507	-3.5297064759756283	-8.551726968173025	-2.517814942802877	4	correct	1.0
128.75568570010364	9.652091600001313	go_punish	0.3364142999053001	128.7832792000845	131.53882299992256	134.0961319000926	2.755543799838051	129.78223780007102	133.07529249996878	137.14621070004068	1.7565851998515427	1.0208394001238048	1.2891601000451374	136.13347940007225	0.3444789999630302	135.10377359995618	2	1	76	2	go_punish	1	0	-1	1	1	1	0	0.0	1.0	0	0.3364142999053001	0.3444789999630302	2104.9024581999984	2233.685737400083	2234.6846960000694	2236.441281199921	2237.977750699967	2238.998590100091	2240.0062317999545	2241.0359376000706	2242.048668900039	2243.337829000084	2020-06-03 15:53:30.979523	0.652117941497689	-1.26060413331081	-1.62306552331268	-1.26645094572686	-0.970947581814988	-1.62306552331268	-0.652117941497689	-1.26060413331081	-1.62306552331268	-0.970947581814988	-1.62306552331268	1.26060413331081	-6.642379831465498	-4.495655363441689	-5.931645068777851	-8.779249448405299	-6.848592371317002	-5.931645068777851	0.6039506313617904	-9.711308635780174	-3.0689288043146785	-8.737638233786514	-1.6896621984330276	4	correct	1.0
138.45183930010535	9.507828800007701	nogo_reward	1.0	138.47943280008622	141.09392939996906	143.62326520006172	2.614496599882841	139.477880399907	142.5999394000978	146.6660700000357	1.6160490000620484	1.0233257999639136	1.3211916000582278	145.65392019995443	0.2599188000895083	144.63536179997027	2	1	77	3	nogo_reward	1	0	1	0	0	1	0	0.0	1.0	1	1.0	0.2599188000895083	2104.9024581999984	2243.3818910000846	2244.3803385999054	2245.9963875999674	2247.502397600096	2248.52572340006	2249.5378199999686	2250.556378399953	2251.568528200034	2252.8897198000923	2020-06-03 15:53:30.979523	0.266706541962412	7.39608280381991	16.1061612579243	16.1259719413096	15.8394547159619	16.1061612579243	-0.266706541962412	16.1061612579243	7.39608280381991	16.1061612579243	15.8394547159619	7.4703638442104	-7.0277912310007755	4.16103157368903	11.797581712459127	8.613173438631161	9.961809926459885	11.797581712459127	6.8137103422613805	7.365800203959113	14.393591434959902	8.629127157448593	7.329486128699562	4	correct	1.0
148.00100850011222	8.785514199873433	go_punish	0.6114304000511765	148.0286020000931	149.73984869988635	152.29747089999773	1.7112466997932643	149.0296503000427	151.27677590004168	155.3362414999865	0.7101983998436481	1.0206949999560493	1.4778746999800205	154.33617169992067	0.87757180002518	153.31361879990436	2	1	78	2	go_punish	1	0	-1	1	1	1	1	0.0	0.0	0	0.6114304000511765	0.87757180002518	2104.9024581999984	2252.9310602000915	2253.932108500041	2254.6423068998847	2256.17923410004	2257.199929099996	2258.2160769999027	2259.238629899919	2260.238699699985	2261.716574399965	2020-06-03 15:53:30.979523	1.22020804880252	-0.860509631994225	-1.62306552331268	-0.864764812874023	-0.402857474510156	-1.62306552331268	-1.22020804880252	-0.860509631994225	-1.62306552331268	-0.402857474510156	-1.62306552331268	0.860509631994225	-6.074289724160668	-4.0955608621251045	-5.931645068777851	-8.377563315552461	-6.28050226401217	-5.931645068777851	0.20385613004520542	-9.143218528475343	-3.0689288043146785	-8.33754373246993	-1.6896621984330276	4	wrong	1.0
156.8135172999464	8.020781300030649	nogo_punish	0.656196900177747	156.84111079992726	158.5210017000786	161.04630909999833	1.6798909001513493	157.84936910006218	160.03716719988734	164.08685859991238	0.6716326000164372	1.0091419001109898	0.775033500045538	163.0740712999832	0.3852818999439478	162.0610593000897	2	1	79	1	nogo_punish	1	-1	0	0	1	0	0	0.0	1.0	-1	0.656196900177747	0.3852818999439478	2104.9024581999984	2261.7435689999256	2262.7518273000605	2263.423459900077	2264.9396253998857	2265.9487672999967	2266.963517500088	2267.9765294999816	2268.9893167999107	2269.7643502999563	2020-06-03 15:53:30.979523	-1.20472155897926	-2.45121826768253	-0.73633233816121	-0.738972985816107	-1.94105389714047	-0.73633233816121	1.20472155897926	-2.45121826768253	-0.73633233816121	-1.94105389714047	-0.73633233816121	-5.065400792210999	-8.499219331942447	-5.686269497813409	-5.044911883626381	-8.251771488494546	-7.818698686642485	-5.044911883626381	-5.722054294160019	-10.681414951105657	-2.1821956191632084	-9.928252368158235	-0.8029290132815574	4	correct	1.0
164.85746810003184	8.108607100090012	go_reward	0.390447000041604	164.8850616000127	166.37577380007133	168.93140159989707	1.4907122000586241	165.9028260998898	167.90821540006436	171.96892499993555	0.4729477001815212	1.0231861998327076	1.0247437001671642	170.95602490007877	0.4436007000040263	169.93646929995157	2	1	80	4	go_reward	1	1	0	1	1	1	0	0.0	1.0	1	0.390447000041604	0.4436007000040263	2104.9024581999984	2269.787519800011	2270.805284299888	2271.2782320000697	2272.8106736000627	2273.8338597998954	2274.83892749995	2275.858483100077	2276.871383199934	2277.896126900101	2020-06-03 15:53:30.979523	20.4766118541765	21.8025658488581	12.3800262911225	21.924508452591	32.8566381452991	12.3800262911225	-20.4766118541765	21.8025658488581	12.3800262911225	32.8566381452991	12.3800262911225	1.7739592532765975	13.182114081213314	18.567514618727223	8.07144674565733	14.41170994991256	26.978993355797087	8.07144674565733	1.117305751327578	24.116277091333913	10.934163010120502	14.325531748382396	12.313429616002152	4	correct	1.0
173.01010369998448	8.650204499950178	go_punish	0.5169210999738425	173.03769719996535	174.60727660008706	177.16457500006072	1.569579400121711	174.04471480008215	176.1434231000021	180.22005519992672	0.5625618000049144	1.0211519000586122	1.4678464999888092	179.2107512999787	0.2799623000901192	178.1832957000006	2	1	81	2	go_punish	1	0	-1	1	1	1	0	0.0	1.0	0	0.5169210999738425	0.2799623000901192	2104.9024581999984	2277.9401553999637	2278.9471730000805	2279.5097348000854	2281.0458813000005	2282.067033200059	2283.085753899999	2284.113209499977	2285.122513399925	2286.590359899914	2020-06-03 15:53:30.979523	1.60423700712525	-0.590914750774605	-1.62306552331268	-0.594017680164403	-0.0188285161874228	-1.62306552331268	-1.60423700712525	-0.590914750774605	-1.62306552331268	-0.0188285161874228	-1.62306552331268	0.590914750774605	-5.690260765837937	-3.8259659809054845	-5.931645068777851	-8.106816182842842	-5.896473305689437	-5.931645068777851	-0.06573875117441463	-8.759189570152609	-3.0689288043146785	-8.06794885125031	-1.6896621984330276	4	correct	1.0
181.68362180003896	8.568230099976063	go_reward	0.3910570000298321	181.71121530001983	183.47894349996977	186.0299813998863	1.7677281999499428	182.71275210008025	185.005136199994	189.06953099998645	0.7661913998895216	1.0248451998922974	1.2099144000094384	188.05677219992504	0.5506281999405473	187.04331499990076	2	1	82	4	go_reward	1	1	0	1	1	1	1	0.0	0.0	1	0.3910570000298321	0.5506281999405473	2104.9024581999984	2286.613673500018	2287.6152103000786	2288.381401699968	2289.9075943999924	2290.9324395998847	2291.945773199899	2292.9592303999234	2293.971989199985	2295.1819035999943	2020-06-03 15:53:30.979523	21.2243451665633	22.3187291434269	12.3800262911225	22.4063179420796	33.6043714576858	12.3800262911225	-21.2243451665633	22.3187291434269	12.3800262911225	33.6043714576858	12.3800262911225	1.2577959587077991	13.929847393600113	19.08367791329602	8.07144674565733	14.89351943940116	27.726726668183787	8.07144674565733	0.6011424567587795	24.864010403720613	10.934163010120502	14.841695042951194	12.313429616002152	4	wrong	1.0
190.29522480000696	8.863854499999889	go_punish	0.3410956999287009	190.32281829998783	192.33011480001778	194.88466119999066	2.007296500029952	191.33043200010434	193.8608468999155	197.93657239992172	0.9996827999134439	1.0238143000751734	1.2501004000660032	196.93411449994937	0.2512906000483781	195.9049321999778	2	1	83	2	go_punish	0	-1	0	1	1	1	1	1.0	1.0	-1	0.3410956999287009	0.2512906000483781	2104.9024581999984	2295.225276499986	2296.2328902001027	2297.232573000016	2298.763305099914	2299.787119399989	2300.807390399976	2301.8365726999477	2302.83903059992	2304.089130999986	2020-06-03 15:53:30.979523	1.86561824048069	-0.407953024665755	-1.62306552331268	-0.410220337242569	0.242552717168017	-1.62306552331268	-1.86561824048069	-0.407953024665755	-1.62306552331268	0.242552717168017	-1.62306552331268	-7.108666035227775	-5.428879532482497	-3.643004254796635	-5.931645068777851	-7.923018839921007	-5.635092072333997	-5.931645068777851	-7.7653195371767945	-8.497808336797169	-3.0689288043146785	-7.88498712514146	-1.6896621984330276	4	correct	1.0
199.20189250004478	8.26570579991676	nogo_reward	0.7106478998903185	199.22948600002564	200.69269330007955	203.22551820008084	1.4632073000539094	200.2339568999596	202.21662109997123	206.2777418999467	0.4587364001199603	1.008897100109607	1.2174498999956995	205.26411699992605	0.0976116000674665	204.24360779998824	2	1	84	3	nogo_reward	1	0	1	0	1	0	0	0.0	1.0	0	0.7106478998903185	0.0976116000674665	2104.9024581999984	2304.131944200024	2305.136415099958	2305.595151500078	2307.1190792999696	2308.127976400079	2309.1460659999866	2310.1665751999244	2311.180200099945	2312.3976499999408	2020-06-03 15:53:30.979523	-1.61707396603052	7.39608280381991	18.5381112578269	18.552533484816	16.9210372917964	18.5381112578269	1.61707396603052	7.39608280381991	18.5381112578269	16.9210372917964	18.5381112578269	-7.39608280381991	-8.911571738993707	4.16103157368903	14.229531712361727	11.03973498213756	11.043392502294385	14.229531712361727	-8.05273630576893	8.180676237831213	17.0922479768249	-0.08095129665579481	18.47151458270655	4	correct	1.0
207.49307870003395	9.229028299916536	go_reward	0.1150482001248747	207.52067220001481	210.22715170006268	212.76664649997838	2.7064795000478625	208.52010000008158	211.74325360008515	215.803216899978	1.7070516999810934	1.0233928998932242	0.9464835999533534	214.79958190000616	0.3032684999052435	213.78006320004351	2	1	85	4	go_reward	1	1	0	1	1	1	0	0.0	1.0	1	0.1150482001248747	0.3032684999052435	2104.9024581999984	2312.423130400013	2313.42255820008	2315.129609900061	2316.6457118000835	2317.6691046999767	2318.682521400042	2319.7020401000045	2320.7056750999764	2321.6521586999297	2020-06-03 15:53:30.979523	21.7504224355165	22.6814121746263	12.3800262911225	22.7445136363978	34.130448726639	12.3800262911225	-21.7504224355165	22.6814121746263	12.3800262911225	34.130448726639	12.3800262911225	0.8951129275084	14.455924662553315	19.44636094449542	8.07144674565733	15.231715133719362	28.25280393713699	8.07144674565733	0.23845942555938038	25.390087672673815	10.934163010120502	15.204378074150593	12.313429616002152	4	correct	1.0
216.76542089995928	9.331531299976632	go_punish	0.3130723999347538	216.79301439994015	219.2840845999308	221.83264670008793	2.491070199990645	217.8006100000348	220.81141579989344	224.89122379990295	1.4834745998959988	1.021230900194496	1.2333219000138342	223.87924890010618	0.0908838999457657	222.85023509990424	2	1	86	2	go_punish	1	0	-1	1	1	1	0	0.0	1.0	0	0.3130723999347538	0.0908838999457657	2104.9024581999984	2321.6954725999385	2322.703068200033	2324.186542799929	2325.713873999892	2326.7351049000863	2327.7526932999026	2328.7817071001045	2329.7936819999013	2331.027003899915	2020-06-03 15:53:30.979523	-1.40853018595433	-2.73423025475044	-1.62306552331268	-2.73589045398433	-3.031595709267	-1.62306552331268	1.40853018595433	-2.73423025475044	-1.62306552331268	-3.031595709267	-1.62306552331268	2.73423025475044	-8.703027958917517	-5.96928148488132	-5.931645068777851	-10.248688956662768	-8.909240498769014	-5.931645068777851	2.0775767528014204	-11.771956763232186	-3.0689288043146785	-10.211264355226145	-1.6896621984330276	4	correct	1.0
226.12428040010855	9.933414099970832	nogo_punish	1.0	226.1518739000894	229.1292888999451	231.66618159995414	2.9774149998556823	227.1596647000406	230.64631349989213	234.72529769991525	1.9696241999045014	1.0198681000620127	1.3599903001450002	233.712894000113	0.3086918999906629	232.683450399898	2	1	87	1	nogo_punish	1	-1	0	0	0	1	0	0.0	1.0	0	1.0	0.3086918999906629	2104.9024581999984	2331.054332100088	2332.062122900039	2334.0317470999435	2335.5487716998905	2336.5686397999525	2337.5859085998964	2338.6153522001114	2339.6277558999136	2340.9877462000586	2020-06-03 15:53:30.979523	3.73207985035062	-4.07428379099521	-0.73633233816121	-2.96055520326622	-4.46841218851183	-0.73633233816121	-3.73207985035062	-0.73633233816121	-4.07428379099521	-0.73633233816121	-4.46841218851183	0.73633233816121	-3.5624179226125676	-7.30933502112609	-5.044911883626381	-10.473353705944659	-10.346056978013845	-5.044911883626381	0.07967883621219041	-9.476693392126396	-5.914275469513829	-8.213366438636914	-4.140880466115558	4	correct	1.0
236.10192880011164	8.389222799800336	go_punish	0.5033486001193523	236.1295223000925	237.98058469989383	240.4961723999586	1.8510623998013216	237.13618410006166	239.49967309995554	243.5558448000811	0.84440059983217	0.9964993000030518	0.9629002998117357	242.54365210002243	0.3303425000049174	241.5146673999261	2	1	88	2	go_punish	1	0	-1	1	1	1	1	1.0	1.0	0	0.5033486001193523	0.3303425000049174	2104.9024581999984	2341.031980500091	2342.03864230006	2342.883042899892	2344.402131299954	2345.398630599957	2346.4171255999245	2347.446110300021	2348.4583030000795	2349.421203299891	2020-06-03 15:53:30.979523	-0.128228685081091	-1.82028441209397	-1.62306552331268	-1.82150266390793	-1.75129420839377	-1.62306552331268	0.128228685081091	-1.82028441209397	-1.62306552331268	-1.75129420839377	-1.62306552331268	1.82028441209397	-7.422726458044279	-5.05533564222485	-5.931645068777851	-9.334301166586368	-7.628938997895784	-5.931645068777851	1.1636309101449505	-10.491655262358956	-3.0689288043146785	-9.297318512569674	-1.6896621984330276	4	correct	1.0
244.53370100003667	9.7465319999028	go_punish	0.4055562000721693	244.56129450001754	247.33133510011248	249.87298119999468	2.7700406000949442	245.56002689991146	248.8621539999731	252.92383500002325	1.7713082002010196	1.0108272000215948	1.3839914998970926	251.9116106999577	0.3705237999092787	250.88163119996943	2	1	89	2	go_punish	1	0	-1	1	1	1	0	0.0	1.0	0	0.4055562000721693	0.3705237999092787	2104.9024581999984	2349.463752700016	2350.46248509991	2352.233793300111	2353.7646121999715	2354.775439399993	2355.784089399968	2356.814068899956	2357.8262932000216	2359.2102846999187	2020-06-03 15:53:30.979523	0.71036317277401	-1.22461592024408	-1.62306552331268	-1.22551181544715	-0.912702350538667	-1.62306552331268	-0.71036317277401	-1.22461592024408	-1.62306552331268	-0.912702350538667	-1.62306552331268	1.22461592024408	-6.584134600189177	-4.45966715037496	-5.931645068777851	-8.738310318125588	-6.790347140040681	-5.931645068777851	0.5679624182950604	-9.653063404503854	-3.0689288043146785	-8.701650020719786	-1.6896621984330276	4	correct	1.0
254.32239850005135	8.168716300046071	go_punish	0.8690994000062346	254.34999200003222	255.67692989995703	258.2276169001125	1.3269378999248147	255.34951000008732	257.2080196999018	261.2793173000682	0.3274198998697102	1.0195972002106828	1.2393910000100732	260.2655321001075	0.342133600031957	259.2430372000672	2	1	90	2	go_punish	1	0	-1	1	1	1	1	1.0	1.0	0	0.8690994000062346	0.342133600031957	2104.9024581999984	2359.2524502000306	2360.2519682000857	2360.5793880999554	2362.1104778999	2363.130075100111	2364.1454954000656	2365.167990300106	2366.1817755000666	2367.4211665000767	2020-06-03 15:53:30.979523	1.26707816416448	-0.83081425270706	-1.62306552331268	-0.831474540733554	-0.355987359148201	-1.62306552331268	-1.26707816416448	-0.83081425270706	-1.62306552331268	-0.355987359148201	-1.62306552331268	0.83081425270706	-6.0274196087987075	-4.06586548283794	-5.931645068777851	-8.344273043411992	-6.233632148650215	-5.931645068777851	0.17416075075804038	-9.096348413113388	-3.0689288043146785	-8.307848353182765	-1.6896621984330276	4	correct	1.0
262.52022890001535	8.73609340004623	go_reward	0.3071793999988585	262.5478223999962	264.72793520009145	267.2732414000202	2.1801128000952303	263.55663009989075	266.2493316999171	270.3206786001101	1.1713051002006978	1.0239097001031041	0.9632371999323368	269.31194210005924	0.1282581000123173	268.28688749996945	2	1	91	4	go_reward	1	1	0	1	1	1	0	0.0	1.0	1	0.3071793999988585	0.1282581000123173	2104.9024581999984	2367.4502805999946	2368.459088299889	2369.63039340009	2371.1517898999155	2372.1756996000186	2373.189345699968	2374.2144003000576	2375.2231368001085	2376.186374000041	2020-06-03 15:53:30.979523	22.1220346518694	22.9373094417305	12.3800262911225	22.9829013866418	34.5020609429919	12.3800262911225	-22.1220346518694	22.9373094417305	12.3800262911225	34.5020609429919	12.3800262911225	0.6392156604042007	14.827536878906212	19.70225821159962	8.07144674565733	15.47010288396336	28.62441615348989	8.07144674565733	-0.017437841544818866	25.761699889026715	10.934163010120502	15.460275341254793	12.313429616002152	4	correct	1.0
271.28341699996963	8.306470300070941	go_reward	0.0846041999757289	271.3110104999505	272.60858729993924	275.16424140008166	1.2975767999887466	272.3279846000946	274.1401458000764	278.2288355000783	0.2806026998446214	1.0240956000052392	1.388645299943164	277.214032900054	0.3128936998546123	276.1833414998837	2	1	92	4	go_reward	1	1	0	1	1	1	0	0.0	1.0	1	0.0846041999757289	0.3128936998546123	2104.9024581999984	2376.213468699949	2377.230442800093	2377.5110454999376	2379.042604000075	2380.06669960008	2381.085799699882	2382.1164911000524	2383.1312937000766	2384.51993900002	2020-06-03 15:53:30.979523	22.3855047653241	23.1185500666224	12.3800262911225	23.1515841161929	34.7655310564467	12.3800262911225	-22.3855047653241	23.1185500666224	12.3800262911225	34.7655310564467	12.3800262911225	0.45797503551229823	15.091006992360914	19.883498836491523	8.07144674565733	15.638785613514461	28.887886266944683	8.07144674565733	-0.19867846643672138	26.02517000248151	10.934163010120502	15.641515966146695	12.313429616002152	4	correct	1.0
279.6339535000734	8.847040799912065	nogo_reward	1.0	279.66154700005427	282.1661153000314	284.7046433999203	2.504568299977109	280.6600097999908	283.6811468000524	287.74942940007895	1.5061055000405759	1.02349659986794	0.759158399887383	286.74001000006683	0.1894408001098781	285.71078599989414	2	1	93	3	nogo_reward	1	0	1	0	0	1	0	0.0	1.0	1	1.0	0.1894408001098781	2104.9024581999984	2384.5640052000526	2385.562467999989	2387.0685735000297	2388.5836050000507	2389.6071015999187	2390.6132441998925	2391.642468200065	2392.6518876000773	2393.4110459999647	2020-06-03 15:53:30.979523	6.69036334337091	4.98394348730261	18.5381112578269	12.7535004317472	11.847747914456	18.5381112578269	-6.69036334337091	18.5381112578269	4.98394348730261	18.5381112578269	11.847747914456	5.038413844307801	-0.6041344295922775	1.7488922571717302	14.229531712361727	5.240701929068762	5.970103124953987	14.229531712361727	4.381760342358781	9.797750203861712	10.401884633454003	11.061077157351193	4.917346812182262	4	correct	1.0
288.5242117000744	9.27654069988057	nogo_reward	1.0	288.55180520005524	291.02546059992164	293.56408199993894	2.473655399866402	289.54936739988625	292.54057030007243	296.63205219991505	1.4760932000353932	1.0235116998665035	1.1962937000207603	295.6137558000628	0.2774759999010712	294.57774100010283	2	1	94	3	nogo_reward	1	0	1	0	0	1	0	0.0	1.0	1	1.0	0.2774759999010712	2104.9024581999984	2393.4542634000536	2394.4518255998846	2395.92791879992	2397.443028500071	2398.4665401999373	2399.480199200101	2400.516214000061	2401.5345103999134	2402.730804099934	2020-06-03 15:53:30.979523	6.72529532726985	4.98394348730261	20.1390563827697	16.2343558625904	13.4137610554998	20.1390563827697	-6.72529532726985	20.1390563827697	4.98394348730261	20.1390563827697	13.4137610554998	3.4374687193650004	-0.5692024456933371	1.7488922571717302	15.830476837304527	8.721557359911962	7.536116265997785	15.830476837304527	2.780815217415981	11.398695328804513	11.967897774497802	12.662022282293993	4.917346812182262	4	correct	1.0
297.82819240004756	8.769760699942253	nogo_punish	1.0	297.8557859000284	300.15014209994115	302.67937760008545	2.294356199912727	298.8635658998978	301.65604780009016	305.72600089991465	1.2865762000433278	1.023329799995281	0.8995457000560236	304.7233744999394	0.2795365999918431	303.69367310008965	2	1	95	1	nogo_punish	0	0	-1	0	0	1	0	0.0	1.0	-1	1.0	0.2795365999918431	2104.9024581999984	2402.758244100027	2403.766024099896	2405.0526002999395	2406.5585060000885	2407.581835800084	2408.596131300088	2409.6258326999377	2410.628459099913	2411.528004799969	2020-06-03 15:53:30.979523	3.56492410428035	-4.07428379099521	-0.507424688068275	-1.97594888334092	-4.07234879234863	-0.507424688068275	-3.56492410428035	-0.507424688068275	-4.07428379099521	-0.507424688068275	-4.07234879234863	-7.009194371825255	-3.7295736686828374	-7.30933502112609	-4.816004233533445	-9.488747386019359	-9.949993581850645	-4.816004233533445	-7.665847873774275	-9.24778574203346	-5.518212073350629	-7.9844587885439795	-4.140880466115558	4	correct	1.0
306.6233004000969	9.265209099976346	go_reward	0.3750551999546587	306.6508939000778	308.98820300004445	311.53953660000116	2.33730909996666	307.6607490000315	310.5159010000061	314.57243699999526	1.327454000012949	1.023635599995032	1.3436660000588745	313.5600445000455	0.603017499903217	312.54394180001736	2	1	96	4	go_reward	1	1	0	1	1	1	0	0.0	1.0	1	0.3750551999546587	0.603017499903217	2104.9024581999984	2411.553352100076	2412.56320720003	2413.890661200043	2415.4183592000045	2416.4419947999995	2417.4464000000157	2418.462502700044	2419.4748951999936	2420.8185612000525	2020-06-03 15:53:30.979523	22.5729477505151	23.2473704891581	12.3800262911225	23.2713717107407	34.9529740416376	12.3800262911225	-22.5729477505151	23.2473704891581	12.3800262911225	34.9529740416376	12.3800262911225	0.3291546129765983	15.278449977551915	20.012319259027223	8.07144674565733	15.75857320806226	29.07532925213559	8.07144674565733	-0.3274988889724213	26.212612987672415	10.934163010120502	15.770336388682395	12.313429616002152	4	correct	1.0
315.9174176000529	7.929041999856963	nogo_punish	1.0	315.94501110003375	317.27908520004667	319.8042679999494	1.3340741000129128	316.9499353999272	318.79337790003046	322.8495130999945	0.3291498001194668	1.0108900999189245	1.0245399998962057	321.83753599994816	0.0815375999081879	320.81361839990177	2	1	97	1	nogo_punish	1	-1	0	0	0	1	1	1.0	1.0	0	1.0	0.0815375999081879	2104.9024581999984	2420.847469300032	2421.8523935999256	2422.181543400045	2423.695836100029	2424.7067261999478	2425.7160765999	2426.7399941999465	2427.751971299993	2428.776511299889	2020-06-03 15:53:30.979523	2.00823513704173	-4.07428379099521	-2.8027129395448	-3.783471060974	-4.81094807658653	-2.8027129395448	-2.00823513704173	-2.8027129395448	-4.07428379099521	-2.8027129395448	-4.81094807658653	2.8027129395448	-5.2862626359214575	-7.30933502112609	-7.111292485009971	-11.296269563652439	-10.688592866088545	-7.111292485009971	2.14605943759578	-11.543073993509985	-6.2568113575885285	-10.279747040020505	-4.140880466115558	4	correct	1.0
323.88890310004354	8.374550099950284	go_punish	0.2346316999755799	323.9164966000244	325.7123302000109	328.26463459990964	1.7958335999865085	324.9252065999899	327.24352989997715	331.3132295999676	0.7871236000210047	1.0211046999324935	0.977817100007087	330.2992692999542	0.0078296000137925	329.2815175000578	2	1	98	2	go_punish	1	0	-1	1	1	1	0	0.0	1.0	0	0.2346316999755799	0.0078296000137925	2104.9024581999984	2428.8189548000228	2429.8276647999883	2430.6147884000093	2432.1459880999755	2433.167092799908	2434.183975700056	2435.2017274999525	2436.215687799966	2437.193504899973	2020-06-03 15:53:30.979523	1.64050072024758	-0.567617961672374	-1.62306552331268	-0.568105688643016	0.0174351969349042	-1.62306552331268	-1.64050072024758	-0.567617961672374	-1.62306552331268	0.0174351969349042	-1.62306552331268	0.567617961672374	-5.653997052715607	-3.8026691918032536	-5.931645068777851	-8.080904191321455	-5.86020959256711	-5.931645068777851	-0.08903554027664562	-8.722925857030281	-3.0689288043146785	-8.044652062148078	-1.6896621984330276	4	correct	1.0
332.30714270006865	8.97176049998916	nogo_reward	1.0	332.3347362000495	334.7633231000509	337.29172619991004	2.4285869000013918	333.3418328000698	336.2685040999204	340.3429278000258	1.4214902999810874	1.0232220999896526	0.9635689000128878	339.33575240010396	0.0816285000182688	338.30557229998567	2	1	99	3	nogo_reward	1	0	1	0	0	1	0	0.0	1.0	1	1.0	0.0816285000182688	2104.9024581999984	2437.237194400048	2438.244291000068	2439.6657813000493	2441.1709622999188	2442.1941843999084	2443.208030499984	2444.2382106001023	2445.245386000024	2446.208954900037	2020-06-03 15:53:30.979523	6.74070719921793	4.98394348730261	21.2105959312472	18.5448407271744	14.4698887320293	21.2105959312472	-6.74070719921793	21.2105959312472	4.98394348730261	21.2105959312472	14.4698887320293	2.3659291708874974	-0.5537905737452578	1.7488922571717302	16.90201638578203	11.03204222449596	8.592243942527286	16.90201638578203	1.7092756689384778	12.470234877282016	13.024025451027303	13.733561830771496	4.917346812182262	4	correct	1.0
341.3062450001016	8.466675999807194	nogo_punish	1.0	341.3338385000825	343.3066736999899	345.83903219993226	1.972835199907422	342.3383017999586	344.82691899989777	348.879756399896	0.9683719000313431	1.0121132000344915	0.9207580999936908	347.86718429997563	0.3631595999468118	346.84894719999284	2	1	100	1	nogo_punish	1	-1	0	0	0	1	0	0.0	1.0	0	1.0	0.3631595999468118	2104.9024581999984	2446.236296700081	2447.240759999957	2448.2091318999883	2449.729377199896	2450.7414903999306	2451.751405399991	2452.769642499974	2453.7822145998944	2454.702972699888	2020-06-03 15:53:30.979523	2.43732781150346	-4.07428379099521	-1.86770203289631	-2.52867041016103	-4.30502984439978	-1.86770203289631	-2.43732781150346	-1.86770203289631	-4.07428379099521	-1.86770203289631	-4.30502984439978	1.86770203289631	-4.857169961459728	-7.30933502112609	-6.176281578361481	-10.041468912839468	-10.182674633901794	-6.176281578361481	1.2110485309472905	-10.608063086861495	-5.750893125401777	-9.344736133372015	-4.140880466115558	4	correct	1.0
349.79812530009076	8.73557689995505	go_reward	1.0	349.8257188000716	351.5143244001083	354.0502750999294	1.6886056000366807	350.827851699898	353.0301584000699	357.0996848000218	0.6864727002102882	1.0201166998595	1.461610900004871	356.0870666000992	0.0837383999023586	355.06741050002165	2	1	101	4	go_reward	1	1	0	1	0	0	0	0.0	1.0	0	1.0	0.0837383999023586	2104.9024581999984	2454.72817700007	2455.7303098998964	2456.4167826001067	2457.9326166000683	2458.952733299928	2459.96986870002	2460.9895248000976	2462.00214300002	2463.463753900025	2020-06-03 15:53:30.979523	-22.706737232343	23.3392387493915	12.3800262911225	23.356724336717	35.0867635234655	12.3800262911225	22.706737232343	12.3800262911225	23.3392387493915	12.3800262911225	35.0867635234655	-12.3800262911225	-30.001235005306185	20.104187519260623	8.07144674565733	15.843925834038561	29.209118733963486	8.07144674565733	-13.036679793071519	3.6396652371573133	33.6409002424635	4.902992190646795	23.272642074271154	4	correct	1.0
358.57692639995366	8.13106809998817	go_punish	0.2881998000666499	358.60451989993453	360.2698570000939	362.81790830008686	1.6653371001593769	359.6131525998935	361.7970714000985	365.8511548000388	0.6567044002003968	1.0208368999883533	0.8844331998839152	364.84868120006286	0.0386637998744845	363.8354487998877	2	1	102	2	go_punish	1	0	-1	1	1	1	0	0.0	1.0	0	0.2881998000666499	0.0386637998744845	2104.9024581999984	2463.506978099933	2464.515610799892	2465.1723152000923	2466.699529600097	2467.720366500085	2468.737906999886	2469.751139400061	2470.753613000037	2471.638046199921	2020-06-03 15:53:30.979523	1.89307198438479	-0.390166525500368	-1.62306552331268	-0.39052760030882	0.270006461072113	-1.62306552331268	-1.89307198438479	-0.390166525500368	-1.62306552331268	0.270006461072113	-1.62306552331268	0.390166525500368	-5.401425788578397	-3.6252177556312475	-5.931645068777851	-7.903326102987259	-5.607638328429901	-5.931645068777851	-0.2664869764486516	-8.470354592893074	-3.0689288043146785	-7.867200625976073	-1.6896621984330276	4	correct	1.0
366.75103270006366	9.628348199883476	go_punish	0.4097186999861151	366.7786262000445	369.61330409999937	372.16445700009353	2.8346778999548405	367.78668719995767	371.1412134999414	375.22048470005393	1.8266169000416994	1.023243500152148	1.1864896998740733	374.2083850998897	0.3089803999755531	373.1781915000174	2	1	103	2	go_punish	0	-1	0	1	1	1	0	0.0	1.0	-1	0.4097186999861151	0.3089803999755531	2104.9024581999984	2471.681084400043	2472.689145399956	2474.5157622999977	2476.0436716999398	2477.066915200092	2478.080649700016	2479.110843299888	2480.1229429000523	2481.3094325999264	2020-06-03 15:53:30.979523	2.06510180368713	-0.269646871721909	-1.62306552331268	-0.269914790945456	0.442036280374453	-1.62306552331268	-2.06510180368713	-0.269646871721909	-1.62306552331268	0.442036280374453	-1.62306552331268	-7.246972188171621	-5.229395969276057	-3.5046981018527887	-5.931645068777851	-7.782713293623894	-5.435608509127561	-5.931645068777851	-7.9036256901206405	-8.298324773590734	-3.0689288043146785	-7.7466809721976135	-1.6896621984330276	4	correct	1.0
376.42325880005956	8.175927100004628	nogo_reward	1.0	376.4508523000404	378.2907314999029	380.80260689998977	1.8398791998624802	377.4578044000082	379.7866591000934	383.85226200008765	0.8329270998947322	1.0159477998963666	0.7745173999574035	382.83997430000454	0.2811855999752879	381.81086240010336	2	1	104	3	nogo_reward	1	0	1	0	0	1	0	0.0	1.0	1	1.0	0.2811855999752879	2104.9024581999984	2481.353310500039	2482.3602626000065	2483.1931896999013	2484.6891173000918	2485.705065099988	2486.7133206001017	2487.742432500003	2488.754720200086	2489.5292376000434	2020-06-03 15:53:30.979523	6.74652044172913	4.98394348730261	21.9366096674439	20.1008974527869	15.1900892257147	21.9366096674439	-6.74652044172913	21.9366096674439	4.98394348730261	21.9366096674439	15.1900892257147	1.6399154346907991	-0.5479773312340575	1.7488922571717302	17.62803012197873	12.58809895010846	9.312444436212687	17.62803012197873	0.9832619327417795	13.196248613478714	13.744225944712703	14.459575566968194	4.917346812182262	4	correct	1.0
384.64492180012167	8.354165699798614	nogo_reward	1.0	384.67251530010253	386.4793539000675	389.0189398000948	1.8068385999649763	385.66770239989273	387.9950910001062	392.06460679997735	0.8116515001747757	1.0238487999886274	0.9620741999237907	391.0521738999523	0.1596619000192731	390.0323739000596	2	1	105	3	nogo_reward	1	0	1	0	0	1	0	0.0	1.0	1	1.0	0.1596619000192731	2104.9024581999984	2489.574973500101	2490.570160599891	2491.381812100066	2492.8975492001045	2493.921398000093	2494.934832100058	2495.9546320999507	2496.9670649999757	2497.9291391998995	2020-06-03 15:53:30.979523	6.74775172316776	4.98394348730261	22.4331485006146	21.1602668593678	15.6853967774469	22.4331485006146	-6.74775172316776	22.4331485006146	4.98394348730261	22.4331485006146	15.6853967774469	1.1433766015200995	-0.5467460497954271	1.7488922571717302	18.124568955149428	13.647468356689359	9.807751987944886	18.124568955149428	0.48672309957107984	13.692787446649413	14.239533496444903	14.956114400138894	4.917346812182262	4	correct	1.0
393.0247871999163	8.790715800132602	go_reward	0.6585679999552667	393.0523806998972	395.49056100007147	398.0427973000337	2.438180300174281	394.0623753000982	397.02302370010875	401.0841300999746	1.4281856999732554	1.0197735999249744	0.7589664000552148	400.08172919997014	0.411787600023672	399.06129439990036	2	1	106	4	go_reward	0	0	1	1	1	1	0	0.0	1.0	0	0.6585679999552667	0.411787600023672	2104.9024581999984	2497.9548388998955	2498.9648335000966	2500.39301920007	2501.925481900107	2502.945255500032	2503.9637525998987	2504.9841873999685	2505.986588299973	2506.745554700028	2020-06-03 15:53:30.979523	23.3496761236916	23.3392387493915	8.38136407665151	16.0216533045072	31.7310402003431	8.38136407665151	-23.3496761236916	23.3392387493915	8.38136407665151	31.7310402003431	8.38136407665151	-23.3392387493915	16.055178350728415	20.104187519260623	4.072784531186339	8.508854801828761	25.853395410841085	4.072784531186339	-23.99589225134052	22.990679146377914	6.935500795649512	15.862204648915796	8.314767401531162	4	correct	1.0
401.8407735000369	8.487292699981026	go_reward	0.5371179999783635	401.86836700001777	403.4209781999234	405.95118049997836	1.5526111999056411	402.87793299998157	404.93667090008967	409.00710320007056	0.5430451999418437	1.0145095998886973	1.348556499928236	407.99565150006674	0.2154486998915672	406.9656744999811	2	1	107	4	go_reward	1	1	0	1	1	1	0	0.0	1.0	1	0.5371179999783635	0.2154486998915672	2104.9024581999984	2506.770825200016	2507.78039119998	2508.323436399922	2509.839129100088	2510.8536386999767	2511.8681326999795	2512.898109700065	2513.909561400069	2515.258117899997	2020-06-03 15:53:30.979523	13.729505007554	16.0088805702386	8.38136407665151	11.0814563724247	22.1108690842056	8.38136407665151	-13.729505007554	16.0088805702386	8.38136407665151	22.1108690842056	8.38136407665151	7.5676445318961	6.435007234590812	12.773829340107719	4.072784531186339	3.5686578697462616	16.233224294703586	4.072784531186339	6.9109910299470805	13.370508030240414	6.935500795649512	8.531846469762893	8.314767401531162	4	correct	1.0
410.3553689001128	8.527611199999683	nogo_punish	1.0	410.3829624000937	412.4447242999454	414.96056089992635	2.0617618998517173	411.3933558999561	413.94994310010225	417.99584010010585	1.0513683999893146	1.0106177998241037	0.9147334999875056	416.9831775999628	0.025359199848026	415.9688198999502	2	1	108	1	nogo_punish	1	-1	0	0	0	1	0	0.0	1.0	0	1.0	0.025359199848026	2104.9024581999984	2515.285420600092	2516.2958140999544	2517.3471824999438	2518.8524013001006	2519.8630190999247	2520.8712780999485	2521.885635799961	2522.898298300104	2523.8130318000917	2020-06-03 15:53:30.979523	2.71053218103348	-4.07428379099521	-1.25761782958325	-1.70642555001729	-3.96815001061674	-1.25761782958325	-2.71053218103348	-1.25761782958325	-4.07428379099521	-1.25761782958325	-3.96815001061674	1.25761782958325	-4.583965591929708	-7.30933502112609	-5.566197375048421	-9.21922405269573	-9.845794800118753	-5.566197375048421	0.6009643276342305	-9.997978883548436	-5.414013291618739	-8.734651930058956	-4.140880466115558	4	correct	1.0
418.9265050000977	8.491725699976087	go_punish	0.6372297001071274	418.95409850007854	420.5037287999876	423.0557679000776	1.5496302999090403	419.9512100000866	422.0361874999944	426.1024038998876	0.5525187999010086	1.019580400083214	1.343420300167054	425.09916480001993	0.2437915999908	424.07128269993746	2	1	109	2	go_punish	1	0	-1	1	1	1	0	0.0	1.0	0	0.6372297001071274	0.2437915999908	2104.9024581999984	2523.856556700077	2524.853668200085	2525.406186999986	2526.938645699993	2527.958226100076	2528.973740899936	2530.0016230000183	2531.004862099886	2532.348282400053	2020-06-03 15:53:30.979523	-1.27012746809466	-2.63849192326769	-1.62306552331268	-2.63869117661413	-2.89319299140734	-1.62306552331268	1.27012746809466	-2.63849192326769	-1.62306552331268	-2.89319299140734	-1.62306552331268	2.63849192326769	-8.564625241057847	-5.87354315339857	-5.931645068777851	-10.151489679292569	-8.770837780909353	-5.931645068777851	1.9818384213186704	-11.633554045372527	-3.0689288043146785	-10.115526023743396	-1.6896621984330276	4	correct	1.0
427.4634515000507	8.951415299903601	nogo_reward	1.0	427.4910450000316	429.4602367999032	431.99673940008506	1.9691917998716235	428.48761800001375	430.97330680000596	435.0524339999538	0.9726187998894602	1.0234326000791043	1.3900262999814004	434.0396424999926	0.0599414999596774	433.0101445000614	2	1	110	3	nogo_reward	1	0	1	0	0	1	0	0.0	1.0	1	1.0	0.0599414999596774	2104.9024581999984	2532.39350320003	2533.390076200012	2534.3626949999016	2535.8757650000043	2536.8991976000834	2537.91260270006	2538.942100699991	2539.954892199952	2541.3449184999336	2020-06-03 15:53:30.979523	6.74694690545927	4.98394348730261	22.7752993541154	21.8875927896536	16.0283524486561	22.7752993541154	-6.74694690545927	22.7752993541154	4.98394348730261	22.7752993541154	16.0283524486561	0.8012257480192986	-0.5475508675039178	1.7488922571717302	18.46671980865023	14.37479428697516	10.150707659154087	18.46671980865023	0.14457224607027896	14.034938300150214	14.582489167654103	15.298265253639695	4.917346812182262	4	correct	1.0
436.45967480004765	8.853364599868655	nogo_reward	1.0	436.4872683000285	438.3274358001072	440.8482276999857	1.8401675000786781	437.4825112000108	439.8320881999098	443.9035286998842	0.8449246000964195	1.0161395000759512	1.437104200012982	442.88543769996613	0.0171535001136362	441.85692779999226	2	1	111	3	nogo_reward	1	0	1	0	0	1	0	0.0	1.0	1	1.0	0.0171535001136362	2104.9024581999984	2541.389726500027	2542.384969400009	2543.2298940001056	2544.734546399908	2545.750685899984	2546.7593859999906	2547.7878958999645	2548.8059868998826	2550.2430910998955	2020-06-03 15:53:30.979523	6.74538058858153	4.98394348730261	23.0125374757785	22.3903743278868	16.2671568871969	23.0125374757785	-6.74538058858153	23.0125374757785	4.98394348730261	23.0125374757785	16.2671568871969	0.563987626356198	-0.5491171843816574	1.7488922571717302	18.70395793031333	14.87757582520836	10.389512097694887	18.70395793031333	-0.09266587559282158	14.272176421813315	14.821293606194903	15.535503375302795	4.917346812182262	4	correct	1.0
445.3573008000385	8.894700800068676	nogo_reward	1.0	445.38489430001937	447.28992259991355	449.8297570999707	1.9050282998941839	446.38480499992147	448.80585110001266	452.86473620007746	0.9051175999920815	1.0239059999580604	1.4148589000105858	451.8528507000301	0.3990784001071006	450.8382043999154	2	1	112	3	nogo_reward	0	1	0	0	0	1	1	1.0	1.0	0	1.0	0.3990784001071006	2104.9024581999984	2550.2873525000177	2551.28726319992	2552.192380799912	2553.708309300011	2554.732215299969	2555.740662599914	2556.7553089000285	2557.767194400076	2559.1820533000864	2020-06-03 15:53:30.979523	6.74366783037215	4.98394348730261	23.1779117376409	22.7399378624505	16.4342439072687	23.1779117376409	-6.74366783037215	23.1779117376409	4.98394348730261	23.1779117376409	16.4342439072687	-23.1779117376409	-0.5508299425910375	1.7488922571717302	18.86933219217573	15.22713935977206	10.556599117766687	18.86933219217573	-23.83456523958992	14.437550683675715	14.988380626266704	15.700877637165195	4.917346812182262	4	correct	1.0
454.2766056000255	9.7415984999393	go_reward	0.2985960999503732	454.3041991000064	457.05541340005584	459.6017837000545	2.751214300049469	455.31789389997766	458.5868303999305	462.6468948998954	1.7375195000781787	1.0149533001240343	1.3989027000502574	461.6333546999376	0.2390422001481056	460.61103960010223	2	1	113	4	go_reward	1	1	0	1	1	1	0	0.0	1.0	1	0.2985960999503732	0.2390422001481056	2104.9024581999984	2559.2066573000047	2560.220352099976	2561.957871600054	2563.489288599929	2564.504241900053	2565.5134978001006	2566.535812899936	2567.549353099894	2568.948255799944	2020-06-03 15:53:30.979523	17.9981072597968	18.4681844938694	8.38136407665151	15.1115786762614	26.3794713364483	8.38136407665151	-17.9981072597968	18.4681844938694	8.38136407665151	26.3794713364483	8.38136407665151	5.108340608265298	10.703609486833614	15.233133263738521	4.072784531186339	7.598780173582962	20.501826546946287	4.072784531186339	4.451687106316278	17.639110282483117	6.935500795649512	10.991150393393696	8.314767401531162	4	correct	1.0
464.0612920001149	8.86523969983682	go_punish	0.3649751998018473	464.0888855000958	466.3209913999308	468.85749220009893	2.2321058998350054	465.09675940009765	467.83679169998504	471.89815089991316	1.2242319998331368	1.0207005001138896	1.055974300019443	470.88573909993283	0.0637880999129265	469.8633493001107	2	1	114	2	go_punish	1	0	-1	1	1	1	0	0.0	1.0	0	0.3649751998018473	0.0637880999129265	2104.9024581999984	2568.991343700094	2569.999217600096	2571.223449599929	2572.7392498999834	2573.7599504000973	2574.765807500109	2575.788197299931	2576.8006090999115	2577.856583399931	2020-06-03 15:53:30.979523	-0.0317967368289995	-1.75372116680942	-1.62306552331268	-1.75386969574111	-1.65486226014168	-1.62306552331268	0.0317967368289995	-1.75372116680942	-1.62306552331268	-1.65486226014168	-1.62306552331268	1.75372116680942	-7.326294509792187	-4.988772396940299	-5.931645068777851	-9.266668198419548	-7.532507049643694	-5.931645068777851	1.0970676648604003	-10.395223314106866	-3.0689288043146785	-9.230755267285124	-1.6896621984330276	4	correct	1.0
472.9694493000861	8.464737499831244	go_punish	0.7049014000222087	472.997042800067	474.36405700002797	476.92617719992995	1.3670141999609768	474.0051607999485	475.89940010011196	479.9765701000574	0.3588962000794709	1.0267770998179913	1.4852101998408216	478.9673778999131	0.0793906999751925	477.9386817999184	2	1	115	2	go_punish	0	-1	0	1	1	1	0	0.0	1.0	-1	0.7049014000222087	0.0793906999751925	2104.9024581999984	2577.8995010000654	2578.907618999947	2579.2665152000263	2580.8018583001103	2581.8286353999283	2582.841139999917	2583.8698360999115	2584.879028300056	2586.3642384998966	2020-06-03 15:53:30.979523	0.777819373108862	-1.178146645529	-1.62306552331268	-1.1782576214634	-0.845246150203816	-1.62306552331268	-0.777819373108862	-1.178146645529	-1.62306552331268	-0.845246150203816	-1.62306552331268	-6.33847241436453	-6.516678399854325	-4.413197875659879	-5.931645068777851	-8.691056124141838	-6.72289093970583	-5.931645068777851	-6.995125916313549	-9.585607204169001	-3.0689288043146785	-8.655180746004705	-1.6896621984330276	4	correct	1.0
481.4622545999009	9.550520200049505	nogo_punish	1.0	481.4898480998818	484.2616977998987	486.78769339993596	2.771849700016901	482.49700869992375	485.7666150999721	489.83147819992155	1.7646890999749303	1.0210782999638468	1.2088901000097394	488.81910119997383	0.0823564000893384	487.80577159998984	2	1	116	1	nogo_punish	1	-1	0	0	0	1	0	0.0	1.0	0	1.0	0.0823564000893384	2104.9024581999984	2586.39230629988	2587.399466899922	2589.164155999897	2590.6690732999705	2591.6901515999343	2592.708229799988	2593.721559399972	2594.73393639992	2595.9428264999297	2020-06-03 15:53:30.979523	2.88760441380851	-4.07428379099521	-0.853892226752675	-1.16061082503844	-3.74149664056119	-0.853892226752675	-2.88760441380851	-0.853892226752675	-4.07428379099521	-0.853892226752675	-3.74149664056119	0.853892226752675	-4.406893359154678	-7.30933502112609	-5.162471772217845	-8.673409327716879	-9.619141430063204	-5.162471772217845	0.19723872480365534	-9.594253280717862	-5.187359921563188	-8.33092632722838	-4.140880466115558	4	correct	1.0
491.0388581000734	8.82817059988156	go_reward	0.0883010998368263	491.0664516000543	493.4191048000939	495.9608616998885	2.35265320003964	492.07454570010304	494.95095769991167	499.0047297999263	1.3445590999908745	1.0099039999768138	0.8898924000095576	497.9926909999922	0.1444854999426752	496.97861450002574	2	1	117	4	go_reward	0	0	1	1	1	1	0	0.0	1.0	0	0.0883010998368263	0.1444854999426752	2104.9024581999984	2595.9689098000526	2596.9770039001014	2598.3215630000923	2599.85341589991	2600.863319899887	2601.881072700024	2602.8951491999906	2603.9071879999246	2604.797080399934	2020-06-03 15:53:30.979523	20.8369875511851	20.0886530085828	8.38136407665151	17.7818036492547	29.2183516278367	8.38136407665151	-20.8369875511851	20.0886530085828	8.38136407665151	29.2183516278367	8.38136407665151	-20.0886530085828	13.542489778221913	16.85360177845192	4.072784531186339	10.269005146576262	23.340706838334686	4.072784531186339	-20.74530651053182	20.477990573871516	6.935500795649512	12.611618908107094	8.314767401531162	4	correct	1.0
499.8930063999728	7.954940200084366	nogo_punish	1.0	499.9205998999537	501.4302739999257	503.9557988999877	1.5096740999720168	500.9211834000894	502.94738140003756	507.00679549993947	0.5090905998363269	1.0084174999501556	0.8687446000985801	505.9949654000811	0.2063866998068988	504.97374959988565	2	1	118	1	nogo_punish	1	-1	0	0	0	1	1	1.0	1.0	0	1.0	0.2063866998068988	2104.9024581999984	2604.823058099952	2605.8236416000877	2606.332732199924	2607.849839600036	2608.858257099986	2609.876207799884	2610.8974236000795	2611.909253699938	2612.7779983000364	2020-06-03 15:53:30.979523	3.00392106970789	-4.07428379099521	-0.58382760972406	-0.79463834298778	-3.58774867943195	-0.58382760972406	-3.00392106970789	-0.58382760972406	-4.07428379099521	-0.58382760972406	-3.58774867943195	0.58382760972406	-4.290576703255297	-7.30933502112609	-4.892407155189231	-8.307436845666219	-9.465393468933964	-4.892407155189231	-0.07282589222495961	-9.324188663689245	-5.033611960433948	-8.060861710199765	-4.140880466115558	4	correct	1.0
507.87244990002364	8.2023531999439	go_reward	0.5468295000027865	507.9000434000045	509.2562528999988	511.8102986998856	1.3562094999942929	508.9012869000435	510.784393100068	514.864329499891	0.3549659999553114	1.0259055998176336	1.2380671000573784	513.8527893999126	0.3575031000655144	512.8225692999549	2	1	119	4	go_reward	1	1	0	1	1	1	1	1.0	1.0	1	0.5468295000027865	0.3575031000655144	2104.9024581999984	2612.802501600003	2613.803745100042	2614.158711099997	2615.6868513000663	2616.712756899884	2617.7250274999533	2618.755247599911	2619.7667876998894	2621.0048547999468	2020-06-03 15:53:30.979523	11.9705162701877	13.7780843909381	8.38136407665151	12.1814535048808	20.3518803468393	8.38136407665151	-11.9705162701877	13.7780843909381	8.38136407665151	20.3518803468393	8.38136407665151	9.7984407111966	4.676018497224512	10.54303316080722	4.072784531186339	4.668655002202361	14.474235557337288	4.072784531186339	9.14178720924758	11.611519292874116	6.935500795649512	6.301050290462395	8.314767401531162	4	correct	1.0
516.1171264001168	8.35282489983365	go_punish	0.6428215000778437	516.1447199000977	517.5011652000248	520.0341423999057	1.3564452999271452	517.152956899954	519.0231200999115	523.0819554000627	0.34820830007083714	1.011022299994238	1.4155893998686224	522.0696308999322	0.3490521998610347	521.0440066000447	2	1	120	2	go_punish	1	0	-1	1	1	1	0	0.0	1.0	0	0.6428215000778437	0.3490521998610347	2104.9024581999984	2621.047178100096	2622.0554150999524	2622.403623400023	2623.92557829991	2624.936600599904	2625.946464800043	2626.9720890999306	2627.984413600061	2629.4000029999297	2020-06-03 15:53:30.979523	-2.13867129189587	-3.24946536637495	-1.62306552331268	-3.24954847912705	-3.76173681520855	-1.62306552331268	2.13867129189587	-3.24946536637495	-1.62306552331268	-3.76173681520855	-1.62306552331268	3.24946536637495	-9.433169064859058	-6.48451659650583	-5.931645068777851	-10.76234698180549	-9.639381604710564	-5.931645068777851	2.5928118644259306	-12.502097869173737	-3.0689288043146785	-10.726499466850655	-1.6896621984330276	4	correct	1.0
