onset	duration	trial_type	response_time	cueOnset	targetOnset	fbOnset	cueRT	firstfixOnset	secondfixOnset	waitOnset	firstfixdur	secondfixdur	waitdur	nback_fbOnset	nback_response_time	nback_targetOnset	block	wm	trial	cue	cond	is_common	outcome_go	outcome_nogo	key_correct	key_pressed	is_correct	key_correct_nback	key_pressed_nback	is_correct_nback	outcome	rt	rt_nback	time_scan	time_onset	time_isi1	time_circle	time_isi2	time_feedback	time_same	time_correct	time_iti	time_done	timestamp_scan	DV	Qgo	Qnogo	SV	Wgo	Wnogo	mDV	Qchosen	Qunchosen	Wchosen	Wunchosen	PE	DVC	QgoC	QnogoC	SVC	WgoC	WnogoC	PEC	WchosenC	WunchosenC	QchosenC	QunchosenC	run	outcome_nback	nback_targetResp
0.0	9.073355800006539	go_punish	0.355294199893251	0.04291660012677312	2.625898100202903	5.177621599985287	2.58298150007613	1.0467934000771493	4.155312000075128	8.207149300025776	1.5791047001257539	1.0223095999101588	0.9091231001075357	7.200374900130555	1.0	6.1914320001378655	2	1	1	2	go_punish	1	0	-1	1	1	1	0	n/a	0.0	-1	0.355294199893251	1.0	1512.7037231998984	1512.7466398000252	1513.7505165999755	1515.3296213001013	1516.8590351999735	1517.8813447998837	1518.8951552000362	1519.904098100029	1520.9108724999242	1521.8199956000317	2020-06-03 15:43:38.783178	0.82975001159505	0.0	0.0	0.0	0.82975001159505	0.0	-0.82975001159505	0.0	0.0	0.82975001159505	0.0	0.0	-6.4647477613681374	-3.2350512301308796	-4.308579545465171	-7.5127985026784385	-5.047894777906964	-4.308579545465171	-0.6566535019490196	-7.910611042370136	-1.4458632810019982	-7.477034100475705	-0.06659667512034739	3	missed	0.0
9.127980399876833	9.342309900093824	nogo_reward	0.5766741000115871	9.170897000003606	11.63878220017068	14.18256420013472	2.467885200167075	10.175896800123155	13.169137600110844	17.23813000018731	1.4628854000475258	1.0134266000238767	1.2750768999101183	16.23078120010905	0.9357459000311792	15.199609800009057	2	1	2	3	nogo_reward	1	0	1	0	1	0	0	0.0	1.0	0	0.5766741000115871	0.9357459000311792	1512.7037231998984	1521.874620199902	1522.8796200000215	1524.342505400069	1525.8728608000092	1526.886287400033	1527.9033329999074	1528.9345044000074	1529.9418532000857	1531.2169300999958	2020-06-03 15:43:38.783178	0.82975001159505	0.0	0.0	0.0	0.82975001159505	0.0	-0.82975001159505	0.0	0.0	0.82975001159505	0.0	0.0	-6.4647477613681374	-3.2350512301308796	-4.308579545465171	-7.5127985026784385	-5.047894777906964	-4.308579545465171	-0.6566535019490196	-7.910611042370136	-1.4458632810019982	-7.477034100475705	-0.06659667512034739	3	correct	1.0
18.51322119985707	8.06029640021734	nogo_reward	0.6313891001045704	18.556137799983844	20.123905300162733	22.666123600210994	1.5677675001788884	19.556319900090102	21.646380600053817	25.715483100153733	0.5675854000726304	1.0197430001571774	0.9009511000474504	24.71322760009207	0.5484981001354754	23.68489410006441	2	1	3	3	nogo_reward	1	0	1	0	1	0	0	0.0	1.0	0	0.6313891001045704	0.5484981001354754	1512.7037231998984	1531.2598609998822	1532.2600430999885	1532.827628500061	1534.3501037999522	1535.3698468001094	1536.3886172999628	1537.4169507999904	1538.419206300052	1539.3201574000996	2020-06-03 15:43:38.783178	0.82975001159505	0.0	0.0	0.0	0.82975001159505	0.0	-0.82975001159505	0.0	0.0	0.82975001159505	0.0	0.0	-6.4647477613681374	-3.2350512301308796	-4.308579545465171	-7.5127985026784385	-5.047894777906964	-4.308579545465171	-0.6566535019490196	-7.910611042370136	-1.4458632810019982	-7.477034100475705	-0.06659667512034739	3	correct	1.0
26.616193699883297	9.135617700172588	go_punish	1.0	26.65911030001007	28.83881920017302	31.362059000181034	2.17970890016295	27.66756740002893	30.34530400019139	34.40358750009932	1.1712518001440912	1.0167549999896437	1.3911405000833383	33.40078730019741	0.7362997001037002	32.36400609998964	2	1	4	2	go_punish	1	0	-1	1	0	0	0	0.0	1.0	-1	1.0	0.7362997001037002	1512.7037231998984	1539.3628334999084	1540.3712905999273	1541.5425424000714	1543.0490272000898	1544.0657822000794	1545.067729299888	1546.1045105000958	1547.1073106999977	1548.498451200081	2020-06-03 15:43:38.783178	2.62336398010474	-2.45121826768253	0.0	-2.45121826768253	-2.62336398010474	0.0	-2.62336398010474	0.0	-2.45121826768253	0.0	-2.62336398010474	-7.51661905989353	-4.6711337928584475	-5.686269497813409	-4.308579545465171	-9.964016770360969	-8.501008769606754	-4.308579545465171	-8.173272561842548	-8.740361053965186	-4.069227261106738	-7.477034100475705	-2.517814942802877	3	correct	1.0
35.796881600050256	7.833989799953997	nogo_reward	1.0	35.83979820017703	37.17946280003525	39.72020840016194	1.3396645998582244	36.846795900026336	38.69649670016952	42.75959500018507	0.33266690000891685	1.0237116999924183	0.9141929999459535	41.74036270007491	1.0	40.73078109999187	2	1	5	3	nogo_reward	1	0	1	0	0	1	1	n/a	0.0	1	1.0	1.0	1512.7037231998984	1548.5435214000754	1549.5505190999247	1549.8831859999336	1551.400219900068	1552.4239316000603	1553.4345042998902	1554.4440858999733	1555.4633182000834	1556.3775112000294	2020-06-03 15:43:38.783178	-0.82975001159505	0.0	0.0	0.0	0.82975001159505	0.0	0.82975001159505	0.0	0.0	0.0	0.82975001159505	23.5765251021347	-8.124247784558237	-3.2350512301308796	-4.308579545465171	-7.5127985026784385	-5.047894777906964	-4.308579545465171	22.91987160018568	-8.740361053965186	-0.6161132694069482	-7.477034100475705	-0.06659667512034739	3	missed	0.0
43.67317429999821	8.40637640003115	nogo_reward	1.0	43.71609090012498	45.08427180000581	47.613138700136915	1.3681808998808265	44.724754500202835	46.589081900194515	50.66490610013716	0.35951729980297387	1.0240567999424002	1.4575612000189722	49.66094570001587	0.470637199934572	48.62571960012451	2	1	6	3	nogo_reward	1	0	1	0	0	1	0	0.0	1.0	1	1.0	0.470637199934572	1512.7037231998984	1556.4198141000234	1557.4284777001012	1557.7879949999042	1559.292805100093	1560.3168619000353	1561.329442800023	1562.3646688999142	1563.3686293000355	1564.8261905000545	2020-06-03 15:43:38.783178	3.18054303674493	0.0	7.39608280381991	7.39608280381991	4.21553976707498	7.39608280381991	-3.18054303674493	7.39608280381991	0.0	7.39608280381991	4.21553976707498	16.180442298314787	-4.113954736218258	-3.2350512301308796	3.0875032583547393	-0.1167156988585285	-1.662105022427034	3.0875032583547393	15.523788796365768	-1.3442782501452761	2.769676486072982	-0.08095129665579481	-0.06659667512034739	3	correct	1.0
52.121316300006356	8.998009299859632	nogo_reward	1.0	52.16423290013313	54.649019700009376	57.17805190011859	2.4847867998762467	53.17388210003264	56.154303800081834	60.223204600159306	1.4751375999767333	1.0237481000367552	0.9390375998334548	59.22004450019449	0.609049100195989	58.19238580018282	2	1	7	3	nogo_reward	1	0	1	0	0	1	1	1.0	1.0	1	1.0	0.609049100195989	1512.7037231998984	1564.8679561000315	1565.877605299931	1567.3527428999078	1568.8580269999802	1569.881775100017	1570.8961090000812	1571.9237677000929	1572.9269278000577	1573.8659653998911	2020-06-03 15:43:38.783178	5.85304808126128	0.0	12.3800262911225	12.3800262911225	6.52697820986124	12.3800262911225	-5.85304808126128	12.3800262911225	0.0	12.3800262911225	6.52697820986124	11.1964988110122	-1.4414496917019077	-3.2350512301308796	8.07144674565733	4.867227788444061	0.649333420359226	8.07144674565733	10.53984530906318	3.6396652371573133	5.081114928859241	4.902992190646795	-0.06659667512034739	3	correct	1.0
61.160849099978805	8.593293000012636	nogo_reward	1.0	61.20376570010558	63.026005499996245	65.56476230011322	1.8222397998906672	62.213269200176	64.54084090003744	68.58365750010125	0.8127362998202443	1.0239214000757784	1.2134012000169605	67.58233530004532	0.4148111999966204	66.56864220020361	2	1	8	3	nogo_reward	1	0	1	0	0	1	1	1.0	1.0	1	1.0	0.4148111999966204	1512.7037231998984	1573.907488900004	1574.9169924000744	1575.7297286998946	1577.2445640999358	1578.2684855000116	1579.272365400102	1580.2860584999437	1581.2873806999996	1582.5007819000166	2020-06-03 15:43:38.783178	7.65837981974902	0.0	15.7774468804714	15.7774468804714	8.1190670607224	15.7774468804714	-7.65837981974902	15.7774468804714	0.0	15.7774468804714	8.1190670607224	7.799078221663299	0.36388204678583236	-3.2350512301308796	11.46886733500623	8.264648377792962	2.2414222712203866	11.46886733500623	7.142424719714279	7.037085826506214	6.673203779720403	8.300412779995696	-0.06659667512034739	3	correct	1.0
69.78505359985866	8.231974900001887	nogo_punish	1.0	69.82797019998543	71.17527170013636	73.68718110001646	1.3473015001509339	70.82624209998153	72.67754780012183	76.73822770011611	0.34902960015483586	1.009633299894631	1.3217173998712042	75.72716990020126	0.8620052000042051	74.70622270018794	2	1	9	1	nogo_punish	1	-1	0	0	0	1	0	0.0	1.0	0	1.0	0.8620052000042051	1512.7037231998984	1582.5316933998838	1583.52996529988	1583.8789949000347	1585.3812710000202	1586.3909042999148	1587.4099459000863	1588.4308931000996	1589.4419509000145	1590.7636682998857	2020-06-03 15:43:38.783178	-0.82975001159505	0.0	0.0	0.0	0.82975001159505	0.0	0.82975001159505	0.0	0.0	0.0	0.82975001159505	0.0	-8.124247784558237	-3.2350512301308796	-4.308579545465171	-7.5127985026784385	-5.047894777906964	-4.308579545465171	-0.6566535019490196	-8.740361053965186	-0.6161132694069482	-7.477034100475705	-0.06659667512034739	3	correct	1.0
78.041618200019	8.343226299853768	nogo_punish	0.4491302999667823	78.08453480014578	79.42709040013142	81.97727300017141	1.3425555999856442	79.09755950002	80.95368240005314	85.00457540014759	0.32953090011142194	1.0235906001182684	1.423185699851956	84.00026850006543	1.0	82.98984180018306	2	1	10	1	nogo_punish	1	-1	0	0	1	0	0	n/a	0.0	0	0.4491302999667823	1.0	1512.7037231998984	1590.7882580000442	1591.8012826999184	1592.1308136000298	1593.6574055999515	1594.6809962000698	1595.6935650000814	1596.7039916999638	1597.708298600046	1599.131484299898	2020-06-03 15:43:38.783178	0.82975001159505	0.0	0.0	0.0	0.82975001159505	0.0	-0.82975001159505	0.0	0.0	0.82975001159505	0.0	-7.51661905989353	-6.4647477613681374	-3.2350512301308796	-4.308579545465171	-7.5127985026784385	-5.047894777906964	-4.308579545465171	-8.173272561842548	-7.910611042370136	-1.4458632810019982	-7.477034100475705	-0.06659667512034739	3	missed	0.0
86.4293746999465	9.501682200003415	go_punish	0.2840994000434875	86.47229130007327	89.02528810012154	91.57311810017563	2.552996800048277	87.4789856001737	90.56193800014444	94.61600050004199	1.546302499947842	1.011180100031197	1.35797300003469	93.61212579999119	0.8091215000022203	92.58927790005691	2	1	11	2	go_punish	1	0	-1	1	1	1	0	0.0	1.0	0	0.2840994000434875	0.8091215000022203	1512.7037231998984	1599.1760144999716	1600.182708800072	1601.72901130002	1603.2656612000428	1604.276841300074	1605.2930010999553	1606.3158489998896	1607.3197236999404	1608.677696699975	2020-06-03 15:43:38.783178	-0.845081853224598	-2.45121826768253	-2.45121826768253	-4.07428379099521	-3.29630012090713	-2.45121826768253	0.845081853224598	-2.45121826768253	-2.45121826768253	-3.29630012090713	-2.45121826768253	2.45121826768253	-8.139579626187786	-5.686269497813409	-6.759797813147701	-11.58708229367365	-9.173944910409144	-6.759797813147701	1.7945647657335102	-12.036661174872316	-3.897081548684528	-9.928252368158235	-2.517814942802877	3	correct	1.0
95.97294740006328	9.101237899856642	go_punish	0.3724519000388682	96.01586400019005	98.76073870016262	101.29775380017236	2.74487469997257	97.02624470018782	100.28057400020771	104.34254370001145	1.7344939999748021	1.0171797999646515	0.7745582000352442	103.3300753000658	0.4772018000949174	102.31705760001205	2	1	12	2	go_punish	1	0	-1	1	1	1	0	0.0	1.0	0	0.3724519000388682	0.4772018000949174	1512.7037231998984	1608.7195872000884	1609.7299679000862	1611.464461900061	1612.984297200106	1614.0014770000707	1615.0207807999104	1616.0337984999642	1617.0462668999098	1617.820825099945	2020-06-03 15:43:38.783178	0.528954946253895	-1.62306552331268	-2.45121826768253	-2.70967052070043	-1.92226332142863	-2.45121826768253	-0.528954946253895	-1.62306552331268	-2.45121826768253	-1.92226332142863	-2.45121826768253	1.62306552331268	-6.765542826709292	-4.85811675344356	-6.759797813147701	-10.222469023378869	-7.7999081109306445	-6.759797813147701	0.9664120213636604	-10.662624375393817	-3.897081548684528	-9.100099623788385	-2.517814942802877	3	correct	1.0
105.11774539994076	9.000032300129533	nogo_reward	1.0	105.16066200006753	107.11785330018051	109.65704190009274	1.9571913001129815	106.1583033001516	108.63259720010683	112.69224600004964	0.9595500000289121	1.0244446999859065	1.468448300147429	111.678986400133	0.3178014999721199	110.66065090009943	2	1	13	3	nogo_reward	1	0	1	0	0	1	0	0.0	1.0	1	1.0	0.3178014999721199	1512.7037231998984	1617.864385199966	1618.86202650005	1619.821576500079	1621.3363204000052	1622.360765099991	1623.3643740999978	1624.3827096000314	1625.395969199948	1626.8644175000954	2020-06-03 15:43:38.783178	8.8904809179448	0.0	18.1138547741402	18.1138547741402	9.22337385619537	18.1138547741402	-8.8904809179448	18.1138547741402	0.0	18.1138547741402	9.22337385619537	5.462670327994498	1.595983144981612	-3.2350512301308796	13.805275228675029	10.601056271461761	3.3457290666933552	13.805275228675029	4.806016826045479	9.373493720175015	7.7775105751933715	10.636820673664495	-0.06659667512034739	3	correct	1.0
114.14177710004174	8.607274699955951	nogo_punish	0.5189782998058945	114.18469370016851	116.23319780011661	118.77906060009263	2.0485040999481043	115.19611590006411	117.753956500208	121.82979450002313	1.037081900052499	1.0251040998846292	0.9621739001013339	120.8141484002117	0.8093254000414163	119.79309620009712	2	1	14	1	nogo_punish	1	-1	0	0	1	0	0	0.0	1.0	-1	0.5189782998058945	0.8093254000414163	1512.7037231998984	1626.8884169000669	1627.8998390999625	1628.936921000015	1630.4576797001064	1631.482783799991	1632.4968193999955	1633.51787160011	1634.5335176999215	1635.4956916000228	2020-06-03 15:43:38.783178	0.82975001159505	0.0	0.0	0.0	0.82975001159505	0.0	-0.82975001159505	0.0	0.0	0.82975001159505	0.0	-7.51661905989353	-6.4647477613681374	-3.2350512301308796	-4.308579545465171	-7.5127985026784385	-5.047894777906964	-4.308579545465171	-8.173272561842548	-7.910611042370136	-1.4458632810019982	-7.477034100475705	-0.06659667512034739	3	correct	1.0
122.79101289995015	7.889090799959604	go_punish	0.44019929994829	122.83392950007692	124.31210130010732	126.85238360008225	1.4781718000303954	123.84337490005419	125.84230770007707	129.9112186001148	0.4687264000531286	1.0100759000051767	0.8118016999217161	128.89877390000038	0.2189291000831872	127.86914620012953	2	1	15	2	go_punish	1	0	-1	1	1	1	0	0.0	1.0	0	0.44019929994829	0.2189291000831872	1512.7037231998984	1635.5376526999753	1636.5470980999526	1637.0158245000057	1638.5460308999754	1639.5561067999806	1640.572869400028	1641.6024970998988	1642.6149418000132	1643.426743499935	2020-06-03 15:43:38.783178	1.42710473283184	-1.08660499738775	-2.45121826768253	-1.82045857538625	-1.02411353485068	-2.45121826768253	-1.42710473283184	-1.08660499738775	-2.45121826768253	-1.02411353485068	-2.45121826768253	1.08660499738775	-5.867393040131347	-4.32165622751863	-6.759797813147701	-9.333257078064689	-6.901758324352694	-6.759797813147701	0.42995149543873046	-9.764474588815865	-3.897081548684528	-8.563639097863454	-2.517814942802877	3	correct	1.0
130.72481109993532	9.286442900076509	nogo_reward	1.0	130.7677277000621	133.53878950001672	136.05815370008372	2.771061799954623	131.77980160014704	135.04442730010487	139.0918774001766	1.7589878998696804	1.0137263999788502	0.962293199962005	138.07837400003314	0.3010281000752002	137.0643261000514	2	1	16	3	nogo_reward	1	0	1	0	0	1	0	0.0	1.0	1	1.0	0.3010281000752002	1512.7037231998984	1643.4714508999605	1644.4835248000454	1646.242512699915	1647.7481505000032	1648.761876899982	1649.7680492999498	1650.7820971999315	1651.795600600075	1652.757893800037	2020-06-03 15:43:38.783178	9.73819722020781	0.0	19.7319523502581	19.7319523502581	9.99375513005032	19.7319523502581	-9.73819722020781	19.7319523502581	0.0	19.7319523502581	9.99375513005032	3.8445727518765977	2.443699447244623	-3.2350512301308796	15.42337280479293	12.219153847579662	4.116110340548305	15.42337280479293	3.187919249927578	10.991591296292915	8.547891849048321	12.254918249782396	-0.06659667512034739	3	correct	1.0
140.03594319988042	8.742463500006124	nogo_punish	1.0	140.0788598000072	141.84972520009592	144.37893410003744	1.7708654000887236	141.08513380005024	143.3652854000684	147.42815190018155	0.7645914000456742	1.0136486999690533	1.3931713998317719	146.4149786999917	0.3064676998183131	145.39569850009866	2	1	17	1	nogo_punish	1	-1	0	0	0	1	0	0.0	1.0	0	1.0	0.3064676998183131	1512.7037231998984	1652.7825829999056	1653.7888569999486	1654.5534483999943	1656.0690085999668	1657.0826572999358	1658.099421699997	1659.11870189989	1660.13187510008	1661.5250464999117	2020-06-03 15:43:38.783178	2.62336398010474	-2.45121826768253	0.0	-2.45121826768253	-2.62336398010474	0.0	-2.62336398010474	0.0	-2.45121826768253	0.0	-2.62336398010474	0.0	-4.6711337928584475	-5.686269497813409	-4.308579545465171	-9.964016770360969	-8.501008769606754	-4.308579545465171	-0.6566535019490196	-8.740361053965186	-4.069227261106738	-7.477034100475705	-2.517814942802877	3	correct	1.0
148.81966729997635	8.12593270000093	go_punish	0.5833159000612795	148.86258390010312	150.15781910018995	152.69233690015972	1.295235200086836	149.87308020005003	151.68105890019797	155.7455996000208	0.28473890013992786	1.0112779999617487	1.2429170000832528	154.73268720018677	0.6728592999279499	153.7084861001931	2	1	18	2	go_punish	1	0	-1	1	1	1	0	0.0	1.0	0	0.5833159000612795	0.6728592999279499	1512.7037231998984	1661.5663071000015	1662.5768033999484	1662.8615423000883	1664.3847821000963	1665.396060100058	1666.4122093000915	1667.4364104000852	1668.4493227999192	1669.6922398000024	2020-06-03 15:43:38.783178	2.02213041483644	-0.7338535779985	-2.45121826768253	-1.23309475298457	-0.429087852846084	-2.45121826768253	-2.02213041483644	-0.7338535779985	-2.45121826768253	-0.429087852846084	-2.45121826768253	0.7338535779985	-5.272367358126747	-3.9689048081293796	-6.759797813147701	-8.745893255663008	-6.3067326423480985	-6.759797813147701	0.07720007604948043	-9.16944890681127	-3.897081548684528	-8.210887678474204	-2.517814942802877	3	correct	1.0
156.97481080004945	8.537448099814355	go_reward	0.5634741999674588	157.01772740017623	158.58757800003514	161.15780380018987	1.5698505998589098	158.02433260018006	160.13084510015324	164.2021046001464	0.5632453998550773	1.02695870003663	1.3530708998441696	163.19329369999468	0.8572676000185311	162.17070240015164	2	1	19	4	go_reward	1	1	0	1	1	1	0	0.0	1.0	1	0.5634741999674588	0.8572676000185311	1512.7037231998984	1669.7214506000746	1670.7280558000784	1671.2913011999335	1672.8345683000516	1673.8615270000882	1674.87442560005	1675.897016899893	1676.9058278000448	1678.258898699889	2020-06-03 15:43:38.783178	0.82975001159505	0.0	0.0	0.0	0.82975001159505	0.0	-0.82975001159505	0.0	0.0	0.82975001159505	0.0	23.5765251021347	-6.4647477613681374	-3.2350512301308796	-4.308579545465171	-7.5127985026784385	-5.047894777906964	-4.308579545465171	22.91987160018568	-7.910611042370136	-1.4458632810019982	-7.477034100475705	-0.06659667512034739	3	correct	1.0
165.5564383000601	8.317407999886427	nogo_reward	1.0	165.59935490018688	167.08719350001752	169.6247812001966	1.4878385998306385	166.59646080015227	168.60192290018313	172.67838060017675	0.4907326998652479	1.0228583000134677	1.238382299896557	171.66508160019293	0.3754194998182356	170.62987720011733	2	1	20	3	nogo_reward	1	0	1	0	0	1	0	0.0	1.0	1	1.0	0.3754194998182356	1512.7037231998984	1678.3030781000853	1679.3001840000506	1679.790916699916	1681.3056461000815	1682.328504400095	1683.3336004000157	1684.3688048000913	1685.3821038000751	1686.6204860999717	2020-06-03 15:43:38.783178	10.3253422223102	0.0	20.8591627422848	20.8591627422848	10.5338205199745	20.8591627422848	-10.3253422223102	20.8591627422848	0.0	20.8591627422848	10.5338205199745	2.7173623598499006	3.030844449347012	-3.2350512301308796	16.550583196819627	13.346364239606359	4.656175730472485	16.550583196819627	2.060708857900881	12.118801688319612	9.087957238972502	13.382128641809093	-0.06659667512034739	3	correct	1.0
173.9164183998946	8.92685899999924	go_punish	0.2444839000236243	173.95933500002138	175.81170150008984	178.36843860009685	1.852366500068456	174.967611100059	177.34762460016645	181.42448360007256	0.8440904000308365	1.0208139999303967	1.4617103999480605	180.41962320008315	0.3244368999730795	179.38589670020156	2	1	21	2	go_punish	1	0	-1	1	1	1	0	0.0	1.0	0	0.2444839000236243	0.3244368999730795	1512.7037231998984	1686.6630581999198	1687.6713342999574	1688.5154246999882	1690.0513478000648	1691.0721617999952	1692.0896199001	1693.1233463999815	1694.128206799971	1695.589917199919	2020-06-03 15:43:38.783178	2.42042930365234	-0.499241174986073	-2.45121826768253	-0.841014986176539	-0.0307889640301868	-2.45121826768253	-2.42042930365234	-0.499241174986073	-2.45121826768253	-0.0307889640301868	-2.45121826768253	0.499241174986073	-4.874068469310847	-3.7342924051169524	-6.759797813147701	-8.353813488854978	-5.908433753532201	-6.759797813147701	-0.1574123269629466	-8.771150017995373	-3.897081548684528	-7.976275275461778	-2.517814942802877	3	correct	1.0
182.86525369994342	9.108466800069436	go_reward	0.3478973999153822	182.9081703000702	185.35537530016154	187.90141639998183	2.447205000091344	183.9121811001096	186.87785780010745	190.92364160018042	1.4431942000519484	1.0235585998743773	1.0929954999592155	189.92212620005012	0.1971344999037683	188.90522660012357	2	1	22	4	go_reward	1	1	0	1	1	1	0	0.0	1.0	1	0.3478973999153822	0.1971344999037683	1512.7037231998984	1695.6118934999686	1696.615904300008	1698.05909850006	1699.5815810000058	1700.6051395998802	1701.608949800022	1702.6258493999485	1703.6273648000788	1704.720360300038	2020-06-03 15:43:38.783178	11.6116225708949	7.39608280381991	0.0	7.39608280381991	11.6116225708949	0.0	-11.6116225708949	7.39608280381991	0.0	11.6116225708949	0.0	16.180442298314787	4.317124797931712	4.16103157368903	-4.308579545465171	-0.1167156988585285	5.733977781392886	-4.308579545465171	15.523788796365768	2.8712615169297138	-1.4458632810019982	-0.08095129665579481	-0.06659667512034739	3	correct	1.0
192.00040560006164	9.370958599960431	go_reward	0.2838965998962521	192.0433222001884	194.76405120012373	197.306387900142	2.720728999935318	193.0523171999955	196.28502150019654	200.37070900015533	1.7117340001282173	1.0213663999454639	1.043571799993515	199.35224730009213	0.4009189999196678	198.3244167000521	2	1	23	4	go_reward	0	0	1	1	1	1	0	0.0	1.0	0	0.2838965998962521	0.4009189999196678	1512.7037231998984	1704.7470454000868	1705.756040399894	1707.467774400022	1708.988744700095	1710.0101111000404	1711.0281398999505	1712.0559704999905	1713.0744322000537	1714.1180040000472	2020-06-03 15:43:38.783178	18.9070045009838	12.3800262911225	0.0	12.3800262911225	18.9070045009838	0.0	-18.9070045009838	12.3800262911225	0.0	18.9070045009838	0.0	-12.3800262911225	11.612506728020612	9.14497506099162	-4.308579545465171	4.867227788444061	13.029359711481785	-4.308579545465171	-13.036679793071519	10.166643447018613	-1.4458632810019982	4.902992190646795	-0.06659667512034739	3	correct	1.0
201.41374069987796	8.699309200048447	nogo_reward	1.0	201.45665730000474	203.37509220000356	205.9122305000201	1.9184348999988288	202.45241550006904	204.88932280009612	208.95918850018643	0.9226766999345273	1.0229076999239624	1.1967779998667538	207.94650560012087	0.2521922998130321	206.91702769999392	2	1	24	3	nogo_reward	1	0	1	0	0	1	0	0.0	1.0	1	1.0	0.2521922998130321	1512.7037231998984	1714.160380499903	1715.1561386999674	1716.078815399902	1717.5930459999945	1718.6159536999185	1719.6207508998923	1720.6502288000192	1721.6629117000848	1722.8596896999516	2020-06-03 15:43:38.783178	10.7343216431533	0.0	21.6483791266517	21.6483791266517	10.9140574834983	21.6483791266517	-10.7343216431533	21.6483791266517	0.0	21.6483791266517	10.9140574834983	1.9281459754829982	3.4398238701901134	-3.2350512301308796	17.33979958118653	14.135580623973262	5.0364126939962865	17.33979958118653	1.2714924735339785	12.908018072686515	9.468194202496303	14.171345026175995	-0.06659667512034739	3	correct	1.0
210.13928280002438	9.121517000021413	nogo_punish	1.0	210.18219940015115	212.51635180017934	215.05512580019422	2.334152400028188	211.18763320008293	214.03203990007773	218.09197380021192	1.3287186000964084	1.0230859001164845	1.211742599960644	217.07931450009346	0.5575866000726819	216.06052040006034	2	1	25	1	nogo_punish	0	0	-1	0	0	1	0	0.0	1.0	-1	1.0	0.5575866000726819	1512.7037231998984	1722.8859226000495	1723.8913563999813	1725.2200750000777	1726.735763099976	1727.7588490000926	1728.7642435999587	1729.7830376999918	1730.7956970001103	1732.007439600071	2020-06-03 15:43:38.783178	2.29440439688986	-2.45121826768253	0.0	-1.62306552331268	-2.29440439688986	0.0	-2.29440439688986	0.0	-2.45121826768253	0.0	-2.29440439688986	-7.51661905989353	-5.000093376073327	-5.686269497813409	-4.308579545465171	-9.135864025991118	-8.172049186391874	-4.308579545465171	-8.173272561842548	-8.740361053965186	-3.7402676778918584	-7.477034100475705	-2.517814942802877	3	correct	1.0
219.2868280999828	9.75537779997103	nogo_punish	1.0	219.3297447001096	222.08501920010872	224.62068090005778	2.755274499999132	220.33880810020491	223.6000257001724	227.6702427000273	1.7462110999038032	1.0206551998853683	1.4148798000533134	226.6569596000479	0.2220747000537812	225.6373527001124	2	1	26	1	nogo_punish	1	-1	0	0	0	1	0	0.0	1.0	0	1.0	0.2220747000537812	1512.7037231998984	1732.033467900008	1733.0425313001033	1734.788742400007	1736.3037489000708	1737.3244040999562	1738.3410759000108	1739.3606827999463	1740.3739658999257	1741.788845699979	2020-06-03 15:43:38.783178	0.628157381330835	-2.45121826768253	-2.45121826768253	-3.53782326507028	-3.07937564901336	-2.45121826768253	-0.628157381330835	-2.45121826768253	-2.45121826768253	-2.45121826768253	-3.07937564901336	2.45121826768253	-6.666340391632352	-5.686269497813409	-6.759797813147701	-11.05062176774872	-8.957020438515375	-6.759797813147701	1.7945647657335102	-11.191579321647716	-4.525238930015359	-9.928252368158235	-2.517814942802877	3	correct	1.0
229.06865849997848	8.245117400074378	nogo_punish	1.0	229.11157510010526	230.54855499998666	233.06362430006266	1.4369798998814076	230.12057410017587	232.05331240012333	236.12296560010873	0.427980899810791	1.0103118999393246	1.2337269000709057	235.11061940016225	0.4369078997988254	234.0815493001137	2	1	27	1	nogo_punish	1	-1	0	0	0	1	1	1.0	1.0	0	1.0	0.4369078997988254	1512.7037231998984	1741.8152983000036	1742.8242973000742	1743.252278199885	1744.7570356000217	1745.767347499961	1746.785272500012	1747.8143426000606	1748.826688800007	1750.060415700078	2020-06-03 15:43:38.783178	0.98258575372655	-2.45121826768253	-1.62306552331268	-2.35691910131118	-2.60565127703923	-1.62306552331268	-0.98258575372655	-1.62306552331268	-2.45121826768253	-1.62306552331268	-2.60565127703923	1.62306552331268	-6.311912019236638	-5.686269497813409	-5.931645068777851	-9.869717603989619	-8.483296066541245	-5.931645068777851	0.9664120213636604	-10.363426577277867	-4.051514558041228	-9.100099623788385	-2.517814942802877	3	correct	1.0
237.33719009999186	8.99181089992635	go_reward	1.0	237.38010670011863	239.29757730010874	241.81768109998666	1.9174705999901107	238.39211000013165	240.8034961000085	244.8736086001154	0.9054672999770901	1.0141849999781698	1.4983089999295771	243.86054430017248	0.5456862000282854	242.83144640014507	2	1	28	4	go_reward	0	0	1	1	0	0	0	0.0	1.0	1	1.0	0.5456862000282854	1512.7037231998984	1750.083829900017	1751.09583320003	1752.0013005000071	1753.5072192999069	1754.521404299885	1755.5351696000434	1756.5642675000709	1757.5773318000138	1759.0756407999434	2020-06-03 15:43:38.783178	-13.114641381894	8.38136407665151	0.0	8.38136407665151	13.114641381894	0.0	13.114641381894	0.0	8.38136407665151	0.0	13.114641381894	23.5765251021347	-20.409139154857186	5.14631284652063	-4.308579545465171	0.8685655739730711	7.236996592391986	-4.308579545465171	22.91987160018568	-8.740361053965186	11.668778100892002	-7.477034100475705	8.314767401531162	3	correct	1.0
246.35562619986013	7.904992800205946	nogo_punish	1.0	246.3985427999869	247.77774980012327	250.2980942002032	1.3792070001363754	247.41778370016254	249.28233150020242	253.3350092000328	0.3599660999607295	1.0157627000007778	0.9685264001600444	252.32565070013516	0.6195685998536646	251.30759780015796	2	1	29	1	nogo_punish	0	0	-1	0	0	1	1	0.0	0.0	-1	1.0	0.6195685998536646	1512.7037231998984	1759.1022659998853	1760.121506900061	1760.4814730000217	1761.9860547001008	1763.0018174001016	1764.0113210000563	1765.0293739000335	1766.0387323999312	1767.0072588000912	2020-06-03 15:43:38.783178	1.20461233390162	-2.45121826768253	-1.08660499738775	-1.58584617237382	-2.29121733128937	-1.08660499738775	-1.20461233390162	-1.08660499738775	-2.45121826768253	-1.08660499738775	-2.29121733128937	-6.43001406250578	-6.089885439061567	-5.686269497813409	-5.39518454285292	-9.098644675052258	-8.168862120791385	-5.39518454285292	-7.0866675644548	-9.826966051352937	-3.7370806122913685	-8.563639097863454	-2.517814942802877	3	wrong	1.0
254.30636729998514	7.991208199877292	nogo_reward	1.0	254.3492839001119	255.78313340013847	258.31126550002955	1.4338495000265539	255.35424250015058	257.28715119999833	261.3454974000342	0.4288908999878913	1.024114300031215	0.9949946999549866	260.34093020018213	0.4277490999083966	259.3242917000316	2	1	30	3	nogo_reward	1	0	1	0	0	1	0	0.0	1.0	1	1.0	0.4277490999083966	1512.7037231998984	1767.0530071000103	1768.057965700049	1768.4868566000368	1769.9908743998967	1771.014988699928	1772.02801489993	1773.0446534000805	1774.0492205999326	1775.0442152998876	2020-06-03 15:43:38.783178	11.0206169743959	0.0	22.2034224707258	22.2034224707258	11.1828054963299	22.2034224707258	-11.0206169743959	22.2034224707258	0.0	22.2034224707258	11.1828054963299	1.3731026314088979	3.726119201432712	-3.2350512301308796	17.89484292526063	14.690623968047362	5.305160706827886	17.89484292526063	0.7164491294598783	13.463061416760615	9.736942215327902	14.726388370250096	-0.06659667512034739	3	correct	1.0
262.32088129990734	8.934654500102624	go_reward	0.4091896000318229	262.3637979000341	264.7340522001032	267.29276149999373	2.370254300069064	263.3761929001191	266.26843080017716	270.3405147001613	1.3578592999840566	1.0243306998165735	0.9579376999754459	269.32705530012026	0.4401046000421047	268.2990633000154	2	1	31	4	go_reward	1	1	0	1	1	1	0	0.0	1.0	1	0.4091896000318229	0.4401046000421047	1512.7037231998984	1775.0675210999325	1776.0799161000175	1777.4377754000016	1778.9721540000755	1779.996484699892	1781.0027864999138	1782.0307785000186	1783.0442379000597	1784.0021756000351	2020-06-03 15:43:38.783178	7.89721668624071	8.38136407665151	7.39608280381991	13.1299112868376	15.2932994900606	7.39608280381991	-7.89721668624071	8.38136407665151	7.39608280381991	15.2932994900606	7.39608280381991	15.19516102548319	0.6027189132775224	5.14631284652063	3.0875032583547393	5.617112784159162	9.415654700558585	3.0875032583547393	14.53850752353417	6.552938436095413	5.950219522817912	0.9043299761758048	7.329486128699562	3	correct	1.0
271.27905789995566	8.607373500009999	go_reward	0.6091362999286503	271.32197450008243	273.1152714001946	275.6667923000641	1.793296900112182	272.3345018001273	274.64612850011326	278.7171565000899	0.7807696000672877	1.020663799950853	1.2121915000025183	277.70336759998463	0.2516968001145869	276.6745233000256	2	1	32	4	go_reward	0	0	1	1	1	1	0	0.0	1.0	0	0.6091362999286503	0.2516968001145869	1512.7037231998984	1784.0256976999808	1785.0382250000257	1785.818994600093	1787.3498517000116	1788.3705154999625	1789.378246499924	1790.407090799883	1791.4208796999883	1792.6330711999908	2020-06-03 15:43:38.783178	14.1354947622068	13.1299112868376	7.39608280381991	16.3345317609092	21.5315775660267	7.39608280381991	-14.1354947622068	13.1299112868376	7.39608280381991	21.5315775660267	7.39608280381991	-13.1299112868376	6.840996989243613	9.89486005670672	3.0875032583547393	8.821733258230761	15.653932776524687	3.0875032583547393	-13.78656478878662	12.791216512061515	5.950219522817912	5.652877186361896	7.329486128699562	3	correct	1.0
279.93009949987754	8.399663200136274	nogo_reward	1.0	279.9730161000043	282.025171500165	284.55339770019054	2.0521554001607	280.97147410013713	283.5296206001658	287.6136438001413	1.053697400027886	1.0237771000247449	0.7590354999992996	286.60040170000866	0.5054167001508176	285.56772850011475	2	1	33	3	nogo_reward	1	0	1	0	0	1	0	0.0	1.0	1	1.0	0.5054167001508176	1512.7037231998984	1792.6767392999027	1793.6751973000355	1794.7288947000634	1796.2333438000642	1797.257120900089	1798.2714517000131	1799.304124899907	1800.3173670000397	1801.076402500039	2020-06-03 15:43:38.783178	11.221925151689	0.0	22.5953572588393	22.5953572588393	11.3734321071503	22.5953572588393	-11.221925151689	22.5953572588393	0.0	22.5953572588393	11.3734321071503	0.981167843295399	3.9274273787258123	-3.2350512301308796	18.28677771337413	15.08255875616086	5.495787317648286	18.28677771337413	0.32451434134637935	13.854996204874114	9.927568826148303	15.118323158363594	-0.06659667512034739	3	correct	1.0
288.35346519993595	9.383422499988455	go_reward	1.0	288.3963818000627	290.9296981000807	293.45854570018173	2.5333163000179866	289.4079309999945	292.43510960019194	296.48835380002856	1.5217671000862083	1.0234360999897945	1.29145050002262	295.48599270009436	0.4150286000221967	294.47207060013875	2	1	34	4	go_reward	0	0	1	1	0	0	1	1.0	1.0	1	1.0	0.4150286000221967	1512.7037231998984	1801.100104999961	1802.1116541998929	1803.633421299979	1805.1388328000903	1806.16226890008	1807.1757938000371	1808.1897158999927	1809.192076999927	1810.4835274999496	2020-06-03 15:43:38.783178	-7.58609012229106	8.93844895708932	7.39608280381991	11.1266720447961	14.982172926111	7.39608280381991	7.58609012229106	7.39608280381991	8.93844895708932	7.39608280381991	14.982172926111	16.180442298314787	-14.880587895254248	5.703397726958441	3.0875032583547393	3.6138735421176618	9.104528136608986	3.0875032583547393	15.523788796365768	-1.3442782501452761	13.536309645109002	-0.08095129665579481	8.871852281968973	3	correct	1.0
297.780425200006	7.890008899848908	go_punish	1.0	297.82334180013277	299.32211440009996	301.8222722001376	1.4987725999671966	298.8310731002132	300.8248666001016	304.87074080016464	0.49104129988677414	0.9974056000360179	0.8426098998170346	303.8677783000744	0.7315577000845224	302.8396793000866	2	1	35	2	go_punish	0	-1	0	1	0	0	0	0.0	1.0	0	1.0	0.7315577000845224	1512.7037231998984	1810.5270650000311	1811.5347963001116	1812.0258375999983	1813.5285898	1814.525995400036	1815.543402499985	1816.5715014999728	1817.574464000063	1818.41707389988	2020-06-03 15:43:38.783178	-2.6892734207029	-0.341773811190467	-2.45121826768253	-0.577053203850001	0.238055153020371	-2.45121826768253	2.6892734207029	-2.45121826768253	-0.341773811190467	-2.45121826768253	0.238055153020371	2.45121826768253	-9.983771193666087	-3.5768250413213467	-6.759797813147701	-8.089851706528439	-5.639589636481643	-6.759797813147701	1.7945647657335102	-11.191579321647716	-1.2078081279816273	-9.928252368158235	-0.4083704863108144	3	correct	1.0
305.69699069997296	8.829328600084182	nogo_punish	1.0	305.73990730009973	307.5039767001292	310.0378254000095	1.7640694000294843	306.73713030014164	309.0180915000385	313.07851460017264	0.7668463999875712	1.0197338999710155	1.4907213000112733	312.0651414000897	0.6145019999239594	311.0465324001857	2	1	36	1	nogo_punish	1	-1	0	0	0	1	0	0.0	1.0	0	1.0	0.6145019999239594	1512.7037231998984	1818.443630499998	1819.44085350004	1820.2076999000276	1821.7218146999369	1822.741548599908	1823.750255600084	1824.768864599988	1825.782237800071	1827.2729591000823	2020-06-03 15:43:38.783178	-0.102900591081027	-2.45121826768253	-3.18507184568103	-3.52684565687149	-3.0821712546	-3.18507184568103	0.102900591081027	-3.18507184568103	-2.45121826768253	-3.18507184568103	-3.0821712546	3.18507184568103	-7.397398364044214	-5.686269497813409	-7.493651391146201	-11.039644159549928	-8.959816044102014	-7.493651391146201	2.5284183437320102	-11.925432899646216	-4.528034535601998	-10.662105946156736	-2.517814942802877	3	correct	1.0
314.55247360002295	8.259713599923998	nogo_punish	1.0	314.5953902001497	316.25124770007073	318.7814673001417	1.6558574999210123	315.5945513001643	317.76100610010326	321.83954460010864	0.6566963999064228	1.0204612000384259	1.0155591999650824	320.8342931000516	0.2328908001072704	319.8001572000792	2	1	37	1	nogo_punish	1	-1	0	0	0	1	0	0.0	1.0	0	1.0	0.2328908001072704	1512.7037231998984	1827.299113400048	1828.2982745000627	1828.954970899969	1830.4647293000016	1831.48519050004	1832.5038803999776	1833.53801629995	1834.543267800007	1835.558826999972	2020-06-03 15:43:38.783178	0.488195757922699	-2.45121826768253	-2.12230669829875	-2.35758609095828	-2.61050245622145	-2.12230669829875	-0.488195757922699	-2.12230669829875	-2.45121826768253	-2.12230669829875	-2.61050245622145	2.12230669829875	-6.8063020150404885	-5.686269497813409	-6.43088624376392	-9.870384593636718	-8.488147245723464	-6.43088624376392	1.4656531963497303	-10.862667752263937	-4.056365737223448	-9.599340798774454	-2.517814942802877	3	correct	1.0
322.83829570002854	7.800108500057831	nogo_punish	1.0	322.8812123001553	324.2090374000836	326.7468632000964	1.3278250999283046	323.88067750004166	325.72561990004033	329.81235860008724	0.3283599000419599	1.021243300056085	0.8689622001259067	328.7934768002017	0.2797783999703824	327.7643531002104	2	1	38	1	nogo_punish	1	-1	0	0	0	1	1	1.0	1.0	0	1.0	0.2797783999703824	1512.7037231998984	1835.5849355000537	1836.58440069994	1836.912760599982	1838.4293430999387	1839.4505863999948	1840.4680763001088	1841.4972000001	1842.5160817999856	1843.3850440001115	2020-06-03 15:43:38.783178	0.867978203610282	-2.45121826768253	-1.42837880857821	-1.59116416081156	-2.2963570121885	-1.42837880857821	-0.867978203610282	-1.42837880857821	-2.45121826768253	-1.42837880857821	-2.2963570121885	1.42837880857821	-6.426519569352905	-5.686269497813409	-5.736958354043381	-9.103962663489998	-8.174001801690514	-5.736958354043381	0.7717253066291905	-10.168739862543397	-3.742220293190498	-8.905412909053915	-2.517814942802877	3	correct	1.0
330.6805517000612	9.552579999901582	nogo_reward	1.0	330.72346830018796	333.49245130014606	336.0101549001413	2.768982999958098	331.7340509002097	334.99629180016973	339.0324982001912	1.758400399936363	1.0138630999715588	1.243550099898357	338.0291584001384	0.4746532998979091	337.01642130012647	2	1	39	3	nogo_reward	1	0	1	0	0	1	0	0.0	1.0	1	1.0	0.4746532998979091	1512.7037231998984	1843.4271915000863	1844.437774100108	1846.1961745000444	1847.700015000068	1848.7138781000397	1849.7201445000248	1850.7328816000368	1851.7362214000896	1852.979771499988	2020-06-03 15:43:38.783178	11.3640519583861	0.0	22.8731488235446	22.8731488235446	11.5090968651584	22.8731488235446	-11.3640519583861	22.8731488235446	0.0	22.8731488235446	11.5090968651584	0.703376278590099	4.069554185422912	-3.2350512301308796	18.56456927807943	15.36035032086616	5.6314520756563855	18.56456927807943	0.04672277664107938	14.132787769579414	10.063233584156402	15.396114723068894	-0.06659667512034739	3	correct	1.0
340.260765099898	8.681819300167263	nogo_punish	1.0	340.30368170002475	342.01164680020884	344.550353900064	1.707965100184083	341.3017975999976	343.5261534000747	347.59547660010867	0.709849200211238	1.0242004999893197	1.3900244000833482	346.5802137001883	0.7867493000812829	345.56330960011087	2	1	40	1	nogo_punish	0	0	-1	0	0	1	1	0.0	0.0	-1	1.0	0.7867493000812829	1512.7037231998984	1853.0074048999231	1854.005520799896	1854.7153700001072	1856.229876599973	1857.2540770999624	1858.2670328000092	1859.2839369000867	1860.299199800007	1861.6892242000904	2020-06-03 15:43:38.783178	1.11583199397607	-2.45121826768253	-0.969132970658034	-1.08228340895108	-2.0849649646341	-0.969132970658034	-1.11583199397607	-0.969132970658034	-2.45121826768253	-0.969132970658034	-2.0849649646341	-6.547486089235496	-6.178665778987117	-5.686269497813409	-5.277712516123205	-8.595081911629519	-7.962609754136114	-5.277712516123205	-7.204139591184515	-9.70949402462322	-3.530828245636098	-8.44616707113374	-2.517814942802877	3	wrong	1.0
348.96571839996636	8.511783899971988	go_reward	0.358661700040102	349.00863500009314	350.58065180014796	353.1220976000186	1.5720168000548256	350.018144100206	352.10778930014953	356.1621126001701	0.5625076999419889	1.0143082998690716	1.3583062998950481	355.1494573000816	0.4262833001557737	354.13597250008	2	1	41	4	go_reward	1	1	0	1	1	1	0	0.0	1.0	1	0.358661700040102	0.4262833001557737	1512.7037231998984	1861.7123581999915	1862.7218673001043	1863.2843750000463	1864.811512500048	1865.825820799917	1866.8396956999784	1867.85318049998	1868.8658358000685	1870.2241420999635	2020-06-03 15:43:38.783178	4.39066043282394	8.93844895708932	12.3800262911225	15.0463380632311	16.7706867239465	12.3800262911225	-4.39066043282394	8.93844895708932	12.3800262911225	16.7706867239465	12.3800262911225	14.638076145045378	-2.9038373401392477	5.703397726958441	8.07144674565733	7.533539560552662	10.893041934444486	8.07144674565733	13.981422643096359	8.030325669981314	10.934163010120502	1.461414856613616	12.313429616002152	3	correct	1.0
357.50111419986933	8.673106200061511	go_reward	0.3238321000244468	357.5440307999961	359.8284065001644	362.3770419000648	2.2843757001683116	358.54807230015285	361.3668703001456	365.4424120001497	1.2803342000115663	1.0101715999192038	0.7747249999079031	364.4279086000747	0.3536586998961866	363.3944016001187	2	1	42	4	go_reward	0	0	1	1	1	1	0	0.0	1.0	0	0.3238321000244468	0.3536586998961866	1512.7037231998984	1870.2477539998945	1871.2517955000512	1872.5321297000628	1874.070593500044	1875.0807650999632	1876.098124800017	1877.131631799973	1878.146135200048	1878.920860199956	2020-06-03 15:43:38.783178	10.2094363257354	13.5388113613134	12.3800262911225	17.6787914893503	22.5894626168579	12.3800262911225	-10.2094363257354	13.5388113613134	12.3800262911225	22.5894626168579	12.3800262911225	-13.5388113613134	2.9149385527722123	10.30376013118252	8.07144674565733	10.16599298667186	16.711817827355887	8.07144674565733	-14.19546486326242	13.849101562892715	10.934163010120502	6.061777260837695	12.313429616002152	3	correct	1.0
366.1976650999859	8.778604199877009	go_reward	0.3261671001091599	366.24058170011267	367.9379598000087	370.489988300018	1.6973780998960137	367.2511121002026	369.46944430004805	373.5404175000733	0.6868476998060942	1.0205439999699593	1.4787683999163619	372.530497100204	0.7361623998731375	371.49784340010956	2	1	43	4	go_reward	0	0	1	1	1	1	1	0.0	0.0	0	0.3261671001091599	0.7361623998731375	1512.7037231998984	1878.944304900011	1879.954835300101	1880.641682999907	1882.1731674999464	1883.1937114999164	1884.201566600008	1885.2342203001024	1886.2441406999717	1887.722909099888	2020-06-03 15:43:38.783178	3.35985045891598	9.23677815736488	12.3800262911225	12.0736501769838	15.7398767500385	12.3800262911225	-3.35985045891598	9.23677815736488	12.3800262911225	15.7398767500385	12.3800262911225	-9.23677815736488	-3.9346473140472074	6.0017269272339995	8.07144674565733	4.560851674305362	9.862231960536485	8.07144674565733	-9.8934316593139	6.999515696073313	10.934163010120502	1.7597440568891747	12.313429616002152	3	wrong	1.0
375.0218191000165	9.059118799865473	nogo_reward	1.0	375.0647357001433	377.49984270008235	380.02964810002595	2.43510699993908	376.07064010016643	379.0053036999889	383.0681191000624	1.429202599915925	1.02434440003708	1.055735399946343	382.0555677001828	0.3369519000407308	381.03313830005914	2	1	44	3	nogo_reward	1	0	1	0	0	1	0	0.0	1.0	1	1.0	0.3369519000407308	1512.7037231998984	1887.7684589000417	1888.7743633000648	1890.2035658999807	1891.7090268998872	1892.7333712999243	1893.7368614999575	1894.7592909000812	1895.7718422999608	1896.8275776999071	2020-06-03 15:43:38.783178	11.4647751611277	0.0	23.0707259789767	23.0707259789767	11.6059508178491	23.0707259789767	-11.4647751611277	23.0707259789767	0.0	23.0707259789767	11.6059508178491	0.505799123157999	4.170277388164512	-3.2350512301308796	18.76214643351153	15.55792747629826	5.728306028347086	18.76214643351153	-0.1508543787910206	14.330364925011514	10.160087536847103	15.593691878500994	-0.06659667512034739	3	correct	1.0
384.10632840008475	8.210292799863737	nogo_punish	1.0	384.1492450002115	385.54910020017996	388.0754257000517	1.3998551999684423	385.15914370003156	387.0544404000975	391.12566970009357	0.38995650014840066	1.0209852999541909	1.2338680999816916	390.120903900126	0.3107382000889629	389.09251960017764	2	1	45	1	nogo_punish	1	-1	0	0	0	1	0	0.0	1.0	0	1.0	0.3107382000889629	1512.7037231998984	1896.85296820011	1897.86286689993	1898.2528234000783	1899.758163599996	1900.77914889995	1901.796242800076	1902.8246271000244	1903.829392899992	1905.0632609999736	2020-06-03 15:43:38.783178	-0.169794357180648	-2.45121826768253	-3.11324479490194	-3.19223384958202	-2.9434504377213	-3.11324479490194	0.169794357180648	-3.11324479490194	-2.45121826768253	-3.11324479490194	-2.9434504377213	3.11324479490194	-7.464292130143836	-5.686269497813409	-7.421824340367111	-10.705032352260458	-8.821095227223314	-7.421824340367111	2.4565912929529206	-11.853605848867126	-4.389313718723298	-10.590278895377645	-2.517814942802877	3	correct	1.0
392.36061059986287	9.154480500146292	nogo_reward	1.0	392.40352719998964	394.62988660018914	397.1631120000966	2.226359400199499	393.41078800009564	396.1440063000189	400.2140354001897	1.2190986000935027	1.0191057000777164	1.3439722999462447	399.2056106000673	0.5422903001308441	398.17985200020485	2	1	46	3	nogo_reward	1	0	1	0	0	1	1	0.0	0.0	1	1.0	0.5422903001308441	1512.7037231998984	1905.107250399888	1906.114511199994	1907.3336098000875	1908.8477294999172	1909.866835199995	1910.8835752001032	1911.9093337999657	1912.917758600088	1914.2617309000343	2020-06-03 15:43:38.783178	11.5364094257831	0.0	23.2117144888496	23.2117144888496	11.6753050630665	23.2117144888496	-11.5364094257831	23.2117144888496	0.0	23.2117144888496	11.6753050630665	0.3648106132850977	4.241911652819913	-3.2350512301308796	18.90313494338443	15.698915986171162	5.797660273564485	18.90313494338443	-0.29184288866392194	14.471353434884415	10.229441782064502	15.734680388373896	-0.06659667512034739	3	wrong	1.0
401.54052489995956	9.799978900002316	nogo_punish	1.0	401.58344150008634	404.4134832001291	406.9353850001937	2.830041700042784	402.5861888001673	405.917778900126	409.9863659001421	1.8272943999618292	1.0176061000677237	1.3970544999465346	408.9738651001826	0.2318407001439482	407.95527600008063	2	1	47	1	nogo_punish	1	-1	0	0	0	1	1	1.0	1.0	0	1.0	0.2318407001439482	1512.7037231998984	1914.2871646999847	1915.2899120000657	1917.1172064000275	1918.6215021000244	1919.639108200092	1920.658999199979	1921.677588300081	1922.6900891000405	1924.087143599987	2020-06-03 15:43:38.783178	0.438552552143622	-2.45121826768253	-2.07798977279619	-2.13335464100521	-2.51654232493981	-2.07798977279619	-0.438552552143622	-2.07798977279619	-2.45121826768253	-2.07798977279619	-2.51654232493981	2.07798977279619	-6.8559452208195655	-5.686269497813409	-6.38656931826136	-9.646153143683648	-8.394187114441824	-6.38656931826136	1.4213362708471702	-10.818350826761376	-3.9624056059418082	-9.555023873271894	-2.517814942802877	3	correct	1.0
411.38622320001036	8.692467899992835	go_punish	0.4755293000489473	411.42913980013714	413.09757960005663	415.6282031000592	1.668439799919497	412.44053420005366	414.61751440004446	418.67743500019446	0.6570454000029713	1.0106887000147253	1.444172699935507	417.6640716001857	0.2928621000610292	416.64442140003666	2	1	48	2	go_punish	1	0	-1	1	1	1	0	0.0	1.0	0	0.4755293000489473	0.2928621000610292	1512.7037231998984	1924.1328630000355	1925.144257399952	1925.801302799955	1927.3212375999428	1928.3319262999576	1929.348144599935	1930.367794800084	1931.3811582000928	1932.8253309000283	2020-06-03 15:43:38.783178	1.93736437783244	-0.341773811190467	-1.62306552331268	-0.398064744892876	0.314298854519764	-1.62306552331268	-1.93736437783244	-0.341773811190467	-1.62306552331268	0.314298854519764	-1.62306552331268	0.341773811190467	-5.357133395130747	-3.5768250413213467	-5.931645068777851	-7.9108632475713145	-5.56334593498225	-5.931645068777851	-0.3148796907585526	-8.426062199445422	-3.0689288043146785	-7.8188079116661715	-1.6896621984330276	3	correct	1.0
420.10570680000797	8.410473400028422	nogo_punish	1.0	420.14862340013474	421.9987306999976	424.53740170015953	1.8501072998628842	421.14884130004793	423.5138930000828	427.5974747000728	0.8498893999496886	1.023508700076718	0.9616221000903806	426.57870559999765	0.5743737001903355	425.55172370001674	2	1	49	1	nogo_punish	0	0	-1	0	0	1	1	1.0	1.0	-1	1.0	0.5743737001903355	1512.7037231998984	1932.8523466000331	1933.8525644999463	1934.702453899896	1936.2176161999812	1937.241124900058	1938.2554468999151	1939.282428799896	1940.3011978999712	1941.2628200000615	2020-06-03 15:43:38.783178	0.831457807221686	-2.45121826768253	-1.40087344472735	-1.439828603572	-2.23233125194904	-1.40087344472735	-0.831457807221686	-1.40087344472735	-2.45121826768253	-1.40087344472735	-2.23233125194904	-6.11574561516618	-6.463039965741501	-5.686269497813409	-5.709452990192521	-8.95262710625044	-8.109976041451054	-5.709452990192521	-6.772399117115199	-10.141234498692537	-3.6781945329510384	-8.877907545203055	-2.517814942802877	3	correct	1.0
428.5398508000653	8.61697519989707	go_reward	0.7622956999111921	428.5827674001921	430.44389380002394	432.99492800002963	1.8611263998318464	429.59455050015845	431.9714026001743	436.04410060006194	0.8493432998654953	1.0235253998553162	1.1556420000272283	435.0306762000546	0.4943408998660743	434.0018518001307	2	1	50	4	go_reward	1	1	0	1	1	1	0	0.0	1.0	1	0.7622956999111921	0.4943408998660743	1512.7037231998984	1941.2864906000905	1942.2982737000568	1943.1476169999223	1944.6751258000727	1945.698651199928	1946.705575000029	1947.734399399953	1948.7478237999603	1949.9034657999875	2020-06-03 15:43:38.783178	-1.24750901700889	6.35977789390789	12.3800262911225	8.31998161222997	11.1325172741136	12.3800262911225	1.24750901700889	6.35977789390789	12.3800262911225	11.1325172741136	12.3800262911225	17.21674720822681	-8.542006789972078	3.1247266637770106	8.07144674565733	0.8071831095515316	5.254872484611585	8.07144674565733	16.56009370627779	2.3921562201484132	10.934163010120502	-1.1172562065678147	12.313429616002152	3	correct	1.0
437.18030330003194	9.22033449984201	go_reward	0.5969031001441181	437.2232199001587	439.84524400019995	442.3845785001761	2.6220241000412443	438.23530629999004	441.3813773000147	445.4439801999831	1.6099377002099118	1.0032012001613566	0.9995742000176051	444.4312621001152	0.2019698999356478	443.40317380009196	2	1	51	4	go_reward	0	0	1	1	1	1	0	0.0	1.0	0	0.5969031001441181	0.2019698999356478	1512.7037231998984	1949.926943100057	1950.9390294998884	1952.5489672000983	1954.085100499913	1955.0883017000745	1956.1068969999903	1957.1349853000136	1958.1477033998815	1959.147277599899	2020-06-03 15:43:38.783178	6.39838445403745	11.806679221703	12.3800262911225	13.1702167221851	18.77841074516	12.3800262911225	-6.39838445403745	11.806679221703	12.3800262911225	18.77841074516	12.3800262911225	-11.806679221703	-0.8961133189257371	8.57162799157212	8.07144674565733	5.657418219506661	12.900765955657985	8.07144674565733	-12.46333272365202	10.038049691194812	10.934163010120502	4.329645121227295	12.313429616002152	3	correct	1.0
446.44434799999	8.878429299918935	go_punish	0.3146668998524546	446.48726460011676	448.9055106001906	451.44771810015664	2.41824600007385	447.49345570011064	450.43611940019764	454.48219440015964	1.4120549000799656	1.011598699958995	0.8834994998760521	453.4684052001685	0.3973231001291424	452.4548680000007	2	1	52	2	go_punish	1	0	-1	1	1	1	0	0.0	1.0	0	0.3146668998524546	0.3973231001291424	1512.7037231998984	1959.1909878000151	1960.197178900009	1961.609233800089	1963.139842600096	1964.151441300055	1965.158591199899	1966.1721284000669	1967.185917600058	1968.069417099934	2020-06-03 15:43:38.783178	2.09633027404275	-0.235279392659534	-1.62306552331268	-0.275935790526391	0.473264750730072	-1.62306552331268	-2.09633027404275	-0.235279392659534	-1.62306552331268	0.473264750730072	-1.62306552331268	0.235279392659534	-5.198167498920437	-3.4703306227904136	-5.931645068777851	-7.788734293204829	-5.404380038771942	-5.931645068777851	-0.4213741092894856	-8.267096303235114	-3.0689288043146785	-7.712313493135238	-1.6896621984330276	3	correct	1.0
455.3462000000293	9.342121300054487	go_reward	0.4924435999710113	455.38911660015606	458.35965120000765	460.9149939001072	2.9705345998515895	456.400998500176	459.89112070016563	463.97225700016156	1.9586526998316458	1.0238731999415904	0.7589809000489822	462.95981660019606	0.705315699800849	461.92485720012314	2	1	53	4	go_reward	1	1	0	1	1	1	1	1.0	1.0	1	0.4924435999710113	0.705315699800849	1512.7037231998984	1968.0928398000544	1969.1047217000744	1971.063374399906	1972.594843900064	1973.6187171000056	1974.6285804000215	1975.6635398000944	1976.67598020006	1977.434961100109	2020-06-03 15:43:38.783178	0.758175449204254	8.06098380060625	12.3800262911225	9.01479525293991	13.1382017403268	12.3800262911225	-0.758175449204254	8.06098380060625	12.3800262911225	13.1382017403268	12.3800262911225	15.51554130152845	-6.536322323758934	4.82593257047537	8.07144674565733	1.5019967502614717	7.260556950824785	8.07144674565733	14.85888779957943	4.397840686361613	10.934163010120502	0.5839497001305451	12.313429616002152	3	correct	1.0
464.7339518000372	8.283635899889987	go_punish	0.5365468000527471	464.77686840016395	466.3455166001804	468.8900960001629	1.5686482000164688	465.7832677001136	467.8663528000468	471.9258377000224	0.5622489000668338	1.0237432001160869	1.1346666000315508	470.9169126001657	0.4444516999647021	469.90367970010266	2	1	54	2	go_punish	0	-1	0	1	1	1	1	1.0	1.0	-1	0.5365468000527471	0.4444516999647021	1512.7037231998984	1977.4805916000623	1978.486990900012	1979.0492398000788	1980.5700759999452	1981.5938192000613	1982.607402900001	1983.620635800064	1984.6295608999208	1985.7642274999523	2020-06-03 15:43:38.783178	2.20510864883866	-0.162785352233342	-1.62306552331268	-0.192139492973122	0.582043125525984	-1.62306552331268	-2.20510864883866	-0.162785352233342	-1.62306552331268	0.582043125525984	-1.62306552331268	-7.353833707660188	-5.089389124124527	-3.3978365823642216	-5.931645068777851	-7.7049379956515605	-5.29560166397603	-5.931645068777851	-8.010487209609208	-8.158317928439201	-3.0689288043146785	-7.639819452709046	-1.6896621984330276	3	correct	1.0
473.0418149998877	8.616423700004816	go_reward	0.2573498000856489	473.0847316000145	475.0797551001888	477.6253264001573	1.995023500174284	474.09580550016835	476.61060570017435	480.6700844001025	0.9839496000204235	1.014720699982945	1.0310708999168128	479.65678409999236	0.5059776999987662	478.6401657999961	2	1	55	4	go_reward	1	1	0	1	1	1	1	1.0	1.0	1	0.2573498000856489	0.5059776999987662	1512.7037231998984	1985.7884547999129	1986.7995287000667	1987.7834783000872	1989.3143289000727	1990.3290496000557	1991.3438889998945	1992.3605072998907	1993.3738076000009	1994.4048784999177	2020-06-03 15:43:38.783178	7.74448257493733	12.951125849407	12.3800262911225	13.6215688346454	20.1245088660598	12.3800262911225	-7.74448257493733	12.951125849407	12.3800262911225	20.1245088660598	12.3800262911225	10.6253992527277	0.4499848019741428	9.71607461927612	8.07144674565733	6.108770331966961	14.246864076557785	8.07144674565733	9.96874575077868	11.384147812094612	10.934163010120502	5.474091748931294	12.313429616002152	3	correct	1.0
481.70219490001887	8.384085000027198	nogo_reward	0.3057747001294046	481.74511150014564	483.61742850020573	486.1642538001761	1.872317000060093	482.7582165000497	485.14118920010515	489.2139812000096	0.8592120001560488	1.0230646000709385	0.9152153001632541	488.1983208002057	0.4850904999766499	487.16975560016	2	1	56	3	nogo_reward	0	1	0	0	1	0	0	0.0	1.0	1	0.3057747001294046	0.4850904999766499	1512.7037231998984	1994.448834700044	1995.461939699948	1996.321151700104	1997.8449124000035	1998.8679770000745	1999.8734788000584	2000.902044000104	2001.917704399908	2002.8329197000712	2020-06-03 15:43:38.783178	-11.5875267969518	0.0	23.312638291241	23.312638291241	11.7251114942892	23.312638291241	11.5875267969518	0.0	23.312638291241	11.7251114942892	23.312638291241	23.5765251021347	-18.882024569914986	-3.2350512301308796	19.00405874577583	15.799839788562561	5.847466704787186	19.00405874577583	22.91987160018568	2.9847504403240137	21.866775010239003	-7.477034100475705	23.246041616120653	3	correct	1.0
490.1109066999052	8.512733099982142	go_reward	0.6142547999043018	490.15382330003195	491.7109370001126	494.2491211001761	1.557113700080663	491.1633882999886	493.23242920008533	497.28547670016997	0.5475487001240253	1.016691900090791	1.381079699844122	496.2806608001699	0.467941400129348	495.2620572000744	2	1	57	4	go_reward	1	1	0	1	1	1	1	0.0	0.0	1	0.6142547999043018	0.467941400129348	1512.7037231998984	2002.8575464999303	2003.867111499887	2004.414660200011	2005.9361523999837	2006.9528443000745	2007.9657803999728	2008.9843840000683	2009.9891999000683	2011.3702795999125	2020-06-03 15:43:38.783178	12.4545885354623	16.2361510225767	12.3800262911225	16.7094487998844	24.8346148265848	12.3800262911225	-12.4545885354623	16.2361510225767	12.3800262911225	24.8346148265848	12.3800262911225	7.340374079558	5.160090762499112	13.00109979244582	8.07144674565733	9.19665029720596	18.956970037082787	8.07144674565733	6.68372057760898	16.094253772619616	10.934163010120502	8.759116922100993	12.313429616002152	3	wrong	1.0
498.64893330005	8.448363599832874	nogo_punish	1.0	498.69184990017675	500.3644879001656	502.8942534001544	1.672637999988865	499.6926405001427	501.8834343000781	505.9443270000629	0.671847400022898	1.0108191000763327	1.1958864999467096	504.9308617000936	0.3682463001459837	503.9177836000456	2	1	58	1	nogo_punish	1	-1	0	0	0	1	0	0.0	1.0	0	1.0	0.3682463001459837	1512.7037231998984	2011.3955731000751	2012.396363700041	2013.068211100064	2014.5871574999765	2015.5979766000528	2016.621506799944	2017.634584899992	2018.6480501999613	2019.843936699908	2020-06-03 15:43:38.783178	-0.360219921079209	-2.45121826768253	-3.40322206612339	-3.43073144644963	-3.04300214504418	-3.40322206612339	0.360219921079209	-3.40322206612339	-2.45121826768253	-3.40322206612339	-3.04300214504418	3.40322206612339	-7.654717694042397	-5.686269497813409	-7.711801611588561	-10.943529949128068	-8.920646934546195	-7.711801611588561	2.7465685641743702	-12.143583120088575	-4.488865426046178	-10.880256166599095	-2.517814942802877	3	correct	1.0
507.13967619999335	8.519481299910467	go_punish	0.2191791001241654	507.1825928001201	509.1838417002	511.7343310001306	2.0012489000798723	508.18301380006596	510.71468230010964	514.7713343000505	1.000827900134027	1.01964870002098	0.9307397999800742	513.7670084000565	0.4615847999230027	512.7485292002095	2	1	59	2	go_punish	0	-1	0	1	1	1	0	0.0	1.0	-1	0.2191791001241654	0.4615847999230027	1512.7037231998984	2019.8863160000185	2020.8867369999643	2021.8875649000984	2023.418405500008	2024.438054200029	2025.452252400108	2026.470731599955	2027.475057499949	2028.405797299929	2020-06-03 15:43:38.783178	-1.17316961190701	-2.56436870597558	-1.62306552331268	-2.58557219057162	-2.79623513521969	-1.62306552331268	1.17316961190701	-2.56436870597558	-1.62306552331268	-2.79623513521969	-1.62306552331268	-4.952250353917949	-8.467667384870197	-5.79941993610646	-5.931645068777851	-10.098370693250057	-8.673879924721703	-5.931645068777851	-5.608903855866969	-11.536596189184877	-3.0689288043146785	-10.041402806451284	-1.6896621984330276	3	correct	1.0
515.7011617999522	8.552389000077028	go_punish	0.3576400999445468	515.7440784000789	517.2213359000161	519.7786213001236	1.4772574999371955	516.7529531000184	518.7584606001619	522.8434612001297	0.4683827999976984	1.020160699961707	1.453006200026266	521.829623500118	0.0488113001920282	520.7963613001627	2	1	60	2	go_punish	1	0	-1	1	1	1	0	0.0	1.0	0	0.3576400999445468	0.0488113001920282	1512.7037231998984	2028.4478015999773	2029.4566762999168	2029.9250590999145	2031.4621838000603	2032.482344500022	2033.5000845000611	2034.5333467000164	2035.547184400028	2037.0001906000543	2020-06-03 15:43:38.783178	-3.41743584937015	-4.15327284567528	-1.62306552331268	-4.16860381804887	-5.04050137268283	-1.62306552331268	3.41743584937015	-4.15327284567528	-1.62306552331268	-5.04050137268283	-1.62306552331268	4.15327284567528	-10.711933622333337	-7.38832407580616	-5.931645068777851	-11.681402320727308	-10.918146162184843	-5.931645068777851	3.4966193437262607	-13.780862426648017	-3.0689288043146785	-11.630306946150984	-1.6896621984330276	3	correct	1.0
