onset	duration	trial_type	response_time	cueOnset	targetOnset	fbOnset	cueRT	firstfixOnset	secondfixOnset	waitOnset	firstfixdur	secondfixdur	waitdur	nback_fbOnset	nback_response_time	nback_targetOnset	block	wm	trial	cue	cond	is_common	outcome_go	outcome_nogo	key_correct	key_pressed	is_correct	key_correct_nback	key_pressed_nback	is_correct_nback	outcome	rt	rt_nback	time_scan	time_onset	time_isi1	time_circle	time_isi2	time_feedback	time_same	time_correct	time_iti	time_done	timestamp_scan	DV	Qgo	Qnogo	SV	Wgo	Wnogo	mDV	Qchosen	Qunchosen	Wchosen	Wunchosen	PE	DVC	QgoC	QnogoC	SVC	WgoC	WnogoC	PEC	WchosenC	WunchosenC	QchosenC	QunchosenC	run	outcome_nback	nback_targetResp
0.0	5.938168799970413	nogo_punish	1.0	0.023902399931216678	1.5914352999535595	4.115918600000555	1.5675329000223428	1.0277872998267412	3.0949313999155947	5.119847399881223	0.5636480001268183	1.02098720008496	0.8422238000204061	n/a	1.0	n/a	1	0	61	1	nogo_punish	1	-1	0	0	0	1	0	n/a	n/a	0	1.0	1.0	971.557079900056	971.5809822999872	972.5848671998828	973.1485152000096	974.6520112999716	975.6729985000566	n/a	n/a	976.6769272999372	977.5191510999576	2020-06-03 15:34:37.633390	-0.868789911544186	-4.10159403122324	-4.10159403122324	-4.11774218315006	-3.23280411967906	-4.10159403122324	0.868789911544186	-4.10159403122324	-4.10159403122324	-4.10159403122324	-3.23280411967906	4.10159403122324	-8.163287684507374	-7.3366452613541195	-8.410173576688411	-11.6305406858285	-9.110448909181073	-8.410173576688411	3.444940529274221	-12.841955085188427	-4.678667400681058	-11.578628131698945	-4.168190706343588	2	missed	0.0
5.973979500122368	6.277702199993655	go_reward	1.0	5.997881900053585	7.815333799924815	10.341422099853162	1.8174518998712301	7.012793299974987	9.331074799876774	11.360788099933643	0.8025404999498278	1.010347299976388	0.9147960001135971	n/a	1.0	n/a	1	0	62	4	go_reward	1	1	0	1	0	0	0	n/a	n/a	0	1.0	1.0	971.557079900056	977.5549618001096	978.569873200031	979.3724136999808	980.8881546999328	981.8985019999092	n/a	n/a	982.9178679999897	983.8326640001033	2020-06-03 15:34:37.633390	-23.7749168822779	22.7568229478743	0.0	22.7568229478743	23.7749168822779	0.0	23.7749168822779	0.0	22.7568229478743	0.0	23.7749168822779	0.0	-31.069414655241086	19.521771717743423	-4.308579545465171	15.244024445195862	17.897272092775886	-4.308579545465171	-0.6566535019490196	-8.740361053965186	22.329053601275902	-7.477034100475705	22.690226272753954	2	missed	0.0
12.288203800097222	6.991550999926403	go_punish	0.2310367999598384	12.312106200028438	14.848236500052735	17.39998200000275	2.536130300024297	13.32678180001676	16.380708399927357	18.403983499854803	1.5214547000359744	1.019273600075394	0.8996737001000383	n/a	1.0	n/a	1	0	63	2	go_punish	1	0	-1	1	1	1	0	n/a	n/a	0	0.2310367999598384	1.0	971.557079900056	983.8691861000844	984.8838617000728	986.4053164001087	987.9377882999834	988.9570619000588	n/a	n/a	989.9610633999108	990.8607371000109	2020-06-03 15:34:37.633390	3.311536655753	-4.29373953968739	-6.70690437674211	-5.9990434569547	-3.39536772098911	-6.70690437674211	-3.311536655753	-4.29373953968739	-6.70690437674211	-3.39536772098911	-6.70690437674211	4.29373953968739	-3.9829611172101873	-7.52879076981827	-11.015483922207281	-13.511841959633138	-9.273012510491125	-11.015483922207281	3.6370860377383707	-12.135728774954297	-8.152767657744109	-11.770773640163096	-6.773501051862458	2	missed	0.0
19.318582100095227	6.525766899809128	go_punish	0.2566337999887764	19.342484500026444	20.84371829987515	23.391905399970824	1.5012337998487055	20.352902899962032	22.373981700045988	24.399734099861348	0.4908153999131173	1.017923699924836	1.4685172999742235	n/a	1.0	n/a	1	0	64	2	go_punish	0	-1	0	1	1	1	0	n/a	n/a	-1	0.2566337999887764	1.0	971.557079900056	990.8995644000825	991.909982800018	992.4007981999312	993.931061600102	994.9489853000268	n/a	n/a	995.9568139999174	997.4253312998916	2020-06-03 15:34:37.633390	5.69110030049896	-1.89002003697355	-6.70690437674211	-2.66710867267214	-1.01580407624316	-6.70690437674211	-5.69110030049896	-1.89002003697355	-6.70690437674211	-1.01580407624316	-6.70690437674211	-5.626599022919979	-1.603397472464227	-5.125071267104429	-11.015483922207281	-10.179907175350579	-6.8934488657451745	-11.015483922207281	-6.283252524868999	-9.756165130208347	-8.152767657744109	-9.367054137449255	-6.773501051862458	2	missed	0.0
25.88307290012017	6.77664389996778	go_reward	0.2523697998840362	25.906975300051386	27.77091129985638	30.31588879996002	1.863935999804994	26.92558419983834	29.301688599865997	31.33124119997956	0.8453271000180393	1.0142002000940238	1.3523780000396073	n/a	1.0	n/a	1	0	65	4	go_reward	1	1	0	1	1	1	0	n/a	n/a	1	0.2523697998840362	1.0	971.557079900056	997.4640552001074	998.4826640998944	999.3279911999124	1000.858768499922	1001.872968700016	n/a	n/a	1002.8883211000356	1004.2406991000752	2020-06-03 15:34:37.633390	23.6198174946766	22.7568229478743	0.0	9.74465570925707	23.6198174946766	0.0	-23.6198174946766	22.7568229478743	0.0	23.6198174946766	0.0	0.8197021542603977	16.325319721713413	19.521771717743423	-4.308579545465171	2.231857206578632	17.742172705174585	-4.308579545465171	0.1630486523113781	14.879456440711413	-1.4458632810019982	15.279788847398596	-0.06659667512034739	2	missed	0.0
32.69223319995217	7.155330799985791	nogo_punish	1.0	32.71613559988339	34.933863099897394	37.474016299937034	2.217727500014007	33.71956849982962	36.450484100030735	38.48300589993596	1.214294600067774	1.023532199906299	1.3884604999332169	n/a	1.0	n/a	1	0	66	1	nogo_punish	0	0	-1	0	0	1	0	n/a	n/a	-1	1.0	1.0	971.557079900056	1004.2732154999394	1005.2766483998856	1006.4909429999534	1008.0075640000867	1009.031096199993	n/a	n/a	1010.040085799992	1011.4285462999252	2020-06-03 15:34:37.633390	1.45914171470572	-4.10159403122324	-1.78621310203308	-1.79539049104927	-3.2453548167388	-1.78621310203308	-1.45914171470572	-1.78621310203308	-4.10159403122324	-1.78621310203308	-3.2453548167388	-5.73040595786045	-5.835356058257467	-7.3366452613541195	-6.094792647498251	-9.308188993727708	-9.122999606240814	-6.094792647498251	-6.387059459809469	-10.526574155998267	-4.691218097740798	-9.263247202508785	-4.168190706343588	2	missed	0.0
39.881414900068194	7.393554199952632	nogo_punish	0.1061986000277102	39.90531729999941	42.38097890000802	44.93654050002817	2.475661600008607	40.8999671000056	43.9116543000564	45.946544199949244	1.4810118000024204	1.0248861999717747	1.3523273000027984	n/a	1.0	n/a	1	0	67	1	nogo_punish	1	-1	0	0	1	0	0	n/a	n/a	-1	0.1061986000277102	1.0	971.557079900056	1011.4623972000554	1012.4570470000616	1013.938058800064	1015.4687342001124	1016.4936204000842	n/a	n/a	1017.5036241000053	1018.855951400008	2020-06-03 15:34:37.633390	1.70337908873235	-4.10159403122324	-4.92069127470903	-4.92600600141317	-3.21731218597668	-4.92069127470903	-1.70337908873235	-4.10159403122324	-4.92069127470903	-3.21731218597668	-4.92069127470903	-3.4150250286702892	-5.591118684230837	-7.3366452613541195	-9.2292708201742	-12.438804504091609	-9.094956975478695	-9.2292708201742	-4.071678530619309	-11.957673239941865	-6.366554555711028	-11.578628131698945	-4.987287949829378	2	missed	0.0
47.31186649994913	6.869707799982393	nogo_punish	1.0	47.33576889988035	49.66816030000359	52.19921729993075	2.3323914001232424	48.34033379983157	51.17939609987684	53.21222979994502	1.3278265001720229	1.0198212000539115	0.9932468999177217	n/a	1.0	n/a	1	0	68	1	nogo_punish	1	-1	0	0	0	1	1	n/a	n/a	0	1.0	1.0	971.557079900056	1018.8928487999364	1019.8974136998876	1021.2252402000596	1022.7364759999328	1023.7562971999868	n/a	n/a	1024.769309700001	1025.7625565999188	2020-06-03 15:34:37.633390	0.0633959806961418	-5.88780713325633	-4.92069127470903	-6.28351438312875	-4.98408725540517	-4.92069127470903	-0.0633959806961418	-4.92069127470903	-5.88780713325633	-4.92069127470903	-4.98408725540517	4.92069127470903	-7.2311017922670455	-9.12285836338721	-9.2292708201742	-13.79631288580719	-10.861732044907184	-9.2292708201742	4.264037772760011	-13.661052328674216	-6.429950536407167	-12.397725375184734	-5.954403808376678	2	missed	0.0
54.21571379993111	6.904990600189194	nogo_punish	1.0	54.239616199862326	56.668794799829016	59.20549510000285	2.42917859996669	55.247070400044436	58.18417340004828	60.20723089994874	1.4217243997845799	1.0213216999545693	0.9373759001027793	n/a	1.0	n/a	1	0	69	1	nogo_punish	1	-1	0	0	0	1	1	n/a	n/a	0	1.0	1.0	971.557079900056	1025.7966960999183	1026.8041503001004	1028.225874699885	1029.7412533001043	1030.7625750000589	n/a	n/a	1031.7643108000048	1032.7016867001075	2020-06-03 15:34:37.633390	2.83176205595787	-5.88780713325633	-2.17878939602432	-2.80265844680146	-5.0105514519822	-2.17878939602432	-2.83176205595787	-2.17878939602432	-5.88780713325633	-2.17878939602432	-5.0105514519822	2.17878939602432	-4.462735717005318	-9.12285836338721	-6.487368941489491	-10.315456949479898	-10.888196241484213	-6.487368941489491	1.5221358940753005	-10.919150449989505	-6.456414732984198	-9.655823496500025	-5.954403808376678	2	missed	0.0
61.15482180006802	6.489095999859046	nogo_punish	1.0	61.17872419999924	62.73906169994768	65.265375299845	1.5603374999484458	62.19501569983561	64.25439859996561	66.27771749999408	0.5440460001120755	1.010976699879393	1.390102699864201	n/a	1.0	n/a	1	0	70	1	nogo_punish	1	-1	0	0	0	1	1	n/a	n/a	0	1.0	1.0	971.557079900056	1032.7358041000552	1033.7520955998916	1034.2961416000037	1035.8114785000216	1036.822455199901	n/a	n/a	1037.83479740005	1039.2249000999143	2020-06-03 15:34:37.633390	4.0150528243109	-5.88780713325633	-1.01457175338199	-1.31343502277544	-5.02962457769289	-1.01457175338199	-4.0150528243109	-1.01457175338199	-5.88780713325633	-1.01457175338199	-5.02962457769289	1.01457175338199	-3.279444948652287	-9.12285836338721	-5.3231512988471605	-8.826233525453878	-10.907269367194903	-5.3231512988471605	0.3579182514329704	-9.754932807347176	-6.475487858694889	-8.491605853857696	-5.954403808376678	2	missed	0.0
67.6862955999095	6.122369900112972	nogo_reward	1.0	67.71019799984072	69.06804379983816	71.57945469999697	1.357845799997449	68.70912009989854	70.56300539989036	72.58797129988682	0.3589236999396235	1.0164493001066148	1.2445966000668705	n/a	1.0	n/a	1	0	71	3	nogo_reward	1	0	1	0	0	1	0	n/a	n/a	1	1.0	1.0	971.557079900056	1039.2672778998967	1040.2661999999546	1040.6251236998942	1042.1200852999464	1043.136534600053	n/a	n/a	1044.1450511999428	1045.3896478000097	2020-06-03 15:34:37.633390	13.5260341903738	0.0	14.4990256738146	14.4990256738146	0.972991483440847	14.4990256738146	-13.5260341903738	14.4990256738146	0.0	14.4990256738146	0.972991483440847	9.077499428320099	6.231536417410612	-3.2350512301308796	10.190446128349429	6.986227171136162	-4.904653306061167	10.190446128349429	8.42084592637108	5.758664619849414	-0.4728717975611513	7.021991573338895	-0.06659667512034739	2	missed	0.0
73.84610110009066	5.75316879991442	go_punish	0.5522501999512315	73.87000350002188	75.29991329996858	77.85170369991113	1.4299097999466994	74.87725279992458	76.83126809983526	78.86409649997961	0.42266050004400313	1.0204356000758708	0.7590757999566904	n/a	1.0	n/a	1	0	72	2	go_punish	1	0	-1	1	1	1	0	n/a	n/a	0	0.5522501999512315	1.0	971.557079900056	1045.427083400078	1046.4343326999806	1046.8569932000246	1048.3883479998913	1049.4087835999671	n/a	n/a	1050.4211764000356	1051.1802521999923	2020-06-03 15:34:37.633390	2.62361117555737	-4.97815775573172	-6.70690437674211	-5.34835093658817	-4.08329320118474	-6.70690437674211	-2.62361117555737	-4.97815775573172	-6.70690437674211	-4.08329320118474	-6.70690437674211	4.97815775573172	-4.670886597405818	-8.2132089858626	-11.015483922207281	-12.861149439266608	-9.960937990686755	-11.015483922207281	4.321504253782701	-12.823654255149926	-8.152767657744109	-12.455191856207424	-6.773501051862458	2	missed	0.0
79.6336707000155	7.362177100032568	go_reward	0.2626367998309433	79.65757309994672	82.0756566999479	84.60563769983139	2.4180836000011823	80.65357899991807	83.58026760001678	85.62002339982439	1.4220777000298312	1.0253700998146087	1.3997268001548946	n/a	1.0	n/a	1	0	73	4	go_reward	1	1	0	1	1	1	0	n/a	n/a	1	0.2626367998309433	1.0	971.557079900056	1051.2146530000027	1052.210658899974	1053.632736600004	1055.1373475000728	1056.1627175998874	n/a	n/a	1057.1771032998804	1058.5768301000353	2020-06-03 15:34:37.633390	24.1412458733472	23.1630385921956	0.0	17.8261784924031	24.1412458733472	0.0	-24.1412458733472	23.1630385921956	0.0	24.1412458733472	0.0	0.41348650993909786	16.846748100384012	19.927987362064723	-4.308579545465171	10.313379989724659	18.263601083845185	-4.308579545465171	-0.24316699200992176	15.400884819382012	-1.4458632810019982	15.686004491719896	-0.06659667512034739	2	missed	0.0
87.03511920012534	5.91633929987438	go_punish	0.6011797001119703	87.05902160005655	88.4209572998808	90.95743309985858	1.3619356998242438	88.06175230001111	89.94086460000847	91.96619469998416	0.35920499986968935	1.0165684998501092	1.009166199946776	n/a	1.0	n/a	1	0	74	2	go_punish	0	-1	0	1	1	1	1	n/a	n/a	-1	0.6011797001119703	1.0	971.557079900056	1058.6161015001126	1059.6188322000671	1059.9780371999368	1061.4979445000645	1062.5145129999146	n/a	n/a	1063.5232746000402	1064.532440799987	2020-06-03 15:34:37.633390	5.36710663316829	-2.21130325505786	-6.70690437674211	-2.39457260709209	-1.33979774357382	-6.70690437674211	-5.36710663316829	-2.21130325505786	-6.70690437674211	-1.33979774357382	-6.70690437674211	-5.3053158048356694	-1.9273911397948975	-5.44635448518874	-11.015483922207281	-9.907371109770528	-7.217442533075834	-11.015483922207281	-5.961969306784689	-10.080158797539006	-8.152767657744109	-9.688337355533566	-6.773501051862458	2	missed	0.0
92.99248049990274	6.811888399999589	nogo_reward	1.0	93.01638289983396	94.88991939998243	97.43076090002444	1.8735365001484752	94.026095399866	96.40671000001032	98.4399850999472	0.8638240001164377	1.0240509000141174	1.3882861998863518	n/a	1.0	n/a	1	0	75	3	nogo_reward	1	0	1	0	0	1	0	n/a	n/a	1	1.0	1.0	971.557079900056	1064.57346279989	1065.583175299922	1066.4469993000384	1067.9637899000663	1068.9878408000804	n/a	n/a	1069.9970650000032	1071.3853511998896	2020-06-03 15:34:37.633390	18.4949975365106	0.0	19.5077633268792	19.5077633268792	1.01276579036862	19.5077633268792	-18.4949975365106	19.5077633268792	0.0	19.5077633268792	1.01276579036862	4.068761775255499	11.200499763547413	-3.2350512301308796	15.199183781414028	11.99496482420076	-4.864878999133394	15.199183781414028	3.4121082733064796	10.767402272914014	-0.4330974906333782	12.030729226403494	-0.06659667512034739	2	missed	0.0
99.84018060006201	6.552947300020605	go_punish	0.2600204001646489	99.86408299999323	101.66641899989929	104.21763990004558	1.802335999906063	100.87872739997704	103.19692739984032	105.22053679986868	0.7876915999222547	1.0207125002052635	1.1964935001451522	n/a	1.0	n/a	1	0	76	2	go_punish	1	0	-1	1	1	1	1	n/a	n/a	0	0.2600204001646489	1.0	971.557079900056	1071.4211629000492	1072.435807300033	1073.2234988999553	1074.7540072998963	1075.7747198001016	n/a	n/a	1076.7776166999247	1077.9741102000698	2020-06-03 15:34:37.633390	2.46514461394849	-5.13492627836671	-6.70690437674211	-5.2287551676076	-4.24175976279362	-6.70690437674211	-2.46514461394849	-5.13492627836671	-6.70690437674211	-4.24175976279362	-6.70690437674211	5.13492627836671	-4.829353159014698	-8.36997750849759	-11.015483922207281	-12.741553670286038	-10.119404552295634	-11.015483922207281	4.478272776417691	-12.982120816758806	-8.152767657744109	-12.611960378842415	-6.773501051862458	2	missed	0.0
106.42989629995986	7.291326200124104	nogo_punish	1.0	106.45379869989108	109.2263950998896	111.74488210002903	2.7725963999985197	107.4614647999407	110.72390870004904	112.75776809989486	1.764930299948901	1.0209733999799937	0.9873568001203239	n/a	1.0	n/a	1	0	77	1	nogo_punish	1	-1	0	0	0	1	0	n/a	n/a	0	1.0	1.0	971.557079900056	1078.010878599947	1079.0185446999967	1080.7834749999456	1082.280988600105	1083.301962000085	n/a	n/a	1084.3148479999509	1085.3022048000712	2020-06-03 15:34:37.633390	4.54823763848923	-5.88780713325633	-0.493200357129695	-0.642084602452511	-5.04143799561893	-0.493200357129695	-4.54823763848923	-0.493200357129695	-5.88780713325633	-0.493200357129695	-5.04143799561893	0.493200357129695	-2.7462601344739577	-9.12285836338721	-4.801779902594866	-8.15488310513095	-10.919082785120944	-4.801779902594866	-0.1634531448193246	-9.23356141109488	-6.4873012766209275	-7.9702344576054	-5.954403808376678	2	missed	0.0
113.75633460003883	6.071323500014842	nogo_punish	1.0	113.78023699997004	115.11395150003966	117.62919420003902	1.3337145000696182	114.79556209989835	116.6202612000053	118.64294339995843	0.31838940014131367	1.0089330000337213	1.2086171000264585	n/a	1.0	n/a	1	0	78	1	nogo_punish	1	-1	0	0	0	1	0	n/a	n/a	0	1.0	1.0	971.557079900056	1085.337316900026	1086.3526419999544	1086.6710314000957	1088.1773411000613	1089.186274100095	n/a	n/a	1090.2000233000144	1091.408640400041	2020-06-03 15:34:37.633390	4.79958220279529	-5.88780713325633	-0.248808582007206	-0.325544327797845	-5.04839078480249	-0.248808582007206	-4.79958220279529	-0.248808582007206	-5.88780713325633	-0.248808582007206	-5.04839078480249	0.248808582007206	-2.4949155701678976	-9.12285836338721	-4.557388127472377	-7.838342830476283	-10.926035574304503	-4.557388127472377	-0.4078449199418136	-8.989169635972392	-6.494254065804489	-7.725842682482911	-5.954403808376678	2	missed	0.0
119.86211260012351	7.597404899774119	nogo_punish	1.0	119.88601500005473	122.66977739986044	125.19563780003239	2.7837623998057097	120.9044766998851	124.18556230003048	126.2086378999519	1.7653006999753416	1.0100755000019035	1.27478199987695	n/a	1.0	n/a	1	0	79	1	nogo_punish	1	-1	0	0	0	1	1	n/a	n/a	0	1.0	1.0	971.557079900056	1091.4430949001107	1092.461556599941	1094.2268572999164	1095.7426422000865	1096.7527177000884	n/a	n/a	1097.765717800008	1099.0404997998849	2020-06-03 15:34:37.633390	4.92277948269324	-5.88780713325633	-0.12963404733696	-0.170380771097514	-5.0524135300302	-0.12963404733696	-4.92277948269324	-0.12963404733696	-5.88780713325633	-0.12963404733696	-5.0524135300302	0.12963404733696	-2.371718290269947	-9.12285836338721	-4.438213592802131	-7.683179273775952	-10.930058319532215	-4.438213592802131	-0.5270194546120597	-8.869995101302147	-6.4982768110321985	-7.606668147812665	-5.954403808376678	2	missed	0.0
127.49932310008444	6.259078699862812	go_punish	0.587750299833715	127.52322550001566	128.8614558998962	131.4259985999671	1.3382303998805583	128.53436389984574	130.40282709989708	132.43910079984937	0.32709200005047023	1.0231715000700206	1.3432034000290969	n/a	1.0	n/a	1	0	80	2	go_punish	1	0	-1	1	1	1	0	n/a	n/a	0	0.587750299833715	1.0	971.557079900056	1099.0803054000717	1100.0914437999018	1100.4185357999522	1101.959906999953	1102.983078500023	n/a	n/a	1103.9961806999054	1105.3393840999345	2020-06-03 15:34:37.633390	5.28698627170813	-2.29043245958856	-6.70690437674211	-2.33991136975289	-1.41991810503398	-6.70690437674211	-5.28698627170813	-2.29043245958856	-6.70690437674211	-1.41991810503398	-6.70690437674211	2.29043245958856	-2.007511501255057	-5.52548368971944	-11.015483922207281	-9.852709872431328	-7.297562894535994	-11.015483922207281	1.6337789576395405	-10.160279158999167	-8.152767657744109	-9.767466560064264	-6.773501051862458	2	missed	0.0
133.79031100007728	7.021571899996843	nogo_punish	1.0	133.8142134000085	136.2711678999475	138.8098859000021	2.456954499939002	134.81138970004406	137.7859767000192	139.81372139998723	1.4597781999034396	1.0239091999828815	1.0220639000181109	n/a	1.0	n/a	1	0	81	1	nogo_punish	0	0	-1	0	0	1	1	n/a	n/a	-1	1.0	1.0	971.557079900056	1105.3712933000645	1106.3684696001	1107.8282478000035	1109.3430566000752	1110.366965800058	n/a	n/a	1111.3708013000432	1112.3928652000614	2020-06-03 15:34:37.633390	4.98525304809	-5.88780713325633	-0.0694822240378219	-0.091696167525302	-5.05473527212782	-0.0694822240378219	-4.98525304809	-0.0694822240378219	-5.88780713325633	-0.0694822240378219	-5.05473527212782	-7.447136835855708	-2.3092447248731878	-9.12285836338721	-4.378061769502993	-7.60449467020374	-10.932380061629834	-4.378061769502993	-8.103790337804728	-8.809843278003008	-6.500598553129818	-7.546516324513527	-5.954403808376678	2	missed	0.0
140.84513380005956	6.509995699860156	nogo_punish	1.0	140.86903619999077	142.52779509988648	145.0447672000156	1.6587588998957017	141.8710620000494	144.0340231000447	146.05780509999033	0.6567330998370835	1.010744099970907	1.3212267998605967	n/a	1.0	n/a	1	0	82	1	nogo_punish	1	-1	0	0	0	1	0	n/a	n/a	0	1.0	1.0	971.557079900056	1112.4261161000468	1113.4281419001054	1114.0848749999425	1115.5911030001007	1116.6018471000716	n/a	n/a	1117.6148850000463	1118.936111799907	2020-06-03 15:34:37.633390	0.877906694066743	-5.88780713325633	-4.13978140443793	-4.1521792057823	-5.01768809850468	-4.13978140443793	-0.877906694066743	-4.13978140443793	-5.88780713325633	-4.13978140443793	-5.01768809850468	4.13978140443793	-6.416591078896444	-9.12285836338721	-8.448360949903101	-11.66497770846074	-10.895332888006694	-8.448360949903101	3.483127902488911	-12.880142458403117	-6.4635513795066775	-11.616815504913635	-5.954403808376678	2	missed	0.0
147.39824369992107	6.776765900198598	nogo_reward	1.0	147.42214609985228	149.20318079995934	151.7223713998684	1.7810347001070568	148.43029979988944	150.69689999986429	152.73104669991892	0.7728810000699013	1.0254714000041076	1.4678653001319617	n/a	1.0	n/a	1	0	83	3	nogo_reward	1	0	1	0	0	1	0	n/a	n/a	1	1.0	1.0	971.557079900056	1118.9792259999083	1119.9873796999454	1120.7602607000154	1122.2539798999203	1123.2794512999244	n/a	n/a	1124.288126599975	1125.755991900107	2020-06-03 15:34:37.633390	20.6451265752918	0.0	21.6653061766922	21.6653061766922	1.02017960140042	21.6653061766922	-20.6451265752918	21.6653061766922	0.0	21.6653061766922	1.02017960140042	1.9112189254424976	13.350628802328615	-3.2350512301308796	17.35672663122703	14.152507674013762	-4.857465188101594	17.35672663122703	1.254565423493478	12.924945122727015	-0.42568367960157816	14.188272076216496	-0.06659667512034739	2	missed	0.0
154.21434530010447	7.79024909995519	nogo_reward	1.0	154.23824770003569	157.00569369993184	159.5453492999078	2.767445999896154	155.24094159994286	158.5212144998369	160.54454999999155	1.764752099988982	1.0241348000708967	1.4839467999993303	n/a	1.0	n/a	1	0	84	3	nogo_reward	1	0	1	0	0	1	0	n/a	n/a	1	1.0	1.0	971.557079900056	1125.7953276000917	1126.7980214999989	1128.5627735999878	1130.078294399893	1131.1024291999638	n/a	n/a	1132.1016299000476	1133.5855767000469	2020-06-03 15:34:37.633390	21.6223812626319	0.0	22.6417894652084	22.6417894652084	1.0194082025765	22.6417894652084	-21.6223812626319	22.6417894652084	0.0	22.6417894652084	1.0194082025765	0.9347356369262982	14.327883489668714	-3.2350512301308796	18.33320991974323	15.128990962529961	-4.858236586925514	18.33320991974323	0.2780821349772786	13.901428411243215	-0.4264550784254981	15.164755364732695	-0.06659667512034739	2	missed	0.0
162.0437429000158	7.450992800062522	nogo_reward	1.0	162.067645299947	165.0360749999528	167.5601198000369	2.9684297000057995	163.07430760003638	166.53963469993334	168.57223259983596	1.9617673999164253	1.0204851001035422	0.9464055001735687	n/a	1.0	n/a	1	0	85	3	nogo_reward	0	1	0	0	0	1	1	n/a	n/a	0	1.0	1.0	971.557079900056	1133.624725200003	1134.6313875000924	1136.5931549000088	1138.0967145999894	1139.117199700093	n/a	n/a	1140.129312499892	1141.0757180000655	2020-06-03 15:34:37.633390	22.0858031712339	0.0	23.1030492704303	23.1030492704303	1.01724609919648	23.1030492704303	-22.0858031712339	23.1030492704303	0.0	23.1030492704303	1.01724609919648	-23.1030492704303	14.791305398270712	-3.2350512301308796	18.79446972496513	15.590250767751861	-4.860398690305534	18.79446972496513	-23.75970277237932	14.362688216465115	-0.4286171818055182	15.626015169954595	-0.06659667512034739	2	missed	0.0
169.5380903999319	6.3094809001779595	nogo_reward	1.0	169.5619927998631	171.04995199991401	173.5826232999101	1.4879592000509092	170.55980549985554	172.55739239999104	174.5908545998392	0.49014650005847216	1.0252308999190518	1.280619100201875	n/a	1.0	n/a	1	0	86	3	nogo_reward	1	0	1	0	0	1	1	n/a	n/a	1	1.0	1.0	971.557079900056	1141.1190726999191	1142.1168853999116	1142.60703189997	1144.114472300047	1145.139703199966	n/a	n/a	1146.1479344998952	1147.428553600097	2020-06-03 15:34:37.633390	9.04884153977649	0.0	9.91082873807603	9.91082873807603	0.861987198299537	9.91082873807603	-9.04884153977649	9.91082873807603	0.0	9.91082873807603	0.861987198299537	13.66569636405867	1.7543437668133022	-3.2350512301308796	5.602249192610858	2.3980302353975906	-5.015657591202477	5.602249192610858	13.00904286210965	1.170467684110843	-0.5838760827024613	2.4337946376003243	-0.06659667512034739	2	missed	0.0
175.88601569994353	7.138919800054282	go_punish	0.2162748000118881	175.90991809987474	178.0939721998294	180.63666799990472	2.1840540999546647	176.92219449998822	179.62486910005111	181.64391579991218	1.1717776998411864	1.011798899853602	1.4049221000168473	n/a	1.0	n/a	1	0	87	2	go_punish	1	0	-1	1	1	1	0	n/a	n/a	0	0.2162748000118881	1.0	971.557079900056	1147.4669979999308	1148.4792744000442	1149.6510520998854	1151.1819490001071	1152.1937478999607	n/a	n/a	1153.2009956999682	1154.605917799985	2020-06-03 15:34:37.633390	6.48663091627319	-1.07448356548521	-6.70690437674211	-1.1012684656616	-0.220273460468924	-6.70690437674211	-6.48663091627319	-1.07448356548521	-6.70690437674211	-0.220273460468924	-6.70690437674211	1.07448356548521	-0.8078668566899978	-4.30953479561609	-11.015483922207281	-8.614066968340039	-6.097918249970938	-11.015483922207281	0.41783006353619045	-8.96063451443411	-8.152767657744109	-8.551517665960915	-6.773501051862458	2	missed	0.0
183.05950360000134	7.13005380006507	go_punish	0.6300838000606745	183.08340599993255	185.6842133998872	188.2344442999455	2.600807399954647	184.07685639988642	187.21464589983236	189.24726810003642	1.6073570000007749	1.0197984001131317	0.9661916999612004	n/a	1.0	n/a	1	0	88	2	go_punish	1	0	-1	1	1	1	0	n/a	n/a	0	0.6300838000606745	1.0	971.557079900056	1154.6404858999886	1155.6339362999424	1157.2412932999432	1158.7717257998884	1159.7915242000015	n/a	n/a	1160.8043480000924	1161.7705397000536	2020-06-03 15:34:37.633390	7.02480713001212	-0.526195565249852	-6.70690437674211	-0.541039078805367	0.317902753270014	-6.70690437674211	-7.02480713001212	-0.526195565249852	-6.70690437674211	0.317902753270014	-6.70690437674211	0.526195565249852	-0.26969064295106726	-3.761246795380732	-11.015483922207281	-8.053837581483805	-5.5597420362320005	-11.015483922207281	-0.1304579366991676	-8.422458300695173	-8.152767657744109	-8.003229665725557	-6.773501051862458	2	missed	0.0
190.22824309999123	6.0753701000940055	nogo_punish	1.0	190.25214549992245	191.81903570005682	194.35375020001095	1.5668902001343668	191.2565358998255	193.334055799991	195.36508419993368	0.5624998002313077	1.0196944000199437	0.962431400082778	n/a	1.0	n/a	1	0	89	1	nogo_punish	1	-1	0	0	0	1	0	n/a	n/a	0	1.0	1.0	971.557079900056	1161.8092253999785	1162.8136157998815	1163.3761156001128	1164.891135700047	1165.910830100067	n/a	n/a	1166.9221640999897	1167.8845955000725	2020-06-03 15:34:37.633390	3.22309352494629	-5.88780713325633	-1.80767598066404	-1.81474245202482	-5.03076950561034	-1.80767598066404	-3.22309352494629	-1.80767598066404	-5.88780713325633	-1.80767598066404	-5.03076950561034	1.80767598066404	-4.071404248016897	-9.12285836338721	-6.11625552612921	-9.32754095470326	-10.908414295112355	-6.11625552612921	1.1510224787150203	-10.548037034629226	-6.476632786612338	-9.284710081139744	-5.954403808376678	2	missed	0.0
196.34132310003042	6.37766749993898	go_punish	0.324902799911797	196.36522549996164	198.4271567000543	200.95965299988177	2.0619312000926584	197.37449219985876	199.95787499984738	201.9726176999976	1.052664500195533	1.0017780000343919	0.7702752999030054	n/a	1.0	n/a	1	0	90	2	go_punish	1	0	-1	1	1	1	1	n/a	n/a	0	0.324902799911797	1.0	971.557079900056	1167.9223054000176	1168.9315720999148	1169.9842366001103	1171.5149548999034	1172.5167328999378	n/a	n/a	1173.5296976000536	1174.2999728999566	2020-06-03 15:34:37.633390	7.27763150115995	-0.267404375312346	-6.70690437674211	-0.275805635976583	0.570727124417841	-6.70690437674211	-7.27763150115995	-0.267404375312346	-6.70690437674211	0.570727124417841	-6.70690437674211	0.267404375312346	-0.016866271803237076	-3.5024556054432257	-11.015483922207281	-7.788604138655021	-5.306917665084173	-11.015483922207281	-0.3892491266366736	-8.169633929547345	-8.152767657744109	-7.7444384757880504	-6.773501051862458	2	missed	0.0
202.75240939995274	6.315564700169716	nogo_punish	1.0	202.77631179988396	204.5298049999402	207.05429259990353	1.7534932000562549	203.79565520002518	206.03446520003502	208.06724409991887	0.7341497999150306	1.0198273998685181	1.0246324001348057	n/a	1.0	n/a	1	0	91	1	nogo_punish	1	-1	0	0	0	1	1	n/a	n/a	0	1.0	1.0	971.557079900056	1174.33339169994	1175.3527351000812	1176.0868848999962	1177.591545100091	1178.6113724999595	n/a	n/a	1179.6243239999749	1180.6489564001097	2020-06-03 15:34:37.633390	4.21002771103313	-5.88780713325633	-0.831405588383156	-0.835510609268771	-5.04143329941629	-0.831405588383156	-4.21002771103313	-0.831405588383156	-5.88780713325633	-0.831405588383156	-5.04143329941629	0.831405588383156	-3.084470061930057	-9.12285836338721	-5.1399851338483264	-8.34830911194721	-10.919078088918305	-5.1399851338483264	0.17475208643413642	-9.571766642348342	-6.487296580418288	-8.308439688858861	-5.954403808376678	2	missed	0.0
209.1069761000108	6.344648400088772	go_reward	0.7003939999267459	209.130878499942	210.69675350002956	213.2561490000229	1.5658750000875443	210.13190889987175	212.23249679990124	214.25519169983488	0.5648446001578122	1.02365220012166	1.2203352001959047	n/a	1.0	n/a	1	0	92	4	go_reward	1	1	0	1	1	1	0	n/a	n/a	1	0.7003939999267459	1.0	971.557079900056	1180.687958399998	1181.6889887999278	1182.2538334000856	1183.7895766999573	1184.813228900079	n/a	n/a	1185.812271599891	1187.0326068000868	2020-06-03 15:34:37.633390	24.3701105215353	23.3613086309411	0.0	21.0425669133117	24.3701105215353	0.0	-24.3701105215353	23.3613086309411	0.0	24.3701105215353	0.0	0.21521647119359955	17.075612748572112	20.12625740081022	-4.308579545465171	13.52976841063326	18.492465732033285	-4.308579545465171	-0.44143703075542007	15.629749467570113	-1.4458632810019982	15.884274530465394	-0.06659667512034739	2	missed	0.0
215.48612589994445	6.624210100155324	nogo_punish	1.0	215.51002829987567	217.18298069993045	219.7177538999823	1.6729524000547826	216.5263936999255	218.69784559984703	220.72564439987775	0.6565870000049472	1.0199083001352847	1.4085940001532435	n/a	1.0	n/a	1	0	93	1	nogo_punish	1	-1	0	0	0	1	1	n/a	n/a	0	1.0	1.0	971.557079900056	1187.0671081999317	1188.0834735999815	1188.7400605999865	1190.254925499903	1191.2748338000383	n/a	n/a	1192.2827242999338	1193.691318300087	2020-06-03 15:34:37.633390	4.64851642204475	-5.88780713325633	-0.399764612081769	-0.402190821941922	-5.04828103412651	-0.399764612081769	-4.64851642204475	-0.399764612081769	-5.88780713325633	-0.399764612081769	-5.04828103412651	0.399764612081769	-2.6459813509184373	-9.12285836338721	-4.708344157546939	-7.91498932462036	-10.925925823628525	-4.708344157546939	-0.2568888898672506	-9.140125666046956	-6.4941443151285085	-7.876798712557473	-5.954403808376678	2	missed	0.0
222.14542570011668	7.331033299910132	nogo_punish	1.0	222.1693281000479	224.73156349989597	227.24428649991762	2.5622353998480776	223.18516179989103	226.23627140000474	228.25700960005645	1.5464017000049353	1.0080150999128819	1.2433517999015749	n/a	1.0	n/a	1	0	94	1	nogo_punish	1	-1	0	0	0	1	0	n/a	n/a	0	1.0	1.0	971.557079900056	1193.726408000104	1194.742241699947	1196.288643399952	1197.7933513000607	1198.8013663999736	n/a	n/a	1199.8140895001125	1201.057441300014	2020-06-03 15:34:37.633390	4.85262178777232	-5.88780713325633	-0.199742887937351	-0.201199654338647	-5.05236467570967	-0.199742887937351	-4.85262178777232	-0.199742887937351	-5.88780713325633	-0.199742887937351	-5.05236467570967	0.199742887937351	-2.441875985190867	-9.12285836338721	-4.508322433402522	-7.713998157017086	-10.930009465211684	-4.508322433402522	-0.4569106140116686	-8.940103941902537	-6.498227956711668	-7.676776988413056	-5.954403808376678	2	missed	0.0
229.51439699996286	6.6979325001591405	nogo_punish	1.0	229.53829939989407	231.89145420002762	234.42657929984887	2.3531548001335523	230.5421221998987	233.40678590000618	235.43008269998256	1.3493320001289248	1.0197933998426834	0.8061492000706494	n/a	1.0	n/a	1	0	95	1	nogo_punish	1	-1	0	0	0	1	1	n/a	n/a	0	1.0	1.0	971.557079900056	1201.09537929995	1202.0992020999547	1203.4485341000836	1204.9638658000622	1205.9836591999049	n/a	n/a	1206.9871626000386	1207.7933118001092	2020-06-03 15:34:37.633390	4.9515402931145	-5.88780713325633	-0.103197380978908	-0.104084803968713	-5.05473767409341	-0.103197380978908	-4.9515402931145	-0.103197380978908	-5.88780713325633	-0.103197380978908	-5.05473767409341	0.103197380978908	-2.342957479848687	-9.12285836338721	-4.4117769264440785	-7.616883306647152	-10.932382463595424	-4.4117769264440785	-0.5534561209701117	-8.843558434944095	-6.500600955095408	-7.580231481454613	-5.954403808376678	2	missed	0.0
236.24985929997638	5.8827506001107395	go_reward	0.3560507998336106	236.2737616999076	237.84924539993528	240.39584090001892	1.5754837000276893	237.28704239986848	239.38031679997232	241.39526179991674	0.5622030000668019	1.0155241000466049	0.7612505001015961	n/a	1.0	n/a	1	0	96	4	go_reward	1	1	0	1	1	1	0	n/a	n/a	1	0.3560507998336106	1.0	971.557079900056	1207.8308415999636	1208.8441222999245	1209.4063252999913	1210.9373967000283	1211.952920800075	n/a	n/a	1212.9523416999727	1213.7135922000743	2020-06-03 15:34:37.633390	24.4768438961456	23.4613659654156	0.0	22.4029602177171	24.4768438961456	0.0	-24.4768438961456	23.4613659654156	0.0	24.4768438961456	0.0	0.11515913671910027	17.182346123182413	20.22631473528472	-4.308579545465171	14.890161715038662	18.599199106643585	-4.308579545465171	-0.5414943652299193	15.736482842180413	-1.4458632810019982	15.984331864939893	-0.06659667512034739	2	missed	0.0
242.1679853000678	6.052593800006662	nogo_punish	1.0	242.19188769999903	243.5510741998445	246.0803797000557	1.359186499845464	243.20732509996753	245.0658229000402	247.07822939986374	0.343749099876959	1.014556800015498	1.1662521001419464	n/a	1.0	n/a	1	0	97	1	nogo_punish	0	0	-1	0	0	1	1	n/a	n/a	-1	1.0	1.0	971.557079900056	1213.748967600055	1214.7644050000235	1215.1081540999005	1216.6229028000962	1217.6374596001117	n/a	n/a	1218.6353092999198	1219.8015614000617	2020-06-03 15:34:37.633390	5.00120048941723	-5.88780713325633	-0.0549072648356467	-0.0554550972106924	-5.05610775425288	-0.0549072648356467	-5.00120048941723	-0.0549072648356467	-5.88780713325633	-0.0549072648356467	-5.05610775425288	-7.461711795057883	-2.2932972835459573	-9.12285836338721	-4.3634868103008175	-7.568253599889131	-10.933752543754894	-4.3634868103008175	-8.118365297006903	-8.795268318800833	-6.501971035254877	-7.531941365311352	-5.954403808376678	2	missed	0.0
248.25827910006046	6.5268188000191	nogo_punish	1.0	248.28218149999168	250.07675929996196	252.60825279983703	1.794577799970284	249.29598669987183	251.58763849991408	253.61991119990137	0.7807726000901312	1.0206142999229542	1.1890891001094133	n/a	1.0	n/a	1	0	98	1	nogo_punish	1	-1	0	0	0	1	0	n/a	n/a	0	1.0	1.0	971.557079900056	1219.8392614000477	1220.8530665999278	1221.633839200018	1223.14471839997	1224.165332699893	n/a	n/a	1225.1769910999574	1226.3660802000668	2020-06-03 15:34:37.633390	0.886929317567866	-5.88780713325633	-4.13157822579705	-4.13192059307622	-5.01850754336492	-4.13157822579705	-0.886929317567866	-4.13157822579705	-5.88780713325633	-4.13157822579705	-5.01850754336492	4.13157822579705	-6.407568455395322	-9.12285836338721	-8.440157771262221	-11.64471909575466	-10.896152332866933	-8.440157771262221	3.47492472384803	-12.871939279762236	-6.4643708243669185	-11.608612326272755	-5.954403808376678	2	missed	0.0
254.8274596000556	6.330216899980087	nogo_reward	1.0	254.8513619999868	256.85156159987685	259.39349879999656	2.0001995998900384	255.85204999987047	258.3673070999795	260.3982377999929	0.9995116000063717	1.0261917000170797	0.7833410999739954	n/a	1.0	n/a	1	0	99	3	nogo_reward	1	0	1	0	0	1	0	n/a	n/a	1	1.0	1.0	971.557079900056	1226.4084419000428	1227.4091298999265	1228.4086414999329	1229.9243870000355	1230.9505787000526	n/a	n/a	1231.955317700049	1232.738658800023	2020-06-03 15:34:37.633390	16.931227588707	0.0	17.9086634378846	17.9086634378846	0.977435849177646	17.9086634378846	-16.931227588707	17.9086634378846	0.0	17.9086634378846	0.977435849177646	5.6678616642501005	9.636729815743813	-3.2350512301308796	13.600083892419427	10.39586493520616	-4.900208940324368	13.600083892419427	5.011208162301081	9.168302383919412	-0.4684274318243522	10.431629337408893	-0.06659667512034739	2	missed	0.0
261.1943061000202	6.423288899939507	nogo_punish	1.0	261.2182084999514	263.2123397998513	265.72838529991	1.994131299899891	262.23224120005045	264.7176146998537	266.7417256999762	0.98009859980084	1.0107706000562757	0.8997716999147087	n/a	1.0	n/a	1	0	100	1	nogo_punish	1	-1	0	0	0	1	1	n/a	n/a	0	1.0	1.0	971.557079900056	1232.7752884000074	1233.7893211001065	1234.7694196999073	1236.2746945999097	1237.285465199966	n/a	n/a	1238.2988056000322	1239.198577299947	2020-06-03 15:34:37.633390	3.22829272211135	-5.88780713325633	-1.80297174672419	-1.80318814835567	-5.03126446883554	-1.80297174672419	-3.22829272211135	-1.80297174672419	-5.88780713325633	-1.80297174672419	-5.03126446883554	1.80297174672419	-4.0662050508518375	-9.12285836338721	-6.111551292189361	-9.315986651034109	-10.908909258337555	-6.111551292189361	1.1463182447751703	-10.543332800689376	-6.477127749837539	-9.280005847199895	-5.954403808376678	2	missed	0.0
267.66407239995897	7.408623600145802	nogo_reward	1.0	267.6879747998902	270.4300685999916	272.94933089986455	2.7420938001014292	268.691814800026	271.93775469996046	273.9624713000377	1.7382537999656051	1.0115761999040842	1.1341270999982953	n/a	1.0	n/a	1	0	101	3	nogo_reward	0	1	0	0	0	1	1	n/a	n/a	0	1.0	1.0	971.557079900056	1239.2450546999462	1240.248894700082	1241.9871485000476	1243.4948346000165	1244.5064107999206	n/a	n/a	1245.5195512000937	1246.653678300092	2020-06-03 15:34:37.633390	20.0764691565262	0.0	21.0847515193344	21.0847515193344	1.00828236280817	21.0847515193344	-20.0764691565262	21.0847515193344	0.0	21.0847515193344	1.00828236280817	-21.0847515193344	12.781971383563015	-3.2350512301308796	16.77617197386923	13.57195301665596	-4.869362426693844	16.77617197386923	-21.74140502128342	12.344390465369214	-0.43758091819382816	13.607717418858694	-0.06659667512034739	2	missed	0.0
275.1079514001033	5.9875717998945674	go_reward	0.5579991999547929	275.1318538000345	276.60615759994846	279.1609419998714	1.4743037999139688	276.137871899875	278.1371834999883	280.1603379000443	0.4682857000734657	1.0237584998831153	0.9590876998847762	n/a	1.0	n/a	1	0	102	4	go_reward	1	1	0	1	1	1	0	n/a	n/a	1	0.5579991999547929	1.0	971.557079900056	1246.6889337000905	1247.694951799931	1248.1632375000045	1249.6942634000443	1250.7180218999274	n/a	n/a	1251.7174178001003	1252.676505499985	2020-06-03 15:34:37.633390	24.529182840038	23.5133721931005	0.0	23.0092180411422	24.529182840038	0.0	-24.529182840038	23.5133721931005	0.0	24.529182840038	0.0	0.06315290903419779	17.234685067074814	20.278320962969623	-4.308579545465171	15.496419538463762	18.651538050535986	-4.308579545465171	-0.5935005929148218	15.788821786072814	-1.4458632810019982	16.036338092624796	-0.06659667512034739	2	missed	0.0
281.13218929991126	6.858455399982631	go_reward	0.3039231998845935	281.1560916998425	283.21505959983926	285.76162500004295	2.0589678999967873	282.17014349997055	284.74721579998743	286.77066199993726	1.0449160998687148	1.0144092000555247	1.243885099887848	n/a	1.0	n/a	1	0	103	4	go_reward	1	1	0	1	1	1	0	n/a	n/a	1	0.3039231998845935	1.0	971.557079900056	1252.7131715998985	1253.7272234000266	1254.7721394998953	1256.3042957000434	1257.318704900099	n/a	n/a	1258.3277418999933	1259.5716269998811	2020-06-03 15:34:37.633390	24.5559444813758	23.5411225115716	0.0	23.2918989791735	24.5559444813758	0.0	-24.5559444813758	23.5411225115716	0.0	24.5559444813758	0.0	0.03540259056309836	17.261446708412613	20.306071281440722	-4.308579545465171	15.77910047649506	18.678299691873786	-4.308579545465171	-0.6212509113859213	15.815583427410614	-1.4458632810019982	16.064088411095895	-0.06659667512034739	2	missed	0.0
288.02931450004667	7.478405700065196	nogo_punish	1.0	288.0532168999779	290.5097060999834	293.03459779988054	2.456489200005535	289.0659421000163	292.0149737000469	294.04756550001923	1.443763999967132	1.0196240998336634	1.484057100023847	n/a	1.0	n/a	1	0	104	1	nogo_punish	1	-1	0	0	0	1	0	n/a	n/a	0	1.0	1.0	971.557079900056	1259.610296800034	1260.6230220000723	1262.0667860000394	1263.572053600103	1264.5916776999366	n/a	n/a	1265.6046454000752	1267.088702500099	2020-06-03 15:34:37.633390	4.21307439520206	-5.88780713325633	-0.828661428152804	-0.82879965310952	-5.04173582335486	-0.828661428152804	-4.21307439520206	-0.828661428152804	-5.88780713325633	-0.828661428152804	-5.04173582335486	0.828661428152804	-3.0814233777611273	-9.12285836338721	-5.137240973617975	-8.341598155787958	-10.919380612856873	-5.137240973617975	0.17200792620378436	-9.56902248211799	-6.487599104356859	-8.305695528628508	-5.954403808376678	2	missed	0.0
295.5439611999318	6.277771700173616	go_reward	0.4751682998612523	295.567863599863	297.24496089993056	299.79941920004796	1.677097300067544	296.5731235998684	298.77561889984656	300.7990365999286	0.6718373000621796	1.0238003002014011	1.0465987001080066	n/a	1.0	n/a	1	0	105	4	go_reward	1	1	0	1	1	1	1	n/a	n/a	1	0.4751682998612523	1.0	971.557079900056	1267.124943499919	1268.1302034999244	1268.8020407999866	1270.3326987999026	1271.356499100104	n/a	n/a	1272.3561164999846	1273.4027152000926	2020-06-03 15:34:37.633390	24.5701178783956	23.5562824388153	0.0	23.4290061741017	24.5701178783956	0.0	-24.5701178783956	23.5562824388153	0.0	24.5701178783956	0.0	0.020242663319400833	17.275620105432413	20.32123120868442	-4.308579545465171	15.916207671423262	18.692473088893585	-4.308579545465171	-0.6364108386296188	15.829756824430413	-1.4458632810019982	16.079248338339593	-0.06659667512034739	2	missed	0.0
301.8635025999977	6.400957100093137	nogo_reward	1.0	301.8874049999289	303.28688749996957	305.8134208000266	1.3994825000406763	302.8963236999699	304.8025487000124	306.82627759990294	0.3905637999996543	1.0108721000142395	1.46208450011909	n/a	1.0	n/a	1	0	106	3	nogo_reward	0	1	0	0	0	1	0	n/a	n/a	0	1.0	1.0	971.557079900056	1273.444484899985	1274.453403600026	1274.8439674000256	1276.3596286000684	1277.3705007000826	n/a	n/a	1278.383357499959	1279.845442000078	2020-06-03 15:34:37.633390	8.14498502550374	0.0	9.00673426699609	9.00673426699609	0.861749241492346	9.00673426699609	-8.14498502550374	9.00673426699609	0.0	9.00673426699609	0.861749241492346	-9.00673426699609	0.8504872525405522	-3.2350512301308796	4.69815472153092	1.4939357643176523	-5.015895548009668	4.69815472153092	-9.66338776894511	0.26637321303090467	-0.5841140395096522	1.529700166520386	-0.06659667512034739	2	missed	0.0
308.30736860004254	6.484465799993131	go_reward	0.4991278999950737	308.33127099997375	310.0260119000451	312.56630269996833	1.6947409000713378	309.3394412999045	311.5534874999431	313.5768862999977	0.6865706001406124	1.0128152000252157	1.2388504999692032	n/a	1.0	n/a	1	0	107	4	go_reward	1	1	0	1	1	1	1	n/a	n/a	1	0.4991278999950737	1.0	971.557079900056	1279.8883509000298	1280.8965211999605	1281.583091800101	1283.1105673999991	1284.1233826000243	n/a	n/a	1285.1339662000537	1286.372816700023	2020-06-03 15:34:37.633390	24.5778522301934	23.5647416738957	0.0	23.4978473898477	24.5778522301934	0.0	-24.5778522301934	23.5647416738957	0.0	24.5778522301934	0.0	0.01178342823899925	17.283354457230214	20.32969044376482	-4.308579545465171	15.98504888716926	18.700207440691386	-4.308579545465171	-0.6448700737100204	15.837491176228214	-1.4458632810019982	16.087707573419994	-0.06659667512034739	2	missed	0.0
314.8265390000306	7.2801361999008805	go_punish	0.5728558001574129	314.8504413999618	317.12422430003073	319.6757733998819	2.273782900068909	315.84297939995315	318.65506929997366	320.6779751998839	1.2812449000775814	1.0207040999082437	1.4526023999787867	n/a	1.0	n/a	1	0	108	2	go_punish	1	0	-1	1	1	1	0	n/a	n/a	0	0.5728558001574129	1.0	971.557079900056	1286.4075213000178	1287.4000593000092	1288.6813042000867	1290.2121492000297	1291.232853299938	n/a	n/a	1292.23505509994	1293.6876574999187	2020-06-03 15:34:37.633390	7.40123792834643	-0.140333729022725	-6.70690437674211	-0.145180502713106	0.694333551604321	-6.70690437674211	-7.40123792834643	-0.140333729022725	-6.70690437674211	0.694333551604321	-6.70690437674211	0.140333729022725	0.10674015538324255	-3.3753849591536045	-11.015483922207281	-7.657979005391544	-5.183311237897693	-11.015483922207281	-0.5163197729262946	-8.046027502360865	-8.152767657744109	-7.61736782949843	-6.773501051862458	2	missed	0.0
322.1475186999887	6.366604400099959	nogo_reward	1.0	322.17142109991994	323.6471215998755	326.176085199928	1.4757004999555647	323.1784021998757	325.1618647000288	327.1853858998512	0.46871939999982715	1.0142204998992383	1.3526396001686862	n/a	1.0	n/a	1	0	109	3	nogo_reward	1	0	1	0	0	1	0	n/a	n/a	1	1.0	1.0	971.557079900056	1293.728500999976	1294.7354820999317	1295.2042014999315	1296.7189446000848	1297.733165099984	n/a	n/a	1298.7424657999072	1300.095105400076	2020-06-03 15:34:37.633390	3.24205817974984	0.0	4.06762472890669	4.06762472890669	0.825566549156848	4.06762472890669	-3.24205817974984	4.06762472890669	0.0	4.06762472890669	0.825566549156848	19.50890037322801	-4.0524395932133475	-3.2350512301308796	-0.24095481655848072	-3.4451737737717485	-5.052078240345166	-0.24095481655848072	18.85224687127899	-4.672736325058496	-0.6202967318451502	-3.409409371569015	-0.06659667512034739	2	missed	0.0
328.55338499997765	6.79455800005212	go_reward	0.4312158999964595	328.57728739990887	330.4279640999158	332.9737062000205	1.850676700006943	329.57936359988537	331.95015839999553	333.9829791998492	0.8486005000304431	1.0235478000249714	1.3888662001118064	n/a	1.0	n/a	1	0	110	4	go_reward	1	1	0	1	1	1	0	n/a	n/a	1	0.4312158999964595	1.0	971.557079900056	1300.1343672999649	1301.1364434999414	1301.9850439999718	1303.5072383000515	1304.5307861000765	n/a	n/a	1305.5400590999052	1306.928925300017	2020-06-03 15:34:37.633390	24.5821828211644	23.5695534203427	0.0	23.5334845406978	24.5821828211644	0.0	-24.5821828211644	23.5695534203427	0.0	24.5821828211644	0.0	0.006971681791998918	17.28768504820121	20.334502190211822	-4.308579545465171	16.02068603801936	18.704538031662384	-4.308579545465171	-0.6496818201570207	15.841821767199212	-1.4458632810019982	16.092519319866994	-0.06659667512034739	2	missed	0.0
335.3832046999596	5.8990102999378	go_reward	0.4523689998313784	335.4071070998908	336.8615384998267	339.4158893998248	1.4544313999358565	336.42409009998676	338.3925218000078	340.4140724998434	0.4374483998399228	1.0233675998169929	0.8920448999851942	n/a	1.0	n/a	1	0	111	4	go_reward	1	1	0	1	1	1	0	n/a	n/a	1	0.4523689998313784	1.0	971.557079900056	1306.9641869999468	1307.9811700000428	1308.4186183998827	1309.9496017000638	1310.9729692998808	n/a	n/a	1311.9711523998994	1312.8631972998846	2020-06-03 15:34:37.633390	24.5846624338346	23.5723386577696	0.0	23.5524404404517	24.5846624338346	0.0	-24.5846624338346	23.5723386577696	0.0	24.5846624338346	0.0	0.004186444365100073	17.29016466087141	20.33728742763872	-4.308579545465171	16.03964193777326	18.707017644332584	-4.308579545465171	-0.6524670575839195	15.844301379869412	-1.4458632810019982	16.095304557293893	-0.06659667512034739	2	missed	0.0
341.32363260001875	6.427996299928054	nogo_reward	1.0	341.34753499994997	343.18983569997374	345.71518379985366	1.8423007000237703	342.3464104000017	344.70537679991696	346.7280454998835	0.8434252999720684	1.0098069999366999	1.047485799994547	n/a	1.0	n/a	1	0	112	3	nogo_reward	0	1	0	0	0	1	0	n/a	n/a	0	1.0	1.0	971.557079900056	1312.904614900006	1313.9034903000577	1314.7469156000298	1316.262456699973	1317.2722636999097	n/a	n/a	1318.2851253999395	1319.332611199934	2020-06-03 15:34:37.633390	14.3714109974105	0.0	15.3445224917713	15.3445224917713	0.973111494360794	15.3445224917713	-14.3714109974105	15.3445224917713	0.0	15.3445224917713	0.973111494360794	-15.3445224917713	7.0769132244473125	-3.2350512301308796	11.035942946306129	7.831723989092862	-4.90453329514122	11.035942946306129	-16.00117599372032	6.604161437806114	-0.4727517866412042	7.867488391295596	-0.06659667512034739	2	missed	0.0
347.7934288000688	7.3272998000029474	nogo_reward	1.0	347.8173312	350.3929224999157	352.9233750998975	2.5755912999156862	348.8265362000094	351.89966039988224	353.93230929994036	1.5663862999062985	1.0237147000152618	1.2123217000626028	n/a	1.0	n/a	1	0	113	3	nogo_reward	1	0	1	0	0	1	0	n/a	n/a	1	1.0	1.0	971.557079900056	1319.374411100056	1320.3836161000654	1321.9500023999717	1323.4567402999382	1324.4804549999535	n/a	n/a	1325.4893891999964	1326.701710900059	2020-06-03 15:34:37.633390	5.6272123506883	0.0	6.48508605815581	6.48508605815581	0.857873707467505	6.48508605815581	-5.6272123506883	6.48508605815581	0.0	6.48508605815581	0.857873707467505	17.091439043978887	-1.6672854222748876	-3.2350512301308796	2.176506512690639	-1.0277124445226287	-5.019771082034509	2.176506512690639	16.434785542029868	-2.2552749958093763	-0.5879895735344932	-0.991948042319895	-0.06659667512034739	2	missed	0.0
355.15806289995066	6.891948499949876	nogo_punish	1.0	355.1819652998819	357.0919293998742	359.6281041998883	1.909964099992294	356.18589779990737	358.6071295000148	360.6302391998471	0.9060315999668092	1.0209746998734772	1.4436745999846607	n/a	1.0	n/a	1	0	114	1	nogo_punish	1	-1	0	0	0	1	0	n/a	n/a	0	1.0	1.0	971.557079900056	1326.739045199938	1327.7429776999634	1328.6490092999302	1330.1642094000708	1331.1851840999443	n/a	n/a	1332.187319099903	1333.6309936998878	2020-06-03 15:34:37.633390	4.65032953383212	-5.88780713325633	-0.398138596062543	-0.398227749111598	-5.04846812989467	-0.398138596062543	-4.65032953383212	-0.398138596062543	-5.88780713325633	-0.398138596062543	-5.04846812989467	0.398138596062543	-2.6441682391310675	-9.12285836338721	-4.7067181415277135	-7.9110262517900365	-10.926112919396683	-4.7067181415277135	-0.25851490588647663	-9.138499650027729	-6.4943314108966685	-7.875172696538248	-5.954403808376678	2	missed	0.0
362.08863330003805	6.956806099973619	go_reward	0.2662580998148769	362.11253569996927	364.03777449997153	366.5827327000444	1.925238800002262	363.11575919995096	365.5579049999359	367.5917676999235	0.9220153000205755	1.024827700108517	1.4775741000194103	n/a	1.0	n/a	1	0	115	4	go_reward	1	1	0	1	1	1	0	n/a	n/a	1	0.2662580998148769	1.0	971.557079900056	1333.6696156000253	1334.672839100007	1335.5948544000275	1337.114984899992	1338.1398126001004	n/a	n/a	1339.1488475999795	1340.626421699999	2020-06-03 15:34:37.633390	24.586110346826	23.5739768140112	0.0	23.5627709658366	24.586110346826	0.0	-24.586110346826	23.5739768140112	0.0	24.586110346826	0.0	0.002548288123499276	17.291612573862814	20.33892558388032	-4.308579545465171	16.04997246315816	18.708465557323986	-4.308579545465171	-0.6541052138255203	15.845749292860814	-1.4458632810019982	16.096942713535494	-0.06659667512034739	2	missed	0.0
369.0904737999663	5.8729240000247955	nogo_reward	1.0	369.1143761998975	370.48361209989537	373.01669129985396	1.369235899997875	370.12040110002283	371.9931884999388	374.02624089992617	0.36321099987253547	1.0235027999151498	0.9610592999961227	n/a	1.0	n/a	1	0	116	3	nogo_reward	1	0	1	0	0	1	0	n/a	n/a	1	1.0	1.0	971.557079900056	1340.6714560999535	1341.6774810000788	1342.0406919999514	1343.5502683999948	1344.57377119991	n/a	n/a	1345.5833207999822	1346.5443800999783	2020-06-03 15:34:37.633390	15.3403740019907	0.0	16.3224978389584	16.3224978389584	0.98212383696765	16.3224978389584	-15.3403740019907	16.3224978389584	0.0	16.3224978389584	0.98212383696765	7.254027263176297	8.045876229027513	-3.2350512301308796	12.01391829349323	8.809699336279962	-4.895520952534364	12.01391829349323	6.597373761227278	7.5821367849932155	-0.4637394440343482	8.845463738482696	-0.06659667512034739	2	missed	0.0
375.0013407000806	7.109026900026947	go_punish	1.0	375.02524310001183	377.7316135000441	380.2602822999471	2.706370400032256	376.0288535000292	379.2367340999191	381.26582390000124	1.702760000014905	1.0235482000280172	0.868446100037545	n/a	1.0	n/a	1	0	117	2	go_punish	1	0	-1	1	0	0	0	n/a	n/a	-1	1.0	1.0	971.557079900056	1346.5823230000678	1347.5859334000852	1349.2886934001	1350.793813999975	1351.8173622000031	n/a	n/a	1352.8229038000572	1353.6913499000948	2020-06-03 15:34:37.633390	-7.46380931365314	-0.0757547805950439	-6.70690437674211	-0.0786000592826535	0.756904936911029	-6.70690437674211	7.46380931365314	-6.70690437674211	-0.0757547805950439	-6.70690437674211	0.756904936911029	-0.8097146831514195	-14.758307086616327	-3.3108060107259236	-11.015483922207281	-7.591398561961092	-5.120739852590985	-11.015483922207281	-1.466368185100439	-15.447265430707297	-0.6889583440909692	-14.183938477217815	-0.1423514557153913	2	missed	0.0
382.1468172001187	5.762413499876857	go_punish	0.4440188999287784	382.1707196000499	383.4630858998279	386.00583499996003	1.2923662997779957	383.1824431999122	384.9939094998409	387.0173583000434	0.28064269991568835	1.011925500119105	0.9157747998833656	n/a	1.0	n/a	1	0	118	2	go_punish	1	0	-1	1	1	1	0	n/a	n/a	0	0.4440188999287784	1.0	971.557079900056	1353.727799500106	1354.7395230999682	1355.020165799884	1356.550989399897	1357.562914900016	n/a	n/a	1358.5744382000994	1359.4902129999828	2020-06-03 15:34:37.633390	7.8936096100847	-0.0757547805950439	-7.09948067073335	-4.1452186963796	0.79412893935135	-7.09948067073335	-7.8936096100847	-0.0757547805950439	-7.09948067073335	0.79412893935135	-7.09948067073335	0.0757547805950439	0.5991118371215123	-3.3108060107259236	-11.408060216198521	-11.658017199058039	-5.083515850150664	-11.408060216198521	-0.5808987213539757	-7.946232114613836	-8.545343951735349	-7.552788881070748	-7.166077345853698	2	missed	0.0
387.94691130006686	7.514724500011425	go_punish	0.3717668999452144	387.9708136999981	390.8183052998503	393.3743407998701	2.8474915998522192	388.9837644000071	392.3548073999119	394.37666219985124	1.834540899843205	1.0195333999581635	1.1088760001582614	n/a	1.0	n/a	1	0	119	2	go_punish	1	0	-1	1	1	1	1	n/a	n/a	0	0.3717668999452144	1.0	971.557079900056	1359.527893600054	1360.540844300063	1362.3753851999063	1363.911887299968	1364.931420699926	n/a	n/a	1365.9337420999072	1367.0426181000655	2020-06-03 15:34:37.633390	7.91445544652314	-0.0419275056225865	-7.09948067073335	-1.81096815902758	0.814974775789793	-7.09948067073335	-7.91445544652314	-0.0419275056225865	-7.09948067073335	0.814974775789793	-7.09948067073335	0.0419275056225865	0.6199576735599521	-3.276978735753466	-11.408060216198521	-9.323766661706019	-5.062670013712221	-11.408060216198521	-0.6147259963264331	-7.925386278175393	-8.545343951735349	-7.518961606098292	-7.166077345853698	2	missed	0.0
395.4974515000358	6.748618100071326	go_reward	0.3066311001311987	395.52135389996704	397.4974779000039	400.0478882000315	1.9761240000368616	396.5380151998253	399.0279913998676	401.0568907998969	0.9594627001786193	1.019896800163906	1.2130812001414597	n/a	1.0	n/a	1	0	120	4	go_reward	0	0	1	1	1	1	0	n/a	n/a	0	0.3066311001311987	1.0	971.557079900056	1367.078433800023	1368.0950950998813	1369.05455780006	1370.5850712999236	1371.6049681000875	n/a	n/a	1372.613970699953	1373.8270519000944	2020-06-03 15:34:37.633390	24.5869706190425	23.5749545151938	0.0	23.5685250157387	24.5869706190425	0.0	-24.5869706190425	23.5749545151938	0.0	24.5869706190425	0.0	-23.5749545151938	17.292472846079313	20.33990328506292	-4.308579545465171	16.05572651306026	18.709325829540486	-4.308579545465171	-24.23160801714282	15.846609565077314	-1.4458632810019982	16.097920414718093	-0.06659667512034739	2	missed	0.0
