onset	duration	trial_type	response_time	cueOnset	targetOnset	fbOnset	cueRT	firstfixOnset	secondfixOnset	waitOnset	firstfixdur	secondfixdur	waitdur	nback_fbOnset	nback_response_time	nback_targetOnset	block	wm	trial	cue	cond	is_common	outcome_go	outcome_nogo	key_correct	key_pressed	is_correct	key_correct_nback	key_pressed_nback	is_correct_nback	outcome	rt	rt_nback	time_scan	time_onset	time_isi1	time_circle	time_isi2	time_feedback	time_same	time_correct	time_iti	time_done	timestamp_scan	DV	Qgo	Qnogo	SV	Wgo	Wnogo	mDV	Qchosen	Qunchosen	Wchosen	Wunchosen	PE	DVC	QgoC	QnogoC	SVC	WgoC	WnogoC	PEC	WchosenC	WunchosenC	QchosenC	QunchosenC	run	outcome_nback	nback_targetResp
0.0	8.221905099985179	go_punish	0.7054583000135608	0.02922670001817096	1.3077069999999367	3.8525241999891477	1.2784802999817657	1.0349809000035748	2.8388128000078723	6.906832100008614	0.2727260999963619	1.0137113999812755	1.3442996999947354	5.901135499996599	0.906146599969361	4.871099999989383	2	1	61	2	go_punish	0	-1	0	1	1	1	0	0.0	1.0	-1	0.7054583000135608	0.906146599969361	2159.733583000023	2159.762809700041	2160.7685639000265	2161.041290000023	2162.572395800031	2163.586107200012	2164.6046830000123	2165.6347185000195	2166.6404151000315	2167.9847148000263	2020-08-25 14:46:55.673956	0.0001899344143328	-0.783429843729969	-1.37144848753575	-1.78765444231679	-1.37125855312142	-1.37144848753575	-0.0001899344143328	-0.783429843729969	-1.37144848753575	-1.37125855312142	-1.37144848753575	-8.202736546465491	-10.300883626356143	-5.714520898413646	-3.886239231720971	-10.06708036582299	-9.874638357592946	-3.886239231720971	-11.500506295265085	-12.030880607835035	-1.7299969814788816	-9.038275862448744	-0.5624842676858789	4	correct	1.0
8.269152299967118	9.117086599988397	nogo_reward	0.2604617999750189	8.298378999985289	10.626626199984457	13.166022300021723	2.3282471999991685	9.302257100003771	12.155813899997156	16.208159299974795	1.3243690999806859	1.0102084000245668	1.2073062999988906	15.201803400006156	0.9340832000016236	14.177812899986748	2	1	62	3	nogo_reward	1	0	1	0	1	0	0	0.0	1.0	0	0.2604617999750189	0.9340832000016236	2159.733583000023	2168.031962000008	2169.0358401000267	2170.3602092000074	2171.88939690002	2172.8996053000446	2173.9113959000097	2174.935386400029	2175.9417422999977	2177.1490485999966	2020-08-25 14:46:55.673956	5.24912494292047	4.804009847467	3.09299543612389	6.76875220306729	8.34212037904436	3.09299543612389	-5.24912494292047	4.804009847467	3.09299543612389	8.34212037904436	3.09299543612389	-4.804009847467	-5.051948617850006	-0.12708120721667626	0.578204691938669	-1.510673720438911	-0.16125942542716665	0.578204691938669	-8.101779596266594	-2.3175016756692557	2.7344469421807585	-3.4508361712517743	3.9019596559737613	4	correct	1.0
17.429877999995824	9.393240800010972	nogo_reward	0.3023707999964244	17.459104700013995	20.216792199993506	22.754875499987975	2.757687499979511	18.464220899972133	21.74632959999144	25.805661100021098	1.7525713000213727	1.008545899996534	1.046684400003869	24.799453300016467	0.7334145999629982	23.7686063000001	2	1	63	3	nogo_reward	1	0	1	0	1	0	0	1.0	0.0	0	0.3023707999964244	0.7334145999629982	2159.733583000023	2177.192687700037	2178.197803899995	2179.9503752000164	2181.4799126000144	2182.488458500011	2183.502189300023	2184.5330363000394	2185.539244100044	2186.585928500048	2020-08-25 14:46:55.673956	4.85417079832866	4.56964458123699	3.09299543612389	6.4420481733486	7.94716623445255	3.09299543612389	-4.85417079832866	4.56964458123699	3.09299543612389	7.94716623445255	3.09299543612389	-4.56964458123699	-5.446902762441816	-0.36144647344668623	0.578204691938669	-1.837377750157601	-0.5562135700189765	0.578204691938669	-7.867414330036585	-2.7124558202610656	2.7344469421807585	-3.6852014374817843	3.9019596559737613	4	wrong	1.0
26.865664599987667	8.394924599968363	go_punish	0.6705020000226796	26.89489130000584	28.36262229998829	30.900410700007342	1.4677309999824502	27.898713700007647	29.89167590002762	33.94392980000703	0.46390859998064116	1.0087347999797203	1.3458860999671742	32.937401000002865	0.8801589999930002	31.911928299989086	2	1	64	2	go_punish	1	0	-1	1	1	1	0	0.0	1.0	0	0.6705020000226796	0.8801589999930002	2159.733583000023	2186.6284743000288	2187.6322967000306	2188.096205300011	2189.6252589000505	2190.6339937000303	2191.645511300012	2192.670984000026	2193.67751280003	2195.023398899997	2020-08-25 14:46:55.673956	-0.473728828424484	-1.11997040069514	-1.37144848753575	-2.07554390211654	-1.84517731596023	-1.37144848753575	0.473728828424484	-1.11997040069514	-1.37144848753575	-1.84517731596023	-1.37144848753575	1.11997040069514	-10.77480238919496	-6.051061455378816	-3.886239231720971	-10.35496982562274	-10.348557120431757	-3.886239231720971	-2.177799348104454	-12.504799370673846	-1.7299969814788816	-9.374816419413914	-0.5624842676858789	4	correct	1.0
35.28903729998319	9.268713299999945	nogo_punish	1.0	35.31826400000136	38.078612099983275	40.59242990001803	2.760348099981911	36.32231229997706	39.58358879998559	43.63390920002712	1.756299800006218	1.0088411000324413	0.953068099974189	42.62796040001558	0.4524751999997534	41.60471350001126	2	1	65	1	nogo_punish	1	-1	0	0	0	1	0	0.0	1.0	0	1.0	0.4524751999997534	2159.733583000023	2195.0518470000243	2196.0558953	2197.812195100006	2199.3171718000085	2200.326012900041	2201.338296500034	2202.3615434000385	2203.36749220005	2204.320560300024	2020-08-25 14:46:55.673956	-0.0337104456191848	-0.374662700391243	-0.579225156809665	-0.906960123622928	-0.545514711190481	-0.579225156809665	0.0337104456191848	-0.579225156809665	-0.374662700391243	-0.579225156809665	-0.545514711190481	0.579225156809665	-10.334784006389661	-5.305753755074919	-3.094015900994886	-9.18638604712913	-9.048894515662008	-3.094015900994886	-2.718544591989929	-11.23884721152328	-0.9040632051336127	-8.83407117552844	0.4343015194586281	4	correct	1.0
44.603344400006335	9.023162199998751	nogo_reward	0.3342772999894805	44.63257110002451	46.8018427999923	49.34424659999786	2.169271699967794	45.63725269999122	48.33319789997768	52.386294100026134	1.164590100001078	1.0110487000201829	1.269439199997123	51.37951629998861	0.6266046999953687	50.35455049999291	2	1	66	3	nogo_reward	1	0	1	0	1	0	0	0.0	1.0	0	0.3342772999894805	0.6266046999953687	2159.733583000023	2204.3661541000474	2205.370835700014	2206.535425800015	2208.0667809000006	2209.077829600021	2210.088133500016	2211.1130993000115	2212.119877100049	2213.389316300046	2020-08-25 14:46:55.673956	4.48201816881625	4.34870499208994	3.09299543612389	6.1339065690807	7.57501360494015	3.09299543612389	-4.48201816881625	4.34870499208994	3.09299543612389	7.57501360494015	3.09299543612389	-4.34870499208994	-5.819055391954226	-0.5823860625937369	0.578204691938669	-2.1455193544255007	-0.9283661995313768	0.578204691938669	-7.646474740889534	-3.084608449773466	2.7344469421807585	-3.906141026628835	3.9019596559737613	4	correct	1.0
53.67285229999152	8.708060099976137	nogo_reward	0.4363471000106074	53.70207900000969	55.35268599999836	57.89542910002638	1.6506069999886677	54.706067999999505	56.88520359998802	60.9415870999801	0.6466179999988526	1.0102255000383593	1.4685520000057295	59.93450530001428	0.4577301999670453	58.908271899970714	2	1	67	3	nogo_reward	1	0	1	0	1	0	0	0.0	1.0	0	0.4363471000106074	0.4577301999670453	2159.733583000023	2213.4356620000326	2214.4396510000224	2215.0862690000213	2216.618786600011	2217.6290121000493	2218.6418548999936	2219.668088300037	2220.675170100003	2222.1437221000087	2020-08-25 14:46:55.673956	4.13119664098785	4.14033366369502	3.09299543612389	5.84314968144249	7.22419207711174	3.09299543612389	-4.13119664098785	4.14033366369502	3.09299543612389	7.22419207711174	3.09299543612389	-4.14033366369502	-6.1698769197826255	-0.7907573909886567	0.578204691938669	-2.4362762420637107	-1.279187727359787	0.578204691938669	-7.438103412494614	-3.435429977601876	2.7344469421807585	-4.114512355023755	3.9019596559737613	4	correct	1.0
62.40474969998513	8.018624400021963	go_reward	0.4213284999714233	62.4339764000033	63.97467730002245	66.51803879998624	1.5407009000191465	63.438919199979864	65.50428049999755	69.55987890000688	0.5357581000425853	1.0137582999886945	0.8927219000183868	68.55374359997222	0.6116059999912977	67.52964780002367	2	1	68	4	go_reward	1	1	0	1	1	1	0	0.0	1.0	1	0.4213284999714233	0.6116059999912977	2159.733583000023	2222.167559400026	2223.172502200003	2223.7082603000454	2225.2378635000205	2226.251621800009	2227.2632308000466	2228.287326599995	2229.29346190003	2230.186183800048	2020-08-25 14:46:55.673956	22.0327686949947	14.661749496853	0.0	14.661749496853	22.0327686949947	0.0	-22.0327686949947	14.661749496853	0.0	22.0327686949947	0.0	25.7220830700004	11.731695134224225	9.730658442169323	-2.514790744185221	6.382323573346799	13.529388890523174	-2.514790744185221	22.424313321200806	11.373146640281085	-0.3585484939431317	6.406903478134225	0.8089642198498711	4	correct	1.0
70.45127919997367	8.609213999996427	nogo_punish	0.501319200033322	70.48050589999184	72.04273440001998	74.58724550000625	1.5622285000281408	71.48518259997945	73.57382270001108	77.63299190002726	0.5575518000405282	1.013422799995169	1.4567279999610037	76.62632949999534	0.5968232000013813	75.6004179000156	2	1	69	1	nogo_punish	1	-1	0	0	1	0	0	0.0	1.0	-1	0.501319200033322	0.5968232000013813	2159.733583000023	2230.2140889000148	2231.2187656000024	2231.776317400043	2233.307405700034	2234.320828500029	2235.3340009000385	2236.3599125000183	2237.36657490005	2238.823302900011	2020-08-25 14:46:55.673956	0.0269643929742788	-0.374662700391243	-0.550427362623457	-0.861616734616838	-0.523462969649178	-0.550427362623457	-0.0269643929742788	-0.374662700391243	-0.550427362623457	-0.523462969649178	-0.550427362623457	-8.611503689804218	-10.274109167796198	-5.305753755074919	-3.065218106808678	-9.14104265812304	-9.026842774120704	-3.065218106808678	-11.909273438603812	-11.183085024362793	-0.9089758565665887	-8.629508719110017	0.25853685722641406	4	correct	1.0
79.08756729995412	8.265734400018118	nogo_punish	1.0	79.11679399997229	80.7832421999774	83.29722200002288	1.6664482000051066	80.12213249999286	82.28857879998395	86.33896780002397	0.6611096999845358	1.0086432000389323	1.0435605999664403	85.33174059999874	0.4531811000197194	84.30885749997105	2	1	70	1	nogo_punish	1	-1	0	0	0	1	0	0.0	1.0	0	1.0	0.4531811000197194	2159.733583000023	2238.850376999995	2239.855715500016	2240.5168252000003	2242.022161800007	2243.030805000046	2244.042440499994	2245.0653236000217	2246.072550800047	2247.1161114000133	2020-08-25 14:46:55.673956	0.486997446758162	-0.73005601611778	-0.550427362623457	-1.1935589059702	-1.03742480938162	-0.550427362623457	-0.486997446758162	-0.550427362623457	-0.73005601611778	-0.550427362623457	-1.03742480938162	0.550427362623457	-9.814076114012314	-5.661147070801457	-3.065218106808678	-9.4729848294764	-9.540804613853147	-3.065218106808678	-2.747342386176137	-11.210049417337073	-1.3959733033247517	-8.805273381342232	0.07890820373209106	4	correct	1.0
87.39872179995336	8.400948800030164	nogo_reward	0.2389744999818503	87.42794849997154	89.4031532999943	91.94388109998545	1.975204800022766	88.4319065000168	90.93336680001812	94.99072489998116	0.9712467999775072	1.0105142999673262	0.8381724000205395	93.98401080002122	0.579437600041274	92.95752130000619	2	1	71	3	nogo_reward	1	0	1	0	1	0	0	0.0	1.0	0	0.2389744999818503	0.579437600041274	2159.733583000023	2247.1615314999945	2248.1654895000397	2249.136736300017	2250.666949800041	2251.6774641000084	2252.691104300029	2253.717593800044	2254.724307900004	2255.5624803000246	2020-08-25 14:46:55.673956	3.80033855531397	3.94373249209982	3.09299543612389	5.56868082539359	6.89333399143786	3.09299543612389	-3.80033855531397	3.94373249209982	3.09299543612389	6.89333399143786	3.09299543612389	-3.94373249209982	-6.500735005456506	-0.9873585625838568	0.578204691938669	-2.7107450981126107	-1.6100458130336666	0.578204691938669	-7.241502240899414	-3.7662880632757556	2.7344469421807585	-4.311113526618955	3.9019596559737613	4	correct	1.0
95.84225220000417	8.932481199968606	go_punish	1.0	95.87147890002234	97.83598540001549	100.34953810001025	1.9645064999931492	96.87542019999819	99.34081660001539	103.39343900000677	0.9605652000172995	1.0087214999948628	1.4105210999841802	102.38701030000811	0.591939200006891	101.36112700001104	2	1	72	2	go_punish	0	-1	0	1	0	0	0	0.0	1.0	0	1.0	0.591939200006891	2159.733583000023	2255.6050619000453	2256.609003200021	2257.5695684000384	2259.0743996000383	2260.083121100033	2261.094710000034	2262.120593300031	2263.1270220000297	2264.537543100014	2020-08-25 14:46:55.673956	0.369570422538684	-1.06473429006594	-1.37144848753575	-1.97439864346507	-1.74101891007443	-1.37144848753575	-0.369570422538684	-1.37144848753575	-1.06473429006594	-1.37144848753575	-1.74101891007443	1.37144848753575	-9.931503138231792	-5.995825344749616	-3.886239231720971	-10.253824566971272	-10.244398714545957	-3.886239231720971	-1.926321261263844	-12.031070542249365	-2.0995674040175616	-9.626294506254524	-0.2557700702160689	4	correct	1.0
104.81963069998937	8.604957600007765	go_punish	1.0	104.84885740000755	106.66543759999286	109.1828018000233	1.8165801999853102	105.85338709998177	108.17028909997316	112.21159989997977	0.8120505000110825	1.012512700050138	1.242215100035537	111.20514859998366	1.0	110.19590190000599	2	1	73	2	go_punish	1	0	-1	1	0	0	0	n/a	0.0	-1	1.0	1.0	2159.733583000023	2264.5824404000305	2265.5869701000047	2266.399020600016	2267.903872099996	2268.916384800046	2269.929484900029	2270.9387316000066	2271.9451829000027	2273.1873980000382	2020-08-25 14:46:55.673956	0.39309892345867	-1.06473429006594	-1.30184622262178	-1.87898224058911	-1.69494514608045	-1.30184622262178	-0.39309892345867	-1.30184622262178	-1.06473429006594	-1.30184622262178	-1.69494514608045	-7.684320167573681	-9.907974637311806	-5.995825344749616	-3.816636966807001	-10.158408164095311	-10.198324950551976	-3.816636966807001	-10.982089916373274	-11.961468277335396	-2.0534936400235817	-9.556692241340555	-0.2557700702160689	4	missed	0.0
113.47154729999647	9.026763900008518	nogo_reward	0.3082026999909431	113.50077400001464	115.9419135000212	118.4832197999931	2.4411395000065568	114.50528410001425	117.47225890000118	121.52692239999305	1.4366294000069502	1.0109608999919146	1.0006155000301078	120.51957080001011	0.3548153000301681	119.49518550001085	2	1	74	3	nogo_reward	1	0	1	0	1	0	0	0.0	1.0	0	0.3082026999909431	0.3548153000301681	2159.733583000023	2273.2343570000376	2274.238867100037	2275.675496500044	2277.205841900024	2278.216802800016	2279.2287685000338	2280.253153800033	2281.260505400016	2282.261120900046	2020-08-25 14:46:55.673956	3.48817136329159	3.75815831788866	3.09299543612389	5.30947840112329	6.58116679941549	3.09299543612389	-3.48817136329159	3.75815831788866	3.09299543612389	6.58116679941549	3.09299543612389	-3.75815831788866	-6.812902197478886	-1.1729327367950164	0.578204691938669	-2.9699475223829115	-1.9222130050560366	0.578204691938669	-7.055928066688255	-4.078455255298126	2.7344469421807585	-4.4966877008301145	3.9019596559737613	4	correct	1.0
122.52518249995865	8.545232200005103	nogo_punish	1.0	122.55440919997682	124.05777130002389	126.57621480000671	1.5033621000470703	123.55809509998608	125.56254940002691	129.6181962999981	0.4996762000378112	1.0136653999798	1.48144509998383	128.6121856999821	0.5007935999892652	127.5882512999815	2	1	75	1	nogo_punish	0	0	-1	0	0	1	0	0.0	1.0	-1	1.0	0.5007935999892652	2159.733583000023	2282.2879921999997	2283.291678100009	2283.791354300047	2285.29613240005	2286.3097978000296	2287.3218343000044	2288.345768700005	2289.351779300021	2290.833224400005	2020-08-25 14:46:55.673956	0.485198336304311	-0.73005601611778	-0.523288413720264	-1.13402339762007	-1.00848675002458	-0.523288413720264	-0.485198336304311	-0.523288413720264	-0.73005601611778	-0.523288413720264	-1.00848675002458	-8.462877976475196	-9.815875224466165	-5.661147070801457	-3.038079157905485	-9.41344932112627	-9.511866554496107	-3.038079157905485	-11.76064772527479	-11.18291046843388	-1.3670352439677118	-8.778134432439039	0.07890820373209106	4	correct	1.0
131.11665759998186	8.155880899983458	nogo_reward	0.4706114000291563	131.14588430000003	132.47556440002518	135.0171331000165	1.3296801000251435	132.1501906000194	134.00671119999606	138.05966789997183	0.32537380000576377	1.0104219000204466	1.2420973000116646	137.05235700000776	0.3792256999877281	136.0288684000261	2	1	76	3	nogo_reward	1	0	1	0	1	0	1	0.0	0.0	0	0.4706114000291563	0.3792256999877281	2159.733583000023	2290.879467300023	2291.8837736000423	2292.209147400048	2293.740294200019	2294.7507161000394	2295.762451400049	2296.7859400000307	2297.7932508999947	2299.0353482000064	2020-08-25 14:46:55.673956	3.1935105828225	3.58291889695717	3.09299543612389	5.06459041395447	6.28650601894639	3.09299543612389	-3.1935105828225	3.58291889695717	3.09299543612389	6.28650601894639	3.09299543612389	-3.58291889695717	-7.1075629779479765	-1.3481721577265064	0.578204691938669	-3.2148355095517314	-2.216873785525136	0.578204691938669	-6.880688645756765	-4.373116035767225	2.7344469421807585	-4.6719271217616045	3.9019596559737613	4	wrong	1.0
139.31805379997286	9.652339000022039	nogo_reward	0.4036180999828502	139.34728049999103	142.1803588999901	144.7203827999765	2.833078399999067	140.3521283000009	143.7111503999913	147.76349430001574	1.8282305999891832	1.0092323999851942	1.236125199997332	146.75636539998186	0.6141451000003144	145.73185280000325	2	1	77	3	nogo_reward	1	0	1	0	1	0	0	0.0	1.0	0	0.4036180999828502	0.6141451000003144	2159.733583000023	2299.080863500014	2300.085711300024	2301.913941900013	2303.4447334000142	2304.4539657999994	2305.465435800026	2306.489948400005	2307.4970773000387	2308.733202500036	2020-08-25 14:46:55.673956	2.91525330291103	3.41736918247517	3.09299543612389	4.83312941570937	6.00824873903492	3.09299543612389	-2.91525330291103	3.41736918247517	3.09299543612389	6.00824873903492	3.09299543612389	-3.41736918247517	-7.3858202578594465	-1.5137218722085066	0.578204691938669	-3.4462965077968315	-2.495131065436606	0.578204691938669	-6.715138931274764	-4.651373315678695	2.7344469421807585	-4.837476836243605	3.9019596559737613	4	correct	1.0
149.01334020000695	8.846447899995837	go_punish	1.0	149.04256690002512	151.08953310002107	153.60768740001367	2.04696619999595	150.04721900000004	152.59433659998513	156.65075630001957	1.0423141000210308	1.0133508000285474	1.2382585000013933	155.64453260001028	0.8487025999929756	154.6206272999989	2	1	78	2	go_punish	1	0	-1	1	0	0	0	0.0	1.0	-1	1.0	0.8487025999929756	2159.733583000023	2308.776149900048	2309.780802000023	2310.823116100044	2312.327919600008	2313.3412704000366	2314.354210300022	2315.378115600033	2316.3843393000425	2317.622597800044	2020-08-25 14:46:55.673956	0.219863689284092	-1.06473429006594	-1.61097823195892	-2.16359597390489	-1.83084192124301	-1.61097823195892	-0.219863689284092	-1.61097823195892	-1.06473429006594	-1.61097823195892	-1.83084192124301	-7.375188158236541	-10.081209871486385	-5.995825344749616	-4.125768976144141	-10.443021897411091	-10.334221725714537	-4.125768976144141	-10.672957907036135	-12.270600286672536	-2.189390415186142	-9.865824250677695	-0.2557700702160689	4	correct	1.0
157.90294989995937	8.416207500034943	go_punish	0.492411799961701	157.93217659997754	159.32458830001997	161.8662767999922	1.3924117000424303	158.93625979998615	160.8554288999876	164.9089886000147	0.3883285000338219	1.0108479000045918	1.4393954999977723	163.90250369999558	0.5126060000038706	162.87745720002567	2	1	79	2	go_punish	1	0	-1	1	1	1	0	0.0	1.0	0	0.492411799961701	0.5126060000038706	2159.733583000023	2317.6657596000005	2318.669842800009	2319.058171300043	2320.5890119000105	2321.599859800015	2322.6110402000486	2323.6360867000185	2324.6425716000376	2326.0819671000354	2020-08-25 14:46:55.673956	-0.0551558837936868	-1.06473429006594	-1.90464862805716	-2.43397110312931	-1.95980451185084	-1.90464862805716	0.0551558837936868	-1.06473429006594	-1.90464862805716	-1.95980451185084	-1.90464862805716	1.06473429006594	-10.356229444564162	-5.995825344749616	-4.4194393722423815	-10.713397026635512	-10.463184316322366	-4.4194393722423815	-2.233035458733654	-12.619426566564456	-2.2631971220002916	-9.319580308784715	-1.0956844082072887	4	correct	1.0
166.35238439997192	9.186409900023591	nogo_punish	1.0	166.3816110999901	168.66098970000166	171.1745398999774	2.279378600011569	167.3861218999955	170.16580590000376	174.21801740000956	1.2748678000061773	1.0087339999736287	1.3500036000041291	173.21113469998818	0.3518298999988474	172.18688100000145	2	1	80	1	nogo_punish	1	-1	0	0	0	1	0	0.0	1.0	0	1.0	0.3518298999988474	2159.733583000023	2326.115194100013	2327.1197049000184	2328.3945727000246	2329.8993889000267	2330.9081229000003	2331.9204640000244	2332.944717700011	2333.9516004000325	2335.3016040000366	2020-08-25 14:46:55.673956	0.288210582627268	-0.73005601611778	-0.872364816057036	-1.45258771106042	-1.1605753986843	-0.872364816057036	-0.288210582627268	-0.872364816057036	-0.73005601611778	-0.872364816057036	-1.1605753986843	0.872364816057036	-10.012862978143207	-5.661147070801457	-3.387155560242257	-9.732013634566622	-9.663955203155826	-3.387155560242257	-2.425404932742558	-11.531986870770652	-1.5191238926274315	-9.127210834775811	0.07890820373209106	4	correct	1.0
175.58569429995305	7.9198653000057675	nogo_reward	0.5037267000298016	175.61492099997122	177.03541329997825	179.57814360002521	1.4204923000070266	176.61842969997087	178.56528560002334	182.6229845000198	0.4169836000073701	1.01285800000187	0.9118017999571748	181.61658859997988	0.6248847999959253	180.59023219998926	2	1	81	3	nogo_reward	0	1	0	0	1	0	0	0.0	1.0	1	0.5037267000298016	0.6248847999959253	2159.733583000023	2335.348503999994	2336.352012699994	2336.768996300001	2338.2988686000463	2339.311726600048	2340.323815200012	2341.350171600003	2342.3565675000427	2343.2683693	2020-08-25 14:46:55.673956	2.65237219293479	3.26090789291897	3.09299543612389	4.6142678336475	5.74536762905869	3.09299543612389	-2.65237219293479	3.26090789291897	3.09299543612389	5.74536762905869	3.09299543612389	37.12292467393443	-7.648701367835686	-1.6701831617647067	0.578204691938669	-3.665158089858701	-2.758012175412836	0.578204691938669	33.82515492513483	-4.914254425654925	2.7344469421807585	-4.993938125799804	3.9019596559737613	4	correct	1.0
183.5496585000078	8.714447399950586	nogo_reward	0.5138629999710247	183.57888520002598	185.30532510002377	187.84495499997865	1.7264398999977857	184.58412680000765	186.83425820001867	190.88861139997607	0.7211983000161126	1.0106967999599874	1.4047212000004947	189.88280439999653	0.4243482000310905	188.85873169999104	2	1	82	3	nogo_reward	1	0	1	0	1	0	0	0.0	1.0	0	0.5138629999710247	0.4243482000310905	2159.733583000023	2343.312468200049	2344.3177098000306	2345.0389081000467	2346.5678412000416	2347.5785380000016	2348.592314700014	2349.6163874000194	2350.622194399999	2352.0269155999995	2020-08-25 14:46:55.673956	4.82469477539288	4.74056458384872	3.09299543612389	6.03482389660622	7.91769021151678	3.09299543612389	-4.82469477539288	4.74056458384872	3.09299543612389	7.91769021151678	3.09299543612389	-4.74056458384872	-5.476378785377596	-0.190526470834957	0.578204691938669	-2.2446020268999813	-0.5856895929547461	0.578204691938669	-8.038334332648313	-2.741931843196835	2.7344469421807585	-3.514281434870055	3.9019596559737613	4	correct	1.0
192.29415989999006	8.1736346000107	go_reward	0.527211900043767	192.32338660000823	193.68567789997905	196.2270290000015	1.3622912999708205	193.32794420002028	195.21446440002182	199.27377470000647	0.35773369995877147	1.0125645999796689	1.2232465000124648	198.26720830000704	0.3453573000151664	197.23866099998122	2	1	83	4	go_reward	1	1	0	1	1	1	0	0.0	1.0	1	0.527211900043767	0.3453573000151664	2159.733583000023	2352.056969600031	2353.061527200043	2353.419260900002	2354.9480474000447	2355.9606120000244	2356.972244000004	2358.00079130003	2359.0073577000294	2360.230604200042	2020-08-25 14:46:55.673956	23.3797644208666	15.5702092701775	0.0	15.5702092701775	23.3797644208666	0.0	-23.3797644208666	15.5702092701775	0.0	23.3797644208666	0.0	24.8136232966759	13.078690860096124	10.639118215493824	-2.514790744185221	7.290783346671299	14.876384616395073	-2.514790744185221	21.515853547876304	12.720142366152984	-0.3585484939431317	7.3153632514587255	0.8089642198498711	4	correct	1.0
200.49311739997984	7.927507199986849	go_reward	0.4473450999939814	200.522344099998	201.86977609997848	204.4095004000119	1.347431999980472	201.52662710001414	203.40063270000974	207.4531713000033	0.3431489999643418	1.0088677000021562	0.9966799999815521	206.44712809997145	0.2799036999931559	205.4221890000049	2	1	84	4	go_reward	0	0	1	1	1	1	0	0.0	1.0	0	0.4473450999939814	0.2799036999931559	2159.733583000023	2360.255927100021	2361.260210100037	2361.6033591000014	2363.1342157000327	2364.143083400035	2365.155772000028	2366.1807110999944	2367.186754300026	2368.183434300008	2020-08-25 14:46:55.673956	24.6639626840095	16.4364769203246	0.0	16.4364769203246	24.6639626840095	0.0	-24.6639626840095	16.4364769203246	0.0	24.6639626840095	0.0	-16.4364769203246	14.362889123239025	11.505385865640925	-2.514790744185221	8.1570509968184	16.160582879537976	-2.514790744185221	-19.734246669124197	14.004340629295886	-0.3585484939431317	8.181630901605827	0.8089642198498711	4	correct	1.0
208.46920870000076	9.395229599962477	nogo_reward	0.5993833999964409	208.49843540001893	210.92041590000736	213.45934980001766	2.421980499988422	209.50357519998215	212.45028579997597	216.50185469997814	1.4168407000252046	1.0090640000416897	1.3918103000032715	215.49578310002107	0.4292994999559596	214.4707902999944	2	1	85	3	nogo_reward	1	0	1	0	1	0	0	0.0	1.0	0	0.5993833999964409	0.4292994999559596	2159.733583000023	2368.232018400042	2369.237158200005	2370.6539989000303	2372.183868799999	2373.1929328000406	2374.2043733000173	2375.229366100044	2376.235437700001	2377.6272480000043	2020-08-25 14:46:55.673956	4.46457775854348	4.51705227009079	3.09299543612389	5.75531319762262	7.55757319466737	3.09299543612389	-4.46457775854348	4.51705227009079	3.09299543612389	7.55757319466737	3.09299543612389	-4.51705227009079	-5.836495802226996	-0.41403878459288634	0.578204691938669	-2.5241127258835814	-0.9458066098041567	0.578204691938669	-7.814822018890384	-3.1020488600462457	2.7344469421807585	-3.7377937486279844	3.9019596559737613	4	correct	1.0
217.88975639996397	8.302244600025006	go_reward	0.5481136000016704	217.91898309998214	219.23895670002094	221.78099469997687	1.319973600038793	218.92372040002374	220.7670423000236	224.82444060000125	0.3152362999971956	1.0139523999532685	1.396787100005895	223.8183948000078	0.5235691000125371	222.79439060000004	2	1	86	4	go_reward	1	1	0	1	1	1	1	1.0	1.0	1	0.5481136000016704	0.5235691000125371	2159.733583000023	2377.652566100005	2378.6573034000467	2378.972539700044	2380.5006253000465	2381.5145777	2382.527973600023	2383.5519778000307	2384.558023600024	2385.95481070003	2020-08-25 14:46:55.673956	23.4680719240584	15.6352894942811	0.0	15.6352894942811	23.4680719240584	0.0	-23.4680719240584	15.6352894942811	0.0	23.4680719240584	0.0	24.7485430725723	13.166998363287924	10.704198439597423	-2.514790744185221	7.355863570774899	14.964692119586873	-2.514790744185221	21.450773323772705	12.808449869344784	-0.3585484939431317	7.380443475562325	0.8089642198498711	4	correct	1.0
226.2188888000096	9.707237499998882	nogo_punish	0.5638907999964431	226.24811550002778	229.20824489998586	231.75324669998326	2.9601293999580776	227.25217960000737	230.7395243999781	234.7964863000093	1.9560652999784907	1.0137223000051563	1.15886670001737	233.79083850001916	0.6252175000263378	232.76480170001741	2	1	87	1	nogo_punish	1	-1	0	0	1	0	0	0.0	1.0	-1	0.5638907999964431	0.6252175000263378	2159.733583000023	2385.9816985000507	2386.9857626000303	2388.941827900009	2390.473107400001	2391.486829700006	2392.4983847000403	2393.524421500042	2394.530069300032	2395.6889360000496	2020-08-25 14:46:55.673956	-0.296574208468034	-0.73005601611778	-0.828962962142798	-1.3804366849749	-1.12553717061083	-0.828962962142798	0.296574208468034	-0.73005601611778	-0.828962962142798	-1.12553717061083	-0.828962962142798	-8.25611037407768	-10.59764776923851	-5.661147070801457	-3.343753706328019	-9.6598626084811	-9.628916975082356	-3.343753706328019	-11.553880122877274	-11.785159225324445	-1.1875114560859297	-8.984902034836555	-0.019998742292926863	4	correct	1.0
235.97088659997144	9.19742129999213	go_punish	0.2998184000025503	236.0001132999896	238.72921660001157	241.26991319999797	2.7291033000219613	237.003682199982	240.2601470000227	244.31457829999317	1.7255344000295736	1.0097661999752745	0.8829562999885638	243.30817859998206	0.7106941000092775	242.28333469998324	2	1	88	2	go_punish	1	0	-1	1	1	1	0	1.0	0.0	0	0.2998184000025503	0.7106941000092775	2159.733583000023	2395.7336963000125	2396.737265200005	2398.4627996000345	2399.9937300000456	2401.003496200021	2402.016917700006	2403.041761600005	2404.048161300016	2404.9311176000047	2020-08-25 14:46:55.673956	0.0537859123296477	-1.0126573224429	-1.90464862805716	-2.31627066838855	-1.85086271572751	-1.90464862805716	-0.0537859123296477	-1.0126573224429	-1.90464862805716	-1.85086271572751	-1.90464862805716	1.0126573224429	-10.247287648440828	-5.943748377126576	-4.4194393722423815	-10.59569659189475	-10.354242520199037	-4.4194393722423815	-2.2851124263566938	-12.510484770441126	-2.2631971220002916	-9.267503341161675	-1.0956844082072887	4	wrong	1.0
245.19306739996	9.296404200023971	go_reward	0.4664495000033639	245.22229409997817	247.43965040001785	249.98676749999868	2.2173563000396825	246.2270471000229	248.97104600002058	253.0290440000249	1.212603299994953	1.015721499978099	1.4896542999772464	252.02207230002386	0.4569350999663584	250.9980266999919	2	1	89	4	go_reward	1	1	0	1	1	1	0	0.0	1.0	1	0.4664495000033639	0.4569350999663584	2159.733583000023	2404.955877100001	2405.960630100046	2407.1732334000408	2408.7046290000435	2409.7203505000216	2410.731609700015	2411.755655300047	2412.762627000048	2414.252281300025	2020-08-25 14:46:55.673956	24.7621177400739	16.5075940453777	0.0	16.5075940453777	24.7621177400739	0.0	-24.7621177400739	16.5075940453777	0.0	24.7621177400739	0.0	23.8762385214757	14.461044179303425	11.576502990694024	-2.514790744185221	8.2281681218715	16.258737935602376	-2.514790744185221	20.578468772676104	14.102495685360285	-0.3585484939431317	8.252748026658926	0.8089642198498711	4	correct	1.0
254.51396680000516	8.954516199999489	go_reward	0.3193271000054665	254.54319350002334	257.1547261999808	259.69766070001015	2.611532699957479	255.54830040002707	258.68493200000376	262.7444524000166	1.6064257999537404	1.0127287000063916	0.7532573000062257	261.7370796999894	0.5356856000144035	260.7102763999719	2	1	90	4	go_reward	1	1	0	1	1	1	0	0.0	1.0	1	0.3193271000054665	0.5356856000144035	2159.733583000023	2414.2767765000463	2415.28188340005	2416.8883092000037	2418.4185150000267	2419.431243700033	2420.443859399995	2421.4706627000123	2422.4780354000395	2423.2312927000457	2020-08-25 14:46:55.673956	25.9956691161635	17.339283521579	0.0	17.339283521579	25.9956691161635	0.0	-25.9956691161635	17.339283521579	0.0	25.9956691161635	0.0	23.0445490452744	15.694595555393025	12.408192466895322	-2.514790744185221	9.059857598072798	17.492289311691977	-2.514790744185221	19.746779296474806	15.336047061449886	-0.3585484939431317	9.084437502860224	0.8089642198498711	4	correct	1.0
263.5157635000073	8.319161499967322	nogo_reward	1.0	263.5449902000255	265.3295065999846	267.8439973000209	1.7845163999591023	264.55012660002103	266.8340527000255	270.88650189997816	0.7793799999635667	1.0099445999953787	0.9776498000146603	269.87928639998427	0.5867498000152409	268.85435759997927	2	1	91	3	nogo_reward	0	1	0	0	0	1	0	0.0	1.0	0	1.0	0.5867498000152409	2159.733583000023	2423.2785732000484	2424.283709600044	2425.0630896000075	2426.5676357000484	2427.577580300044	2428.587940600002	2429.612869400007	2430.620084900001	2431.5977347000157	2020-08-25 14:46:55.673956	-4.12469099904901	4.30603856098267	3.09299543612389	5.49121884891961	7.2176864351729	3.09299543612389	4.12469099904901	3.09299543612389	4.30603856098267	3.09299543612389	7.2176864351729	-3.09299543612389	-14.425764559819486	-0.6250524937010065	0.578204691938669	-2.788207074586591	-1.2856933692986265	0.578204691938669	-6.3907651849234846	-7.5666266185897255	6.859137941229768	-5.161850582594885	5.115002780832541	4	correct	1.0
271.881292400009	8.124997399980202	nogo_reward	0.302824399957899	271.91051910002716	273.69403920002514	276.234364599979	1.783520099997986	272.9150305999792	275.2248422999983	279.27889750001486	0.7790086000459269	1.0095222999807447	0.7566189999924973	278.27231759997085	0.6644836000050418	277.24753079999937	2	1	92	3	nogo_reward	1	0	1	0	1	0	0	0.0	1.0	0	0.302824399957899	0.6644836000050418	2159.733583000023	2431.64410210005	2432.648613600002	2433.427622200048	2434.958425300021	2435.967947600002	2436.9811138000223	2438.0059005999938	2439.012480500038	2439.7690995000303	2020-08-25 14:46:55.673956	4.16058696954874	4.30603856098267	2.9354637698413	5.24158423412091	7.09605073939004	2.9354637698413	-4.16058696954874	4.30603856098267	2.9354637698413	7.09605073939004	2.9354637698413	-4.30603856098267	-6.140486591221736	-0.6250524937010065	0.4206730256560789	-3.0378416893852913	-1.4073290650814867	0.4206730256560789	-7.603808309782265	-3.5635713153235757	2.5769152758981684	-3.9488074577361045	3.744427989691171	4	correct	1.0
280.05075880000413	8.247332700004335	nogo_reward	0.5929404000053182	280.0799855000223	281.93904169998086	284.47930070001166	1.8590561999585589	281.0846918000025	283.46958249999443	287.5221566000255	0.8543498999783878	1.0097182000172324	0.8051616000011563	286.51611379999713	0.3400507000042125	285.4908635999891	2	1	93	3	nogo_reward	1	0	1	0	1	0	1	1.0	1.0	0	0.5929404000053182	0.3400507000042125	2159.733583000023	2439.813568500045	2440.8182748000254	2441.672624700004	2443.2031655000173	2444.2128837000346	2445.224446600012	2446.24969680002	2447.2557396000484	2448.0609012000496	2020-08-25 14:46:55.673956	3.84642952830218	4.1067393197645	2.9354637698413	5.00551742204428	6.78189329814348	2.9354637698413	-3.84642952830218	4.1067393197645	2.9354637698413	6.78189329814348	2.9354637698413	-4.1067393197645	-6.4546440324682965	-0.8243517349191762	0.4206730256560789	-3.2739085014619214	-1.7214865063280467	0.4206730256560789	-7.404509068564094	-3.8777287565701357	2.5769152758981684	-4.148106698954274	3.744427989691171	4	correct	1.0
288.3442581999707	7.824658400029421	nogo_reward	0.4693526999908499	288.37348489998885	289.8426434000139	292.38028639997356	1.4691585000250598	289.3777897999971	291.37150860001566	295.4256689000176	0.4648536000167951	1.0087777999578975	0.7724744000006467	294.41978930000914	0.3487488000537269	293.39439680002397	2	1	94	3	nogo_reward	1	0	1	0	1	0	1	1.0	1.0	0	0.4693526999908499	0.3487488000537269	2159.733583000023	2448.1070679000118	2449.11137280002	2449.576226400037	2451.1050916000386	2452.1138693999965	2453.127979800047	2454.153372300032	2455.1592519000405	2455.931726300041	2020-08-25 14:46:55.673956	3.54960544015775	3.91842391717786	2.9354637698413	4.78218649115076	6.48506920999905	2.9354637698413	-3.54960544015775	3.91842391717786	2.9354637698413	6.48506920999905	2.9354637698413	-3.91842391717786	-6.751468120612726	-1.0126671375058165	0.4206730256560789	-3.4972394323554408	-2.018310594472476	0.4206730256560789	-7.216193665977454	-4.174552844714565	2.5769152758981684	-4.336422101540915	3.744427989691171	4	correct	1.0
296.2132733999756	9.288833200000226	go_punish	0.2757505000336095	296.2425000999938	299.0122219999903	301.5519480999792	2.7697218999965116	297.24668719997817	300.54293420002796	304.5955448999889	1.7655348000121194	1.009013899951242	0.9357884000050944	303.58788379997713	0.672624500002712	302.56347709998954	2	1	95	2	go_punish	1	0	-1	1	1	1	0	0.0	1.0	0	0.2757505000336095	0.672624500002712	2159.733583000023	2455.9760831000167	2456.980270200001	2458.745805000013	2460.276517200051	2461.285531100002	2462.2970601000125	2463.3214668	2464.329127900012	2465.264916300017	2020-08-25 14:46:55.673956	0.156477882855615	-0.963538558379912	-1.90464862805716	-2.20519927139625	-1.74817074520154	-1.90464862805716	-0.156477882855615	-0.963538558379912	-1.90464862805716	-1.74817074520154	-1.90464862805716	0.963538558379912	-10.144595677914861	-5.8946296130635885	-4.4194393722423815	-10.484625194902451	-10.251550549673066	-4.4194393722423815	-2.334231190419682	-12.407792799915155	-2.2631971220002916	-9.218384577098687	-1.0956844082072887	4	correct	1.0
305.5299285000078	8.306726999987859	nogo_punish	1.0	305.559155200026	307.4075164999813	309.9223128000158	1.848361299955286	306.56405039998936	308.912719200016	312.96400039998116	0.8434660999919288	1.0095935999997891	0.9018818000326974	311.95770929998207	0.4814513999735936	310.9335795000079	2	1	96	1	nogo_punish	1	-1	0	0	0	1	0	0.0	1.0	0	1.0	0.4814513999735936	2159.733583000023	2465.292738200049	2466.2976334000123	2467.141099500004	2468.646302200039	2469.6558958000387	2470.667162500031	2471.691292300005	2472.697583400004	2473.599465200037	2020-08-25 14:46:55.673956	0.780180942912024	-1.06731939245255	-0.828962962142798	-1.68709948997026	-1.60914390505482	-0.828962962142798	-0.780180942912024	-0.828962962142798	-1.06731939245255	-0.828962962142798	-1.60914390505482	0.828962962142798	-9.520892617858452	-5.9984104471362265	-3.343753706328019	-9.966525413476461	-10.112523709526346	-3.343753706328019	-2.468806786656796	-11.488585016856414	-1.9676923989979516	-9.083808980861573	-0.2583551726026788	4	correct	1.0
313.86838379997107	8.332408600021154	nogo_punish	1.0	313.89761049998924	315.46429169998737	317.9784432000015	1.5666811999981292	314.9020402000169	316.9693314000033	321.02119040000207	0.5622514999704435	1.0091117999982089	1.2088287000083255	320.01457370002754	0.4986602999852039	318.9904890999901	2	1	97	1	nogo_punish	1	-1	0	0	0	1	0	0.0	1.0	0	1.0	0.4986602999852039	2159.733583000023	2473.631193500012	2474.63562320004	2475.1978747000103	2476.702914400026	2477.7120262000244	2478.724072100013	2479.7481567000505	2480.754773400025	2481.9636021000333	2020-08-25 14:46:55.673956	0.780629812320176	-1.06731939245255	-0.788062385996749	-1.60371595904596	-1.56869219831692	-0.788062385996749	-0.780629812320176	-0.788062385996749	-1.06731939245255	-0.788062385996749	-1.56869219831692	0.788062385996749	-9.5204437484503	-5.9984104471362265	-3.30285313018197	-9.883141882552161	-10.072072002788447	-3.30285313018197	-2.5097073628028452	-11.447684440710365	-1.9272406922600518	-9.042908404715524	-0.2583551726026788	4	correct	1.0
322.2467672000066	9.51645899994719	go_punish	0.3248632000177167	322.2759939000248	324.744213900005	327.286731900007	2.4682199999801924	323.2804388999939	326.2765763999778	330.32971239998005	1.4637750000110827	1.0101555000292137	1.4627404999919236	329.3236555000185	0.353152499999851	328.29883029998746	2	1	98	2	go_punish	1	0	-1	1	1	1	0	0.0	1.0	0	0.3248632000177167	0.353152499999851	2159.733583000023	2482.0095769000477	2483.014021900017	2484.477796900028	2486.0101594000007	2487.02031490003	2488.0324133000104	2489.0572385000414	2490.063295400003	2491.526035899995	2020-08-25 14:46:55.673956	0.253320345253094	-0.917190925460618	-1.90464862805716	-2.10034047981116	-1.65132828280406	-1.90464862805716	-0.253320345253094	-0.917190925460618	-1.90464862805716	-1.65132828280406	-1.90464862805716	0.917190925460618	-10.047753215517382	-5.848281980144295	-4.4194393722423815	-10.379766403317362	-10.154708087275587	-4.4194393722423815	-2.380578823338976	-12.310950337517676	-2.2631971220002916	-9.172036944179393	-1.0956844082072887	4	correct	1.0
331.78774790000216	9.49400720000267	go_reward	0.2900548999896273	331.81697460002033	334.5260182999773	337.0700597999971	2.7090436999569647	332.8221442999784	336.0565277999849	340.1127658999758	1.7038739999989048	1.0135320000122192	1.1982159000472166	339.1068984000012	0.3400993000250309	338.0828341000015	2	1	99	4	go_reward	1	1	0	1	1	1	0	0.0	1.0	1	0.2900548999896273	0.3400993000250309	2159.733583000023	2491.5505576000432	2492.5557273000013	2494.2596013	2495.790110800008	2496.80364280002	2497.8164171000244	2498.840481400024	2499.8463488999987	2501.044564800046	2020-08-25 14:46:55.673956	27.1721093256326	18.1326096334879	0.0	18.1326096334879	27.1721093256326	0.0	-27.1721093256326	18.1326096334879	0.0	27.1721093256326	0.0	22.2512229333655	16.871035764862125	13.201518578804222	-2.514790744185221	9.853183709981698	18.668729521161076	-2.514790744185221	18.953453184565905	16.512487270918985	-0.3585484939431317	9.877763614769124	0.8089642198498711	4	correct	1.0
341.3103583999914	8.709027000004426	go_reward	0.3661467999918386	341.3395851000096	343.6918480999889	346.2394621000276	2.3522629999793025	342.34338460001163	345.2267444999893	349.28239880001684	1.3484634999772425	1.012717600038286	0.7662132999971618	348.27590950002195	0.4945748999598436	347.2514573999797	2	1	100	4	go_reward	1	1	0	1	1	1	0	0.0	1.0	1	0.3661467999918386	0.4945748999598436	2159.733583000023	2501.0731681000325	2502.0769676000345	2503.425431100012	2504.960327500012	2505.9730451000505	2506.9850404000026	2508.009492500045	2509.0159818000398	2509.782195100037	2020-08-25 14:46:55.673956	28.2946084873033	18.8896836690692	0.0	18.8896836690692	28.2946084873033	0.0	-28.2946084873033	18.8896836690692	0.0	28.2946084873033	0.0	21.4941488977842	17.993534926532824	13.958592614385523	-2.514790744185221	10.610257745562999	19.791228682831772	-2.514790744185221	18.196379148984605	17.634986432589685	-0.3585484939431317	10.634837650350425	0.8089642198498711	4	correct	1.0
350.064934799972	8.562460999994073	go_punish	0.3493984999950044	350.09416149999015	351.94063540000934	354.4849510000208	1.8464739000191912	351.0981723999721	353.47152630001074	357.5267757999827	0.8424630000372417	1.0134247000100913	1.129846700001508	356.52054280001903	0.8614193000248633	355.49759169999743	2	1	101	2	go_punish	0	-1	0	1	1	1	0	0.0	1.0	-1	0.3493984999950044	0.8614193000248633	2159.733583000023	2509.827744500013	2510.831755399995	2511.6742184000323	2513.2051093000337	2514.2185340000437	2515.2311747000203	2516.254125800042	2517.2603588000056	2518.390205500007	2020-08-25 14:46:55.673956	0.344685748125148	-0.873440195849749	-1.90464862805716	-2.00130630070499	-1.55996287993201	-1.90464862805716	-0.344685748125148	-0.873440195849749	-1.90464862805716	-1.55996287993201	-1.90464862805716	-8.112726194345711	-9.956387812645328	-5.804531250533426	-4.4194393722423815	-10.28073222421119	-10.063342684403537	-4.4194393722423815	-11.410495943145305	-12.219584934645626	-2.2631971220002916	-9.128286214568524	-1.0956844082072887	4	correct	1.0
358.6539828999671	9.545850800001062	go_reward	0.2785556999733671	358.6832095999853	361.2544383999775	363.7991260000272	2.571228799992241	359.6881887000054	362.78586110001197	366.8433260999741	1.5662496999721043	1.0132649000152014	1.3857343000122455	365.83676350000314	0.6179416000377387	364.81012550002197	2	1	102	4	go_reward	1	1	0	1	1	1	1	0.0	0.0	1	0.2785556999733671	0.6179416000377387	2159.733583000023	2518.416792600008	2519.4217717000283	2520.9880214000004	2522.519444100035	2523.53270900005	2524.543708500045	2525.570346500026	2526.576909099997	2527.9626434000093	2020-08-25 14:46:55.673956	29.3661382001745	19.6124860349322	0.0	19.6124860349322	29.3661382001745	0.0	-29.3661382001745	19.6124860349322	0.0	29.3661382001745	0.0	20.7713465319212	19.065064639404024	14.681394980248523	-2.514790744185221	11.333060111425999	20.862758395702976	-2.514790744185221	17.473576783121604	18.706516145460885	-0.3585484939431317	11.357640016213425	0.8089642198498711	4	wrong	1.0
368.2475522999889	9.204542399966158	nogo_reward	0.2355655999854207	368.2767790000071	370.79544620000524	373.33505699998886	2.5186671999981627	369.28147450002143	372.3254540999769	376.3789626000216	1.5139716999838129	1.0096029000119415	1.1023587999516167	375.3713491000235	0.5717843000311404	374.3472664000001	2	1	103	3	nogo_reward	1	0	1	0	1	0	0	0.0	1.0	0	0.2355655999854207	0.5717843000311404	2159.733583000023	2528.01036200003	2529.0150575000443	2530.529029200028	2532.0590371	2533.068640000012	2534.080849400023	2535.1049321000464	2536.1125456000445	2537.214904399996	2020-08-25 14:46:55.673956	3.26903522092642	3.74041133359598	2.9354637698413	4.57081521081801	6.20449899076772	2.9354637698413	-3.26903522092642	3.74041133359598	2.9354637698413	6.20449899076772	2.9354637698413	-3.74041133359598	-7.032038339844056	-1.1906797210876965	0.4206730256560789	-3.7086107126881913	-2.298880813703806	0.4206730256560789	-7.038181082395575	-4.455123063945895	2.5769152758981684	-4.5144346851227946	3.744427989691171	4	correct	1.0
377.481745099999	8.201297599996451	nogo_punish	1.0	377.51097180001716	378.87047399999574	381.3875567999785	1.3595021999785786	378.5158036000212	380.37474200001407	384.4292697000201	0.35467039997456595	1.012814799964417	1.2829996999935247	383.4233692000271	0.5622977999737486	382.3988613000256	2	1	104	1	nogo_punish	0	0	-1	0	0	1	0	0.0	1.0	-1	1.0	0.5622977999737486	2159.733583000023	2537.24455480004	2538.249386600044	2538.6040570000187	2540.108325000037	2541.1211398000014	2542.1324443000485	2543.15695220005	2544.162852700043	2545.4458524000365	2020-08-25 14:46:55.673956	0.781122199365048	-1.06731939245255	-0.749502912541901	-1.5251106374814	-1.53062511190695	-0.749502912541901	-0.781122199365048	-0.749502912541901	-1.06731939245255	-0.749502912541901	-1.53062511190695	-8.23666347765356	-9.519951361405427	-5.9984104471362265	-3.264293656727122	-9.804536560987602	-10.034004916378477	-3.264293656727122	-11.534433226453153	-11.409124967255517	-1.8891736058500816	-9.004348931260676	-0.2583551726026788	4	correct	1.0
385.7302761999895	8.891828599967994	nogo_reward	0.2913843000424094	385.75950290000765	387.6767037999816	390.21787330001825	1.9172008999739774	386.7634821999818	389.2082333000144	393.2627690000227	0.9132215999998152	1.0096400000038557	1.3885624999529682	392.25668789999327	0.7409779999870807	391.23005630000216	2	1	105	3	nogo_reward	1	0	1	0	1	0	1	1.0	1.0	0	0.2913843000424094	0.7409779999870807	2159.733583000023	2545.4930859000306	2546.4970652000047	2547.4102868000045	2548.9418163000373	2549.951456300041	2550.963639300025	2551.990270900016	2552.9963520000456	2554.3849144999986	2020-08-25 14:46:55.673956	3.00371273796458	3.57206656067425	2.9354637698413	4.37067905092437	5.93917650780588	2.9354637698413	-3.00371273796458	3.57206656067425	2.9354637698413	5.93917650780588	2.9354637698413	-3.57206656067425	-7.297360822805896	-1.3590244940094265	0.4206730256560789	-3.9087468725818315	-2.5642032966656467	0.4206730256560789	-6.869836309473844	-4.720445546907736	2.5769152758981684	-4.682779458044525	3.744427989691171	4	correct	1.0
394.6469493999616	8.5351340000052	go_reward	0.3059812000137754	394.6761760999798	396.67497659998526	399.2149184999871	1.9988005000054727	395.6798107000068	398.2051459000213	402.2560784000093	0.995165899978474	1.0097725999657996	0.955231699975684	401.2506201000069	0.9154962999746205	400.22629189997724	2	1	106	4	go_reward	0	0	1	1	1	1	0	0.0	1.0	0	0.3059812000137754	0.9154962999746205	2159.733583000023	2554.4097591000027	2555.4133937000297	2556.408559600008	2557.938728900044	2558.94850150001	2559.9598749	2560.98420310003	2561.989661400032	2562.944893100008	2020-08-25 14:46:55.673956	30.3894851044208	20.3028751046806	0.0	20.3028751046806	30.3894851044208	0.0	-30.3894851044208	20.3028751046806	0.0	30.3894851044208	0.0	-20.3028751046806	20.088411543650324	15.371784049996922	-2.514790744185221	12.023449181174398	21.88610529994927	-2.514790744185221	-23.600644853480194	19.729863049707184	-0.3585484939431317	12.048029085961824	0.8089642198498711	4	correct	1.0
403.21010229998546	9.250713400018867	nogo_punish	0.6989546999684535	403.23932900000364	405.71709970000666	408.257062699995	2.4777707000030205	404.2430004000198	407.2479067000095	411.3010473999889	1.4740992999868467	1.0091559999855235	1.1889950000336285	410.2940931000053	0.7442848000209779	409.27060480002547	2	1	107	1	nogo_punish	0	0	-1	0	1	0	0	0.0	1.0	0	0.6989546999684535	0.7442848000209779	2159.733583000023	2562.9729120000266	2563.9765834000427	2565.4506827000296	2566.9814897000324	2567.990645700018	2569.0041878000484	2570.027676100028	2571.034630400012	2572.2236254000454	2020-08-25 14:46:55.673956	-0.586295045991124	-1.06731939245255	-1.08779818913885	-1.82564177448105	-1.67409323512998	-1.08779818913885	0.586295045991124	-1.06731939245255	-1.08779818913885	-1.67409323512998	-1.08779818913885	1.06731939245255	-10.8873686067616	-5.9984104471362265	-3.6025889333240713	-10.105067697987252	-10.177473039601507	-3.6025889333240713	-2.230450356347044	-12.333715289843596	-1.4463466830819818	-9.322165411171325	-0.27883396928897886	4	correct	1.0
412.4884626999851	9.398075699980836	go_reward	0.2842710000113584	412.5176894000033	414.944720999978	417.48733749997336	2.4270315999747254	413.52259000000777	416.47476810001535	420.53221299999814	1.4221309999702498	1.0125693999580108	1.383552099985991	419.5248330999748	0.5703841000213288	418.49970029998804	2	1	108	4	go_reward	1	1	0	1	1	1	1	0.0	0.0	1	0.2842710000113584	0.5703841000213288	2159.733583000023	2572.251272400026	2573.2561730000307	2574.678304000001	2576.2083511000383	2577.2209204999963	2578.233283300011	2579.2584160999977	2580.265796000021	2581.649348100007	2020-08-25 14:46:55.673956	28.9464786519913	19.3350051867738	0.0	19.3350051867738	28.9464786519913	0.0	-28.9464786519913	19.3350051867738	0.0	28.9464786519913	0.0	21.0488273800796	18.645405091220823	14.403914132090122	-2.514790744185221	11.055579263267598	20.44309884751977	-2.514790744185221	17.751057631280005	18.286856597277684	-0.3585484939431317	11.080159168055024	0.8089642198498711	4	wrong	1.0
421.9309880000078	8.940717799996492	go_punish	0.3676129999803379	421.960214700026	424.0024103000178	426.5414311999921	2.042195599991828	422.9642455999856	425.53235069999937	429.58568070002366	1.0381647000322118	1.0090804999927059	1.315251799998805	428.5780767999822	0.5481874000397511	427.5540241000126	2	1	109	2	go_punish	1	0	-1	1	1	1	0	0.0	1.0	0	0.3676129999803379	0.5481874000397511	2159.733583000023	2581.693797700049	2582.6978286000085	2583.7359933000407	2585.2659337000223	2586.275014200015	2587.2876071000355	2588.311659800005	2589.3192637000466	2590.6345155000454	2020-08-25 14:46:55.673956	-0.123049295010663	-1.20678674397614	-1.90464862805716	-2.28239780304091	-2.02769792306782	-1.90464862805716	0.123049295010663	-1.20678674397614	-1.90464862805716	-2.02769792306782	-1.90464862805716	1.20678674397614	-10.424122855781139	-6.137877798659817	-4.4194393722423815	-10.56182372654711	-10.531077727539346	-4.4194393722423815	-2.090983004823454	-12.687319977781435	-2.2631971220002916	-9.461632762694915	-1.0956844082072887	4	correct	1.0
430.8971317999535	9.611841200035997	go_reward	0.3220240999944508	430.9263584999717	433.46807429997716	436.0097995999972	2.541715800005477	431.9313653999707	434.9961922999937	439.0525869000121	1.536708900006488	1.013607300003514	1.4856127999955788	438.046379300009	0.6574579000007361	437.0216703999904	2	1	110	4	go_reward	1	1	0	1	1	1	1	0.0	0.0	1	0.3220240999944508	0.6574579000007361	2159.733583000023	2590.6599414999946	2591.6649483999936	2593.2016573	2594.7297753000166	2595.74338260002	2596.7552534000133	2597.779962300032	2598.786169900035	2600.2717827000306	2020-08-25 14:46:55.673956	30.006323329281	20.0492785930178	0.0	20.0492785930178	30.006323329281	0.0	-30.006323329281	20.0492785930178	0.0	30.006323329281	0.0	20.3345539738356	19.705249768510523	15.118187538334123	-2.514790744185221	11.769852669511598	21.502943524809474	-2.514790744185221	17.036784225036005	19.346701274567383	-0.3585484939431317	11.794432574299025	0.8089642198498711	4	wrong	1.0
440.5367235000017	8.42263369995635	nogo_punish	1.0	440.56595020001987	442.47069410001814	444.9876818999769	1.904743899998266	441.5707493000082	443.9750741000171	448.0298073000158	0.8999448000099619	1.0126077999598238	0.9587765999604017	447.0230634000036	0.5337242999812588	445.99917089997325	2	1	111	1	nogo_punish	0	0	-1	0	0	1	0	0.0	1.0	-1	1.0	0.5337242999812588	2159.733583000023	2600.299533200043	2601.304332300031	2602.204277100041	2603.70865710004	2604.7212649	2605.732753899996	2606.7566464000265	2607.7633903000387	2608.722166899999	2020-08-25 14:46:55.673956	0.488648656010293	-1.0128550735661	-1.08779818913885	-1.73643117722866	-1.57644684514915	-1.08779818913885	-0.488648656010293	-1.08779818913885	-1.0128550735661	-1.08779818913885	-1.57644684514915	-7.898368201056611	-9.812424904760183	-5.9439461282497765	-3.6025889333240713	-10.015857100734861	-10.079826649620676	-3.6025889333240713	-11.196137949856205	-11.747420243852465	-1.9349953390922816	-9.342644207857624	-0.20389085371622884	4	correct	1.0
449.00656129996105	7.99113550002221	nogo_reward	0.4514960999949835	449.0357879999792	450.5326049000141	453.07534169999417	1.4968169000349008	450.03998220001813	452.06282200000715	456.1178486000281	0.49262269999599084	1.012519699987024	0.9090748999733478	455.1120481999824	0.6653563000145368	454.0866949000051	2	1	112	3	nogo_reward	0	1	0	0	1	0	0	0.0	1.0	1	0.4514960999949835	0.6653563000145368	2159.733583000023	2608.769371000002	2609.773565200041	2610.266187900037	2611.79640500003	2612.808924700017	2613.820277900028	2614.8456312000053	2615.851431600051	2616.7605065000243	2020-08-25 14:46:55.673956	2.75269988013154	3.41279727843835	2.9354637698413	4.18110149360184	5.68816364997284	2.9354637698413	-2.75269988013154	3.41279727843835	2.9354637698413	5.68816364997284	2.9354637698413	36.97103528841505	-7.548373680638936	-1.5182937762453266	0.4206730256560789	-4.098324429904361	-2.8152161544986862	0.4206730256560789	33.67326553961546	-4.971458404740775	2.5769152758981684	-4.842048740280425	3.744427989691171	4	correct	1.0
457.02510969998593	7.94723009999143	go_reward	0.4981538000283763	457.0543364000041	458.4879107999732	461.0318955000257	1.4335743999690749	458.0584583000168	460.01779120002175	464.0742271000054	0.42945249995636914	1.0141043000039645	0.92733939999016	463.06785839999793	0.444495800009463	462.0453957999707	2	1	113	4	go_reward	1	1	0	1	1	1	0	0.0	1.0	1	0.4981538000283763	0.444495800009463	2159.733583000023	2616.787919400027	2617.7920413000397	2618.221493799996	2619.7513742000447	2620.7654785000486	2621.7789787999936	2622.801441400021	2623.8078101000283	2624.7351495000185	2020-08-25 14:46:55.673956	31.0178207976306	20.731078870657	0.0	20.731078870657	31.0178207976306	0.0	-31.0178207976306	20.731078870657	0.0	31.0178207976306	0.0	19.6527536961964	20.716747236860122	15.799987815973324	-2.514790744185221	12.4516529471508	22.51444099315907	-2.514790744185221	16.354983947396804	20.358198742916983	-0.3585484939431317	12.476232851938226	0.8089642198498711	4	correct	1.0
465.001020599972	8.44066710001789	go_reward	0.5780639000004157	465.03024729999015	466.8670009999769	469.4087189999991	1.8367536999867298	466.03529450000497	468.39598390000174	472.4505873000021	0.831706499971915	1.0127350999973714	1.020327100005943	471.44440889998805	0.4675544999772683	470.42038379999576	2	1	114	4	go_reward	1	1	0	1	1	1	0	0.0	1.0	1	0.5780639000004157	0.4675544999772683	2159.733583000023	2624.763830300013	2625.768877500028	2626.600584	2628.1295669000247	2629.142302000022	2630.1539668000187	2631.177991900011	2632.184170300025	2633.204497400031	2020-08-25 14:46:55.673956	31.9836370173352	21.3821812106314	0.0	21.3821812106314	31.9836370173352	0.0	-31.9836370173352	21.3821812106314	0.0	31.9836370173352	0.0	19.001651356222	21.682563456564726	16.451090155947725	-2.514790744185221	13.1027552871252	23.480257212863677	-2.514790744185221	15.703881607422405	21.324014962621586	-0.3585484939431317	13.127335191912627	0.8089642198498711	4	correct	1.0
473.48661249998304	8.197088000015356	go_punish	0.9154391000047326	473.5158392000012	475.17665039998246	477.7210674000089	1.6608111999812536	474.52068040001905	476.7077088999795	480.7502797999773	0.6559699999634176	1.013358500029426	0.9626474000392591	479.74369510001316	1.0	478.73411800002214	2	1	115	2	go_punish	0	-1	0	1	1	1	0	n/a	0.0	0	0.9154391000047326	1.0	2159.733583000023	2633.249422200024	2634.254263400042	2634.9102334000054	2636.4412919000024	2637.454650400032	2638.467701000045	2639.477278100036	2640.4838628	2641.4465102000395	2020-08-25 14:46:55.673956	-0.0129273962734379	-1.14848449080173	-1.90464862805716	-2.17468301427126	-1.91757602433059	-1.90464862805716	0.0129273962734379	-1.14848449080173	-1.90464862805716	-1.91757602433059	-1.90464862805716	-7.837681899393731	-10.314000957043914	-6.079575545485406	-4.4194393722423815	-10.45410893777746	-10.420955828802116	-4.4194393722423815	-11.135451648193325	-12.577198079044205	-2.2631971220002916	-9.403330509520504	-1.0956844082072887	4	missed	0.0
481.7121949999714	8.130836900032591	nogo_punish	1.0	481.7414216999896	483.2968736999901	485.8107988000261	1.555452000000514	482.74545779998925	484.8019448000123	488.85371090000217	0.5514159000008476	1.0088540000137982	1.018547700020008	487.84725230000913	0.4228984999936074	486.82317569997394	2	1	116	1	nogo_punish	1	-1	0	0	0	1	0	0.0	1.0	0	1.0	0.4228984999936074	2159.733583000023	2641.4750047000125	2642.479040800012	2643.030456700013	2644.535527800035	2645.544381800049	2646.556758699997	2647.580835300032	2648.587293900025	2649.605841600045	2020-08-25 14:46:55.673956	0.306216019060095	-1.0128550735661	-1.40887737498187	-2.02694915901035	-1.71509339404197	-1.40887737498187	-0.306216019060095	-1.40887737498187	-1.0128550735661	-1.40887737498187	-1.71509339404197	1.40887737498187	-9.994857541710381	-5.9439461282497765	-3.923668119167091	-10.306375082516551	-10.218473198513497	-3.923668119167091	-1.8888923738177241	-12.068499429695486	-2.0736418879851017	-9.663723393700645	-0.20389085371622884	4	correct	1.0
489.87309909996156	8.181081200018525	nogo_punish	1.0	489.90232579997974	491.6666412000195	494.18076810002094	1.7643154000397772	490.9069091000133	493.17201659997227	497.22121220000554	0.7597321000062038	1.0087515000486746	0.8621947999927215	496.2152311999821	0.4631394000025466	495.19198770000366	2	1	117	1	nogo_punish	1	-1	0	0	0	1	0	0.0	1.0	0	1.0	0.4631394000025466	2159.733583000023	2649.6359088000027	2650.640492100036	2651.4002242000424	2652.905599599995	2653.914351100044	2654.9255707000266	2655.948814200005	2656.9547952000285	2657.816990000021	2020-08-25 14:46:55.673956	0.32827627896787	-1.0128550735661	-1.33908799639275	-1.92828057363924	-1.66736427536062	-1.33908799639275	-0.32827627896787	-1.33908799639275	-1.0128550735661	-1.33908799639275	-1.66736427536062	1.33908799639275	-9.972797281802606	-5.9439461282497765	-3.8538787405779713	-10.207706497145441	-10.170744079832147	-3.8538787405779713	-1.958681752406844	-11.998710051106366	-2.0259127693037517	-9.593934015111525	-0.20389085371622884	4	correct	1.0
498.07961630000545	8.612411299953237	go_reward	0.3759886999614537	498.1088430000236	499.6699812000152	502.21150610002223	1.5611381999915466	499.11327520001214	501.20075700001325	505.2530608000234	0.5567060000030324	1.0107491000089794	1.468193499953486	504.24625039997045	0.7532059999648482	503.22366309998324	2	1	118	4	go_reward	0	0	1	1	1	1	0	0.0	1.0	0	0.3759886999614537	0.7532059999648482	2159.733583000023	2657.8424260000465	2658.846858200035	2659.403564200038	2660.934340000036	2661.945089100045	2662.957246100006	2663.9798333999934	2664.9866438000463	2666.4548373	2020-08-25 14:46:55.673956	32.9062713049396	22.0042509837717	0.0	22.0042509837717	32.9062713049396	0.0	-32.9062713049396	22.0042509837717	0.0	32.9062713049396	0.0	-22.0042509837717	22.605197744169125	17.073159929088025	-2.514790744185221	13.7248250602655	24.402891500468073	-2.514790744185221	-25.302020732571297	22.246649250225985	-0.3585484939431317	13.749404965052927	0.8089642198498711	4	correct	1.0
506.72074809996457	8.290949099988211	go_reward	0.6737715000053868	506.74997479998274	508.10523210000247	510.6486753000063	1.3552573000197299	507.7549996000016	509.63577709998935	513.6913243000163	0.3502325000008568	1.0128982000169344	1.3495995999546722	512.6851488000252	0.605379200016614	511.65982679999433	2	1	119	4	go_reward	1	1	0	1	1	1	0	0.0	1.0	1	0.6737715000053868	0.605379200016614	2159.733583000023	2666.4835578000057	2667.4885826000245	2667.8388151000254	2669.3693601000123	2670.382258300029	2671.3934098000173	2672.418731800048	2673.424907300039	2674.774506899994	2020-08-25 14:46:55.673956	31.3672829282086	20.9712609300823	0.0	20.9712609300823	31.3672829282086	0.0	-31.3672829282086	20.9712609300823	0.0	31.3672829282086	0.0	19.4125716367711	21.066209367438123	16.04016987539862	-2.514790744185221	12.691835006576097	22.863903123737074	-2.514790744185221	16.114801887971506	20.707660873494984	-0.3585484939431317	12.716414911363524	0.8089642198498711	4	correct	1.0
515.0574590999754	8.464782399998512	go_punish	1.0	515.0866857999936	516.7798364000046	519.298141199979	1.6931506000109948	516.0915551999933	518.284828200005	522.3402160999831	0.6882812000112608	1.013312999974005	1.2112521000090055	521.3330901999725	0.8134879000135697	520.3104475999717	2	1	120	2	go_punish	1	0	-1	1	0	0	0	0.0	1.0	-1	1.0	0.8134879000135697	2159.733583000023	2674.8202688000165	2675.825138200016	2676.5134194000275	2678.018411200028	2679.031724200002	2680.0440305999946	2681.0666731999954	2682.073799100006	2683.285051200015	2020-08-25 14:46:55.673956	-0.0909738438771936	-1.09346390316791	-1.90464862805716	-2.07291895244771	-1.81367478417996	-1.90464862805716	0.0909738438771936	-1.90464862805716	-1.09346390316791	-1.90464862805716	-1.81367478417996	-7.081517762138301	-10.39204740464767	-6.024554957851587	-4.4194393722423815	-10.35234487595391	-10.317054588651487	-4.4194393722423815	-10.379287510937894	-12.564270682770776	-2.172223278123092	-10.159494646775935	-0.284499683318039	4	correct	1.0
