onset	duration	trial_type	response_time	cueOnset	targetOnset	fbOnset	cueRT	firstfixOnset	secondfixOnset	waitOnset	firstfixdur	secondfixdur	waitdur	nback_fbOnset	nback_response_time	nback_targetOnset	block	wm	trial	cue	cond	is_common	outcome_go	outcome_nogo	key_correct	key_pressed	is_correct	key_correct_nback	key_pressed_nback	is_correct_nback	outcome	rt	rt_nback	time_scan	time_onset	time_isi1	time_circle	time_isi2	time_feedback	time_same	time_correct	time_iti	time_done	timestamp_scan	DV	Qgo	Qnogo	SV	Wgo	Wnogo	mDV	Qchosen	Qunchosen	Wchosen	Wunchosen	PE	DVC	QgoC	QnogoC	SVC	WgoC	WnogoC	PEC	WchosenC	WunchosenC	QchosenC	QunchosenC	run	outcome_nback	nback_targetResp
0.0	8.477374400012422	nogo_punish	0.5362899000174366	0.025617900013003236	2.003986900031805	4.5507688000213875	1.9783690000188017	1.029728599998407	3.535536799987085	7.5900860999825	0.974258300033398	1.0152320000343025	0.9129062000429258	6.583077299990464	1.0	5.571666500007041	2	1	1	1	nogo_punish	1	-1	0	0	1	0	0	n/a	0.0	0	0.5362899000174366	1.0	1475.5813599000105	1475.6069778000235	1476.611088500009	1477.5853468000423	1479.1168966999976	1480.132128700032	1481.1530264000176	1482.164437200001	1483.171445999993	1484.084352200036	2020-08-25 14:35:31.522476	0.261738806891838	0.0	0.0	0.0	0.261738806891838	0.0	-0.261738806891838	0.0	0.0	0.261738806891838	0.0	-8.98616639019546	-10.039334753878638	-4.931091054683677	-2.514790744185221	-8.279425923506201	-8.241640997579688	-2.514790744185221	-12.283936138995054	-10.397883247821778	-0.3585484939431317	-8.254846018718775	0.8089642198498711	3	missed	0.0
8.503329099971097	9.357187000045087	nogo_punish	1.0	8.5289469999841	10.860202500014339	13.374289300001465	2.331255500030238	9.534648400032665	12.364991100039106	16.404430399997864	1.325554099981673	1.009298199962359	1.4817036000313237	15.396898799983092	1.0	14.386156800028175	2	1	2	1	nogo_punish	1	-1	0	0	0	1	0	n/a	0.0	0	1.0	1.0	1475.5813599000105	1484.1103068999946	1485.1160083000432	1486.4415624000248	1487.9463510000496	1488.955649200012	1489.9675167000387	1490.9782586999936	1491.9857903000084	1493.4674939000397	2020-08-25 14:35:31.522476	-0.261738806891838	0.0	0.0	0.0	0.261738806891838	0.0	0.261738806891838	0.0	0.0	0.0	0.261738806891838	0.0	-10.562812367662314	-4.931091054683677	-2.514790744185221	-8.279425923506201	-8.241640997579688	-2.514790744185221	-3.297769748799594	-10.659622054713616	-0.09680968705129372	-8.254846018718775	0.8089642198498711	3	missed	0.0
17.89040690002753	8.965028699953109	go_reward	0.6191905000014231	17.91602480004053	19.961271799984388	22.508626800030243	2.0452469999438563	18.91954159998545	21.493594600003917	25.53755140001863	1.0417301999989377	1.0150322000263259	1.3435020999750122	24.528519099985488	1.0	23.51891220000084	2	1	3	4	go_reward	1	1	0	1	1	1	0	n/a	0.0	0	0.6191905000014231	1.0	1475.5813599000105	1493.497384700051	1494.500901499996	1495.542631699995	1497.0749545000144	1498.0899867000408	1499.1002721000114	1500.109878999996	1501.1189113000291	1502.4624134000042	2020-08-25 14:35:31.522476	0.261738806891838	0.0	0.0	0.0	0.261738806891838	0.0	-0.261738806891838	0.0	0.0	0.261738806891838	0.0	40.3838325668534	-10.039334753878638	-4.931091054683677	-2.514790744185221	-8.279425923506201	-8.241640997579688	-2.514790744185221	37.086062818053804	-10.397883247821778	-0.3585484939431317	-8.254846018718775	0.8089642198498711	3	missed	0.0
26.907064199971728	9.6833635000512	go_punish	0.6174255000078119	26.93268209998473	29.6419654000199	32.18294570001285	2.7092833000351675	27.937361799995188	31.172001000027876	35.21147390000965	1.7046036000247113	1.0109446999849752	1.4045717000262812	34.203125900006626	1.0	33.19396689999826	2	1	4	2	go_punish	1	0	-1	1	1	1	0	n/a	0.0	-1	0.6174255000078119	1.0	1475.5813599000105	1502.5140419999952	1503.5187217000057	1505.2233253000304	1506.7533609000384	1507.7643056000234	1508.7753268000088	1509.7844858000171	1510.7928338000202	1512.1974055000464	2020-08-25 14:35:31.522476	0.261738806891838	0.0	0.0	0.0	0.261738806891838	0.0	-0.261738806891838	0.0	0.0	0.261738806891838	0.0	0.0	-10.039334753878638	-4.931091054683677	-2.514790744185221	-8.279425923506201	-8.241640997579688	-2.514790744185221	-3.297769748799594	-10.397883247821778	-0.3585484939431317	-8.254846018718775	0.8089642198498711	3	missed	0.0
36.631704300002184	9.348836800025083	go_punish	0.5992379999952391	36.65732220001519	39.011033900023676	41.55344749998744	2.353711700008489	37.661397700023144	40.544099399994366	44.61450170003786	1.349636200000532	1.0093480999930762	1.3916573000024073	43.60744390002196	0.3108988999738358	42.56553900003178	2	1	5	2	go_punish	1	0	-1	1	1	1	0	0.0	1.0	0	0.5992379999952391	0.3108988999738358	1475.5813599000105	1512.2386821000257	1513.2427576000337	1514.5923938000342	1516.1254593000049	1517.134807399998	1518.1468989000423	1519.1888038000325	1520.1958616000484	1521.5875189000508	2020-08-25 14:35:31.522476	-0.292231233623066	-0.374662700391243	0.0	-0.374662700391243	-0.292231233623066	0.0	0.292231233623066	-0.374662700391243	0.0	-0.292231233623066	0.0	0.374662700391243	-10.593304794393543	-5.305753755074919	-2.514790744185221	-8.654088623897444	-8.795611038094593	-2.514790744185221	-2.923107048408351	-10.951853288336682	-0.3585484939431317	-8.629508719110017	0.8089642198498711	3	correct	1.0
46.0246096000194	8.8362095999762	go_punish	0.5700117000378668	46.050227500032406	47.833330099994555	50.3741970999979	1.7831025999621488	47.05433340003924	49.36445330001857	53.42375369998581	0.7789966999553144	1.0097437999793328	1.4626834000227973	52.417888500028994	0.5590353999868967	51.387300100002676	2	1	6	2	go_punish	1	0	-1	1	1	1	1	1.0	1.0	0	0.5700117000378668	0.5590353999868967	1475.5813599000105	1521.631587400043	1522.6356933000498	1523.414690000005	1524.945813200029	1525.9555570000084	1526.9686600000132	1527.9992484000395	1529.0051135999963	1530.4677970000191	2020-08-25 14:35:31.522476	-0.263536697205557	-0.355393315726537	0.0	-0.355393315726537	-0.263536697205557	0.0	0.263536697205557	-0.355393315726537	0.0	-0.263536697205557	0.0	0.355393315726537	-10.564610257976033	-5.286484370410213	-2.514790744185221	-8.634819239232739	-8.766916501677084	-2.514790744185221	-2.942376433073057	-10.923158751919173	-0.3585484939431317	-8.610239334445312	0.8089642198498711	3	correct	1.0
54.90251340001146	7.977815799997188	go_punish	0.8271108999615535	54.92813130002446	56.27611580002099	58.81894209998404	1.347984499996528	55.93281430000184	57.80580430000532	61.86245439999038	0.3433015000191517	1.0131377999787219	1.0434927000312655	60.85575019998919	0.7277791000087745	59.831532699987065	2	1	7	2	go_punish	0	-1	0	1	1	1	1	1.0	1.0	-1	0.8271108999615535	0.7277791000087745	1475.5813599000105	1530.509491200035	1531.5141742000123	1531.8574757000315	1533.3871642000158	1534.4003019999946	1535.4128925999976	1536.4371100999997	1537.443814300001	1538.4873070000322	2020-08-25 14:35:31.522476	-0.236555832304731	-0.337263376334765	0.0	-0.337263376334765	-0.236555832304731	0.0	0.236555832304731	-0.337263376334765	0.0	-0.236555832304731	0.0	-8.648903013860696	-10.537629393075207	-5.268354431018442	-2.514790744185221	-8.616689299840965	-8.739935636776258	-2.514790744185221	-11.94667276266029	-10.896177887018347	-0.3585484939431317	-8.592109395053539	0.8089642198498711	3	correct	1.0
62.930529200006504	9.278770499979146	nogo_reward	1.0	62.95614710001951	65.71912319998933	68.23690990003502	2.762976099969819	63.961397900013026	67.22373080003285	71.27994370000647	1.7577252999763004	1.0131791000021622	0.9549738999921829	70.27301110001258	0.5983597000013106	69.24791740003252	2	1	8	3	nogo_reward	1	0	1	0	0	1	0	0.0	1.0	1	1.0	0.5983597000013106	1475.5813599000105	1538.53750700003	1539.5427578000235	1541.3004830999998	1542.8050907000434	1543.8182698000455	1544.829277300043	1545.854371000023	1546.861303600017	1547.8162775000092	2020-08-25 14:35:31.522476	-0.261738806891838	0.0	0.0	0.0	0.261738806891838	0.0	0.261738806891838	0.0	0.0	0.0	0.261738806891838	40.3838325668534	-10.562812367662314	-4.931091054683677	-2.514790744185221	-8.279425923506201	-8.241640997579688	-2.514790744185221	37.086062818053804	-10.659622054713616	-0.09680968705129372	-8.254846018718775	0.8089642198498711	3	correct	1.0
72.25263339997059	7.928447500045877	go_punish	0.7286302999709733	72.2782512999836	73.7827058000255	76.3249470000153	1.504454500041902	73.28250179998554	75.31515049998393	79.3685750000293	0.5002040000399575	1.0097965000313707	0.8381238000001758	78.36151180003048	0.6963673999998719	77.3369576000257	2	1	9	2	go_punish	1	0	-1	1	1	1	1	1.0	1.0	0	0.7286302999709733	0.6963673999998719	1475.5813599000105	1547.859611199994	1548.863861699996	1549.364065700036	1550.8965103999944	1551.9063069000258	1552.9183175000362	1553.942871700041	1554.9499349000398	1555.78805870004	2020-08-25 14:35:31.522476	-0.765145421550349	-0.694861081896045	0.0	-0.694861081896045	-0.765145421550349	0.0	0.765145421550349	-0.694861081896045	0.0	-0.765145421550349	0.0	0.694861081896045	-11.066218982320825	-5.625952136579722	-2.514790744185221	-8.974287005402246	-9.268525226021875	-2.514790744185221	-2.602908666903549	-11.424767476263964	-0.3585484939431317	-8.94970710061482	0.8089642198498711	3	correct	1.0
80.22726419998799	8.318442500022002	nogo_reward	1.0	80.25288210000099	81.57530279998878	84.08965720003448	1.3224206999877879	81.25805980002019	83.08027790003666	87.13177550001978	0.3172429999685846	1.0093792999978177	1.4395491000032052	86.12551909999434	0.574670200003311	85.10063380002953	2	1	10	3	nogo_reward	0	1	0	0	0	1	1	1.0	1.0	0	1.0	0.574670200003311	1475.5813599000105	1555.8342420000115	1556.8394197000307	1557.1566626999993	1558.6616378000472	1559.671017100045	1560.68199370004	1561.7068790000048	1562.7131354000303	1564.1526845000335	2020-08-25 14:35:31.522476	0.572656874617521	0.0	1.6275902406866	1.6275902406866	1.05493336606908	1.6275902406866	-0.572656874617521	1.6275902406866	0.0	1.6275902406866	1.05493336606908	-1.6275902406866	-9.728416686152954	-4.931091054683677	-0.887200503498621	-6.651835682819601	-7.4484464384024465	-0.887200503498621	-4.925359989486195	-9.032031814027015	0.6963848721259484	-6.627255778032175	0.8089642198498711	3	correct	1.0
88.58834830002161	9.45495759998471	nogo_reward	1.0	88.61396620003461	91.22601520002331	93.74327650002647	2.6120489999887013	89.61882060003677	92.73036809999007	96.78507270000387	1.607194599986542	1.0129084000363946	1.283851100015454	95.7786683000154	0.8353673000237904	94.75500140001509	2	1	11	3	nogo_reward	1	0	1	0	0	1	0	0.0	1.0	1	1.0	0.8353673000237904	1475.5813599000105	1564.1953261000451	1565.2001805000473	1566.8073751000338	1568.3117280000006	1569.324636400037	1570.3363613000256	1571.360028200026	1572.3664326000144	1573.6502837000298	2020-08-25 14:35:31.522476	0.530671265251074	0.0	1.54400675255288	1.54400675255288	1.0133354873018	1.54400675255288	-0.530671265251074	1.54400675255288	0.0	1.54400675255288	1.0133354873018	38.83982581430052	-9.770402295519402	-4.931091054683677	-0.9707839916323411	-6.735419170953321	-7.490044317169726	-0.9707839916323411	35.54205606550092	-9.115615302160736	0.6547869933586682	-6.710839266165895	0.8089642198498711	3	correct	1.0
98.06834110000659	9.540436299983412	nogo_punish	1.0	98.0939590000196	101.05660170002352	103.57372749998444	2.9626427000039257	99.09827409998957	102.56134040001757	106.61579360003793	1.9583276000339538	1.0123870999668725	1.0186016999650747	105.60946569999192	0.560986700002104	104.58640400000127	2	1	12	1	nogo_punish	1	-1	0	0	0	1	0	0.0	1.0	0	1.0	0.560986700002104	1475.5813599000105	1573.67531890003	1574.679634	1576.637961600034	1578.142700300028	1579.155087399995	1580.1677639000118	1581.1908256000024	1582.1971535000484	1583.2157552000135	2020-08-25 14:35:31.522476	-0.261738806891838	0.0	0.0	0.0	0.261738806891838	0.0	0.261738806891838	0.0	0.0	0.0	0.261738806891838	0.0	-10.562812367662314	-4.931091054683677	-2.514790744185221	-8.279425923506201	-8.241640997579688	-2.514790744185221	-3.297769748799594	-10.659622054713616	-0.09680968705129372	-8.254846018718775	0.8089642198498711	3	correct	1.0
107.63256880000722	9.294116000004578	go_reward	0.4722052999422885	107.65818670002022	109.87605990003772	112.42082739999728	2.217873200017493	108.66188979998674	111.40759240003513	115.46315490000393	1.2141701000509784	1.013234999962151	1.4891478000208735	114.45575170003553	0.6761137999710627	113.43212399998424	2	1	13	4	go_reward	1	1	0	1	1	1	0	0.0	1.0	1	0.4722052999422885	0.6761137999710627	1475.5813599000105	1583.2395466000307	1584.2432496999972	1585.4574198000482	1586.9889523000456	1588.0021873000078	1589.0134838999948	1590.037111600046	1591.0445148000144	1592.5336626000353	2020-08-25 14:35:31.522476	0.261738806891838	0.0	0.0	0.0	0.261738806891838	0.0	-0.261738806891838	0.0	0.0	0.261738806891838	0.0	40.3838325668534	-10.039334753878638	-4.931091054683677	-2.514790744185221	-8.279425923506201	-8.241640997579688	-2.514790744185221	37.086062818053804	-10.397883247821778	-0.3585484939431317	-8.254846018718775	0.8089642198498711	3	correct	1.0
116.9560051999872	8.46310390002327	nogo_punish	1.0	116.9816231000002	118.67436669999711	121.19238690001634	1.692743599996902	117.98626640002453	120.17899939999893	124.23732010001527	0.6881002999725752	1.0133875000174157	1.207406900008209	123.2303207000366	0.8188575000385754	122.20439600001532	2	1	14	1	nogo_punish	0	0	-1	0	0	1	1	0.0	0.0	-1	1.0	0.8188575000385754	1475.5813599000105	1592.5629830000107	1593.567626300035	1594.2557266000076	1595.7603593000094	1596.7737468000269	1597.7857559000258	1598.811680600047	1599.8186800000258	1601.026086900034	2020-08-25 14:35:31.522476	-0.261738806891838	0.0	0.0	0.0	0.261738806891838	0.0	0.261738806891838	0.0	0.0	0.0	0.261738806891838	-8.98616639019546	-10.562812367662314	-4.931091054683677	-2.514790744185221	-8.279425923506201	-8.241640997579688	-2.514790744185221	-12.283936138995054	-10.659622054713616	-0.09680968705129372	-8.254846018718775	0.8089642198498711	3	wrong	1.0
125.46207710000499	8.534124500001553	go_punish	0.5530065999482758	125.487695000018	127.0501505000284	129.59197890001792	1.562455500010401	126.49226020002948	128.58170680003218	132.63622019998706	0.5578902999989168	1.010272099985741	1.3855993000324816	131.6287979999904	0.5092996000312269	130.60417180001946	2	1	15	2	go_punish	1	0	-1	1	1	1	0	0.0	1.0	0	0.5530065999482758	0.5092996000312269	1475.5813599000105	1601.0690549000285	1602.07362010004	1602.631510400039	1604.1630667000427	1605.1733388000284	1606.18553170003	1607.210157900001	1608.2175800999976	1609.60317940003	2020-08-25 14:35:31.522476	-0.712565680345142	-0.659522410809741	0.0	-0.659522410809741	-0.712565680345142	0.0	0.712565680345142	-0.659522410809741	0.0	-0.712565680345142	0.0	0.659522410809741	-11.013639241115618	-5.590613465493417	-2.514790744185221	-8.938948334315942	-9.215945484816668	-2.514790744185221	-2.638247337989853	-11.372187735058757	-0.3585484939431317	-8.914368429528515	0.8089642198498711	3	correct	1.0
134.01988610002468	9.713204799976666	go_reward	0.3865609999629669	134.04550400003768	136.77569149999158	139.31682910001837	2.7301874999538995	135.0501732000264	138.30381479999028	142.3618093000257	1.725518299965188	1.0130143000280896	1.396899499988649	141.35429270000873	0.5812743999995291	140.33004870003765	2	1	16	4	go_reward	1	1	0	1	1	1	0	0.0	1.0	1	0.3865609999629669	0.5812743999995291	1475.5813599000105	1609.6268639000482	1610.631533100037	1612.357051400002	1613.8851747000008	1614.8981890000289	1615.9114086000482	1616.9356526000192	1617.9431692000362	1619.3400687000249	2020-08-25 14:35:31.522476	2.68252360675569	1.6275902406866	0.0	1.6275902406866	2.68252360675569	0.0	-2.68252360675569	1.6275902406866	0.0	2.68252360675569	0.0	38.7562423261668	-7.618549954014786	-3.3035008139970765	-2.514790744185221	-6.651835682819601	-5.820856197715837	-2.514790744185221	35.4584725773672	-7.977098447957926	-0.3585484939431317	-6.627255778032175	0.8089642198498711	3	correct	1.0
143.78004159999568	9.001940899994224	nogo_reward	0.9461342000286096	143.8056595000087	145.77129030000629	148.311543699994	1.965630799997598	144.81014080002183	147.30158080003434	151.33922980003967	0.9611494999844581	1.0099628999596462	1.4683705999632366	150.33091550000222	1.0	149.32167610002193	2	1	17	3	nogo_reward	1	0	1	0	1	0	0	n/a	0.0	1	0.9461342000286096	1.0	1475.5813599000105	1619.3870194000192	1620.3915007000323	1621.3526502000168	1622.8829407000449	1623.8929036000045	1624.9030360000324	1625.9122754000127	1626.9205897000502	1628.3889603000134	2020-08-25 14:35:31.522476	-1.32550942742473	0.0	3.09299543612389	3.09299543612389	1.76748600869917	3.09299543612389	1.32550942742473	0.0	3.09299543612389	1.76748600869917	3.09299543612389	0.0	-11.626582988195207	-4.931091054683677	0.578204691938669	-5.186430487382311	-6.735893795772356	0.578204691938669	-3.297769748799594	-8.892136046014446	2.7344469421807585	-8.254846018718775	3.9019596559737613	3	missed	0.0
152.80760090000717	7.800433599972166	go_reward	0.675359999993816	152.83321880002018	154.10885140002915	156.65173590002792	1.2756326000089757	153.83779990003654	155.63832179998258	159.6976898999999	0.271051499992609	1.0134141000453383	0.9359624999924563	158.68994630000066	0.5869139999849722	157.663506200013	2	1	18	4	go_reward	1	1	0	1	1	1	1	1.0	1.0	1	0.675359999993816	0.5869139999849722	1475.5813599000105	1628.4145787000307	1629.419159800047	1629.6902113000397	1631.219681699993	1632.2330958000384	1633.2448661000235	1634.2713062000112	1635.2790498000104	1636.2150123000029	2020-08-25 14:35:31.522476	4.97812703971853	3.17159699323948	0.0	3.17159699323948	4.97812703971853	0.0	-4.97812703971853	3.17159699323948	0.0	4.97812703971853	0.0	37.21223557361392	-5.3229465210519455	-1.7594940614441965	-2.514790744185221	-5.107828930266721	-3.525252764752996	-2.514790744185221	33.91446582481432	-5.681495014995085	-0.3585484939431317	-5.083249025479295	0.8089642198498711	3	correct	1.0
160.63180229999148	8.339898000005633	go_reward	0.4624422999913804	160.65742020000448	162.50294199999166	165.04516129998933	1.845521799987182	161.6612983000232	164.0317286000352	168.08856599999103	0.841643699968472	1.0134326999541372	0.9087522000190802	167.0810850000123	0.5812351000495255	166.05712820001622	2	1	19	4	go_reward	1	1	0	1	1	1	0	0.0	1.0	1	0.4624422999913804	0.5812351000495255	1475.5813599000105	1636.238780100015	1637.2426582000337	1638.0843019000022	1639.6130885000457	1640.6265211999998	1641.6384881000267	1642.6624449000228	1643.6699259000015	1644.5786781000206	2020-08-25 14:35:31.522476	7.1560848777859	4.63700218867677	0.0	4.63700218867677	7.1560848777859	0.0	-7.1560848777859	4.63700218867677	0.0	7.1560848777859	0.0	35.74683037817663	-3.144988682984576	-0.29408886600690654	-2.514790744185221	-3.642423734829431	-1.3472949266856267	-2.514790744185221	32.44906062937704	-3.5035371769277157	-0.3585484939431317	-3.6178438300420046	0.8089642198498711	3	correct	1.0
168.99532059999206	9.37021900003333	go_reward	0.4717081999988295	169.02093850000506	171.59153410000704	174.1366980000164	2.5705956000019796	170.02547709998885	173.12267429998587	177.17999080003915	1.5660570000181906	1.0140237000305206	1.2111666999992394	176.1725833000378	0.5836826000013389	175.14755900000432	2	1	20	4	go_reward	1	1	0	1	1	1	1	0.0	0.0	1	0.4717081999988295	0.5836826000013389	1475.5813599000105	1644.6022984000156	1645.6068369999994	1647.1728940000175	1648.7040341999964	1649.718057900027	1650.7289189000148	1651.7539432000483	1652.7613507000497	1653.972517400049	2020-08-25 14:35:31.522476	9.22343064616297	6.0284592059652	0.0	6.0284592059652	9.22343064616297	0.0	-9.22343064616297	6.0284592059652	0.0	9.22343064616297	0.0	34.3553733608882	-1.0776429146075053	1.0973681512815237	-2.514790744185221	-2.250966717541001	0.7200508416914442	-2.514790744185221	31.057603612088606	-1.4361914085506449	-0.3585484939431317	-2.2263868127535744	0.8089642198498711	3	wrong	1.0
178.41003660002048	9.255679399997689	nogo_reward	0.3988946999888867	178.43565450003348	180.9153997999963	183.45977449999168	2.479745299962815	179.4408603000336	182.445804000017	186.50214799999958	1.4745394999627024	1.0139704999746755	1.189185900031589	185.4957762000265	0.5478415999677964	184.47245110000927	2	1	21	3	nogo_reward	0	1	0	0	1	0	0	0.0	1.0	1	0.3988946999888867	0.5478415999677964	1475.5813599000105	1654.017014400044	1655.022220200044	1656.4967597000068	1658.0271639000275	1659.0411344000022	1660.0538110000198	1661.077136100037	1662.08350790001	1663.2726938000417	2020-08-25 14:35:31.522476	1.01701360213041	1.6275902406866	3.09299543612389	4.56305401052791	4.1100090382543	3.09299543612389	-1.01701360213041	1.6275902406866	3.09299543612389	4.1100090382543	3.09299543612389	38.7562423261668	-9.284059958640066	-3.3035008139970765	0.578204691938669	-3.716371912978291	-4.3933707662172266	0.578204691938669	35.4584725773672	-6.549613016459316	2.7344469421807585	-6.627255778032175	3.9019596559737613	3	correct	1.0
187.70981660002167	7.849730199959595	go_punish	0.7590168000315316	187.73543450003467	189.09835089999228	191.64021929999558	1.3629163999576122	188.73973130003992	190.62887990003196	194.68310900003394	0.3586195999523625	1.0113393999636173	0.9020556999603286	193.67658150003967	0.8576242999988608	192.65154120000057	2	1	22	2	go_punish	1	0	-1	1	1	1	0	0.0	1.0	0	0.7590168000315316	0.8576242999988608	1475.5813599000105	1663.3167944000452	1664.3210912000504	1664.6797108000028	1666.2102398000425	1667.221579200006	1668.232901100011	1669.2579414000502	1670.2644689000444	1671.1665246000048	2020-08-25 14:35:31.522476	-0.663097164967727	-0.62625452539044	0.0	-0.62625452539044	-0.663097164967727	0.0	0.663097164967727	-0.62625452539044	0.0	-0.663097164967727	0.0	0.62625452539044	-10.964170725738203	-5.5573455800741165	-2.514790744185221	-8.905680448896641	-9.166476969439254	-2.514790744185221	-2.671515223409154	-11.322719219681343	-0.3585484939431317	-8.881100544109215	0.8089642198498711	3	correct	1.0
195.60257099999603	8.240662899974268	go_punish	0.5668292999616824	195.62818890000904	197.06354920001445	199.60276959999442	1.4353603000054136	196.63267289998453	198.59351020003646	202.64580860000547	0.4308763000299223	1.0092593999579549	1.2230431999778375	201.63938110001595	0.9323096000007354	200.6169766000237	2	1	23	2	go_punish	1	0	-1	1	1	1	0	0.0	1.0	0	0.5668292999616824	0.9323096000007354	1475.5813599000105	1671.2095488000195	1672.214032799995	1672.644909100025	1674.174870100047	1675.184129500005	1676.1983365000342	1677.2207410000265	1678.227168500016	1679.4502116999938	2020-08-25 14:35:31.522476	-0.616535834047066	-0.594923060149706	0.0	-0.594923060149706	-0.616535834047066	0.0	0.616535834047066	-0.594923060149706	0.0	-0.616535834047066	0.0	0.594923060149706	-10.917609394817543	-5.526014114833383	-2.514790744185221	-8.874348983655906	-9.119915638518593	-2.514790744185221	-2.7028466886498883	-11.276157888760682	-0.3585484939431317	-8.84976907886848	0.8089642198498711	3	correct	1.0
203.86905350000598	8.633076599973947	nogo_punish	1.0	203.89467140001898	205.73106100002747	208.2460965000207	1.8363896000084878	204.89923099998828	207.23615449998738	211.2916044000301	0.83183000003919	1.009942000033334	1.2361435999628156	210.28551690001018	0.5939626999897882	209.2604478999856	2	1	24	1	nogo_punish	1	-1	0	0	0	1	0	0.0	1.0	0	1.0	0.5939626999897882	1475.5813599000105	1679.4760313000295	1680.4805908999988	1681.312420900038	1682.817514399998	1683.8274564000312	1684.841807799996	1685.8668768000207	1686.8729643000406	1688.1091079000034	2020-08-25 14:35:31.522476	-0.45709416715942	0.0	-0.374662700391243	-0.374662700391243	0.0824314667681771	-0.374662700391243	0.45709416715942	-0.374662700391243	0.0	-0.374662700391243	0.0824314667681771	0.374662700391243	-10.758167727929896	-4.931091054683677	-2.889453444576464	-8.654088623897444	-8.420948337703349	-2.889453444576464	-2.923107048408351	-11.034284755104858	-0.2761170271749546	-8.629508719110017	0.8089642198498711	3	correct	1.0
212.54762059997324	8.718247700016946	nogo_reward	0.7396135000162758	212.57323849998625	214.7417155000146	217.28763440001035	2.1684770000283606	213.5773058999912	216.27230459998805	220.33150690002344	1.1644096000234185	1.0153298000223003	0.9599792999797501	219.32507770002098	0.92807389999507	218.30132160003973	2	1	25	3	nogo_reward	0	1	0	0	1	0	0	0.0	1.0	1	0.7396135000162758	0.92807389999507	1475.5813599000105	1688.1545983999968	1689.1586658000017	1690.3230754000251	1691.8536644999986	1692.8689943000209	1693.8826815000502	1694.9064376000315	1695.912866800034	1696.8728461000137	2020-08-25 14:35:31.522476	3.23912827506471	3.17159699323948	3.09299543612389	5.95885920714754	6.3321237111886	3.09299543612389	-3.23912827506471	3.17159699323948	3.09299543612389	6.3321237111886	3.09299543612389	37.21223557361392	-7.061945285705766	-1.7594940614441965	0.578204691938669	-2.3205667163586607	-2.171256093282927	0.578204691938669	33.91446582481432	-4.327498343525016	2.7344469421807585	-5.083249025479295	3.9019596559737613	3	correct	1.0
221.30696269997884	8.73945160000585	go_punish	0.7660826000501402	221.33258059999184	223.0973482999832	225.64125220000255	1.7647676999913529	222.33704060001742	224.6280860999832	228.68298219999997	0.7603076999657787	1.0131661000193617	1.3890499999977237	227.6764999000004	0.8593299000058323	226.65205670002592	2	1	26	2	go_punish	0	-1	0	1	1	1	0	0.0	1.0	-1	0.7660826000501402	0.8593299000058323	1475.5813599000105	1696.9139405000024	1697.918400500028	1698.6787081999937	1700.2094459999937	1701.222612100013	1702.2334166000364	1703.257859800011	1704.2643421000105	1705.6533921000082	2020-08-25 14:35:31.522476	-0.572692124631137	-0.565403081378899	0.0	-0.565403081378899	-0.572692124631137	0.0	0.572692124631137	-0.565403081378899	0.0	-0.572692124631137	0.0	-8.42076330881656	-10.873765685401613	-5.496494136062576	-2.514790744185221	-8.8448290048851	-9.076071929102664	-2.514790744185221	-11.718533057616154	-11.232314179344753	-0.3585484939431317	-8.820249100097673	0.8089642198498711	3	correct	1.0
230.08867610001494	8.36223039997276	go_punish	1.0	230.11429400002794	231.67687590001128	234.19443500001194	1.5625818999833427	231.11834710004018	233.18185130000325	237.23851190000983	0.5585287999710999	1.0125837000086904	1.238012499990873	236.23074530001008	0.917934300028719	235.2074299000085	2	1	27	2	go_punish	1	0	-1	1	0	0	0	0.0	1.0	-1	1.0	0.917934300028719	1475.5813599000105	1705.6956539000385	1706.6997070000507	1707.2582358000218	1708.7632112000138	1709.7757949000224	1710.788789800019	1711.8121052000206	1712.8198718000203	1714.0578843000112	2020-08-25 14:35:31.522476	1.08535989743932	-0.912241081594354	0.0	-0.912241081594354	-1.08535989743932	0.0	-1.08535989743932	0.0	-0.912241081594354	0.0	-1.08535989743932	-8.98616639019546	-9.215713663331156	-5.843332136278031	-2.514790744185221	-9.191667005100555	-9.588739701910846	-2.514790744185221	-12.283936138995054	-10.659622054713616	-1.4439083913824518	-8.254846018718775	-0.10327686174448292	3	correct	1.0
238.49706909997644	8.903901300043799	nogo_reward	0.3464614999829791	238.52268699998945	240.94976570003178	243.49155510001538	2.4270787000423297	239.52715730003524	242.48133839998604	246.5343787000163	1.422608399996534	1.010216700029332	0.8922096000169404	245.52781649999065	0.8634977000183426	244.5029028999852	2	1	28	3	nogo_reward	1	0	1	0	1	0	0	0.0	1.0	0	0.3464614999829791	0.8634977000183426	1475.5813599000105	1714.1040469	1715.1085172000458	1716.5311256000423	1718.0626982999966	1719.072915000026	1720.0842627999957	1721.1091764000012	1722.1157386000268	1723.0079482000438	2020-08-25 14:35:31.522476	5.34804742335724	4.63700218867677	3.09299543612389	7.28478079681368	8.44104285948114	3.09299543612389	-5.34804742335724	4.63700218867677	3.09299543612389	8.44104285948114	3.09299543612389	-4.63700218867677	-4.953026137413236	-0.29408886600690654	0.578204691938669	-0.9946451266925207	-0.062336944990386556	0.578204691938669	-7.934771937476365	-2.2185791952324756	2.7344469421807585	-3.6178438300420046	3.9019596559737613	3	correct	1.0
247.4285698999886	9.17578799999319	nogo_punish	1.0	247.4541878000016	250.2128147000326	252.72609380003973	2.758626900031004	248.4590248999882	251.71702360000904	255.76758490002226	1.7537898000443874	1.009070200030692	0.8623908999725245	254.76165150001157	0.5749767000088468	253.73840370000084	2	1	29	1	nogo_punish	1	-1	0	0	0	1	0	0.0	1.0	0	1.0	0.5749767000088468	1475.5813599000105	1723.035547700012	1724.0403847999987	1725.794174600043	1727.2983835000196	1728.3074537000502	1729.3197636000114	1730.343011400022	1731.3489448000328	1732.2113357000053	2020-08-25 14:35:31.522476	-0.447249934247517	0.0	-0.355393315726537	-0.355393315726537	0.0918566185209804	-0.355393315726537	0.447249934247517	-0.355393315726537	0.0	-0.355393315726537	0.0918566185209804	0.355393315726537	-10.748323495017994	-4.931091054683677	-2.8701840599117583	-8.634819239232739	-8.411523185950546	-2.8701840599117583	-2.942376433073057	-11.015015370440153	-0.26669187542215134	-8.610239334445312	0.8089642198498711	3	correct	1.0
256.64895800000545	8.62920700001996	go_punish	1.0	256.67457590001845	258.40161340002646	260.9152666000298	1.7270375000080094	257.6795234000306	259.90636520000385	263.9585527000015	0.7220899999958874	1.008901400025934	1.3452302000368945	262.95269250002434	0.717573200003244	261.9267703000221	2	1	30	2	go_punish	0	-1	0	1	0	0	0	0.0	1.0	0	1.0	0.717573200003244	1475.5813599000105	1732.255935800029	1733.260883300041	1733.982973300037	1735.4877251000144	1736.4966265000403	1737.5081302000326	1738.5340524000349	1739.539912600012	1740.885142800049	2020-08-25 14:35:31.522476	0.867892308763305	-0.912241081594354	-0.374662700391243	-1.24139684356495	-1.24255500915455	-0.374662700391243	-0.867892308763305	-0.374662700391243	-0.912241081594354	-0.374662700391243	-1.24255500915455	0.374662700391243	-9.43318125200717	-5.843332136278031	-2.889453444576464	-9.52082276707115	-9.745934813626077	-2.889453444576464	-2.923107048408351	-11.034284755104858	-1.601103503097682	-8.629508719110017	-0.10327686174448292	3	correct	1.0
265.3213600000022	8.222523999982286	nogo_reward	0.4229722000309266	265.3469779000152	267.00953149999236	269.55105740000704	1.6625535999771728	266.35217319999333	268.5406068000009	272.5919388000034	0.6573582999990322	1.010450600006152	0.9775630999940859	271.585697800037	0.6432752999826334	270.56329590000655	2	1	31	3	nogo_reward	1	0	1	0	1	0	0	0.0	1.0	0	0.4229722000309266	0.6432752999826334	1475.5813599000105	1740.9283378000257	1741.9335331000038	1742.5908914000029	1744.1219667000114	1745.1324173000176	1746.144655800017	1747.1670577000475	1748.173298700014	1749.150861800008	2020-08-25 14:35:31.522476	4.92972037581041	4.40086896527859	3.09299543612389	6.91731308007132	8.0227158119343	3.09299543612389	-4.92972037581041	4.40086896527859	3.09299543612389	8.0227158119343	3.09299543612389	-4.40086896527859	-5.371353184960066	-0.5302220894050862	0.578204691938669	-1.3621128434348808	-0.48066399253722736	0.578204691938669	-7.698638714078184	-2.6369062427793164	2.7344469421807585	-3.8539770534401843	3.9019596559737613	3	correct	1.0
273.5692993999694	8.488972000021022	go_reward	0.9652684000320731	273.5949172999824	275.50112209998747	278.0449318999888	1.9062048000050709	274.59999730001414	277.030937300005	281.0871812999826	0.9011247999733314	1.0139945999837892	0.996708000020817	280.0809194000319	0.6100991000421345	279.05629560002103	2	1	32	4	go_reward	1	1	0	1	1	1	0	0.0	1.0	1	0.9652684000320731	0.6100991000421345	1475.5813599000105	1749.176277199993	1750.1813572000246	1751.082481999998	1752.6122972000155	1753.6262917999993	1754.6376555000315	1755.6622793000424	1756.6685411999931	1757.665249200014	2020-08-25 14:35:31.522476	11.1867316934737	7.35031622443596	0.0	7.35031622443596	11.1867316934737	0.0	-11.1867316934737	7.35031622443596	0.0	11.1867316934737	0.0	33.03351634241744	0.8856581327032238	2.4192251697522833	-2.514790744185221	-0.9291096990702412	2.6833518890021733	-2.514790744185221	29.735746593617847	0.5271096387600842	-0.3585484939431317	-0.9045297942828148	0.8089642198498711	3	correct	1.0
282.0856344000206	8.88969369995175	nogo_punish	1.0	282.1112523000336	284.3973132999961	286.9126832000327	2.2860609999625012	283.1172692000398	285.90204339998286	289.95470609999006	1.2800440999562852	1.0106398000498302	1.0462398999952711	288.9483429000245	0.4291765000089071	287.9250423000192	2	1	33	1	nogo_punish	1	-1	0	0	0	1	0	0.0	1.0	0	1.0	0.4291765000089071	1475.5813599000105	1757.692612200044	1758.6986291000503	1759.9786732000066	1761.4834032999934	1762.4940431000432	1763.5064022000297	1764.529702800035	1765.5360660000006	1766.5823058999958	2020-08-25 14:35:31.522476	-0.4379709203648	0.0	-0.337263376334765	-0.337263376334765	0.100707544030035	-0.337263376334765	0.4379709203648	-0.337263376334765	0.0	-0.337263376334765	0.100707544030035	0.337263376334765	-10.739044481135275	-4.931091054683677	-2.852054120519986	-8.616689299840965	-8.402672260441491	-2.852054120519986	-2.9605063724648293	-10.99688543104838	-0.2578409499130967	-8.592109395053539	0.8089642198498711	3	correct	1.0
290.9991110999838	8.860619999992196	go_reward	0.5455640000291169	291.0247289999968	292.84268180001504	295.38418200000865	1.8179528000182472	292.02940330002434	294.3737184000199	298.4287450999834	0.8132784999907017	1.010463599988725	1.4566039000055753	297.4219493999842	0.343303499976173	296.3960929000166	2	1	34	4	go_reward	0	0	1	1	1	1	1	1.0	1.0	0	0.5455640000291169	0.343303499976173	1475.5813599000105	1766.6060889000073	1767.6107632000349	1768.4240417000256	1769.9550783000304	1770.9655419000192	1771.977452800027	1773.0033092999947	1774.010104999994	1775.4667088999995	2020-08-25 14:35:31.522476	13.0521225149288	8.60663781528445	0.0	8.60663781528445	13.0521225149288	0.0	-13.0521225149288	8.60663781528445	0.0	13.0521225149288	0.0	-8.60663781528445	2.7510489541583247	3.675546760600774	-2.514790744185221	0.3272118917782496	4.548742710457274	-2.514790744185221	-11.904407564084044	2.392500460215185	-0.3585484939431317	0.35179179656567605	0.8089642198498711	3	correct	1.0
299.88699939998355	9.279887599986978	nogo_punish	1.0	299.91261729999655	302.6818163000278	305.1972049000324	2.7691990000312217	300.91691159998277	304.18724649999035	308.2386201000186	1.7649047000450082	1.0099584000420236	0.9538847999649533	307.2325920999863	0.3850578999845311	306.21025679999707	2	1	35	1	nogo_punish	1	-1	0	0	0	1	1	1.0	1.0	0	1.0	0.3850578999845311	1475.5813599000105	1775.493977200007	1776.4982714999933	1778.2631762000383	1779.7686064000009	1780.778564800043	1781.7916167000076	1782.8139519999968	1783.819980000029	1784.773864799994	2020-08-25 14:35:31.522476	-0.429221381974159	0.0	-0.320198381504802	-0.320198381504802	0.109023000469356	-0.320198381504802	0.429221381974159	-0.320198381504802	0.0	-0.320198381504802	0.109023000469356	0.320198381504802	-10.730294942744635	-4.931091054683677	-2.834989125690023	-8.599624305011003	-8.39435680400217	-2.834989125690023	-2.977571367294792	-10.979820436218418	-0.24952549347377573	-8.575044400223577	0.8089642198498711	3	correct	1.0
309.1931402999908	8.280475000036176	nogo_punish	1.0	309.2187582000038	310.5787340000386	313.09276949998434	1.3599758000348174	310.2227686999829	312.0840231000327	316.1500580999998	0.3559653000556864	1.008746399951633	1.3491751000401564	315.14338150003437	0.9972723000100814	314.10399640002265	2	1	36	1	nogo_punish	1	-1	0	0	0	1	0	1.0	0.0	0	1.0	0.9972723000100814	1475.5813599000105	1784.8001181000143	1785.8041285999934	1786.160093900049	1787.6653830000432	1788.6741293999949	1789.6853563000332	1790.7247414000449	1791.7314180000103	1793.0805931000505	2020-08-25 14:35:31.522476	-0.42096801391866	0.0	-0.304129095083204	-0.304129095083204	0.116838918835456	-0.304129095083204	0.42096801391866	-0.304129095083204	0.0	-0.304129095083204	0.116838918835456	0.304129095083204	-10.722041574689136	-4.931091054683677	-2.818919839268425	-8.583555018589404	-8.386540885636071	-2.818919839268425	-2.99364065371639	-10.963751149796819	-0.2417095751076757	-8.558975113801978	0.8089642198498711	3	wrong	1.0
317.5010640000112	8.872746100009408	nogo_punish	1.0	317.5266819000242	319.5289709999922	322.0419718000337	2.0022890999680385	318.53150730003813	321.03382000001125	325.08468510000944	0.9974636999540962	1.0081518000224605	1.3147429000241573	324.078485000005	0.4070858000195585	323.0541820999931	2	1	37	1	nogo_punish	1	-1	0	0	0	1	1	1.0	1.0	0	1.0	0.4070858000195585	1475.5813599000105	1793.1080418000347	1794.1128672000486	1795.1103309000027	1796.6151799000218	1797.6233317000442	1798.6355420000036	1799.6598449000155	1800.66604500002	1801.980787900044	2020-08-25 14:35:31.522476	-0.413179772340191	0.0	-0.288991149055675	-0.288991149055675	0.124188623284516	-0.288991149055675	0.413179772340191	-0.288991149055675	0.0	-0.288991149055675	0.124188623284516	0.288991149055675	-10.714253333110667	-4.931091054683677	-2.803781893240896	-8.568417072561877	-8.37919118118701	-2.803781893240896	-3.008778599743919	-10.948613203769291	-0.2343598706586157	-8.54383716777445	0.8089642198498711	3	correct	1.0
326.4036541000246	8.676869999966357	nogo_punish	1.0	326.4292720000376	328.3477014999951	330.8630423999855	1.9184294999574831	327.4326734000347	329.85237780003786	333.90790099999845	0.9150280999604092	1.0106645999476314	1.1982410000055097	332.9006801000214	0.5744561999454163	331.87680600001454	2	1	38	1	nogo_punish	1	-1	0	0	0	1	1	1.0	1.0	0	1.0	0.5744561999454163	1475.5813599000105	1802.010631900048	1803.0140333000452	1803.9290614000056	1805.4337377000484	1806.444402299996	1807.458165900025	1808.482040000032	1809.489260900009	1810.6875019000145	2020-08-25 14:35:31.522476	-0.405827711170026	0.0	-0.274724678644904	-0.274724678644904	0.131103032525122	-0.274724678644904	0.405827711170026	-0.274724678644904	0.0	-0.274724678644904	0.131103032525122	0.274724678644904	-10.706901271940502	-4.931091054683677	-2.7895154228301253	-8.554150602151106	-8.372276771946405	-2.7895154228301253	-3.02304507015469	-10.93434673335852	-0.2274454614180097	-8.52957069736368	0.8089642198498711	3	correct	1.0
335.12417800002754	8.02059339999687	go_punish	1.0	335.14979590004054	336.647733299993	339.16486200003396	1.4979373999524341	336.15490259998455	338.1523308000176	342.2076336999887	0.492830700008426	1.012531200016383	0.9627556000486948	341.2013867000346	0.6317400999832898	340.17663040000457	2	1	39	2	go_punish	1	0	-1	1	0	0	0	0.0	1.0	-1	1.0	0.6317400999832898	1475.5813599000105	1810.731155800051	1811.736262499995	1812.2290932000035	1813.733690700028	1814.7462219000445	1815.757990300015	1816.7827466000451	1817.7889935999992	1818.751749200048	2020-08-25 14:35:31.522476	0.85693732916291	-0.912241081594354	-0.355393315726537	-1.1792464567438	-1.21233064488945	-0.355393315726537	-0.85693732916291	-0.355393315726537	-0.912241081594354	-0.355393315726537	-1.21233064488945	-8.630773074468923	-9.444136231607565	-5.843332136278031	-2.8701840599117583	-9.45867238025	-9.715710449360976	-2.8701840599117583	-11.928542823268517	-11.015015370440153	-1.5708791388325816	-8.610239334445312	-0.10327686174448292	3	correct	1.0
343.18721770000457	7.85761800000887	go_punish	1.0	343.21283560001757	344.7700584999982	347.289008199994	1.5572228999806157	344.2180695999991	346.27493750001304	350.3171813000224	0.5519888999990599	1.0140706999809481	0.7532723000040278	349.30997020000314	1.0	348.3009254999922	2	1	40	2	go_punish	1	0	-1	1	0	0	0	n/a	0.0	-1	1.0	1.0	1475.5813599000105	1818.794195500028	1819.7994295000096	1820.3514184000087	1821.8562974000235	1822.8703681000045	1823.8822854000027	1824.8913301000136	1825.898541200033	1826.651813500037	2020-08-25 14:35:31.522476	0.651287996630308	-0.912241081594354	-0.711926076726008	-1.49535592045598	-1.36321407335632	-0.711926076726008	-0.651287996630308	-0.711926076726008	-0.912241081594354	-0.711926076726008	-1.36321407335632	-8.274240313469452	-9.649785564140167	-5.843332136278031	-3.2267168209112294	-9.774781843962181	-9.866593877827846	-3.2267168209112294	-11.572010062269046	-11.371548131439624	-1.7217625672994519	-8.966772095444783	-0.10327686174448292	3	missed	0.0
351.07162449997895	9.546985300024744	nogo_punish	1.0	351.09724239999196	353.6156389000239	356.13135280000256	2.5183965000319404	352.1023936999843	355.1200857000074	359.17579479998653	1.5132452000395915	1.011267099995166	1.468432900030166	358.1683818000015	0.5738962000468746	357.1443498000151	2	1	41	1	nogo_punish	1	-1	0	0	0	1	0	0.0	1.0	0	1.0	0.5738962000468746	1475.5813599000105	1826.6786023000025	1827.6837535999948	1829.1969988000344	1830.701445600018	1831.712712700013	1832.7257097000256	1833.749741700012	1834.757154699997	1836.2255876000272	2020-08-25 14:35:31.522476	-0.398884831099839	0.0	-0.261273986295695	-0.261273986295695	0.137610844804144	-0.261273986295695	0.398884831099839	-0.261273986295695	0.0	-0.261273986295695	0.137610844804144	0.261273986295695	-10.699958391870315	-4.931091054683677	-2.776064730480916	-8.540699909801896	-8.365768959667383	-2.776064730480916	-3.036495762503899	-10.92089604100931	-0.2209376491389877	-8.51612000501447	0.8089642198498711	3	correct	1.0
360.66447379998885	8.798499700031698	nogo_reward	0.3720372999669052	360.69009170000186	363.12926830002107	365.67330010002456	2.439176600019209	361.69478439999466	364.6590306999858	368.7161212000062	1.4344839000264074	1.0142694000387564	0.7724702000273282	367.7098622000192	0.8939001000253484	366.6843716999863	2	1	42	3	nogo_reward	0	1	0	0	1	0	0	0.0	1.0	1	0.3720372999669052	0.8939001000253484	1475.5813599000105	1836.2714516000124	1837.2761443000052	1838.7106282000316	1840.2403905999963	1841.254660000035	1842.2657315999968	1843.2912221000297	1844.2974811000167	1845.069951300044	2020-08-25 14:35:31.522476	4.53640297601147	4.17871923119648	3.09299543612389	6.57144919534251	7.62939841213536	3.09299543612389	-4.53640297601147	4.17871923119648	3.09299543612389	7.62939841213536	3.09299543612389	36.20511333565692	-5.764670584759006	-0.7523718234871968	0.578204691938669	-1.7079767281636915	-0.8739813923361668	0.578204691938669	32.90734358685732	-3.030223642578256	2.7344469421807585	-4.076126787522295	3.9019596559737613	3	correct	1.0
369.48896990000526	8.210977200011257	nogo_punish	1.0	369.51458780001826	371.3631277999955	373.8776987000015	1.8485399999772198	370.5188951999878	372.86765840003477	376.92033849999984	0.8442326000076719	1.010040299966704	0.8052265000296757	375.9141434000335	0.6456185000133701	374.88973829999986	2	1	43	1	nogo_punish	1	-1	0	0	0	1	1	1.0	1.0	0	1.0	0.6456185000133701	1475.5813599000105	1845.0959477000288	1846.1002550999983	1846.944487700006	1848.4490183000453	1849.459058600012	1850.4710982000104	1851.495503300044	1852.5016984000104	1853.30692490004	2020-08-25 14:35:31.522476	-0.392325940033453	0.0	-0.248587232147436	-0.248587232147436	0.143738707886016	-0.248587232147436	0.392325940033453	-0.248587232147436	0.0	-0.248587232147436	0.143738707886016	0.248587232147436	-10.69339950080393	-4.931091054683677	-2.763377976332657	-8.528013155653637	-8.359641096585511	-2.763377976332657	-3.049182516652158	-10.908209286861052	-0.2148097860571157	-8.50343325086621	0.8089642198498711	3	correct	1.0
377.72406089998526	9.013684300007526	go_reward	0.3089906999957748	377.74967879999826	380.29041050001956	382.8365177999942	2.540731700021297	378.7540288000014	381.82205750001594	385.8801157000123	1.5363817000181825	1.014460299978282	0.8832473999934791	384.8738960000335	0.8119650000007823	383.84839950001356	2	1	44	4	go_reward	1	1	0	1	1	1	0	0.0	1.0	1	0.3089906999957748	0.8119650000007823	1475.5813599000105	1853.3310387000088	1854.335388700012	1855.87177040003	1857.4034174000265	1858.4178777000047	1859.429759400024	1860.455255900044	1861.4614756000228	1862.3447230000163	2020-08-25 14:35:31.522476	12.4045507481821	8.17363467091981	0.0	8.17363467091981	12.4045507481821	0.0	-12.4045507481821	8.17363467091981	0.0	12.4045507481821	0.0	32.21019789593359	2.103477187411624	3.2425436162361336	-2.514790744185221	-0.10579125258639088	3.9011709437105733	-2.514790744185221	28.912428147133994	1.7449286934684842	-0.3585484939431317	-0.08121134779896444	0.8089642198498711	3	correct	1.0
386.76417089998745	9.80044339998858	go_reward	0.4070582000422291	386.78978880000045	389.62116370000854	392.163339600025	2.831374900008086	387.79462430003355	391.15091540000844	395.20717050001235	1.8265393999749904	1.0124242000165395	1.383061699976679	394.20018650003453	0.7006518000271171	393.176748800033	2	1	45	4	go_reward	1	1	0	1	1	1	0	0.0	1.0	1	0.4070582000422291	0.7006518000271171	1475.5813599000105	1862.371148700011	1863.375984200044	1865.202523600019	1866.732275300019	1867.7446995000355	1868.7581087000435	1869.781546400045	1870.7885304000229	1872.1715920999995	2020-08-25 14:35:31.522476	14.2161262092624	9.39362653235108	0.0	9.39362653235108	14.2161262092624	0.0	-14.2161262092624	9.39362653235108	0.0	14.2161262092624	0.0	30.99020603450232	3.9150526484919244	4.462535477667403	-2.514790744185221	1.1142006088448788	5.712746404790874	-2.514790744185221	27.692436285702726	3.5565041545487848	-0.3585484939431317	1.1387805136323053	0.8089642198498711	3	correct	1.0
396.5949131000093	8.029012300015665	nogo_punish	1.0	396.6205310000223	398.08943520003186	400.605586200021	1.468904200009547	397.6257843000342	399.59456320002187	403.64936510001985	0.46365089999767406	1.0110229999991134	1.0001782000181265	402.6414445000114	0.4803355000331066	401.6188801000244	2	1	46	1	nogo_punish	1	-1	0	0	0	1	0	0.0	1.0	0	1.0	0.4803355000331066	1475.5813599000105	1872.2018909000328	1873.2071442000447	1873.6707951000424	1875.1759231000324	1876.1869461000315	1877.200240000035	1878.222804400022	1879.2307250000304	1880.2309032000485	2020-08-25 14:35:31.522476	-0.386127524103306	0.0	-0.236616148802267	-0.236616148802267	0.14951137530104	-0.236616148802267	0.386127524103306	-0.236616148802267	0.0	-0.236616148802267	0.14951137530104	0.236616148802267	-10.687201084873783	-4.931091054683677	-2.751406892987488	-8.516042072308467	-8.353868429170486	-2.751406892987488	-3.061153599997327	-10.896238203515882	-0.2090371186420917	-8.49146216752104	0.8089642198498711	3	correct	1.0
404.651088999992	8.37045079999325	nogo_punish	0.4976325000170618	404.676706900005	406.21751590003237	408.7620692999915	1.540809000027366	405.6810990000374	407.7482394000399	411.804995300015	0.536416899994947	1.0138298999515882	1.2421623999832718	410.7987488000067	0.7281276999856345	409.7743627000016	2	1	47	1	nogo_punish	1	-1	0	0	1	0	0	0.0	1.0	-1	0.4976325000170618	0.7281276999856345	1475.5813599000105	1880.2580668000155	1881.262458900048	1881.7988758000429	1883.3295993000504	1884.343429200002	1885.355722600012	1886.3801087000172	1887.3863552000255	1888.6285176000088	2020-08-25 14:35:31.522476	0.380267628412068	0.0	-0.225315778386807	-0.225315778386807	0.154951850025261	-0.225315778386807	-0.380267628412068	0.0	-0.225315778386807	0.154951850025261	-0.225315778386807	-8.98616639019546	-9.920805932358409	-4.931091054683677	-2.7401065225720282	-8.504741701893009	-8.348427954446265	-2.7401065225720282	-12.283936138995054	-10.504670204688354	-0.5838642723299388	-8.254846018718775	0.583648441463064	3	correct	1.0
413.0450769999884	7.9379962999958025	go_reward	0.5766920000314713	413.0706949000014	414.4016629999967	416.94513180002104	1.3309680999952889	414.0755054000183	415.9324475000026	419.987657700025	0.3261575999783872	1.0126843000184635	1.0210334999721908	418.98087410000153	0.6100074999849312	417.9581589000295	2	1	48	4	go_reward	1	1	0	1	1	1	0	0.0	1.0	1	0.5766920000314713	0.6100074999849312	1475.5813599000105	1888.652054800012	1889.6568653000288	1889.9830229000072	1891.513807400013	1892.5264917000316	1893.53951880004	1894.562234000012	1895.5690176000355	1896.5900511000077	2020-08-25 14:35:31.522476	15.9383585486943	10.5537854500257	0.0	10.5537854500257	15.9383585486943	0.0	-15.9383585486943	10.5537854500257	0.0	15.9383585486943	0.0	29.8300471168277	5.637284987923824	5.622694395342023	-2.514790744185221	2.2743595265194987	7.434978744222773	-2.514790744185221	26.532277368028105	5.278736493980684	-0.3585484939431317	2.298939431306925	0.8089642198498711	3	correct	1.0
421.0078109999888	7.762560400006123	go_reward	0.4858125000027939	421.0334289000018	422.4536051999894	424.99663410003996	1.4201762999875882	422.0383091000256	423.98303030000557	428.03966740000715	0.4152960999638253	1.0136038000343888	0.7563219000007848	427.0334563000358	0.6784351000096649	426.0089984000074	2	1	49	4	go_reward	1	1	0	1	1	1	0	0.0	1.0	1	0.4858125000027939	0.6784351000096649	1475.5813599000105	1896.6147888000123	1897.619669000036	1898.0349651	1899.564390200016	1900.5779940000505	1901.590358300018	1902.6148162000463	1903.6210273000177	1904.3773492000184	2020-08-25 14:35:31.522476	17.5764386982231	11.6575554570842	0.0	11.6575554570842	17.5764386982231	0.0	-17.5764386982231	11.6575554570842	0.0	17.5764386982231	0.0	28.7262771097692	7.275365137452624	6.726464402400524	-2.514790744185221	3.378129533577999	9.073058893751574	-2.514790744185221	25.428507360969604	6.916816643509485	-0.3585484939431317	3.4027094383654255	0.8089642198498711	3	correct	1.0
428.8165747000021	8.5745973999733	go_punish	1.0	428.8421926000151	430.62655660003634	433.1460744999931	1.7843640000212417	429.8465964000204	432.1310565000165	436.17477700003633	0.7799602000159211	1.015017999976635	1.2420129999520668	435.16788520000387	1.0	434.1589674000279	2	1	50	2	go_punish	1	0	-1	1	0	0	0	n/a	0.0	-1	1.0	1.0	1475.5813599000105	1904.4235525000256	1905.427956300031	1906.2079165000468	1907.712416400027	1908.7274344000036	1909.7403273000384	1910.7492451000144	1911.7561369000468	1912.998149899999	2020-08-25 14:35:31.522476	0.456099075515667	-0.912241081594354	-1.05025439762258	-1.79556209792648	-1.50635347313825	-1.05025439762258	-0.456099075515667	-1.05025439762258	-0.912241081594354	-1.05025439762258	-1.50635347313825	-7.935911992572881	-9.84497448525481	-5.843332136278031	-3.565045141807801	-10.07498802143268	-10.009733277609776	-3.565045141807801	-11.233681741372475	-11.709876452336196	-1.8649019670813818	-9.305100416341354	-0.10327686174448292	3	missed	0.0
437.4175478999973	8.051245199982077	nogo_punish	1.0	437.4431658000103	439.0098693000034	441.524957599991	1.566703499993082	438.44754389999434	440.5147773000058	444.56660140003055	0.5623254000090583	1.0101802999852225	0.9278095999618472	443.55927030002954	0.4932201000046916	442.535936	2	1	51	1	nogo_punish	1	-1	0	0	0	1	0	0.0	1.0	0	1.0	0.4932201000046916	1475.5813599000105	1913.0245257000208	1914.0289038000049	1914.591229200014	1916.0961372000163	1917.1063175000015	1918.1172959000105	1919.14063020004	1920.147961300041	1921.075770900003	2020-08-25 14:35:31.522476	0.168572745476292	-0.374662700391243	-0.225315778386807	-0.589306930468972	-0.393888523863099	-0.225315778386807	-0.168572745476292	-0.225315778386807	-0.374662700391243	-0.225315778386807	-0.393888523863099	0.225315778386807	-10.132500815294184	-5.305753755074919	-2.7401065225720282	-8.868732853975173	-8.897268328334626	-2.7401065225720282	-3.072453970412787	-10.884937833100423	-0.7524370178062307	-8.480161797105582	0.4343015194586281	3	correct	1.0
445.51587150001455	9.322851200005971	nogo_reward	0.426771100028418	445.54148940002756	448.01054990000557	450.5516290999942	2.4690604999780135	446.54611550003756	449.5406862000234	453.5952486000024	1.4644343999680132	1.0109428999708143	1.2690920000311507	452.58909040002595	0.6531991999945603	451.5630261999902	2	1	52	3	nogo_reward	1	0	1	0	1	0	0	0.0	1.0	0	0.426771100028418	0.6531991999945603	1475.5813599000105	1921.122849300038	1922.127475400048	1923.591909800016	1925.122046100034	1926.1329890000047	1927.1443861000007	1928.1704503000365	1929.176608500013	1930.445700500044	2020-08-25 14:35:31.522476	6.58722112854729	5.59722586729428	3.09299543612389	7.87337032417531	9.68021656467118	3.09299543612389	-6.58722112854729	5.59722586729428	3.09299543612389	9.68021656467118	3.09299543612389	-5.59722586729428	-3.7138524322231863	0.6661348126106033	0.578204691938669	-0.40605559933089097	1.176836760199654	0.578204691938669	-8.894995616093874	-0.9794054900424349	2.7344469421807585	-2.657620151424495	3.9019596559737613	3	correct	1.0
454.8817243999804	9.354015499993693	go_punish	0.2900361999636516	454.9073422999934	457.3300641000385	459.86959790001833	2.4227218000451103	455.91288489999715	458.85985539999024	462.91297880001343	1.4171792000413461	1.0097425000280964	1.3483789999736473	461.9065463999864	0.6794850000296719	460.8828067000138	2	1	53	2	go_punish	1	0	-1	1	1	1	0	0.0	1.0	0	0.2900361999636516	0.6794850000296719	1475.5813599000105	1930.488702200004	1931.4942448000077	1932.911424000049	1934.4412153000007	1935.4509578000288	1936.4641666000243	1937.487906299997	1938.494338700024	1939.8427176999976	2020-08-25 14:35:31.522476	-0.270763821758979	-0.912241081594354	-1.37144848753575	-2.08078946187515	-1.64221230929473	-1.37144848753575	0.270763821758979	-0.912241081594354	-1.37144848753575	-1.64221230929473	-1.37144848753575	0.912241081594354	-10.571837382529456	-5.843332136278031	-3.886239231720971	-10.360215385381352	-10.145592113766256	-3.886239231720971	-2.3855286672052403	-12.301834364008347	-1.7299969814788816	-9.167087100313129	-0.5624842676858789	3	correct	1.0
464.25952510000207	8.859509499976866	go_reward	0.3711292999796569	464.28514300001507	466.1460607000042	468.6900292999924	1.8609176999891588	465.2896925000239	467.67666410002835	471.73399959999347	0.8563681999803521	1.0133651999640279	1.4106528999984675	470.72683780000057	0.5564607999986038	469.70078700000863	2	1	54	4	go_reward	1	1	0	1	1	1	0	0.0	1.0	1	0.3711292999796569	0.5564607999986038	1475.5813599000105	1939.8665029000256	1940.8710524000344	1941.7274206000147	1943.2580240000389	1944.271389200003	1945.2821469000191	1946.308197700011	1947.315359500004	1948.7260124000024	2020-08-25 14:35:31.522476	19.1352211538601	12.7081596676746	0.0	12.7081596676746	19.1352211538601	0.0	-19.1352211538601	12.7081596676746	0.0	19.1352211538601	0.0	27.6756728991788	8.834147593089625	7.777068612990924	-2.514790744185221	4.428733744168399	10.631841349388575	-2.514790744185221	24.377903150379204	8.475599099146486	-0.3585484939431317	4.453313648955826	0.8089642198498711	3	correct	1.0
473.1702676999853	8.753161600033991	nogo_reward	0.4620047999778762	473.1958855999983	475.2392670999975	477.77805329998955	2.0433814999992137	474.2002927000283	476.76814280002145	480.8198020000125	1.03897439996922	1.0099104999681003	1.1292452000197954	479.81361890002154	0.5445171000319533	478.7898448000194	2	1	55	3	nogo_reward	1	0	1	0	1	0	0	0.0	1.0	0	0.4620047999778762	0.5445171000319533	1475.5813599000105	1948.7772455000088	1949.7816526000388	1950.820627000008	1952.349502700032	1953.3594132	1954.37120470003	1955.394978800032	1956.401161900023	1957.5304071000428	2020-08-25 14:35:31.522476	6.11388367742434	5.31677245819409	3.09299543612389	7.48300266040125	9.20687911354824	3.09299543612389	-6.11388367742434	5.31677245819409	3.09299543612389	9.20687911354824	3.09299543612389	-5.31677245819409	-4.187189883346136	0.38568140351041347	0.578204691938669	-0.796423263104951	0.7034993090767134	0.578204691938669	-8.614542206993685	-1.4527429411653756	2.7344469421807585	-2.9380735605246846	3.9019596559737613	3	correct	1.0
481.9511155000075	7.796458099968959	nogo_punish	1.0	481.9767334000205	483.44555470003957	485.96384330000706	1.4688213000190444	482.9806517999966	484.9503733000015	489.0065618000224	0.46490290004294366	1.0134700000055545	0.7666296999670976	487.9998266000182	0.616161199985072	486.97606399998745	2	1	56	1	nogo_punish	0	0	-1	0	0	1	0	0.0	1.0	-1	1.0	0.616161199985072	1475.5813599000105	1957.558093300031	1958.5620117000071	1959.02691460005	1960.531733200012	1961.5452032000176	1962.557423899998	1963.5811865000287	1964.587921700033	1965.3545514	2020-08-25 14:35:31.522476	0.164980395664086	-0.374662700391243	-0.21464423007773	-0.55995577214496	-0.379624625741816	-0.21464423007773	-0.164980395664086	-0.21464423007773	-0.374662700391243	-0.21464423007773	-0.379624625741816	-8.771522160117732	-10.13609316510639	-5.305753755074919	-2.729434974262951	-8.839381695651161	-8.883004430213342	-2.729434974262951	-12.069291908917325	-10.874266284791345	-0.7381731196849477	-8.469490248796504	0.4343015194586281	3	correct	1.0
489.79307070002005	8.396765099954337	go_punish	0.4319629000383429	489.81868860003306	491.47031460003905	494.0124118000383	1.6516260000059901	490.82351790001826	493.0018849000335	497.0570424000032	0.6467967000207864	1.0105269000048338	1.158411299984209	496.05046170001106	0.3797857000026852	495.0254126000216	2	1	57	2	go_punish	1	0	-1	1	1	1	0	0.0	1.0	0	0.4319629000383429	0.3797857000026852	1475.5813599000105	1965.4000485000436	1966.4048778000288	1967.0516745000496	1968.583244800044	1969.5937717000488	1970.606772500032	1971.6318216000216	1972.6384023000137	1973.796813599998	2020-08-25 14:35:31.522476	-0.174960435971767	-0.866734143173708	-1.37144848753575	-1.97724016872991	-1.54640892350752	-1.37144848753575	0.174960435971767	-0.866734143173708	-1.37144848753575	-1.54640892350752	-1.37144848753575	0.866734143173708	-10.476033996742244	-5.797825197857384	-3.886239231720971	-10.256666092236111	-10.049788727979047	-3.886239231720971	-2.431035605625886	-12.206030978221136	-1.7299969814788816	-9.121580161892483	-0.5624842676858789	3	correct	1.0
498.23453399998857	8.147529000008944	nogo_reward	0.5592504999949597	498.2601519000016	499.61399899999356	502.15306219999866	1.353847099991981	499.26408540003445	501.14292579999824	505.198317900009	0.349913599959109	1.0101364000004196	1.209363000001531	504.191576000012	0.6842316000256687	503.16318110004045	2	1	58	3	nogo_reward	1	0	1	0	1	0	0	0.0	1.0	0	0.5592504999949597	0.6842316000256687	1475.5813599000105	1973.841511800012	1974.845445300045	1975.195358900004	1976.7242857000087	1977.7344221000092	1978.744541000051	1979.7729359000225	1980.7796778000195	1981.989040800021	2020-08-25 14:35:31.522476	5.66846206436212	5.05272225590529	3.09299543612389	7.11528382823712	8.76145750048601	3.09299543612389	-5.66846206436212	5.05272225590529	3.09299543612389	8.76145750048601	3.09299543612389	-5.05272225590529	-4.632611496408356	0.12163120122161342	0.578204691938669	-1.1641420952690815	0.2580776960144835	0.578204691938669	-8.350492004704885	-1.8981645542276055	2.7344469421807585	-3.2021237628134847	3.9019596559737613	3	correct	1.0
506.4072012000254	8.462106699997094	go_reward	0.3643486999790184	506.4328191000384	507.8250248000254	510.3668938000335	1.3922056999870165	507.43708070000844	509.35319699998945	513.4096986000075	0.38794410001696633	1.0136968000440447	1.4852272000280209	512.4026719999963	0.5334028999786824	511.37988540000515	2	1	59	4	go_reward	1	1	0	1	1	1	0	0.0	1.0	1	0.3643486999790184	0.5334028999786824	1475.5813599000105	1982.014179000049	1983.018440600019	1983.406384700036	1984.9345569	1985.948253700044	1986.9612453000157	1987.9840319000068	1988.991058500018	1990.476285700046	2020-08-25 14:35:31.522476	20.6192475874201	13.7086156219876	0.0	13.7086156219876	20.6192475874201	0.0	-20.6192475874201	13.7086156219876	0.0	20.6192475874201	0.0	26.675216944865802	10.318174026649626	8.777524567303923	-2.514790744185221	5.429189698481398	12.115867782948575	-2.514790744185221	23.377447196066207	9.959625532706486	-0.3585484939431317	5.4537696032688245	0.8089642198498711	3	correct	1.0
514.9156617000122	8.34916169999633	go_punish	0.3304615999804809	514.9412796000252	516.6069311000174	519.1453013999856	1.6656514999922365	515.946410000033	518.1354473000388	522.1879208000025	0.6605210999844076	1.0098540999467787	1.1025205000189544	521.1818461000219	0.5305808000266552	520.1567256000124	2	1	60	2	go_punish	1	0	-1	1	1	1	0	0.0	1.0	0	0.3304615999804809	0.5305808000266552	1475.5813599000105	1990.5226395000357	1991.5277699000435	1992.188291000028	1993.7168072000493	1994.726661299996	1995.7380855000229	1996.7632060000324	1997.769280700013	1998.871801200032	2020-08-25 14:35:31.522476	-0.084764193370142	-0.823853141017268	-1.37144848753575	-1.87965570844278	-1.45621268090589	-1.37144848753575	0.084764193370142	-0.823853141017268	-1.37144848753575	-1.45621268090589	-1.37144848753575	0.823853141017268	-10.385837754140619	-5.754944195700944	-3.886239231720971	-10.15908163194898	-9.959592485377417	-3.886239231720971	-2.473916607782326	-12.115834735619506	-1.7299969814788816	-9.078699159736043	-0.5624842676858789	3	correct	1.0
