onset	duration	trial_type	response_time	cueOnset	targetOnset	fbOnset	cueRT	firstfixOnset	secondfixOnset	waitOnset	firstfixdur	secondfixdur	waitdur	nback_fbOnset	nback_response_time	nback_targetOnset	block	wm	trial	cue	cond	is_common	outcome_go	outcome_nogo	key_correct	key_pressed	is_correct	key_correct_nback	key_pressed_nback	is_correct_nback	outcome	rt	rt_nback	time_scan	time_onset	time_isi1	time_circle	time_isi2	time_feedback	time_same	time_correct	time_iti	time_done	timestamp_scan	DV	Qgo	Qnogo	SV	Wgo	Wnogo	mDV	Qchosen	Qunchosen	Wchosen	Wunchosen	PE	DVC	QgoC	QnogoC	SVC	WgoC	WnogoC	PEC	WchosenC	WunchosenC	QchosenC	QunchosenC	run	outcome_nback	nback_targetResp
0.0	5.9185697999784	go_reward	0.3037846999941394	0.02771659998677478	1.5325943999923766	4.0769916999852285	1.5048778000056018	1.0324099999852479	3.0631084999768063	5.084607600001618	0.5001844000071287	1.0138832000084221	0.8616787999635562	n/a	1.0	n/a	1	0	61	3	go_reward	1	1	0	1	1	1	0	n/a	n/a	1	0.3037846999941394	1.0	910.2994229999604	910.3271395999471	911.3318329999456	911.8320173999527	913.3625314999372	914.3764146999456	n/a	n/a	915.384030599962	916.2457093999255	2020-09-10 10:29:02.883798	158.519426560925	90.2228118864601	0.0	90.2228118864601	158.519426560925	0.0	-158.519426560925	90.2228118864601	0.0	158.519426560925	0.0	3.9801521007250074	140.01102409926767	81.09229984275957	-10.219430034592081	70.93428768152529	135.88291151608973	-10.219430034592081	-1.4147373985290503	132.83725279038262	-7.1737713088850334	71.28006133641168	-0.40719152824423954	2	missed	0.0
5.96173420001287	7.408651000005193	go_punish	1.0	5.989450799999645	8.40995610004768	10.928576700040026	2.4205053000480348	6.993896899977585	9.915115499985404	11.935913700028436	1.4160592000700944	1.0134612000546213	1.4621880999764016	n/a	1.0	n/a	1	0	62	1	go_punish	1	0	-1	1	0	0	1	n/a	n/a	-1	1.0	1.0	910.2994229999604	916.28887379996	917.293319899938	918.709379100008	920.2145384999458	921.2279997000004	n/a	n/a	922.2353366999888	923.6975247999652	2020-09-10 10:29:02.883798	0.274998172950402	0.0	-2.2682924106519	-2.2682924106519	-2.5432905836023	-2.2682924106519	-0.274998172950402	-2.2682924106519	0.0	-2.2682924106519	-2.5432905836023	-0.1356337267858101	-18.23340428870694	-9.130512043700517	-12.487722445243982	-21.5568166155867	-25.179805628437578	-12.487722445243982	-5.530523226039868	-27.950466181194297	-9.717061892487333	-21.211042960700322	-0.40719152824423954	2	missed	0.0
13.412813500035668	6.912170000025185	nogo_punish	1.0	13.440530100022443	15.416818900033832	17.935463099973276	1.976288800011389	14.445791400037592	16.92180410004221	18.94217140006367	0.9710274999962394	1.0136589999310672	1.4105286999839564	n/a	1.0	n/a	1	0	63	2	nogo_punish	0	0	-1	0	0	1	0	n/a	n/a	-1	1.0	1.0	910.2994229999604	923.7399530999828	924.745214399998	925.7162418999942	927.2212271000026	928.2348860999336	n/a	n/a	929.241594400024	930.652123100008	2020-09-10 10:29:02.883798	1.72690688176869	-1.17579396744572	-1.48861217324972	-1.62789706522931	-3.21551905501841	-1.48861217324972	-1.72690688176869	-1.48861217324972	-1.17579396744572	-1.48861217324972	-3.21551905501841	-0.9153139641879899	-16.78149557988865	-10.306306011146237	-11.708042207841801	-20.91642127016411	-25.85203409985369	-11.708042207841801	-6.310203463442048	-27.17078594379212	-10.389290363903443	-20.431362723298143	-1.5829854956899596	2	missed	0.0
20.36658480006747	7.263920599943958	nogo_reward	1.0	20.394301400054246	22.747239700052774	25.263108900049588	2.3529382999985273	21.399414299987257	24.25273429998208	26.270809200010262	1.347825400065517	1.0103746000675073	1.387412799987942	n/a	1.0	n/a	1	0	64	4	nogo_reward	0	1	0	0	0	1	0	n/a	n/a	0	1.0	1.0	910.2994229999604	930.6937244000146	931.6988372999476	933.0466627000131	934.5521572999425	935.56253190001	n/a	n/a	936.5702321999706	937.9576449999586	2020-09-10 10:29:02.883798	15.3710660341728	0.0	61.8397093961183	61.8397093961183	46.4686433619456	61.8397093961183	-15.3710660341728	61.8397093961183	0.0	61.8397093961183	46.4686433619456	-61.8397093961183	-3.1373364274845397	-9.130512043700517	51.62027936152622	42.5511851911835	23.832128317110325	51.62027936152622	-67.23459889537236	36.1575356255759	39.29487205306057	42.89695884606988	-0.40719152824423954	2	missed	0.0
27.673715800047034	7.033140299958177	nogo_punish	1.0	27.70143240003381	29.743996200035212	32.258606699993834	2.0425638000014033	28.706731899990814	31.249334400054067	33.2666064000224	1.0372643000443986	1.0092722999397665	1.4679662999695893	n/a	1.0	n/a	1	0	65	2	nogo_punish	1	-1	0	0	0	1	1	n/a	n/a	0	1.0	1.0	910.2994229999604	938.0008553999942	939.0061548999512	940.0434191999956	941.5487574000144	942.5580296999542	n/a	n/a	943.5660293999828	945.0339956999524	2020-09-10 10:29:02.883798	1.59413551113992	-1.17579396744572	-1.89263015854632	-1.97336412884032	-3.48676566968624	-1.89263015854632	-1.59413551113992	-1.89263015854632	-1.17579396744572	-1.89263015854632	-3.48676566968624	1.89263015854632	-16.91426695051742	-10.306306011146237	-12.1120601931384	-21.261888333775122	-26.123280714521517	-12.1120601931384	-3.5022593407077376	-27.57480392908872	-10.660536978571272	-20.835380708594744	-1.5829854956899596	2	missed	0.0
34.75451940007042	6.572409299900869	go_reward	0.2967340999748558	34.782236000057196	36.69964580005046	39.24454270000558	1.9174097999932656	35.786162100033835	38.23055269999884	40.252344300039226	0.9134837000166272	1.0139900000067428	1.102300999918839	n/a	1.0	n/a	1	0	66	3	go_reward	1	1	0	1	1	1	0	n/a	n/a	1	0.2967340999748558	1.0	910.2994229999604	945.0816590000176	946.0855850999942	946.9990688000108	948.5299756999592	949.543965699966	n/a	n/a	950.5517672999996	951.6540682999184	2020-09-10 10:29:02.883798	161.005699470997	91.6287845097433	0.0	91.6287845097433	161.005699470997	0.0	-161.005699470997	91.6287845097433	0.0	161.005699470997	0.0	2.5741794774418025	142.49729700933966	82.49827246604278	-10.219430034592081	72.3402603048085	138.36918442616172	-10.219430034592081	-2.820710021812255	135.3235257004546	-7.1737713088850334	72.68603395969487	-0.40719152824423954	2	missed	0.0
41.36992049997207	6.5565467000708395	go_punish	0.2779392999364063	41.39763709995884	43.062452299986035	45.60126829997159	1.664815200027192	42.40258420002647	44.591470799990816	46.6085978000192	0.6598680999595672	1.0097974999807775	1.345586000010485	n/a	1.0	n/a	1	0	67	1	go_punish	1	0	-1	1	1	1	0	n/a	n/a	0	0.2779392999364063	1.0	910.2994229999604	951.6970600999192	952.7020071999868	953.3618752999464	954.8908937999512	955.900691299932	n/a	n/a	956.9080207999796	958.25360679999	2020-09-10 10:29:02.883798	-0.265255996791575	0.0	-2.31437963742453	-2.31437963742453	-2.57963563421611	-2.31437963742453	0.265255996791575	0.0	-2.31437963742453	-2.57963563421611	-2.31437963742453	0.0	-18.773658458448914	-9.130512043700517	-12.533809672016611	-21.602903842359332	-25.21615067905139	-12.533809672016611	-5.394889499254058	-28.26180940475851	-9.488150946309563	-18.942750550048423	-2.7215711656687693	2	missed	0.0
47.968731299974024	7.522822300088819	nogo_punish	1.0	47.9964478999608	50.75807029998407	53.272989699966274	2.7616224000232705	49.0013037000316	52.26350180001464	54.28067730006285	1.7567665999524706	1.0094878999516368	1.2385928999867701	n/a	1.0	n/a	1	0	68	2	nogo_punish	1	-1	0	0	0	1	0	n/a	n/a	0	1.0	1.0	910.2994229999604	958.2958708999212	959.300726699992	961.0574932999444	962.562924799975	963.5724126999266	n/a	n/a	964.5801003000232	965.81869320001	2020-09-10 10:29:02.883798	1.78336017791559	-1.17579396744572	-0.920688657276519	-0.969945863809425	-2.70404883519211	-0.920688657276519	-1.78336017791559	-0.920688657276519	-1.17579396744572	-0.920688657276519	-2.70404883519211	0.920688657276519	-16.72504228374175	-10.306306011146237	-11.1401186918686	-20.258470068744227	-25.34056388002739	-11.1401186918686	-4.474200841977539	-26.602862427818916	-9.877820144077143	-19.86343920732494	-1.5829854956899596	2	missed	0.0
55.533240600023646	6.176506999996377	go_punish	1.0	55.56095720001042	57.3767314000288	59.891500400030054	1.8157742000183816	56.56578930001706	58.88181220006663	60.898939499980884	0.8109421000117436	1.0096881999634206	0.8385247000259142	n/a	1.0	n/a	1	0	69	1	go_punish	0	-1	0	1	0	0	1	n/a	n/a	0	1.0	1.0	910.2994229999604	965.8603801999708	966.8652122999774	967.6761543999892	969.181235200027	970.1909233999904	n/a	n/a	971.1983624999413	972.0368871999672	2020-09-10 10:29:02.883798	-0.631442817429976	0.0	-2.31437963742453	-1.16644323716046	-1.68293681999456	-2.31437963742453	0.631442817429976	-2.31437963742453	0.0	-2.31437963742453	-1.68293681999456	2.31437963742453	-19.139845279087318	-9.130512043700517	-12.533809672016611	-20.454967442095263	-24.319451864829837	-12.533809672016611	-3.080509861829528	-27.99655340796693	-8.856708128879593	-21.257130187472953	-0.40719152824423954	2	missed	0.0
61.751528900000494	6.338104799971802	nogo_reward	1.0	61.77924549998727	63.82542040001124	66.34365040005639	2.0461749000239706	62.78419559996121	65.33007589995407	67.35056699998688	1.0412248000500313	1.0135745001023224	0.7667832999721895	n/a	1.0	n/a	1	0	70	4	nogo_reward	1	0	1	0	0	1	0	n/a	n/a	1	1.0	1.0	910.2994229999604	972.0786684999476	973.0836185999216	974.1248433999716	975.6294988999144	976.6430734000168	n/a	n/a	977.6499899999473	978.4167732999194	2020-09-10 10:29:02.883798	7.82286691854787	0.0	30.1815732063188	30.1815732063188	22.3587062877709	30.1815732063188	-7.82286691854787	30.1815732063188	0.0	30.1815732063188	22.3587062877709	64.0213907808663	-10.68553554310947	-9.130512043700517	19.962143171726716	10.893049001383996	-0.2778087570643777	19.962143171726716	58.62650128161224	4.4993994357764	15.184934978885867	11.238822656270376	-0.40719152824423954	2	missed	0.0
68.1311994000572	6.746064199949615	nogo_reward	1.0	68.15891600004397	69.99443079996843	72.51270680001483	1.8355147999244537	69.16424439998798	71.49978129996441	73.51976060005848	0.8301863999804482	1.0129255000504145	1.3852195999351125	n/a	1.0	n/a	1	0	71	4	nogo_reward	1	0	1	0	0	1	0	n/a	n/a	1	1.0	1.0	910.2994229999604	978.4583390000043	979.4636673999483	980.2938537999288	981.7992042999248	982.8121297999752	n/a	n/a	983.8191836000188	985.204403199954	2020-09-10 10:29:02.883798	15.7877322215238	0.0	63.6185460507756	63.6185460507756	47.8308138292518	63.6185460507756	-15.7877322215238	63.6185460507756	0.0	63.6185460507756	47.8308138292518	30.5844179364095	-2.72067024013354	-9.130512043700517	53.39911601618352	44.3300218458408	25.194298784416524	53.39911601618352	25.189528437155445	37.9363722802332	40.65704252036677	44.675795500727176	-0.40719152824423954	2	missed	0.0
74.92867699998908	7.03382870007772	go_reward	0.2772600000025704	74.95639359997585	77.68604269996285	80.22863450006128	2.7296490999870002	75.96178440004587	79.2151660999516	81.23647740005981	1.7242582999169827	1.013468400109673	0.7537448999937624	n/a	1.0	n/a	1	0	72	3	go_reward	1	1	0	1	1	1	0	n/a	n/a	1	0.2772600000025704	1.0	910.2994229999604	985.2558165999362	986.2612074000062	987.9854656999232	989.514589099912	990.5280575000216	n/a	n/a	991.5359004000202	992.289645300014	2020-09-10 10:29:02.883798	162.461405937389	92.4534983391439	0.0	92.4534983391439	162.461405937389	0.0	-162.461405937389	92.4534983391439	0.0	162.461405937389	0.0	1.7494656480411948	143.95300347573166	83.32298629544339	-10.219430034592081	73.1649741342091	139.82489089255373	-10.219430034592081	-3.645423851212863	136.7792321668466	-7.1737713088850334	73.51074778909549	-0.40719152824423954	2	missed	0.0
82.00380349997442	7.703073400072867	nogo_reward	1.0	82.0315200999612	84.73977200000081	87.25808739999763	2.7082519000396132	83.03664439998101	86.24508789996605	88.265666399966	1.7031276000197977	1.012999500031583	1.468927100068072	n/a	1.0	n/a	1	0	73	4	nogo_reward	1	0	1	0	0	1	1	n/a	n/a	1	1.0	1.0	910.2994229999604	992.3309430999216	993.3360673999414	995.0391949999612	996.5445108999264	997.557510399958	n/a	n/a	998.5650893999264	1000.0340164999944	2020-09-10 10:29:02.883798	19.1108829798361	0.0	77.9299501471844	77.9299501471844	58.8190671673483	77.9299501471844	-19.1108829798361	77.9299501471844	0.0	77.9299501471844	58.8190671673483	16.2730138400007	0.6024805181787585	-9.130512043700517	67.71052011259232	58.6414259422496	36.18255212251302	67.71052011259232	10.878124340746643	52.247776376642	51.64529585846327	58.98719959713598	-0.40719152824423954	2	missed	0.0
89.7489843000659	6.311278600012997	go_reward	0.3021471000974998	89.77670090005267	91.63530780002486	94.17782840004645	1.8586068999721874	90.78149870003108	93.16482379997603	95.18591100000765	0.8538090999937822	1.013004600070417	0.9020685000580215	n/a	1.0	n/a	1	0	74	3	go_reward	1	1	0	1	1	1	1	n/a	n/a	1	0.3021471000974998	1.0	910.2994229999604	1000.076123900013	1001.0809216999914	1001.9347307999852	1003.4642467999364	1004.4772514000068	n/a	n/a	1005.485333999968	1006.387402500026	2020-09-10 10:29:02.883798	163.359311967677	92.9636126491295	0.0	92.9636126491295	163.359311967677	0.0	-163.359311967677	92.9636126491295	0.0	163.359311967677	0.0	1.2393513380555987	144.85090950601966	83.83310060542898	-10.219430034592081	73.6750884441947	140.72279692284172	-10.219430034592081	-4.155538161198459	137.6771381971346	-7.1737713088850334	74.02086209908109	-0.40719152824423954	2	missed	0.0
96.10295149998285	5.857979400083423	nogo_punish	1.0	96.13066809996963	97.55159759998787	100.06784350005921	1.4209295000182465	97.13793480000459	99.05791540001519	101.07639729999926	0.41366279998328537	1.0099281000440214	0.9122502000537906	n/a	1.0	n/a	1	0	75	2	nogo_punish	1	-1	0	0	0	1	0	n/a	n/a	0	1.0	1.0	910.2994229999604	1006.43009109993	1007.437357799965	1007.8510205999482	1009.3573383999756	1010.3672665000196	n/a	n/a	1011.3758202999596	1012.2880705000134	2020-09-10 10:29:02.883798	1.86067320399013	-1.17579396744572	-0.4937074685288	-0.525061602669288	-2.35438067251893	-0.4937074685288	-1.86067320399013	-0.4937074685288	-1.17579396744572	-0.4937074685288	-2.35438067251893	0.4937074685288	-16.64772925766721	-10.306306011146237	-10.713137503120882	-19.813585807604092	-24.990895717354206	-10.713137503120882	-4.901182030725257	-26.1758812390712	-9.528151981403964	-19.436458018577223	-1.5829854956899596	2	missed	0.0
102.01116049999848	7.128956599975936	go_reward	0.2754825999727472	102.03887709998526	104.61088589997962	107.1591523999814	2.5720087999943644	103.04486200003885	106.14668450003967	108.16768860002048	1.5660238999407738	1.0124678999417256	1.0001450999407098	n/a	1.0	n/a	1	0	76	3	go_reward	0	0	1	1	1	1	1	n/a	n/a	0	0.2754825999727472	1.0	910.2994229999604	1012.3383000999456	1013.3442849999992	1014.91030889994	1016.4461075	1017.4585753999418	n/a	n/a	1018.4671115999809	1019.4672566999216	2020-09-10 10:29:02.883798	163.938123147388	93.2936281085594	0.0	93.2936281085594	163.938123147388	0.0	-163.938123147388	93.2936281085594	0.0	163.938123147388	0.0	-93.2936281085594	145.42972068573067	84.16311606485888	-10.219430034592081	74.0051039036246	141.30160810255273	-10.219430034592081	-98.68851760781347	138.25594937684562	-7.1737713088850334	74.35087755851097	-0.40719152824423954	2	missed	0.0
109.20626370003447	6.185635700007083	nogo_punish	1.0	109.23398030002124	111.13768809998885	113.65633190004166	1.9037077999676058	110.23823739995726	112.64253369998187	114.66335270006675	0.8994507000315934	1.0137982000597958	0.7562632999615744	n/a	1.0	n/a	1	0	77	2	nogo_punish	0	0	-1	0	0	1	1	n/a	n/a	-1	1.0	1.0	910.2994229999604	1019.5334032999816	1020.5376603999176	1021.4371110999492	1022.9419566999422	1023.955754900002	n/a	n/a	1024.9627757000271	1025.7190389999887	2020-09-10 10:29:02.883798	1.89614636002493	-1.17579396744572	-0.285035181224942	-0.305718380361024	-2.18118154124987	-0.285035181224942	-1.89614636002493	-0.285035181224942	-1.17579396744572	-0.285035181224942	-2.18118154124987	-2.118890956212768	-16.61225610163241	-10.306306011146237	-10.504465215817023	-19.594242585295827	-24.817696586085148	-10.504465215817023	-7.513780455466826	-25.96720895176734	-9.354952850134904	-19.227785731273364	-1.5829854956899596	2	missed	0.0
115.43486989999667	5.907618700060993	go_reward	0.2778088999912143	115.46258649998344	117.01758270000573	119.55805230000988	1.5549962000222877	116.46716670005117	118.54829649999715	120.5649873999646	0.5504159999545664	1.0097558000127265	0.8052178000798449	n/a	1.0	n/a	1	0	78	3	go_reward	0	0	1	1	1	1	1	n/a	n/a	0	0.2778088999912143	1.0	910.2994229999604	1025.7620094999438	1026.7665897000115	1027.317005699966	1028.8477194999575	1029.8574752999702	n/a	n/a	1030.864410399925	1031.6696282000048	2020-09-10 10:29:02.883798	81.1628008190187	46.3565076476019	0.0	46.3565076476019	81.1628008190187	0.0	-81.1628008190187	46.3565076476019	0.0	81.1628008190187	0.0	-46.3565076476019	62.65439835736136	37.22599560390138	-10.219430034592081	27.0679834426671	58.52628577418342	-10.219430034592081	-51.75139714685596	55.4806270484763	-7.1737713088850334	27.41375709755348	-0.40719152824423954	2	missed	0.0
121.38800869998533	7.280985200079158	nogo_punish	1.0	121.41572529997211	123.69407420000061	126.20860190002713	2.2783489000285044	122.4202832999872	125.19894709996879	127.21565629995894	1.2737909000134096	1.0096548000583425	1.4810542000923306	n/a	1.0	n/a	1	0	79	2	nogo_punish	1	-1	0	0	0	1	1	n/a	n/a	0	1.0	1.0	910.2994229999604	1031.7151482999325	1032.7197062999476	1033.993497199961	1035.4983700999292	1036.5080248999875	n/a	n/a	1037.5150792999193	1038.9961335000116	2020-09-10 10:29:02.883798	1.65679712785328	-1.17579396744572	-1.35016843302918	-1.36423509708279	-3.00696556088245	-1.35016843302918	-1.65679712785328	-1.35016843302918	-1.17579396744572	-1.35016843302918	-3.00696556088245	1.35016843302918	-16.85160533380406	-10.306306011146237	-11.569598467621262	-20.652759302017593	-25.643480605717727	-11.569598467621262	-4.044721066224877	-27.032342203571577	-10.180736869767482	-20.292918983077602	-1.5829854956899596	2	missed	0.0
128.7161395000295	6.5235939000267535	go_reward	0.3470292000565678	128.74385610001627	130.50849330006167	133.05126760003623	1.7646372000453994	129.749069100013	132.0380655999761	134.0588341000257	0.7594242000486702	1.0132020000601187	1.208615900017321	n/a	1.0	n/a	1	0	80	3	go_reward	1	1	0	1	1	1	1	n/a	n/a	1	0.3470292000565678	1.0	910.2994229999604	1039.0432790999766	1040.0484920999734	1040.807916300022	1042.3374885999365	1043.3506905999966	n/a	n/a	1044.358257099986	1045.5668730000034	2020-09-10 10:29:02.883798	44.2324392483539	25.4776398258997	0.0	25.4776398258997	44.2324392483539	0.0	-44.2324392483539	25.4776398258997	0.0	44.2324392483539	0.0	68.7253241612854	25.72403678669656	16.347127782199184	-10.219430034592081	6.189115620964898	21.59592420351862	-10.219430034592081	63.330434662031344	18.5502654778115	-7.1737713088850334	6.5348892758512775	-0.40719152824423954	2	missed	0.0
135.28258700005256	6.078038599924184	nogo_reward	1.0	135.31030360003933	136.67128180002328	139.1906518000178	1.360978199983947	136.31461360002868	138.17650549998507	140.19866680004634	0.3566681999946013	1.0141463000327349	1.1896753999171779	n/a	1.0	n/a	1	0	81	4	nogo_reward	1	0	1	0	0	1	0	n/a	n/a	1	1.0	1.0	910.2994229999604	1045.6097265999997	1046.614036599989	1046.9707047999837	1048.4759284999454	1049.4900747999782	n/a	n/a	1050.4980898000067	1051.687765199924	2020-09-10 10:29:02.883798	20.6883115496992	0.0	84.8120246528484	84.8120246528484	64.1237131031492	84.8120246528484	-20.6883115496992	84.8120246528484	0.0	84.8120246528484	64.1237131031492	9.390939334336707	2.1799090880418603	-9.130512043700517	74.59259461825631	65.52350044791359	41.48719805831392	74.59259461825631	3.9960498350826494	59.129850882305995	56.94994179426416	65.86927410279998	-0.40719152824423954	2	missed	0.0
141.39884490007546	6.930425499915145	nogo_reward	1.0	141.42656150006223	143.9039492000593	146.42218100000173	2.4773876999970526	142.4313955999678	145.40872780000814	147.42918149998877	1.4725536000914872	1.0134531999935916	0.9278054999886081	n/a	1.0	n/a	1	0	82	4	nogo_reward	1	0	1	0	0	1	0	n/a	n/a	1	1.0	1.0	910.2994229999604	1051.7259845000226	1052.7308185999282	1054.2033722000197	1055.7081507999685	1056.721603999962	n/a	n/a	1057.7286044999491	1058.6564099999378	2020-09-10 10:29:02.883798	21.5143112772737	0.0	88.4272071463173	88.4272071463173	66.9128958690436	88.4272071463173	-21.5143112772737	88.4272071463173	0.0	88.4272071463173	66.9128958690436	5.7757568408678	3.0059088156163583	-9.130512043700517	78.20777711172522	69.1386829413825	44.27638082420832	78.20777711172522	0.380867341613742	62.7450333757749	59.73912456015856	69.48445659626887	-0.40719152824423954	2	missed	0.0
148.37086270004522	5.896013299934566	go_punish	1.0	148.398579300032	149.75105159997474	152.2697055999888	1.3524722999427468	149.40269390004687	151.25660640001274	153.27731829998083	0.3483576999278739	1.0130991999760681	1.0172742999857292	n/a	1.0	n/a	1	0	83	1	go_punish	1	0	-1	1	0	0	0	n/a	n/a	-1	1.0	1.0	910.2994229999604	1058.6980022999924	1059.7021169000072	1060.0504745999351	1061.556029399973	1062.5691285999492	n/a	n/a	1063.5767412999412	1064.594015599927	2020-09-10 10:29:02.883798	0.106602492654426	0.0	-1.16644323716046	-0.64541362236793	-1.27304572981489	-1.16644323716046	-0.106602492654426	-1.16644323716046	0.0	-1.16644323716046	-1.27304572981489	-1.2374829002772498	-18.401799969002916	-9.130512043700517	-11.38587327175254	-19.93393782730273	-23.909560774650167	-11.38587327175254	-6.632372399531308	-26.84861700770286	-8.446817038699923	-20.109193787208884	-0.40719152824423954	2	missed	0.0
154.30773750005767	5.902952799922787	nogo_reward	1.0	154.33545410004444	155.80265520000853	158.32209929998498	1.467201099964086	155.3394512999805	157.30816450004932	159.32972739997786	0.46320390002802014	1.0139347999356687	0.9086794999893755	n/a	1.0	n/a	1	0	84	4	nogo_reward	1	0	1	0	0	1	1	n/a	n/a	1	1.0	1.0	910.2994229999604	1064.6348771000048	1065.6388742999409	1066.102078199969	1067.6075875000097	1068.6215222999454	n/a	n/a	1069.6291503999382	1070.5378298999276	2020-09-10 10:29:02.883798	21.9816659974998	0.0	90.46301683193	90.46301683193	68.4813508344303	90.46301683193	-21.9816659974998	90.46301683193	0.0	90.46301683193	68.4813508344303	3.739947155255095	3.4732635358424595	-9.130512043700517	80.24358679733793	71.1744926269952	45.844835789595024	80.24358679733793	-1.6549423439989628	64.7808430613876	61.307579525545265	71.52026628188159	-0.40719152824423954	2	missed	0.0
160.25188180000998	7.3740522000009605	go_punish	0.2612716999137774	160.27959839999676	162.70521849999204	165.25017160002608	2.4256200999952853	161.28456619998906	164.23689080006443	166.25739020004403	1.4206523000029847	1.0132807999616489	1.3962603999536896	n/a	1.0	n/a	1	0	85	1	go_punish	0	-1	0	1	1	1	1	n/a	n/a	-1	0.2612716999137774	1.0	910.2994229999604	1070.5790213999571	1071.5839891999494	1073.0046414999524	1074.5363138000248	1075.5495945999864	n/a	n/a	1076.5568132000044	1077.953073599958	2020-09-10 10:29:02.883798	-0.163236225081385	0.0	-1.82120758981365	-1.55889279880395	-1.98444381489503	-1.82120758981365	0.163236225081385	0.0	-1.82120758981365	-1.98444381489503	-1.82120758981365	-2.40392613743771	-18.671638686738724	-9.130512043700517	-12.040637624405731	-20.84741700373875	-24.620958859730308	-12.040637624405731	-7.798815636691767	-27.66661758543743	-8.994978898698683	-18.942750550048423	-2.2283991180578893	2	missed	0.0
167.67306399997335	7.5190945999931955	go_reward	0.2614699000259861	167.70078059996013	170.45795339997858	173.00046510004904	2.757172800018452	168.70529019995593	171.98643759998959	174.0079314999748	1.7526632000226527	1.0140275000594556	1.2119436999785194	n/a	1.0	n/a	1	0	86	3	go_reward	1	1	0	1	1	1	0	n/a	n/a	1	0.2614699000259861	1.0	910.2994229999604	1078.0002035999205	1079.0047131999163	1080.757376399939	1082.28586059995	1083.2998881000094	n/a	n/a	1084.3073544999352	1085.5192981999137	2020-09-10 10:29:02.883798	109.00983977799	62.2561224063985	0.0	62.2561224063985	109.00983977799	0.0	-109.00983977799	62.2561224063985	0.0	109.00983977799	0.0	31.946841580786604	90.50143731633266	53.125610362697984	-10.219430034592081	42.967598201463694	86.37332473315472	-10.219430034592081	26.551952081532548	83.32766600744759	-7.1737713088850334	43.313371856350074	-0.40719152824423954	2	missed	0.0
175.2350335000084	7.185617399984039	nogo_reward	1.0	175.26275009999517	177.69980489998125	180.21845469996333	2.437054799986072	176.26756269996986	179.20482039998774	181.22562809998635	1.4322422000113875	1.0136342999755925	1.2227393999928609	n/a	1.0	n/a	1	0	87	4	nogo_reward	1	0	1	0	0	1	0	n/a	n/a	1	1.0	1.0	910.2994229999604	1085.5621730999555	1086.5669856999302	1087.9992278999416	1089.504243399948	1090.5178776999237	n/a	n/a	1091.5250510999467	1092.7477904999396	2020-09-10 10:29:02.883798	22.2632131491043	0.0	91.6757596576172	91.6757596576172	69.4125465085129	91.6757596576172	-22.2632131491043	91.6757596576172	0.0	91.6757596576172	69.4125465085129	2.527204329567894	3.754810687446959	-9.130512043700517	81.45632962302513	72.3872354526824	46.776031463677626	81.45632962302513	-2.8676851696861636	65.9935858870748	62.23877519962787	72.73300910756879	-0.40719152824423954	2	missed	0.0
182.46607419999793	6.067290600039996	nogo_punish	1.0	182.4937907999847	184.06117420003284	186.5757208999712	1.5673834000481293	183.49927699996624	185.56581409997307	187.58318810001947	0.5618972000665963	1.0099067999981344	0.9778933000052348	n/a	1.0	n/a	1	0	88	2	nogo_punish	1	-1	0	0	0	1	0	n/a	n/a	0	1.0	1.0	910.2994229999604	1092.793213799945	1093.7986999999266	1094.3605971999932	1095.8652370999334	1096.8751438999316	n/a	n/a	1097.8826110999798	1098.860504399985	2020-09-10 10:29:02.883798	1.80867617957513	-1.17579396744572	-0.650452062367483	-0.660275314188657	-2.45912824194261	-0.650452062367483	-1.80867617957513	-0.650452062367483	-1.17579396744572	-0.650452062367483	-2.45912824194261	0.650452062367483	-16.69972628208221	-10.306306011146237	-10.869882096959564	-19.948799519123458	-25.09564328677789	-10.869882096959564	-4.7444374368865745	-26.33262583290988	-9.632899550827643	-19.593202612415904	-1.5829854956899596	2	missed	0.0
188.57604890002415	7.805045800050721	go_reward	0.2994685000739991	188.60376550001092	191.3730435000034	193.9170971000567	2.7692779999924824	189.60898929997347	192.90382300002966	194.9237914000405	1.764054200029932	1.013274100027047	1.4850199000211433	n/a	1.0	n/a	1	0	89	3	go_reward	1	1	0	1	1	1	0	n/a	n/a	1	0.2994685000739991	1.0	910.2994229999604	1098.9031884999713	1099.9084122999338	1101.6724664999638	1103.20324599999	1104.216520100017	n/a	n/a	1105.2232144000009	1106.708234300022	2020-09-10 10:29:02.883798	136.263823931487	77.6752333794613	0.0	77.6752333794613	136.263823931487	0.0	-136.263823931487	77.6752333794613	0.0	136.263823931487	0.0	16.527730607723797	117.75542146982966	68.54472133576078	-10.219430034592081	58.3867091745265	113.62730888665172	-10.219430034592081	11.132841108469739	110.5816501609446	-7.1737713088850334	58.73248282941288	-0.40719152824423954	2	missed	0.0
196.42194899998174	7.419057900085818	go_punish	1.0	196.4496655999685	199.05911370005924	201.57870149996597	2.609448100090731	197.45377190003637	200.56479870004114	202.58539190003648	1.6053418000228703	1.0139027999248356	1.2833316000178456	n/a	1.0	n/a	1	0	90	1	go_punish	1	0	-1	1	0	0	0	n/a	n/a	-1	1.0	1.0	910.2994229999604	1106.7490885999289	1107.7531948999967	1109.3585367000196	1110.8642217000015	1111.8781244999263	n/a	n/a	1112.8848148999969	1114.1681465000147	2020-09-10 10:29:02.883798	1.64964976027705	-1.17579396744572	-1.82120758981365	-1.95467018038552	-3.4708573500907	-1.82120758981365	-1.64964976027705	-1.82120758981365	-1.17579396744572	-1.82120758981365	-3.4708573500907	-0.58271854762406	-16.85875270138029	-10.306306011146237	-12.040637624405731	-21.243194385320322	-26.107372394925978	-12.040637624405731	-5.977608046878117	-27.503381360356048	-10.644628658975734	-20.763958139862073	-1.5829854956899596	2	missed	0.0
203.88734070002135	6.392564599984098	go_reward	0.2809463999001309	203.91505730000813	205.76057969999965	208.30364269996062	1.8455223999915233	204.92044070002157	207.29023060004693	209.31096350005828	0.8401389999780804	1.013412099913694	0.9966583999339491	n/a	1.0	n/a	1	0	91	3	go_reward	1	1	0	1	1	1	1	n/a	n/a	1	0.2809463999001309	1.0	910.2994229999604	1114.2144802999685	1115.219863699982	1116.06000269996	1117.5896536000073	1118.603065699921	n/a	n/a	1119.6103865000186	1120.6070448999526	2020-09-10 10:29:02.883798	149.100480889913	84.9233280685908	0.0	84.9233280685908	149.100480889913	0.0	-149.100480889913	84.9233280685908	0.0	149.100480889913	0.0	9.279635918594295	130.59207842825566	75.79281602489029	-10.219430034592081	65.634803863656	126.46396584507772	-10.219430034592081	3.884746419340237	123.41830711937061	-7.1737713088850334	65.98057751854239	-0.40719152824423954	2	missed	0.0
210.3249776000158	6.549288999987766	go_reward	0.3979697999311611	210.3526942000026	211.91366219997872	214.4545269999653	1.5609679999761283	211.35734470002353	213.44174529996235	215.46216640004423	0.5563174999551848	1.0127817000029609	1.4398167999461293	n/a	1.0	n/a	1	0	92	3	go_reward	1	1	0	1	1	1	0	n/a	n/a	1	0.3979697999311611	1.0	910.2994229999604	1120.652117199963	1121.656767699984	1122.213085199939	1123.7411682999227	1124.7539499999257	n/a	n/a	1125.7615894000046	1127.2014061999507	2020-09-10 10:29:02.883798	155.694213001875	88.6435129252624	0.0	88.6435129252624	155.694213001875	0.0	-155.694213001875	88.6435129252624	0.0	155.694213001875	0.0	5.559451061922701	137.18581054021766	79.51300088156188	-10.219430034592081	69.3549887203276	133.05769795703972	-10.219430034592081	0.1645615626686432	130.0120392313326	-7.1737713088850334	69.70076237521397	-0.40719152824423954	2	missed	0.0
216.91806509997707	6.55485439999029	nogo_reward	1.0	216.94578169996385	218.48546170000918	221.00380940001924	1.5396800000453368	217.95077880006284	219.990777399973	222.01078310003504	0.5346828999463469	1.0130320000462234	1.4898529999190941	n/a	1.0	n/a	1	0	93	4	nogo_reward	1	0	1	0	0	1	0	n/a	n/a	1	1.0	1.0	910.2994229999604	1127.2452046999242	1128.2502018000232	1128.7848846999696	1130.2902003999334	1131.3032323999796	n/a	n/a	1132.3102060999954	1133.8000590999145	2020-09-10 10:29:02.883798	22.441842568691	0.0	92.4325905675436	92.4325905675436	69.9907479988526	92.4325905675436	-22.441842568691	92.4325905675436	0.0	92.4325905675436	69.9907479988526	1.7703734196415013	3.933440107033661	-9.130512043700517	82.21316053295152	73.1440663626088	47.35423295401732	82.21316053295152	-3.6245160796125564	66.75041679700121	62.81697668996756	73.48984001749517	-0.40719152824423954	2	missed	0.0
223.51751649996743	6.61440110008698	go_punish	0.3319042000221088	223.5452330999542	225.20672580006067	227.74793109996244	1.6614927001064643	224.550322300056	226.73761029995512	228.75523440004326	0.6564035000046715	1.010320800007321	1.4043997999979183	n/a	1.0	n/a	1	0	94	1	go_punish	1	0	-1	1	1	1	0	n/a	n/a	0	0.3319042000221088	1.0	910.2994229999604	1133.8446560999146	1134.8497453000164	1135.506148800021	1137.0370332999155	1138.0473540999228	n/a	n/a	1139.0546574000036	1140.4590572000016	2020-09-10 10:29:02.883798	-1.52400083115254	-1.17579396744572	-2.09757100436446	-2.14578836576357	-3.621571835517	-2.09757100436446	1.52400083115254	-1.17579396744572	-2.09757100436446	-3.621571835517	-2.09757100436446	1.17579396744572	-20.03240329280988	-10.306306011146237	-12.31700103895654	-21.434312570698374	-26.258086880352277	-12.31700103895654	-4.219095531808337	-29.303745606059397	-9.271342313249495	-20.118544517494144	-2.5047625326086997	2	missed	0.0
230.17500190006115	6.414003999903798	nogo_punish	1.0	230.20271850004792	231.852374900016	234.3673490000656	1.6496563999680802	231.20729529997334	233.35787509998772	235.37491520005278	0.6450796000426635	1.0094739000778645	1.2418072998989373	n/a	1.0	n/a	1	0	95	2	nogo_punish	1	-1	0	0	0	1	0	n/a	n/a	0	1.0	1.0	910.2994229999604	1140.5021415000083	1141.5067182999337	1142.1517978999764	1143.657298099948	1144.666772000026	n/a	n/a	1145.6743382000132	1146.916145499912	2020-09-10 10:29:02.883798	1.87153665421596	-1.17579396744572	-0.34840270858112	-0.355423960909868	-2.21993936279708	-0.34840270858112	-1.87153665421596	-0.34840270858112	-1.17579396744572	-0.34840270858112	-2.21993936279708	0.34840270858112	-16.63686580744138	-10.306306011146237	-10.5678327431732	-19.64394816584467	-24.85645440763236	-10.5678327431732	-5.046486790672938	-26.030576479123518	-9.393710671682113	-19.291153258629542	-1.5829854956899596	2	missed	0.0
236.63166720001038	6.457446899963543	nogo_reward	1.0	236.65938379999716	238.65960550005548	241.1742893999908	2.0002217000583187	237.66441239998676	240.16522790002637	242.1811997999905	0.9951931000687182	1.0090614999644458	0.9356308999701923	n/a	1.0	n/a	1	0	96	4	nogo_reward	0	1	0	0	0	1	0	n/a	n/a	0	1.0	1.0	910.2994229999604	1146.9588067999575	1147.9638353999471	1148.9590285000158	1150.4646508999867	1151.4737123999512	n/a	n/a	1152.4806227999509	1153.416253699921	2020-09-10 10:29:02.883798	22.5602105121284	0.0	92.9237748776444	92.9237748776444	70.363564365516	92.9237748776444	-22.5602105121284	92.9237748776444	0.0	92.9237748776444	70.363564365516	-92.9237748776444	4.05180805047106	-9.130512043700517	82.70434484305233	73.6352506727096	47.72704932068072	82.70434484305233	-98.31866437689847	67.24160110710201	63.18979305663096	73.98102432759597	-0.40719152824423954	2	missed	0.0
243.12742110004194	5.6449998000171036	nogo_reward	1.0	243.15513770002872	244.50133380002808	247.02160219999473	1.3461960999993607	244.15969690005272	246.0062062999932	248.02832130005118	0.34163689997535585	1.015395900001522	0.771816199994646	n/a	1.0	n/a	1	0	97	4	nogo_reward	1	0	1	0	0	1	0	n/a	n/a	1	1.0	1.0	910.2994229999604	1153.454560699989	1154.459119900013	1154.8007567999884	1156.3056292999536	1157.321025199955	n/a	n/a	1158.3277443000115	1159.0995605000062	2020-09-10 10:29:02.883798	11.4864093969677	0.0	46.0944329994388	46.0944329994388	34.6080236024711	46.0944329994388	-11.4864093969677	46.0944329994388	0.0	46.0944329994388	34.6080236024711	48.1085309877463	-7.0219930646896405	-9.130512043700517	35.87500296484672	26.805908794504	11.971508557635822	35.87500296484672	42.71364148849224	20.412259228896403	27.434252293586066	27.15168244939038	-0.40719152824423954	2	missed	0.0
248.8115817999934	7.149511900031939	nogo_punish	1.0	248.83929839998018	251.30779210000765	253.82345829997212	2.468493700027466	249.84493839996867	252.81284160003997	254.83062360004988	1.462853700038977	1.010616699932143	1.1581866999622434	n/a	1.0	n/a	1	0	98	2	nogo_punish	1	-1	0	0	0	1	0	n/a	n/a	0	1.0	1.0	910.2994229999604	1159.1387213999406	1160.144361399929	1161.607215099968	1163.1122646000003	1164.1228812999325	n/a	n/a	1165.1300466000102	1166.2882332999725	2020-09-10 10:29:02.883798	1.90099634720598	-1.17579396744572	-0.202056822651011	-0.207180116106291	-2.10305316985699	-0.202056822651011	-1.90099634720598	-0.202056822651011	-1.17579396744572	-0.202056822651011	-2.10305316985699	0.202056822651011	-16.60740611445136	-10.306306011146237	-10.421486857243092	-19.495704321041092	-24.73956821469227	-10.421486857243092	-5.192832676603047	-25.884230593193408	-9.276824478742023	-19.144807372699432	-1.5829854956899596	2	missed	0.0
256.0038429000416	6.326446200022474	nogo_reward	1.0	256.0315595000284	257.8782606000311	260.3964249000421	1.846701100002747	257.03555230004713	259.38280520006083	261.40310510003474	0.8427082999839968	1.013619699981291	0.9549006000161171	n/a	1.0	n/a	1	0	99	4	nogo_reward	1	0	1	0	0	1	1	n/a	n/a	1	1.0	1.0	910.2994229999604	1166.3309824999887	1167.3349753000075	1168.1776835999915	1169.6822282000212	1170.6958479000025	n/a	n/a	1171.702528099995	1172.6574287000112	2020-09-10 10:29:02.883798	17.8315734438025	0.0	72.4481191045978	72.4481191045978	54.6165456607954	72.4481191045978	-17.8315734438025	72.4481191045978	0.0	72.4481191045978	54.6165456607954	21.754844882587307	-0.6768290178548391	-9.130512043700517	62.228689070005714	53.15959489966299	31.980030615960125	62.228689070005714	16.35995538333325	46.765945334055395	47.44277435191037	53.50536855454937	-0.40719152824423954	2	missed	0.0
262.37572720006585	6.34690329991281	nogo_reward	1.0	262.4034438000526	264.09427840006515	266.6135716000572	1.690834600012522	263.40728419995867	265.59911199996714	267.62083360005636	0.6869942001064828	1.0144596000900492	1.1295134999090806	n/a	1.0	n/a	1	0	100	4	nogo_reward	1	0	1	0	0	1	0	n/a	n/a	1	1.0	1.0	910.2994229999604	1172.702866800013	1173.706707199919	1174.3937014000255	1175.8985349999275	1176.9129946000176	n/a	n/a	1177.9202566000167	1179.0497700999258	2020-09-10 10:29:02.883798	20.3359503984681	0.0	83.1518042817216	83.1518042817216	62.8158538832535	83.1518042817216	-20.3359503984681	83.1518042817216	0.0	83.1518042817216	62.8158538832535	11.051159705463505	1.8275479368107597	-9.130512043700517	72.93237424712952	63.86328007678679	40.179338838418225	72.93237424712952	5.656270206209447	57.4696305111792	55.64208257436847	64.20905373167318	-0.40719152824423954	2	missed	0.0
268.7650758000092	7.086687500006519	go_punish	0.2992850000737235	268.79279239999596	271.12250699999277	273.66544300003443	2.329714599996805	269.79803710000124	272.654434200027	274.67257060005795	1.3244698999915272	1.011008800007403	1.2069092999445274	n/a	1.0	n/a	1	0	101	1	go_punish	1	0	-1	1	1	1	0	n/a	n/a	0	0.2992850000737235	1.0	910.2994229999604	1179.0922153999563	1180.0974600999616	1181.4219299999531	1182.9538571999874	1183.9648659999948	n/a	n/a	1184.9719936000183	1186.1789028999628	2020-09-10 10:29:02.883798	-0.0476075672534092	-0.538678205560507	-2.09757100436446	-1.07035301256719	-2.14517857161787	-2.09757100436446	0.0476075672534092	-0.538678205560507	-2.09757100436446	-2.14517857161787	-2.09757100436446	0.538678205560507	-18.556010028910748	-9.669190249261023	-12.31700103895654	-20.35887721750199	-24.781693616453147	-12.31700103895654	-4.85621129369355	-27.827352342160268	-9.271342313249495	-19.48142875560893	-2.5047625326086997	2	missed	0.0
275.89500630006694	7.021584699977893	nogo_punish	1.0	275.9227229000537	278.4633682999993	280.97737630002666	2.5406453999455607	276.92730850004614	279.9681573000273	281.9845992999617	1.5360597999531365	1.009218999999348	0.9597083000699058	n/a	1.0	n/a	1	0	102	2	nogo_punish	1	-1	0	0	0	1	0	n/a	n/a	0	1.0	1.0	910.2994229999604	1186.222145900014	1187.2267315000065	1188.7627912999596	1190.2675802999877	1191.276799299987	n/a	n/a	1192.284022299922	1193.243730599992	2020-09-10 10:29:02.883798	1.91618987700656	-1.17579396744572	-0.124624442021755	-0.128432909711458	-2.04081431902832	-0.124624442021755	-1.91618987700656	-0.124624442021755	-1.17579396744572	-0.124624442021755	-2.04081431902832	0.124624442021755	-16.59221258465078	-10.306306011146237	-10.344054476613836	-19.41695711464626	-24.6773293638636	-10.344054476613836	-5.270265057232303	-25.806798212564154	-9.214585627913353	-19.067374992070178	-1.5829854956899596	2	missed	0.0
282.9590168000433	6.217681500012986	go_punish	0.4457347999559715	282.98673340003006	284.3069593999537	286.84798289998434	1.3202259999236503	283.99192399997264	285.8385760999515	287.8555249000201	0.31503539998107044	1.0094068000328207	1.3488900000229478	n/a	1.0	n/a	1	0	103	1	go_punish	1	0	-1	1	1	1	1	n/a	n/a	0	0.4457347999559715	1.0	910.2994229999604	1193.2861563999904	1194.291346999933	1194.606382399914	1196.137999099912	1197.1474058999447	n/a	n/a	1198.1549478999805	1199.5038379000034	2020-09-10 10:29:02.883798	0.596280379440991	-0.273945112243497	-2.09757100436446	-0.588019173519653	-1.50129062492347	-2.09757100436446	-0.596280379440991	-0.273945112243497	-2.09757100436446	-1.50129062492347	-2.09757100436446	0.273945112243497	-17.91212208221635	-9.404457155944014	-12.31700103895654	-19.876543378454457	-24.137805669758748	-12.31700103895654	-5.120944387010561	-27.18346439546587	-9.271342313249495	-19.21669566229192	-2.5047625326086997	2	missed	0.0
289.22007230005704	5.9852595999839195	nogo_reward	1.0	289.2477889000438	290.744095299975	293.2632734000217	1.4963063999311998	290.25231190002523	292.2490091000218	294.27056920004543	0.4917833999497816	1.0142642999999225	0.9624792999823057	n/a	1.0	n/a	1	0	104	4	nogo_reward	1	0	1	0	0	1	0	n/a	n/a	1	1.0	1.0	910.2994229999604	1199.5472119000042	1200.5517348999856	1201.0435182999354	1202.5484320999822	1203.562696399982	n/a	n/a	1204.5699922000058	1205.532471499988	2020-09-10 10:29:02.883798	21.4666951155813	0.0	88.0647724677996	88.0647724677996	66.5980773522183	88.0647724677996	-21.4666951155813	88.0647724677996	0.0	88.0647724677996	66.5980773522183	6.138191519385501	2.9582926539239587	-9.130512043700517	77.84534243320752	68.7762482628648	43.96156230738302	77.84534243320752	0.7433020201314431	62.3825986972572	59.42430604333326	69.12202191775117	-0.40719152824423954	2	missed	0.0
295.24886489997164	5.681507600005716	nogo_reward	1.0	295.2765814999584	296.5532900999533	299.0669201000128	1.2767085999948904	296.281826899969	298.057809800026	300.0745367000345	0.27146319998428226	1.0091102999867871	0.8835523999296129	n/a	1.0	n/a	1	0	105	4	nogo_reward	0	1	0	0	0	1	0	n/a	n/a	0	1.0	1.0	910.2994229999604	1205.5760044999188	1206.5812498999294	1206.8527130999137	1208.3572327999864	1209.3663430999732	n/a	n/a	1210.3739596999949	1211.2575120999245	2020-09-10 10:29:02.883798	22.033331083033	0.0	90.5428131366561	90.5428131366561	68.509482053623	90.5428131366561	-22.033331083033	90.5428131366561	0.0	90.5428131366561	68.509482053623	-90.5428131366561	3.524928621375661	-9.130512043700517	80.32338310206401	71.25428893172129	45.872967008787725	80.32338310206401	-95.93770263591016	64.8606393661137	61.335710744737966	71.60006258660766	-0.40719152824423954	2	missed	0.0
300.97313060006115	6.229783399962116	nogo_punish	1.0	301.00084720004793	302.4342654000502	304.9546587000368	1.4334182000022793	302.00565850001294	303.9401330000255	305.9619306999957	0.4286069000372663	1.0145257000112906	1.268699900014326	n/a	1.0	n/a	1	0	106	2	nogo_punish	0	0	-1	0	0	1	0	n/a	n/a	-1	1.0	1.0	910.2994229999604	1211.3002702000083	1212.3050814999733	1212.7336884000106	1214.239555999986	1215.2540816999972	n/a	n/a	1216.261353699956	1217.5300535999704	2020-09-10 10:29:02.883798	1.92464620780269	-1.17579396744572	-0.0807243932192849	-0.0836035850451051	-2.00537060102198	-0.0807243932192849	-1.92464620780269	-0.0807243932192849	-1.17579396744572	-0.0807243932192849	-2.00537060102198	-2.323201744218425	-16.58375625385465	-10.306306011146237	-10.300154427811366	-19.372127789979906	-24.641885645857258	-10.300154427811366	-7.718091243472482	-25.762898163761683	-9.179141909907013	-19.023474943267708	-1.5829854956899596	2	missed	0.0
307.24435789999563	7.132677000015974	nogo_punish	1.0	307.2720744999824	309.4890078000026	312.0056505999528	2.216933300020173	308.27718039997853	310.9942095000297	313.01281300000846	1.211827400024049	1.011441099923104	1.3919384999899194	n/a	1.0	n/a	1	0	107	2	nogo_punish	1	-1	0	0	0	1	0	n/a	n/a	0	1.0	1.0	910.2994229999604	1217.5714974999428	1218.576603399939	1219.788430799963	1221.29363249999	1222.3050735999132	n/a	n/a	1223.3122359999688	1224.7041744999588	2020-09-10 10:29:02.883798	1.67247141947905	-1.17579396744572	-1.23021067552239	-1.23242115942594	-2.90268209500144	-1.23021067552239	-1.67247141947905	-1.23021067552239	-1.17579396744572	-1.23021067552239	-2.90268209500144	1.23021067552239	-16.83593104217829	-10.306306011146237	-11.44964071011447	-20.520945364360742	-25.539197139836716	-11.44964071011447	-4.164678823731668	-26.912384446064788	-10.076453403886473	-20.172961225570813	-1.5829854956899596	2	missed	0.0
314.4259982999648	6.053880300023593	nogo_reward	1.0	314.4537148999516	315.78438930003904	318.302736200043	1.330674400087446	315.4593683000421	317.28944920003414	319.3096305000365	0.3250209999969229	1.0132870000088587	1.197964699938666	n/a	1.0	n/a	1	0	108	4	nogo_reward	1	0	1	0	0	1	0	n/a	n/a	1	1.0	1.0	910.2994229999604	1224.753137899912	1225.7587913000025	1226.0838122999994	1227.5888721999945	1228.6021592000034	n/a	n/a	1229.609053499997	1230.8070181999356	2020-09-10 10:29:02.883798	11.1868671877042	0.0	44.7313429077695	44.7313429077695	33.5444757200653	44.7313429077695	-11.1868671877042	44.7313429077695	0.0	44.7313429077695	33.5444757200653	49.4716210794156	-7.32153527395314	-9.130512043700517	34.51191287317742	25.4428187028347	10.907960675230022	34.51191287317742	44.07673158016154	19.049169137227103	26.370704411180267	25.78859235772108	-0.40719152824423954	2	missed	0.0
320.523401600076	7.3846036999020725	go_reward	0.2459078000392764	320.5511182000628	323.0688191000372	325.61272930004634	2.517700899974443	321.55632620002143	324.59849310002755	326.6204456000123	1.5124929000157863	1.014236200018786	1.3152762999525294	n/a	1.0	n/a	1	0	109	3	go_reward	1	1	0	1	1	1	0	n/a	n/a	1	0.2459078000392764	1.0	910.2994229999604	1230.8505412000231	1231.8557491999818	1233.3682420999976	1234.897916099988	1235.9121523000067	n/a	n/a	1236.9198685999727	1238.2351448999252	2020-09-10 10:29:02.883798	159.322894237947	90.6912039183258	0.0	90.6912039183258	159.322894237947	0.0	-159.322894237947	90.6912039183258	0.0	159.322894237947	0.0	3.511760068859303	140.81449177628966	81.56069187462528	-10.219430034592081	71.402679713391	136.68637919311172	-10.219430034592081	-1.8831294303947548	133.6407204674046	-7.1737713088850334	71.74845336827738	-0.40719152824423954	2	missed	0.0
327.95101289998286	7.588419600040879	nogo_reward	1.0	327.97872949996963	330.811344500049	333.32472489995394	2.832615000079386	328.9838335000677	332.31595800002106	334.3315333999926	1.827510999981314	1.0087668999328798	1.2356157000178882	n/a	1.0	n/a	1	0	110	4	nogo_reward	0	1	0	0	0	1	1	n/a	n/a	0	1.0	1.0	910.2994229999604	1238.27815249993	1239.283256500028	1241.1107675000094	1242.6153809999814	1243.6241478999143	n/a	n/a	1244.630956399953	1245.8665720999709	2020-09-10 10:29:02.883798	17.6544318459725	0.0	71.6364797031391	71.6364797031391	53.9820478571666	71.6364797031391	-17.6544318459725	71.6364797031391	0.0	71.6364797031391	53.9820478571666	-71.6364797031391	-0.8539706156848403	-9.130512043700517	61.41704966854702	52.3479554982043	31.34553281233132	61.41704966854702	-77.03136920239317	45.954305932596704	46.80827654828157	52.69372915309068	-0.40719152824423954	2	missed	0.0
335.5819653000218	6.548057900043204	nogo_punish	1.0	335.6096819000086	337.3931536000457	339.90808600001037	1.7834717000371256	336.61410949996207	338.8982147000497	340.9157160000177	0.7790441000836381	1.0098712999606505	1.242023800034076	n/a	1.0	n/a	1	0	111	2	nogo_punish	1	-1	0	0	0	1	0	n/a	n/a	0	1.0	1.0	910.2994229999604	1245.909104899969	1246.9135324999224	1247.692576600006	1249.19763770001	1250.2075089999707	n/a	n/a	1251.215138999978	1252.4571628000122	2020-09-10 10:29:02.883798	1.81781142809478	-1.17579396744572	-0.576598479545783	-0.578319843952626	-2.39440990764056	-0.576598479545783	-1.81781142809478	-0.576598479545783	-1.17579396744572	-0.576598479545783	-2.39440990764056	0.576598479545783	-16.690591033562562	-10.306306011146237	-10.796028514137864	-19.86684404888743	-25.03092495247584	-10.796028514137864	-4.8182910197082744	-26.25877225008818	-9.568181216525593	-19.519349029594206	-1.5829854956899596	2	missed	0.0
342.17743310006347	6.152241499978118	go_punish	0.2877336000092327	342.20514970005024	343.7681312999921	346.3078236000147	1.5629815999418497	343.21079689997714	345.29792330006603	347.31350339995674	0.5573344000149518	1.0099002999486402	1.0438878000716159	n/a	1.0	n/a	1	0	112	1	go_punish	1	0	-1	1	1	1	0	n/a	n/a	0	0.2877336000092327	1.0	910.2994229999604	1252.5045727000106	1253.5102198999375	1254.0675542999525	1255.5973463000264	1256.607246599975	n/a	n/a	1257.6129263999171	1258.6568141999887	2020-09-10 10:29:02.883798	0.909281168280257	-0.150826616361578	-2.09757100436446	-0.34748515138672	-1.1882898360842	-2.09757100436446	-0.909281168280257	-0.150826616361578	-2.09757100436446	-1.1882898360842	-2.09757100436446	0.150826616361578	-17.599121293377085	-9.281338660062094	-12.31700103895654	-19.636009356321523	-23.824804880919476	-12.31700103895654	-5.24406288289248	-26.870463606626597	-9.271342313249495	-19.09357716641	-2.5047625326086997	2	missed	0.0
348.37499090004724	6.257663800032105	nogo_punish	1.0	348.402707500034	350.18603810004424	352.70005690003745	1.7833306000102311	349.40791940002237	351.69096809998155	353.7069119999653	0.7781187000218779	1.0090888000559062	0.9534593001008034	n/a	1.0	n/a	1	0	113	2	nogo_punish	1	-1	0	0	0	1	1	n/a	n/a	0	1.0	1.0	910.2994229999604	1258.7021304999944	1259.7073423999827	1260.4854611000046	1261.990391099942	1262.9994798999978	n/a	n/a	1264.0063349999257	1264.9597943000265	2020-09-10 10:29:02.883798	1.87713217710624	-1.17579396744572	-0.301123722618658	-0.302481947746687	-2.1782558997249	-0.301123722618658	-1.87713217710624	-0.301123722618658	-1.17579396744572	-0.301123722618658	-2.1782558997249	0.301123722618658	-16.6312702845511	-10.306306011146237	-10.52055375721074	-19.59100615268149	-24.814770944560177	-10.52055375721074	-5.0937657766354	-25.983297493161057	-9.352027208609933	-19.24387427266708	-1.5829854956899596	2	missed	0.0
354.67529549996846	6.4231973000566995	go_punish	0.3768176999874413	354.70301209995523	356.09502770006657	358.6631500000367	1.3920156001113355	355.7081859000027	357.6535665000556	359.67009949998464	0.3868418000638485	1.0095834999810904	1.4561099000272861	n/a	1.0	n/a	1	0	114	1	go_punish	1	0	-1	1	1	1	1	n/a	n/a	0	0.3768176999874413	1.0	910.2994229999604	1265.0024350999156	1266.007608899963	1266.394450700027	1267.952989500016	1268.962572999997	n/a	n/a	1269.969522499945	1271.4256323999723	2020-09-10 10:29:02.883798	1.07461313292399	-0.0883868060816958	-2.09757100436446	-0.217394602420354	-1.02295787144047	-2.09757100436446	-1.07461313292399	-0.0883868060816958	-2.09757100436446	-1.02295787144047	-2.09757100436446	0.0883868060816958	-17.43378932873335	-9.218898849782212	-12.31700103895654	-19.505918807355155	-23.659472916275746	-12.31700103895654	-5.306502693172362	-26.705131641982867	-9.271342313249495	-19.03113735613012	-2.5047625326086997	2	missed	0.0
361.13923450000595	5.796681700041518	go_punish	0.3524425000650808	361.16695109999273	362.5262117000527	365.0645494000057	1.3592606000599972	362.1715042999713	364.0550119000254	366.07148439995944	0.35470740008145185	1.009537499980297	0.8921484000748023	n/a	1.0	n/a	1	0	115	1	go_punish	1	0	-1	1	1	1	0	n/a	n/a	0	0.3524425000650808	1.0	910.2994229999604	1271.466374099953	1272.4709272999316	1272.825634700013	1274.3544348999858	1275.363972399966	n/a	n/a	1276.3709073999198	1277.2630557999946	2020-09-10 10:29:02.883798	1.16786035823168	-0.0544681152825446	-2.09757100436446	-0.142384243673099	-0.929710646132777	-2.09757100436446	-1.16786035823168	-0.0544681152825446	-2.09757100436446	-0.929710646132777	-2.09757100436446	0.0544681152825446	-17.340542103425662	-9.18498015898306	-12.31700103895654	-19.4309084486079	-23.566225690968054	-12.31700103895654	-5.340421383971513	-26.611884416675174	-9.271342313249495	-18.99721866533097	-2.5047625326086997	2	missed	0.0
366.9821921000258	6.656382699962705	go_reward	0.275384800042957	367.0099087000126	368.73369360004995	371.27523430006113	1.7237849000373444	368.01441579998914	370.2616727000568	372.28271120006684	0.7192778000608087	1.0135616000043228	1.3835801999084651	n/a	1.0	n/a	1	0	116	3	go_reward	1	1	0	1	1	1	0	n/a	n/a	1	0.275384800042957	1.0	910.2994229999604	1277.309331699973	1278.3138387999495	1279.0331166000103	1280.5610957000172	1281.5746573000215	n/a	n/a	1282.5821342000272	1283.9657143999357	2020-09-10 10:29:02.883798	161.435306769514	91.8844584136689	0.0	91.8844584136689	161.435306769514	0.0	-161.435306769514	91.8844584136689	0.0	161.435306769514	0.0	2.3185055735162052	142.92690430785666	82.75394636996838	-10.219430034592081	72.59593420873409	138.79879172467872	-10.219430034592081	-3.0763839257378525	135.7531329989716	-7.1737713088850334	72.94170786362048	-0.40719152824423954	2	missed	0.0
373.6815100000241	7.036763199954294	nogo_punish	1.0	373.7092266000109	375.87692820001394	378.39451640006155	2.1677016000030562	374.7138614000287	377.38194440002553	379.4012231000231	1.1630667999852449	1.012572000036016	1.3447666999420562	n/a	1.0	n/a	1	0	117	2	nogo_punish	0	0	-1	0	0	1	0	n/a	n/a	-1	1.0	1.0	910.2994229999604	1284.0086495999712	1285.013284399989	1286.1763511999743	1287.681367399986	1288.693939400022	n/a	n/a	1289.7006460999835	1291.0454127999255	2020-09-10 10:29:02.883798	1.90457477703062	-1.17579396744572	-0.170784534921385	-0.171869420620974	-2.075359311952	-0.170784534921385	-1.90457477703062	-0.170784534921385	-1.17579396744572	-0.170784534921385	-2.075359311952	-2.2331416025163247	-16.60382768462672	-10.306306011146237	-10.390214569513466	-19.460393625555778	-24.711874356787277	-10.390214569513466	-7.628031101770382	-25.852958305463783	-9.249130620837033	-19.113535084969808	-1.5829854956899596	2	missed	0.0
380.76221750001434	7.507404900039546	nogo_reward	1.0	380.7899341000011	383.75043640006334	386.2700806000503	2.960502300062217	381.79477479995694	385.25591920001875	387.2767274000216	1.9556616001063958	1.0141614000315258	1.0206116000190377	n/a	1.0	n/a	1	0	118	4	nogo_reward	1	0	1	0	0	1	0	n/a	n/a	1	1.0	1.0	910.2994229999604	1291.0893570999615	1292.0941977999173	1294.0498594000237	1295.5553421999791	1296.5695036000106	n/a	n/a	1297.576150399982	1298.596762000001	2020-09-10 10:29:02.883798	9.07282128514907	0.0	35.4940010691842	35.4940010691842	26.4211797840351	35.4940010691842	-9.07282128514907	35.4940010691842	0.0	35.4940010691842	26.4211797840351	58.7089629180009	-9.43558117650827	-9.130512043700517	25.27457103459212	16.2054768642494	3.7846647391998225	25.27457103459212	53.314073418746844	9.811827298641802	19.247408475150067	16.551250519135777	-0.40719152824423954	2	missed	0.0
388.31700919999287	6.066715500084683	go_reward	0.3383569000288844	388.34472579997964	389.8122723000124	392.3573400999885	1.4675465000327677	389.34872100001667	391.3433616999537	393.36495980003383	0.46355129999574274	1.01397840003483	1.0464815000304952	n/a	1.0	n/a	1	0	119	3	go_reward	1	1	0	1	1	1	0	n/a	n/a	1	0.3383569000288844	1.0	910.2994229999604	1298.64414879994	1299.648143999977	1300.1116952999728	1301.642784699914	1302.6567630999489	n/a	n/a	1303.6643827999942	1304.7108643000247	2020-09-10 10:29:02.883798	162.723922893215	92.6136239589924	0.0	92.6136239589924	162.723922893215	0.0	-162.723922893215	92.6136239589924	0.0	162.723922893215	0.0	1.5893400281926944	144.21552043155765	83.48311191529189	-10.219430034592081	73.3250997540576	140.0874078483797	-10.219430034592081	-3.8055494710613633	137.0417491226726	-7.1737713088850334	73.67087340894398	-0.40719152824423954	2	missed	0.0
394.42907950002734	6.8608802000524065	go_punish	0.2776485000504181	394.4567961000141	396.4220911000157	398.96102479996625	1.9652950000015608	395.4618933000602	397.95162760000676	399.96817710006144	0.9601977999554947	1.0093971999594942	1.3494992000050843	n/a	1.0	n/a	1	0	120	1	go_punish	1	0	-1	1	1	1	0	n/a	n/a	0	0.2776485000504181	1.0	910.2994229999604	1304.7562190999745	1305.7613163000206	1306.721514099976	1308.2510505999671	1309.2604477999266	n/a	n/a	1310.2676001000218	1311.617099300027	2020-09-10 10:29:02.883798	1.22331221792662	-0.0349854136985326	-2.09757100436446	-0.0968365514866906	-0.87425878643784	-2.09757100436446	-1.22331221792662	-0.0349854136985326	-2.09757100436446	-0.87425878643784	-2.09757100436446	0.0349854136985326	-17.28509024373072	-9.165497457399049	-12.31700103895654	-19.38536075642149	-23.510773831273116	-12.31700103895654	-5.359904085555525	-26.556432556980237	-9.271342313249495	-18.977735963746955	-2.5047625326086997	2	missed	0.0
