onset	duration	trial_type	response_time	cueOnset	targetOnset	fbOnset	cueRT	firstfixOnset	secondfixOnset	waitOnset	firstfixdur	secondfixdur	waitdur	nback_fbOnset	nback_response_time	nback_targetOnset	block	wm	trial	cue	cond	is_common	outcome_go	outcome_nogo	key_correct	key_pressed	is_correct	key_correct_nback	key_pressed_nback	is_correct_nback	outcome	rt	rt_nback	time_scan	time_onset	time_isi1	time_circle	time_isi2	time_feedback	time_same	time_correct	time_iti	time_done	timestamp_scan	DV	Qgo	Qnogo	SV	Wgo	Wnogo	mDV	Qchosen	Qunchosen	Wchosen	Wunchosen	PE	DVC	QgoC	QnogoC	SVC	WgoC	WnogoC	PEC	WchosenC	WunchosenC	QchosenC	QunchosenC	run	outcome_nback	nback_targetResp
0.0	6.501685100141913	go_punish	0.6344075002707541	0.05398519989103079	1.8399419002235504	4.380184500012547	1.7859567003325196	1.0580465998500586	3.369588800240365	5.393236699979752	0.7818953003734919	1.0105956997721819	1.1624336000531912	n/a	1.0	n/a	1	0	1	2	go_punish	1	0	-1	1	1	1	0	n/a	n/a	0	0.6344075002707541	1.0	412.70953289978206	412.7635180996731	413.7675794996321	414.5494748000056	416.0791217000224	417.0897173997946	n/a	n/a	418.1027695997618	419.265203199815	2020-01-17 16:10:56.011595	0.395825605425495	0.0	0.0	0.0	0.395825605425495	0.0	-0.395825605425495	0.0	0.0	0.395825605425495	0.0	0.0	-3.3181051454121486	-0.49391814588064686	-0.5060305626167872	-2.078368024082398	-1.2400521025723659	-0.5060305626167872	-0.34923761195774944	-2.5320939053006497	0.7860112401114977	-2.2910723162770554	1.2911236077796218	1	missed	0.0
6.540157400071621	7.600573800038546	nogo_punish	0.4583804998546839	6.594142599962652	9.171201399993151	11.717560800258013	2.5770588000304997	7.603809200227261	10.692744300235063	12.72521990025416	1.5673921997658908	1.0248165000229505	1.4694964997470379	n/a	1.0	n/a	1	0	2	1	nogo_punish	1	-1	0	0	1	0	0	n/a	n/a	-1	0.4583804998546839	1.0	412.70953289978206	419.3036754997447	420.3133421000093	421.8807342997752	423.4022772000171	424.4270937000401	n/a	n/a	425.4347528000362	426.90424929978326	2020-01-17 16:10:56.011595	0.395825605425495	0.0	0.0	0.0	0.395825605425495	0.0	-0.395825605425495	0.0	0.0	0.395825605425495	0.0	-5.26011783776253	-3.3181051454121486	-0.49391814588064686	-0.5060305626167872	-2.078368024082398	-1.2400521025723659	-0.5060305626167872	-5.6093554497202796	-2.5320939053006497	0.7860112401114977	-2.2910723162770554	1.2911236077796218	1	missed	0.0
14.186895499937236	6.084619900211692	nogo_reward	0.305259000044316	14.240880699828267	15.80913039995363	18.363610100001154	1.5682497001253637	15.246707099955529	17.339711599983218	19.36468539992353	0.5624232999981018	1.0238985000179355	0.9608152001164285	n/a	1.0	n/a	1	0	3	3	nogo_reward	0	1	0	0	1	0	0	n/a	n/a	1	0.305259000044316	1.0	412.70953289978206	426.95041359961033	427.9562399997376	428.5186632997357	430.0492444997653	431.0731429997832	n/a	n/a	432.0742182997056	433.035033499822	2020-01-17 16:10:56.011595	0.395825605425495	0.0	0.0	0.0	0.395825605425495	0.0	-0.395825605425495	0.0	0.0	0.395825605425495	0.0	9.82298082715379	-3.3181051454121486	-0.49391814588064686	-0.5060305626167872	-2.078368024082398	-1.2400521025723659	-0.5060305626167872	9.473743215196041	-2.5320939053006497	0.7860112401114977	-2.2910723162770554	1.2911236077796218	1	missed	0.0
20.308880100026727	7.427650700323284	nogo_reward	0.472002999857068	20.362865299917758	22.791399599984345	25.31468820013106	2.4285343000665875	21.368031000252813	24.312439300119877	26.317341200076044	1.423368599731532	1.0022489000111818	1.4731748001649976	n/a	1.0	n/a	1	0	4	3	nogo_reward	1	0	1	0	1	0	0	n/a	n/a	0	0.472002999857068	1.0	412.70953289978206	433.0723981996998	434.0775639000349	435.5009324997664	437.02197219990194	438.0242210999131	n/a	n/a	439.0268740998581	440.5000489000231	2020-01-17 16:10:56.011595	8.00446406744503	5.24410280431439	0.0	5.24410280431439	8.00446406744503	0.0	-8.00446406744503	5.24410280431439	0.0	8.00446406744503	0.0	-5.24410280431439	4.290533316607386	4.750184658433743	-0.5060305626167872	3.165734780231992	6.3685863594471686	-0.5060305626167872	-5.59334041627214	5.0765445567188845	0.7860112401114977	2.9530304880373346	1.2911236077796218	1	missed	0.0
27.772411700338125	5.833949799649417	go_punish	0.7212804998271167	27.826396900229156	29.185087400022894	31.74136540014291	1.3586904997937381	28.841505500022322	30.721244900021702	32.754076399840415	0.3435819000005722	1.0201205001212088	0.9062703000381589	n/a	1.0	n/a	1	0	5	2	go_punish	1	0	-1	1	1	1	0	n/a	n/a	0	0.7212804998271167	1.0	412.70953289978206	440.5359298000112	441.5510383998044	441.89462029980496	443.43077779980376	444.450898299925	n/a	n/a	445.4636092996225	446.36987959966063	2020-01-17 16:10:56.011595	0.395825605425495	0.0	0.0	0.0	0.395825605425495	0.0	-0.395825605425495	0.0	0.0	0.395825605425495	0.0	0.0	-3.3181051454121486	-0.49391814588064686	-0.5060305626167872	-2.078368024082398	-1.2400521025723659	-0.5060305626167872	-0.34923761195774944	-2.5320939053006497	0.7860112401114977	-2.2910723162770554	1.2911236077796218	1	missed	0.0
33.64066000003373	7.21490690018976	go_reward	0.4653996997512877	33.694645199924764	36.14299130020663	38.697576500009745	2.448346100281867	34.705746000166926	37.673891600221395	39.70132440002635	1.4372453000397059	1.0236848997883499	1.2082277000881732	n/a	1.0	n/a	1	0	6	4	go_reward	1	1	0	1	1	1	0	n/a	n/a	1	0.4653996997512877	1.0	412.70953289978206	446.4041780997068	447.415278899949	448.8525241999887	450.38342450000346	451.4071093997918	n/a	n/a	452.4108572998084	453.6190849998966	2020-01-17 16:10:56.011595	0.395825605425495	0.0	0.0	0.0	0.395825605425495	0.0	-0.395825605425495	0.0	0.0	0.395825605425495	0.0	9.82298082715379	-3.3181051454121486	-0.49391814588064686	-0.5060305626167872	-2.078368024082398	-1.2400521025723659	-0.5060305626167872	9.473743215196041	-2.5320939053006497	0.7860112401114977	-2.2910723162770554	1.2911236077796218	1	missed	0.0
40.894830300007015	6.318676800001413	nogo_reward	0.4636360998265445	40.948815499898046	42.6907430998981	45.237781099975166	1.7419276000000536	41.96631109993905	44.227544700261205	46.25106360018253	0.7244319999590516	1.0102363997139605	1.0164286997169256	n/a	1.0	n/a	1	0	7	3	nogo_reward	1	0	1	0	1	0	0	n/a	n/a	0	0.4636360998265445	1.0	412.70953289978206	453.6583483996801	454.6758439997211	455.40027599968016	456.93707760004327	457.9473139997572	n/a	n/a	458.9605964999646	459.9770251996815	2020-01-17 16:10:56.011595	3.64982013428215	2.24604320627122	0.0	2.24604320627122	3.64982013428215	0.0	-3.64982013428215	2.24604320627122	0.0	3.64982013428215	0.0	-2.24604320627122	-0.06411061655549366	1.752125060390573	-0.5060305626167872	0.16767518218882183	2.013942426284289	-0.5060305626167872	-2.5952808182289693	0.7219006235560053	0.7860112401114977	-0.04502911000583554	1.2911236077796218	1	missed	0.0
47.251194000244084	6.5561915999278995	nogo_reward	1.0	47.305179200135115	48.99061440024525	51.518626200035214	1.6854352001101347	48.31831269990653	50.49496089993045	52.51873139990494	0.6723017003387213	1.023665300104767	1.3426394001580775	n/a	1.0	n/a	1	0	8	3	nogo_reward	1	0	1	0	0	1	0	n/a	n/a	1	1.0	1.0	412.70953289978206	460.0147120999172	461.0278455996886	461.7001473000273	463.2044937997125	464.2281590998173	n/a	n/a	465.228264299687	466.5709036998451	2020-01-17 16:10:56.011595	-1.91597380144577	1.05139808299447	0.0	1.05139808299447	1.91597380144577	0.0	1.91597380144577	0.0	1.05139808299447	0.0	1.91597380144577	9.82298082715379	-5.6299045522834135	0.5574799371138232	-0.5060305626167872	-1.026969941087928	0.2800960934479091	-0.5060305626167872	9.473743215196041	-2.9279195107261446	2.7019850415572675	-2.2910723162770554	2.342521690774092	1	missed	0.0
53.84289130009711	6.641644400078803	go_reward	0.3876151996664703	53.89687649998814	55.76080000028014	58.30129350023344	1.8639235002920032	54.90411229990423	57.29084170004353	59.30490450002253	0.8566877003759146	1.0104518001899123	1.2336164000444114	n/a	1.0	n/a	1	0	9	4	go_reward	0	0	1	1	1	1	0	n/a	n/a	0	0.3876151996664703	1.0	412.70953289978206	466.6064093997702	467.6136451996863	468.4703329000622	470.0003745998256	471.0108264000155	n/a	n/a	472.0144373998046	473.248053799849	2020-01-17 16:10:56.011595	8.00446406744503	5.24410280431439	0.0	5.24410280431439	8.00446406744503	0.0	-8.00446406744503	5.24410280431439	0.0	8.00446406744503	0.0	-5.24410280431439	4.290533316607386	4.750184658433743	-0.5060305626167872	3.165734780231992	6.3685863594471686	-0.5060305626167872	-5.59334041627214	5.0765445567188845	0.7860112401114977	2.9530304880373346	1.2911236077796218	1	missed	0.0
60.52677719993517	6.769064899999648	nogo_reward	1.0	60.5807623998262	62.43306009983644	64.95981530006975	1.85229770001024	61.589108500164	63.93763360008592	65.97273010015488	0.8439515996724367	1.0221816999838325	1.3770971996709704	n/a	1.0	n/a	1	0	10	3	nogo_reward	0	1	0	0	0	1	1	n/a	n/a	0	1.0	1.0	412.70953289978206	473.29029529960826	474.29864139994606	475.1425929996185	476.647166499868	477.6693481998518	n/a	n/a	478.68226299993694	480.0593601996079	2020-01-17 16:10:56.011595	1.19724584747307	1.05139808299447	5.24410280431439	5.77509977236936	4.04685695684132	5.24410280431439	-1.19724584747307	5.24410280431439	1.05139808299447	5.24410280431439	4.04685695684132	-5.24410280431439	-2.5166849033645735	0.5574799371138232	4.738072241697603	3.6967317482869615	2.410979248843459	4.738072241697603	-5.59334041627214	2.3161832935882454	4.832868196952818	2.9530304880373346	2.342521690774092	1	missed	0.0
67.33264400018379	6.494433700107038	go_punish	1.0	67.38662920007482	69.56816160026932	72.10442640027031	2.1815324001944987	68.39161089994013	71.08460369985556	73.11733529996121	1.1765507003291873	1.0198227004147498	0.7637276002206477	n/a	1.0	n/a	1	0	11	2	go_punish	0	-1	0	1	0	0	0	n/a	n/a	0	1.0	1.0	412.70953289978206	480.0961620998569	481.1011437997222	482.2776945000514	483.7941365996376	484.8139593000524	n/a	n/a	485.8268681997433	486.5905957999639	2020-01-17 16:10:56.011595	-0.395825605425495	0.0	0.0	0.0	0.395825605425495	0.0	0.395825605425495	0.0	0.0	0.0	0.395825605425495	0.0	-4.109756356263139	-0.49391814588064686	-0.5060305626167872	-2.078368024082398	-1.2400521025723659	-0.5060305626167872	-0.34923761195774944	-2.9279195107261446	1.1818368455369928	-2.2910723162770554	1.2911236077796218	1	missed	0.0
73.8604945000261	5.965796099975705	nogo_punish	1.0	73.91447969991714	75.2841652999632	77.82056530006236	1.3696856000460684	74.91882310016081	76.80051860027015	78.83393649989739	0.3653421998023987	1.0200466997922035	1.0463392999954522	n/a	1.0	n/a	1	0	12	1	nogo_punish	1	-1	0	0	0	1	0	n/a	n/a	0	1.0	1.0	412.70953289978206	486.6240125996992	487.62835599994287	487.99369819974527	489.5100515000522	490.5300981998444	n/a	n/a	491.54346939967945	492.5898086996749	2020-01-17 16:10:56.011595	3.48250497944145	-2.69503595301409	0.0	-2.69503595301409	-3.48250497944145	0.0	-3.48250497944145	0.0	-2.69503595301409	0.0	-3.48250497944145	0.0	-0.23142577139619336	-3.188954098894737	-0.5060305626167872	-4.773403977096488	-5.118382687439311	-0.5060305626167872	-0.34923761195774944	-2.9279195107261446	-2.6964937393299526	-2.2910723162770554	-1.4039123452344684	1	missed	0.0
79.86952700000256	6.257098000030965	nogo_reward	1.0	79.9235121998936	81.28995430003852	83.82128759985795	1.3664421001449227	80.93125260015955	82.79762209998444	84.82811790006235	0.3587016998789636	1.0236654998735162	1.352492299862206	n/a	1.0	n/a	1	0	13	3	nogo_reward	1	0	1	0	0	1	0	n/a	n/a	1	1.0	1.0	412.70953289978206	492.63304509967566	493.6407854999416	493.9994871998206	495.5071549997665	496.53082049964	n/a	n/a	497.5376507998444	498.8901430997066	2020-01-17 16:10:56.011595	-0.335110575323125	1.05139808299447	2.24604320627122	2.53241187691693	2.58115378159434	2.24604320627122	0.335110575323125	2.24604320627122	1.05139808299447	2.24604320627122	2.58115378159434	7.57693762088257	-4.0490413261607685	0.5574799371138232	1.7400126436544325	0.45404385283453186	0.9452760735964791	1.7400126436544325	7.2277000089248205	-0.6818763044549248	3.3671650217058375	-0.04502911000583554	2.342521690774092	1	missed	0.0
86.16580309998244	7.672316099982709	nogo_reward	1.0	86.21978829987347	88.96532130008563	91.49278900027275	2.7455330002121627	87.23121690005064	90.47495400020853	92.50298530003056	1.7341044000349939	1.017835000064224	1.3891190998256207	n/a	1.0	n/a	1	0	14	3	nogo_reward	1	0	1	0	0	1	0	n/a	n/a	1	1.0	1.0	412.70953289978206	498.92932119965553	499.9407497998327	501.6748541998677	503.1844868999906	504.2023219000548	n/a	n/a	505.2125181998126	506.60163729963824	2020-01-17 16:10:56.011595	1.94344085579128	1.05139808299447	6.29550088730886	6.45901088899954	4.35206003151758	6.29550088730886	-1.94344085579128	6.29550088730886	1.05139808299447	6.29550088730886	4.35206003151758	3.5274799398449304	-1.7704898950463637	0.5574799371138232	5.789470324692073	4.380642864917142	2.7161823235197193	5.789470324692073	3.178242327887181	3.367581376582715	5.138071271629078	4.004428571031804	2.342521690774092	1	missed	0.0
93.87828940013424	7.2849604999646544	nogo_reward	1.0	93.93227460002527	96.48194119986147	99.02071239985526	2.5496665998362005	94.93557209987193	97.99751360015944	100.02089049993083	1.5463690999895334	1.0231987996958196	1.196344600059092	n/a	1.0	n/a	1	0	15	3	nogo_reward	1	0	1	0	0	1	1	n/a	n/a	1	1.0	1.0	412.70953289978206	506.6418074998073	507.645104999654	509.19147409964353	510.7070464999415	511.7302452996373	n/a	n/a	512.7304233997129	513.926767999772	2020-01-17 16:10:56.011595	2.92356602185976	1.05139808299447	8.02114297864057	8.11926099316956	5.09757695678081	8.02114297864057	-2.92356602185976	8.02114297864057	1.05139808299447	8.02114297864057	5.09757695678081	1.8018378485132196	-0.7903647289778837	0.5574799371138232	7.515112416023784	6.040892969087162	3.461699248782949	7.515112416023784	1.4526002365554702	5.0932234679144255	5.883588196892308	5.730070662363515	2.342521690774092	1	missed	0.0
101.20109280012548	6.025896599981934	go_punish	1.0	101.25507800001651	102.70551809994504	105.22544080018997	1.450440099928528	102.26794800022617	104.21081630000845	106.23477269988507	0.43757009971886873	1.014624500181526	1.046201900113374	n/a	1.0	n/a	1	0	16	2	go_punish	1	0	-1	1	0	0	0	n/a	n/a	-1	1.0	1.0	412.70953289978206	513.9646108997986	514.9774809000082	515.4150509997271	516.9203491997905	517.934973699972	n/a	n/a	518.9443055996671	519.9905074997805	2020-01-17 16:10:56.011595	-0.395825605425495	0.0	0.0	0.0	0.395825605425495	0.0	0.395825605425495	0.0	0.0	0.0	0.395825605425495	-5.26011783776253	-4.109756356263139	-0.49391814588064686	-0.5060305626167872	-2.078368024082398	-1.2400521025723659	-0.5060305626167872	-5.6093554497202796	-2.9279195107261446	1.1818368455369928	-2.2910723162770554	1.2911236077796218	1	missed	0.0
107.26112610008568	6.541791700292379	nogo_punish	1.0	107.3151112999767	108.82152230013162	111.3507090001367	1.5064110001549125	108.32289029983804	110.32754440000281	112.36054360028356	0.4986320002935827	1.0231646001338959	1.496359399985522	n/a	1.0	n/a	1	0	17	1	nogo_punish	0	0	-1	0	0	1	0	n/a	n/a	-1	1.0	1.0	412.70953289978206	520.0246441997588	521.0324231996201	521.5310551999137	523.0370772997849	524.0602418999188	n/a	n/a	525.0700765000656	526.5664359000511	2020-01-17 16:10:56.011595	2.82675957188221	-2.69503595301409	0.0	-1.20327763722168	-2.82675957188221	0.0	-2.82675957188221	0.0	-2.69503595301409	0.0	-2.82675957188221	-5.26011783776253	-0.8871711789554335	-3.188954098894737	-0.5060305626167872	-3.2816456613040783	-4.462637279880071	-0.5060305626167872	-5.6093554497202796	-2.9279195107261446	-2.0407483317707125	-2.2910723162770554	-1.4039123452344684	1	missed	0.0
113.83696860028431	5.794188499916345	nogo_punish	0.3685703002847731	113.89095380017534	115.16973889991641	117.7237027999945	1.2787850997410715	114.88810240011662	116.70036000013351	118.733621600084	0.281636499799788	1.023342799860984	0.9515207000076771	n/a	1.0	n/a	1	0	18	1	nogo_punish	1	-1	0	0	1	0	0	n/a	n/a	-1	0.3685703002847731	1.0	412.70953289978206	526.6004866999574	527.5976352998987	527.8792717996985	529.4098928999156	530.4332356997766	n/a	n/a	531.4431544998661	532.3946751998737	2020-01-17 16:10:56.011595	-1.04287379988237	-2.69503595301409	-2.69503595301409	-3.27954779730855	-3.73790975289645	-2.69503595301409	1.04287379988237	-2.69503595301409	-2.69503595301409	-3.73790975289645	-2.69503595301409	-2.5650818847484396	-4.756804550720013	-3.188954098894737	-3.2010665156308775	-5.357915821390948	-5.373787460894311	-3.2010665156308775	-2.914319496706189	-6.665829263622594	-1.9090247129025926	-4.986108269291146	-1.4039123452344684	1	missed	0.0
119.66967170033604	7.73024579975754	go_punish	0.3435220997780561	119.72365690022707	122.50292319990695	125.03775410028175	2.7792662996798754	120.73705920018256	124.02719449996948	126.047330299858	1.7658639997243881	1.0105596003122628	1.4065724001266062	n/a	1.0	n/a	1	0	19	2	go_punish	0	-1	0	1	1	1	0	n/a	n/a	-1	0.3435220997780561	1.0	412.70953289978206	532.4331898000091	533.4465920999646	535.212456099689	536.7367273997515	537.7472870000638	n/a	n/a	538.7568631996401	540.1634355997667	2020-01-17 16:10:56.011595	1.90756692658672	0.0	-2.69503595301409	-2.69503595301409	-0.787469026427365	-2.69503595301409	-1.90756692658672	0.0	-2.69503595301409	-0.787469026427365	-2.69503595301409	-5.26011783776253	-1.8063638242509237	-0.49391814588064686	-3.2010665156308775	-4.773403977096488	-2.423346734425226	-3.2010665156308775	-5.6093554497202796	-3.7153885371535096	-1.9090247129025926	-2.2910723162770554	-1.4039123452344684	1	missed	0.0
127.43649729993194	6.989572900347412	go_punish	1.0	127.49048249982297	129.72850089985877	132.26788150006905	2.2380184000357985	128.50474470015615	131.24448820017278	133.27741710003465	1.2237561997026205	1.02339329989627	1.2026383001357317	n/a	1.0	n/a	1	0	20	2	go_punish	1	0	-1	1	0	0	0	n/a	n/a	-1	1.0	1.0	412.70953289978206	540.200015399605	541.2142775999382	542.4380337996408	543.9540210999548	544.9774143998511	n/a	n/a	545.9869499998167	547.1895882999524	2020-01-17 16:10:56.011595	1.31501825072099	-2.69503595301409	-2.69503595301409	-3.89831359023577	-4.01005420373508	-2.69503595301409	-1.31501825072099	-2.69503595301409	-2.69503595301409	-2.69503595301409	-4.01005420373508	-2.5650818847484396	-2.3989125001166536	-3.188954098894737	-3.2010665156308775	-5.976681614318168	-5.645931911732941	-3.2010665156308775	-2.914319496706189	-5.622955463740235	-3.224042963623582	-4.986108269291146	-1.4039123452344684	1	missed	0.0
134.4612331003882	6.06082129990682	go_punish	1.0	134.51521830027923	135.91154240025207	138.45268889982253	1.3963240999728441	135.52113480027765	137.42780689988285	139.45229250006378	0.39040759997442365	1.02488199993968	1.123747100122273	n/a	1.0	n/a	1	0	21	2	go_punish	1	0	-1	1	0	0	1	n/a	n/a	-1	1.0	1.0	412.70953289978206	547.2247512000613	548.2306677000597	548.6210753000341	550.1373397996649	551.1622217996046	n/a	n/a	552.1618253998458	553.2855724999681	2020-01-17 16:10:56.011595	0.367145386954309	-2.69503595301409	-3.89831359023577	-4.48282543453023	-4.26545897719008	-3.89831359023577	-0.367145386954309	-3.89831359023577	-2.69503595301409	-3.89831359023577	-4.26545897719008	-1.3618042475267598	-3.3467853638833347	-3.188954098894737	-4.404344152852557	-6.561193458612628	-5.901336685187941	-4.404344152852557	-1.7110418594845092	-6.826233100961915	-3.479447737078582	-6.189385906512825	-1.4039123452344684	1	missed	0.0
140.56122480006889	6.720170999877155	go_punish	0.5311926999129355	140.61520999995992	142.28325510025024	144.82851629983634	1.6680451002903283	141.62703910004348	143.81691560009494	145.84218640020117	0.6562160002067685	1.0116006997413933	1.493194599635899	n/a	1.0	n/a	1	0	22	2	go_punish	1	0	-1	1	1	1	1	n/a	n/a	0	0.5311926999129355	1.0	412.70953289978206	553.324742899742	554.3365719998255	554.9927880000323	556.526448499877	557.5380491996184	n/a	n/a	558.5517192999832	560.0449138996191	2020-01-17 16:10:56.011595	0.0844194491695229	-2.69503595301409	-4.48282543453023	-4.78827585536192	-4.39840598536071	-4.48282543453023	-0.0844194491695229	-2.69503595301409	-4.48282543453023	-4.39840598536071	-4.48282543453023	2.69503595301409	-3.6295113016681206	-3.188954098894737	-4.9888559971470166	-6.866643879444318	-6.034283693358571	-4.9888559971470166	2.3457983410563408	-7.326325496086854	-3.696814194418732	-4.986108269291146	-3.1917018267506077	1	missed	0.0
147.31599480006844	6.886298900004476	go_reward	0.9728659000247716	147.36997999995947	149.44056180026382	151.99710679985583	2.0705818003043532	148.386438800022	150.97295030020177	153.00685739982873	1.054123000241816	1.0241564996540546	1.2494215001352131	n/a	1.0	n/a	1	0	23	4	go_reward	1	1	0	1	1	1	0	n/a	n/a	1	0.9728659000247716	1.0	412.70953289978206	560.0795128997415	561.0959716998041	562.1500947000459	563.6824831999838	564.7066396996379	n/a	n/a	565.7163902996108	566.965811799746	2020-01-17 16:10:56.011595	3.64982013428215	2.24604320627122	0.0	2.24604320627122	3.64982013428215	0.0	-3.64982013428215	2.24604320627122	0.0	3.64982013428215	0.0	7.57693762088257	-0.06411061655549366	1.752125060390573	-0.5060305626167872	0.16767518218882183	2.013942426284289	-0.5060305626167872	7.2277000089248205	0.7219006235560053	0.7860112401114977	-0.04502911000583554	1.2911236077796218	1	missed	0.0
154.23789110034704	6.1995097999460995	go_reward	0.5352432997897267	154.29187630023807	155.991199800279	158.52991189993918	1.6993235000409186	155.29780340008438	157.5060990001075	159.5386911998503	0.6933964001946151	1.0238128998316824	0.9526949003338814	n/a	1.0	n/a	1	0	24	4	go_reward	1	1	0	1	1	1	0	n/a	n/a	1	0.5352432997897267	1.0	412.70953289978206	567.0014092000201	568.0073362998664	568.700732700061	570.2156318998896	571.2394447997212	n/a	n/a	572.2482240996324	573.2009189999662	2020-01-17 16:10:56.011595	9.52461226346531	6.29550088730886	0.0	6.29550088730886	9.52461226346531	0.0	-9.52461226346531	6.29550088730886	0.0	9.52461226346531	0.0	3.5274799398449304	5.810681512627665	5.801582741428213	-0.5060305626167872	4.217132863226462	7.888734555467448	-0.5060305626167872	3.178242327887181	6.596692752739164	0.7860112401114977	4.004428571031804	1.2911236077796218	1	missed	0.0
160.47842460032552	6.2112304996699095	go_punish	1.0	160.53240980021656	162.45599150005728	164.9641827000305	1.9235816998407245	161.54240849986672	163.96152679994702	165.96905860025436	0.913583000190556	1.0026559000834823	0.7745816996321082	n/a	1.0	n/a	1	0	25	2	go_punish	1	0	-1	1	0	0	0	n/a	n/a	-1	1.0	1.0	412.70953289978206	573.2419426999986	574.2519413996488	575.1655243998393	576.6710596997291	577.6737155998126	n/a	n/a	578.6785915000364	579.4531731996685	2020-01-17 16:10:56.011595	-2.68569316587443	-1.20327763722168	-4.48282543453023	-2.26334624527618	-1.7971322686558	-4.48282543453023	2.68569316587443	-4.48282543453023	-1.20327763722168	-4.48282543453023	-1.7971322686558	-0.7772924032323001	-6.399623916712073	-1.6971957831023268	-4.9888559971470166	-4.341714269358578	-3.433009976653661	-4.9888559971470166	-1.1265300151900495	-7.410744945256374	-1.0111210285443022	-6.773897750807285	0.08784597055794174	1	missed	0.0
166.732296500355	7.7165610999800265	nogo_reward	0.4603537996299565	166.78628170024604	169.55315610021353	172.08357209991664	2.7668743999674916	167.79442270006984	171.07391929998994	173.09673009999096	1.758733400143683	1.0096527999266982	1.4061127002350986	n/a	1.0	n/a	1	0	26	3	nogo_reward	1	0	1	0	1	0	0	n/a	n/a	0	0.4603537996299565	1.0	412.70953289978206	579.4958146000281	580.5039555998519	582.2626889999956	583.783452199772	584.7931049996987	n/a	n/a	585.806262999773	587.2123757000081	2020-01-17 16:10:56.011595	-3.3867375422954	1.05139808299447	8.82791276422579	8.88939540075136	5.44117522193039	8.82791276422579	3.3867375422954	1.05139808299447	8.82791276422579	5.44117522193039	8.82791276422579	-1.05139808299447	-7.100668293133044	0.5574799371138232	8.321882201609002	6.811027376668962	3.805297513932529	8.321882201609002	-1.4006356949522194	2.5132557112042453	9.613924004337287	-1.2396742332825854	10.11903637200541	1	missed	0.0
174.48363000014797	6.162808500230312	nogo_punish	1.0	174.537615200039	176.32714289985597	178.8598205000162	1.789527699816972	175.53646710002795	177.84029529988766	179.86196799995378	0.7906757998280227	1.0195252001285553	0.8384557003155351	n/a	1.0	n/a	1	0	27	1	nogo_punish	1	-1	0	0	0	1	0	n/a	n/a	0	1.0	1.0	412.70953289978206	587.2471480998211	588.24599999981	589.036675799638	590.5498281996697	591.5693533997983	n/a	n/a	592.5715008997358	593.4099566000514	2020-01-17 16:10:56.011595	2.6512428961133	-3.89831359023577	-2.69503595301409	-4.20376401106746	-5.34627884912739	-2.69503595301409	-2.6512428961133	-2.69503595301409	-3.89831359023577	-2.69503595301409	-5.34627884912739	2.69503595301409	-1.0626878547243437	-4.3922317361164165	-3.2010665156308775	-6.282132035149859	-6.982156557125251	-3.2010665156308775	2.3457983410563408	-5.622955463740235	-4.560267609015892	-4.986108269291146	-2.6071899824561484	1	missed	0.0
180.6853622002527	6.974813299719244	go_punish	1.0	180.73934740014374	182.73527179984376	185.25606619985774	1.9959243997000158	181.751232100185	184.2402197001502	186.26781270001084	0.9840396996587515	1.0158464997075498	1.4463479998521507	n/a	1.0	n/a	1	0	28	2	go_punish	1	0	-1	1	0	0	0	n/a	n/a	-1	1.0	1.0	412.70953289978206	593.4488802999258	594.4607649999671	595.4448046996258	596.9497525999323	597.9655990996398	n/a	n/a	598.9773455997929	600.423693599645	2020-01-17 16:10:56.011595	-2.29207805756362	-1.20327763722168	-4.78827585536192	-3.85523646737025	-2.4961977977983	-4.78827585536192	2.29207805756362	-4.78827585536192	-1.20327763722168	-4.78827585536192	-2.4961977977983	-0.47184198240061015	-6.006008808401264	-1.6971957831023268	-5.2943064179787065	-5.933604491452648	-4.132075505796161	-5.2943064179787065	-0.8210795943583595	-7.716195366088064	-1.7101865576868023	-7.079348171638975	0.08784597055794174	1	missed	0.0
187.696803400293	6.4531974997371435	go_reward	0.2869721003808081	187.75078860018402	189.72854600008577	192.30017699999735	1.9777573999017477	188.75631269998848	191.27465690020472	193.31483269995078	0.9722333000972867	1.0255200997926295	0.8891533999703825	n/a	1.0	n/a	1	0	29	4	go_reward	1	1	0	1	1	1	0	n/a	n/a	1	0.2869721003808081	1.0	412.70953289978206	600.4603214999661	601.4658455997705	602.4380788998678	603.9841897999868	605.0097098997794	n/a	n/a	606.0243655997328	606.9135189997032	2020-01-17 16:10:56.011595	12.0245531750729	8.02114297864057	0.0	8.02114297864057	12.0245531750729	0.0	-12.0245531750729	8.02114297864057	0.0	12.0245531750729	0.0	1.8018378485132196	8.310622424235255	7.527224832759924	-0.5060305626167872	5.942774954558173	10.38867546707504	-0.5060305626167872	1.4526002365554702	9.096633664346754	0.7860112401114977	5.730070662363515	1.2911236077796218	1	missed	0.0
194.18464200012386	6.983039199840277	go_punish	1.0	194.2386272000149	196.75186790013686	199.29077039984986	2.513240700121969	195.23560980008915	198.2670320002362	200.2911184001714	1.5162581000477076	1.0237383996136487	0.9305479996837676	n/a	1.0	n/a	1	0	30	2	go_punish	1	0	-1	1	0	0	1	n/a	n/a	-1	1.0	1.0	412.70953289978206	606.948160099797	607.9451426998712	609.4614007999189	610.9765649000183	612.0003032996319	n/a	n/a	613.0006512999535	613.9311992996372	2020-01-17 16:10:56.011595	-2.1633146109799	-1.20327763722168	-4.95838219829026	-4.53585320071536	-2.79506758731037	-4.95838219829026	2.1633146109799	-4.95838219829026	-1.20327763722168	-4.95838219829026	-2.79506758731037	-0.30173563947226967	-5.877245361817543	-1.6971957831023268	-5.464412760907047	-6.614221224797758	-4.430945295308231	-5.464412760907047	-0.650973251430019	-7.886301709016404	-2.0090563471988725	-7.249454514567315	0.08784597055794174	1	missed	0.0
201.2116380999796	6.056273000314832	nogo_reward	1.0	201.26562329987064	202.84671539999545	205.36606170004234	1.5810921001248062	202.28405159991235	204.35138350026682	206.37513890024275	0.5626638000831008	1.014678199775517	0.9467573999427259	n/a	1.0	n/a	1	0	31	3	nogo_reward	1	0	1	0	0	1	0	n/a	n/a	1	1.0	1.0	412.70953289978206	613.9751561996527	614.9935844996944	615.5562482997775	617.0609164000489	618.0755945998244	n/a	n/a	619.0846718000248	620.0314291999675	2020-01-17 16:10:56.011595	6.10036035467152	0.53099696805497	8.82791276422579	4.03195403952008	2.72755240955426	8.82791276422579	-6.10036035467152	8.82791276422579	0.53099696805497	8.82791276422579	2.72755240955426	0.9950680629280004	2.3864296038338764	0.03707882217432312	8.321882201609002	1.9535860154376823	1.0916747015563992	8.321882201609002	0.645830450970251	5.899993253499645	3.5135636496657576	6.536840447948734	1.8221205758345917	1	missed	0.0
207.30430310033262	7.037477399688214	go_punish	0.263094499707222	207.35828830022365	209.84640099992976	212.3979548001662	2.4881126997061074	208.37264030007645	211.37829350028187	213.41116179991513	1.473760699853301	1.0196612998843193	0.9846038999967277	n/a	1.0	n/a	1	0	32	2	go_punish	1	0	-1	1	1	1	1	n/a	n/a	0	0.263094499707222	1.0	412.70953289978206	620.0678212000057	621.0821731998585	622.5559338997118	624.0878264000639	625.1074876999483	n/a	n/a	626.1206946996972	627.1052985996939	2020-01-17 16:10:56.011595	2.12377467972814	-1.20327763722168	-5.05851410459193	-4.85474892443289	-2.93473942486379	-5.05851410459193	-2.12377467972814	-1.20327763722168	-5.05851410459193	-2.93473942486379	-5.05851410459193	1.20327763722168	-1.5901560711095035	-1.6971957831023268	-5.564544667208717	-6.933116948515288	-4.570617132861651	-5.564544667208717	0.8540400252639306	-5.862658935589934	-4.272502864480432	-3.4943499534987357	-3.7673904968123084	1	missed	0.0
214.37777260039002	6.078492899890989	go_punish	0.3893104000017047	214.43175780028105	215.93804749986157	218.48816480021924	1.5062896995805204	215.43735260004178	217.46841609990224	219.49476659996435	0.5006948998197913	1.0197487003169954	1.0154841002076864	n/a	1.0	n/a	1	0	33	2	go_punish	1	0	-1	1	1	1	0	n/a	n/a	0	0.3893104000017047	1.0	412.70953289978206	627.1412907000631	628.1468854998238	628.6475803996436	630.1779489996843	631.1976977000013	n/a	n/a	632.2042994997464	633.2197835999541	2020-01-17 16:10:56.011595	3.85515674069825	-0.584511844294461	-5.05851410459193	-2.3216558976716	-1.20335736389368	-5.05851410459193	-3.85515674069825	-0.584511844294461	-5.05851410459193	-1.20335736389368	-5.05851410459193	0.584511844294461	0.1412259898606063	-1.078429990175108	-5.564544667208717	-4.4000239217539985	-2.839235071891541	-5.564544667208717	0.23527423233671158	-4.131276874619825	-4.272502864480432	-2.8755841605715164	-3.7673904968123084	1	missed	0.0
220.4937112000771	6.491738700307906	go_punish	0.274972700048238	220.54769639996812	222.20850900001824	224.74570679990575	1.6608126000501215	221.55142030026764	223.73421509983018	225.76477649994195	0.6570886997506022	1.0114917000755668	1.274658600334078	n/a	1.0	n/a	1	0	34	2	go_punish	1	0	-1	1	1	1	1	n/a	n/a	0	0.274972700048238	1.0	412.70953289978206	633.2572292997502	634.2609532000497	634.9180418998003	636.4437479996122	637.4552396996878	n/a	n/a	638.474309399724	639.7489680000581	2020-01-17 16:10:56.011595	4.62335817751424	-0.305450420831692	-5.05851410459193	-1.20667756054318	-0.435155927077693	-5.05851410459193	-4.62335817751424	-0.305450420831692	-5.05851410459193	-0.435155927077693	-5.05851410459193	0.305450420831692	0.9094274266765967	-0.7993685667123389	-5.564544667208717	-3.2850455846255784	-2.071033635075554	-5.564544667208717	-0.043787191126057445	-3.363075437803838	-4.272502864480432	-2.5965227371087476	-3.7673904968123084	1	missed	0.0
227.0211293003522	6.141148000024259	go_punish	0.3531698998995125	227.07511450024322	228.5593126998283	231.10055200010538	1.4841981995850801	228.0902422000654	230.08053829986602	232.11366020003334	0.4690704997628927	1.0200137002393603	1.102602300234139	n/a	1.0	n/a	1	0	35	2	go_punish	1	0	-1	1	1	1	1	n/a	n/a	0	0.3531698998995125	1.0	412.70953289978206	639.7846474000253	640.7997750998475	641.2688455996104	642.7900711996481	643.8100848998874	n/a	n/a	644.8231930998154	645.9257954000495	2020-01-17 16:10:56.011595	4.99186558020073	-0.170106342928343	-5.05851410459193	-0.673417308926877	-0.0666485243912029	-5.05851410459193	-4.99186558020073	-0.170106342928343	-5.05851410459193	-0.0666485243912029	-5.05851410459193	0.170106342928343	1.2779348293630863	-0.6640244888089899	-5.564544667208717	-2.751785333009275	-1.7025262323890638	-5.564544667208717	-0.17913126902940643	-2.9945680351173474	-4.272502864480432	-2.4611786592053986	-3.7673904968123084	1	missed	0.0
233.2024221001193	7.145263799931854	nogo_reward	1.0	233.25640730001032	236.10327319987118	238.64361920021474	2.846865899860859	234.2670908998698	237.6185197001323	239.6523573002778	1.8361823000013828	1.0250995000824332	0.7493137996643782	n/a	1.0	n/a	1	0	36	3	nogo_reward	1	0	1	0	0	1	0	n/a	n/a	1	1.0	1.0	412.70953289978206	645.9659401997924	646.9766237996519	648.8128060996532	650.3280525999144	651.3531520999968	n/a	n/a	652.3618902000599	653.1112039997242	2020-01-17 16:10:56.011595	5.06040703661336	0.53099696805497	9.23605106332573	7.23788377591899	4.17564402671236	9.23605106332573	-5.06040703661336	9.23605106332573	0.53099696805497	9.23605106332573	4.17564402671236	0.58692976382806	1.3464762857757164	0.03707882217432312	8.730020500708942	5.159515751836592	2.5397663187144985	8.730020500708942	0.2376921518703105	6.308131552599585	4.961655266823858	6.944978747048674	1.8221205758345917	1	missed	0.0
240.384766000323	5.975107299629599	nogo_punish	0.3145969002507627	240.43875120021403	241.86888669990003	244.4122430998832	1.4301354996860027	241.45233790017664	243.39077530009672	245.41335109993815	0.41654879972338676	1.0214677997864783	1.000507399905473	n/a	1.0	n/a	1	0	37	1	nogo_punish	1	-1	0	0	1	0	0	n/a	n/a	-1	0.3145969002507627	1.0	412.70953289978206	653.1482840999961	654.1618707999587	654.5784195996821	656.1003081998788	657.1217759996653	n/a	n/a	658.1228839997202	659.1233913996257	2020-01-17 16:10:56.011595	-3.15594357627757	-3.89831359023577	-1.20327763722168	-1.95789582444449	-4.35922121349925	-1.20327763722168	3.15594357627757	-3.89831359023577	-1.20327763722168	-4.35922121349925	-1.20327763722168	-1.3618042475267598	-6.869874327115213	-4.3922317361164165	-1.7093081998384672	-4.036263848526888	-5.995098921497111	-1.7093081998384672	-1.7110418594845092	-7.287140724225395	-0.4172663971101823	-6.189385906512825	0.08784597055794174	1	missed	0.0
246.39550140034407	6.393114799633622	go_reward	0.3130128998309374	246.4494866002351	247.82552970014513	250.36759980022907	1.3760430999100208	247.4661830002442	249.35650409990922	251.3805801998824	0.35934669990092516	1.0110957003198564	1.4620211999863386	n/a	1.0	n/a	1	0	38	4	go_reward	0	0	1	1	1	1	0	n/a	n/a	0	0.3130128998309374	1.0	412.70953289978206	659.1590195000172	660.1757159000263	660.5350625999272	662.0660369996913	663.0771327000111	n/a	n/a	664.0901130996644	665.5521342996508	2020-01-17 16:10:56.011595	13.1909542335566	8.82791276422579	0.0	8.82791276422579	13.1909542335566	0.0	-13.1909542335566	8.82791276422579	0.0	13.1909542335566	0.0	-8.82791276422579	9.477023482718955	8.333994618345143	-0.5060305626167872	6.749544740143392	11.55507652555874	-0.5060305626167872	-9.177150376183539	10.263034722830454	0.7860112401114977	6.536840447948734	1.2911236077796218	1	missed	0.0
252.83012480009347	7.1369288000278175	nogo_reward	1.0	252.8841099999845	255.24139819992706	257.7792310998775	2.357288199942559	253.88238159986213	256.7556779999286	258.78869519988075	1.3590166000649333	1.0235530999489129	1.2323436001315713	n/a	1.0	n/a	1	0	39	3	nogo_reward	1	0	1	0	0	1	0	n/a	n/a	1	1.0	1.0	412.70953289978206	665.5936428997666	666.5919144996442	667.9509310997091	669.4652108997107	670.4887639996596	n/a	n/a	671.4982280996628	672.7305716997944	2020-01-17 16:10:56.011595	4.69025498468269	0.53099696805497	9.45702774680974	8.55111504361082	4.76677276212706	9.45702774680974	-4.69025498468269	9.45702774680974	0.53099696805497	9.45702774680974	4.76677276212706	0.3659530803440507	0.9763242338450469	0.03707882217432312	8.950997184192952	6.472747019528422	3.1308950541291987	8.950997184192952	0.01671546838630128	6.529108236083594	5.552784002238558	7.165955430532684	1.8221205758345917	1	missed	0.0
260.0090276999399	7.289422300178558	nogo_reward	1.0	260.06301289983094	262.5415846002288	265.060037500225	2.478571700397879	261.07304710010067	264.05650130007416	266.0620396002196	1.46853750012815	1.0035362001508474	1.2903955997899175	n/a	1.0	n/a	1	0	40	3	nogo_reward	1	0	1	0	0	1	0	n/a	n/a	1	1.0	1.0	412.70953289978206	672.772545799613	673.7825799998827	675.2511175000109	676.7660341998562	677.7695704000071	n/a	n/a	678.7715725000016	680.0619680997916	2020-01-17 16:10:56.011595	4.5524046201007	0.53099696805497	9.58390237049701	9.14274746080262	5.03149775039631	9.58390237049701	-4.5524046201007	9.58390237049701	0.53099696805497	9.58390237049701	5.03149775039631	0.23907845665678096	0.8384738692630562	0.03707882217432312	9.077871807880221	7.0643794367202215	3.3956200423984493	9.077871807880221	-0.11015915530096848	6.655982859770864	5.817508990507808	7.292830054219953	1.8221205758345917	1	missed	0.0
267.3386874003336	7.7436633999459445	nogo_reward	1.0	267.3926726002246	270.1125186998397	272.63205800019205	2.719846099615097	268.4031150001101	271.607056400273	273.64568200008944	1.7094036997295916	1.025001599919051	1.490654000081122	n/a	1.0	n/a	1	0	41	3	nogo_reward	1	0	1	0	0	1	1	n/a	n/a	1	1.0	1.0	412.70953289978206	680.1022055000067	681.1126478998922	682.8220515996218	684.316589300055	685.3415908999741	n/a	n/a	686.3552148998715	687.8458688999526	2020-01-17 16:10:56.011595	4.50045216825511	0.53099696805497	9.66054352900917	9.43212038377594	5.16009136075407	9.66054352900917	-4.50045216825511	9.66054352900917	0.53099696805497	9.66054352900917	5.16009136075407	0.1624372981446207	0.7865214174174668	0.03707882217432312	9.154512966392382	7.353752359693543	3.5242136527562087	9.154512966392382	-0.18680031381312873	6.732624018283024	5.946102600865568	7.369471212732114	1.8221205758345917	1	missed	0.0
275.1232753000222	7.764612700324506	nogo_reward	1.0	275.17726049991325	278.15748330019414	280.6888279998675	2.980222800280899	276.1891474998556	279.6749773998745	281.69820600003004	1.9683358003385365	1.0138505999930203	1.2436672002077103	n/a	1.0	n/a	1	0	42	3	nogo_reward	1	0	1	0	0	1	1	n/a	n/a	1	1.0	1.0	412.70953289978206	687.8867933996953	688.8986803996377	690.8670161999762	692.3845102996565	693.3983608996496	n/a	n/a	694.4077388998121	695.6514061000198	2020-01-17 16:10:56.011595	4.48169233642528	0.53099696805497	9.70891962040646	9.58419711899807	5.22722728398118	9.70891962040646	-4.48169233642528	9.70891962040646	0.53099696805497	9.70891962040646	5.22722728398118	0.11406120674732989	0.7677615855876367	0.03707882217432312	9.202889057789672	7.505829094915672	3.591349575983319	9.202889057789672	-0.23517640521041955	6.781000109680315	6.013238524092678	7.417847304129404	1.8221205758345917	1	missed	0.0
282.9307957999408	6.745179800316691	nogo_reward	1.0	282.98478099983186	284.8272285000421	287.3461831002496	1.8424475002102554	283.992321500089	286.33216670015827	288.3461255999282	0.8349069999530911	1.01401640009135	1.3838352002203465	n/a	1.0	n/a	1	0	43	3	nogo_reward	1	0	1	0	0	1	1	n/a	n/a	1	1.0	1.0	412.70953289978206	695.6943138996139	696.7018543998711	697.5367613998242	699.0416995999403	700.0557160000317	n/a	n/a	701.0556584997103	702.4394936999306	2020-01-17 16:10:56.011595	4.47604088843681	0.53099696805497	9.74063692164302	9.6693198886529	5.26459603320621	9.74063692164302	-4.47604088843681	9.74063692164302	0.53099696805497	9.74063692164302	5.26459603320621	0.0823439055107702	0.7621101375991661	0.03707882217432312	9.234606359026232	7.590951864570503	3.6287183252083492	9.234606359026232	-0.26689370644697924	6.812717410916875	6.050607273317708	7.449564605365964	1.8221205758345917	1	missed	0.0
289.71479610027745	6.837127699982375	nogo_reward	1.0	289.7687813001685	292.1139734000899	294.6412900998257	2.3451920999214053	290.7865593000315	293.6296827001497	295.643351000268	1.3274141000583768	1.0116073996759951	0.9625579998828471	n/a	1.0	n/a	1	0	44	3	nogo_reward	0	1	0	0	0	1	1	n/a	n/a	0	1.0	1.0	412.70953289978206	702.4783141999505	703.4960921998136	704.823506299872	706.3392155999318	707.3508229996078	n/a	n/a	708.3528839000501	709.3154418999329	2020-01-17 16:10:56.011595	4.47551694581907	0.53099696805497	9.76212630076362	9.7196724166102	5.28660935494455	9.76212630076362	-4.47551694581907	9.76212630076362	0.53099696805497	9.76212630076362	5.28660935494455	-9.76212630076362	0.7615861949814264	0.03707882217432312	9.256095738146833	7.641304392527802	3.6507316469466886	9.256095738146833	-10.11136391272137	6.834206790037475	6.072620595056048	7.471053984486565	1.8221205758345917	1	missed	0.0
296.5880512003787	6.685220699757338	nogo_punish	1.0	296.6420364002697	298.57052269997075	301.09566179988906	1.928486299701035	297.6484094001353	300.074601800181	302.1087597999722	0.9221132998354733	1.0210599997080863	1.218497300054878	n/a	1.0	n/a	1	0	45	1	nogo_punish	1	-1	0	0	0	1	0	n/a	n/a	0	1.0	1.0	412.70953289978206	709.3515693000518	710.3579422999173	711.2800555997528	712.784134699963	713.8051946996711	n/a	n/a	714.8182926997542	716.0367899998091	2020-01-17 16:10:56.011595	4.49868872694481	-4.48282543453023	-1.20327763722168	-3.68513012444191	-5.70196636416649	-1.20327763722168	-4.49868872694481	-1.20327763722168	-4.48282543453023	-1.20327763722168	-5.70196636416649	1.20327763722168	0.7847579761071661	-4.976743580410877	-1.7093081998384672	-5.763498148524308	-7.337844072164351	-1.7093081998384672	0.8540400252639306	-4.131197147947825	-4.915955124054992	-3.4943499534987357	-3.1917018267506077	1	missed	0.0
303.3119853003882	6.299096699804068	go_punish	0.4982034000568092	303.3659705002792	304.6963659999892	307.25233930023387	1.3303954997099936	304.3669946002774	306.2327032000758	308.26565180020407	0.3293713997118175	1.0196361001580954	1.3994153998792171	n/a	1.0	n/a	1	0	46	2	go_punish	1	0	-1	1	1	1	0	n/a	n/a	0	0.4982034000568092	1.0	412.70953289978206	716.0755034000613	717.0765275000595	717.4058988997713	718.9422360998578	719.9618722000159	n/a	n/a	720.9751846999861	722.3746000998653	2020-01-17 16:10:56.011595	5.18116712876417	-0.100131906301665	-5.05851410459193	-0.399381952961337	0.122653024172241	-5.05851410459193	-5.18116712876417	-0.100131906301665	-5.05851410459193	0.122653024172241	-5.05851410459193	0.100131906301665	1.4672363779265267	-0.5940500521823119	-5.564544667208717	-2.477749977043735	-1.5132246838256198	-5.564544667208717	-0.24910570565608442	-2.8052664865539034	-4.272502864480432	-2.3912042225787205	-3.7673904968123084	1	missed	0.0
309.6442440999672	6.371837800368667	nogo_punish	1.0	309.6982292998582	311.7298464998603	314.2542262002826	2.0316172000020742	310.6912902002223	313.244551199954	315.2640770999715	1.038556299638003	1.0096750003285706	0.8059900002554059	n/a	1.0	n/a	1	0	47	1	nogo_punish	1	-1	0	0	0	1	1	n/a	n/a	0	1.0	1.0	412.70953289978206	722.4077621996403	723.4008231000043	724.4393793996423	725.9540840997361	726.9637591000646	n/a	n/a	727.9736099997535	728.7796000000089	2020-01-17 16:10:56.011595	4.26348878688833	-4.48282543453023	-0.584511844294461	-1.74068534139961	-4.84800063118279	-0.584511844294461	-4.26348878688833	-0.584511844294461	-4.48282543453023	-0.584511844294461	-4.84800063118279	0.584511844294461	0.5495580360506866	-4.976743580410877	-1.0905424069112484	-3.819053365482008	-6.483878339180651	-1.0905424069112484	0.23527423233671158	-3.5124313550206057	-4.061989391071292	-2.8755841605715164	-3.1917018267506077	1	missed	0.0
316.05198989994824	6.615678500384092	go_reward	0.1768518001772463	316.10597509983927	317.864508099854	320.40029300004244	1.7585330000147223	317.1057939999737	319.38501630024984	321.4004180999473	0.7587140998803079	1.0152766997925937	1.3212355002760887	n/a	1.0	n/a	1	0	48	4	go_reward	1	1	0	1	1	1	0	n/a	n/a	1	0.1768518001772463	1.0	412.70953289978206	728.8155079996213	729.8153268997557	730.574040999636	732.0945492000319	733.1098258998245	n/a	n/a	734.1099509997293	735.4311865000054	2020-01-17 16:10:56.011595	6.17112348313094	3.99194825901134	0.0	3.99194825901134	6.17112348313094	0.0	-6.17112348313094	3.99194825901134	0.0	6.17112348313094	0.0	5.83103256814245	2.4571927322932967	3.4980301131306932	-0.5060305626167872	1.9135802349289421	4.535245775133079	-0.5060305626167872	5.4817949561847	3.2432039724047956	0.7860112401114977	1.7008759427342848	1.2911236077796218	1	missed	0.0
322.7114221001975	7.6771252998150885	nogo_reward	1.0	322.76540730008855	325.53588599991053	328.0740446001291	2.770478699821979	323.7724500000477	327.0506842001341	329.08369430014864	1.7634359998628497	1.0233603999949992	1.358838299755007	n/a	1.0	n/a	1	0	49	3	nogo_reward	1	0	1	0	0	1	0	n/a	n/a	1	1.0	1.0	412.70953289978206	735.4749401998706	736.4819828998297	738.2454188996926	739.7602170999162	740.7835774999112	n/a	n/a	741.7932271999307	743.1520654996857	2020-01-17 16:10:56.011595	1.59729843854108	0.53099696805497	4.53300278672429	4.5068261858158	2.9357043481832	4.53300278672429	-1.59729843854108	4.53300278672429	0.53099696805497	4.53300278672429	2.9357043481832	5.2899780404295	-2.116632312296564	0.03707882217432312	4.026972224107503	2.4284581617334022	1.299826640185339	4.026972224107503	4.94074042847175	1.6050832759981453	3.7217155882946975	2.2419304704472345	1.8221205758345917	1	missed	0.0
330.423301700037	7.020817100070417	go_punish	0.6595114995725453	330.477286899928	332.49394060019404	335.035775099881	2.0166537002660334	331.49404440028593	334.024487500079	336.0446097999811	0.9998961999081075	1.0112875998020172	1.4534942000173032	n/a	1.0	n/a	1	0	50	2	go_punish	1	0	-1	1	1	1	0	n/a	n/a	0	0.6595114995725453	1.0	412.70953289978206	743.1868197997101	744.203577300068	745.2034734999761	746.734020399861	747.745307999663	n/a	n/a	748.7541426997632	750.2076368997805	2020-01-17 16:10:56.011595	5.28447127846997	-0.0618509404178952	-5.05851410459193	-0.249461050595805	0.225957173878037	-5.05851410459193	-5.28447127846997	-0.0618509404178952	-5.05851410459193	0.225957173878037	-5.05851410459193	0.0618509404178952	1.570540527632326	-0.555769086298542	-5.564544667208717	-2.327829074678203	-1.4099205341198238	-5.564544667208717	-0.28738667153985425	-2.7019623368481076	-4.272502864480432	-2.3529232566949507	-3.7673904968123084	1	missed	0.0
337.48004970001057	6.728252500295639	nogo_punish	1.0	337.5340348999016	339.8253573998809	342.35319539997727	2.2913224999792874	338.540201399941	341.32943690009415	343.3622926999815	1.2851559999398887	1.0237584998831153	0.8999947002157569	n/a	1.0	n/a	1	0	51	1	nogo_punish	0	0	-1	0	0	1	0	n/a	n/a	-1	1.0	1.0	412.70953289978206	750.2435677996837	751.2497342997231	752.534890299663	754.0389697998762	755.0627282997593	n/a	n/a	756.0718255997635	756.9718202999793	2020-01-17 16:10:56.011595	4.17126760652071	-4.48282543453023	-0.305450420831692	-0.894584393779225	-4.4767180273524	-0.305450420831692	-4.17126760652071	-0.305450420831692	-4.48282543453023	-0.305450420831692	-4.4767180273524	-4.954667416930838	0.4573368556830668	-4.976743580410877	-0.8114809834484793	-2.972952417861623	-6.112595735350261	-0.8114809834484793	-5.303905028888588	-3.233369931557837	-3.6907067872409027	-2.5965227371087476	-3.1917018267506077	1	missed	0.0
344.25096780015156	5.910287799779326	nogo_reward	1.0	344.3049530000426	345.7774538998492	348.31677770009264	1.4725008998066187	345.30927149998024	347.2931054001674	349.32604480022565	0.46818239986896515	1.023672299925238	0.8891959995962679	n/a	1.0	n/a	1	0	52	3	nogo_reward	1	0	1	0	0	1	0	n/a	n/a	1	1.0	1.0	412.70953289978206	757.0144858998246	758.0188043997623	758.4869867996313	760.0026382999495	761.0263105998747	n/a	n/a	762.0355777000077	762.924773699604	2020-01-17 16:10:56.011595	3.2406597291879	0.53099696805497	7.54176404964641	7.52511902107772	4.30110432045851	7.54176404964641	-3.2406597291879	7.54176404964641	0.53099696805497	7.54176404964641	4.30110432045851	2.28121677750738	-0.4732710216497438	0.03707882217432312	7.035733487029623	5.446750996995322	2.665226612460649	7.035733487029623	1.9319791655496306	4.613844538920265	5.087115560570008	5.250691733369354	1.8221205758345917	1	missed	0.0
350.19622010039166	6.327896599657834	go_reward	0.2860860996879637	350.2502053002827	351.8293439000845	354.36396209988743	1.5791385998018086	351.2675558999181	353.3498292998411	355.3656446998939	0.5617880001664162	1.0141328000463545	1.2124572000466287	n/a	1.0	n/a	1	0	53	4	go_reward	1	1	0	1	1	1	0	n/a	n/a	1	0.2860860996879637	1.0	412.70953289978206	762.9597382000647	763.9770887997001	764.5388767998666	766.0593621996231	767.0734949996695	n/a	n/a	768.075177599676	769.2876347997226	2020-01-17 16:10:56.011595	10.8439409753542	7.21098454053853	0.0	7.21098454053853	10.8439409753542	0.0	-10.8439409753542	7.21098454053853	0.0	10.8439409753542	0.0	2.61199628661526	7.130010224516557	6.717066394657883	-0.5060305626167872	5.132616516456132	9.20806326735634	-0.5060305626167872	2.2627586746575106	7.916021464628056	0.7860112401114977	4.919912224261475	1.2911236077796218	1	missed	0.0
356.5595392002724	6.876118099782616	go_reward	0.3059200998395681	356.61352440016344	359.0576686998829	361.61220759991556	2.4441442997194827	357.62917029997334	360.5881675002165	362.6212267000228	1.4284983999095857	1.0240400996990502	0.8684157999232411	n/a	1.0	n/a	1	0	54	4	go_reward	1	1	0	1	1	1	0	n/a	n/a	1	0.3059200998395681	1.0	412.70953289978206	769.3230572999455	770.3387031997554	771.767201599665	773.2977003999986	774.3217404996976	n/a	n/a	775.3307595998049	776.1991753997281	2020-01-17 16:10:56.011595	12.7601794964955	8.53250428750254	0.0	8.53250428750254	12.7601794964955	0.0	-12.7601794964955	8.53250428750254	0.0	12.7601794964955	0.0	1.2904765396512499	9.046248745657856	8.038586141621893	-0.5060305626167872	6.454136263420143	11.12430178849764	-0.5060305626167872	0.9412389276935005	9.832259985769355	0.7860112401114977	6.241431971225484	1.2911236077796218	1	missed	0.0
363.47862970037386	6.331407799851149	nogo_reward	1.0	363.5326149002649	365.0937287998386	367.6198960002512	1.5611138995736837	364.5408450001851	366.5991660999134	368.62065930012614	0.5528837996535003	1.0207299003377557	1.243363399989903	n/a	1.0	n/a	1	0	55	3	nogo_reward	1	0	1	0	0	1	0	n/a	n/a	1	1.0	1.0	412.70953289978206	776.242147800047	777.2503778999671	777.8032616996206	779.3086989996955	780.3294289000332	n/a	n/a	781.3301921999082	782.5735555998981	2020-01-17 16:10:56.011595	3.89799353586064	0.53099696805497	8.74422001031089	8.73334578640098	4.84622647445025	8.74422001031089	-3.89799353586064	8.74422001031089	0.53099696805497	8.74422001031089	4.84622647445025	1.0787608168429	0.18406278502299633	0.03707882217432312	8.238189447694102	6.654977762318582	3.2103487664523893	8.238189447694102	0.7295232048851505	5.816300499584745	5.632237714561748	6.453147694033834	1.8221205758345917	1	missed	0.0
369.8518648999743	6.165428100153804	nogo_reward	1.0	369.90585009986535	371.76479429984465	374.3066070000641	1.8589441999793053	370.92135700024664	373.28290309989825	375.31093880021945	0.8434372995980084	1.0237039001658559	0.7603393997997046	n/a	1.0	n/a	1	0	56	3	nogo_reward	1	0	1	0	0	1	0	n/a	n/a	1	1.0	1.0	412.70953289978206	782.6153829996474	783.6308899000287	784.4743271996267	785.9924359996803	787.0161398998462	n/a	n/a	788.0204717000015	788.7808110998012	2020-01-17 16:10:56.011595	4.18644170446488	0.53099696805497	9.27042918397495	9.26315395626334	5.08398747951008	9.27042918397495	-4.18644170446488	9.27042918397495	0.53099696805497	9.27042918397495	5.08398747951008	0.5525516431788393	0.47251095362723605	0.03707882217432312	8.764398621358163	7.184785932180942	3.448109771512219	8.764398621358163	0.20331403122108987	6.342509673248806	5.869998719621578	6.979356867697895	1.8221205758345917	1	missed	0.0
376.05295940022916	6.29806419974193	go_reward	0.3232251000590622	376.1069446001202	377.9343742998317	380.48075889982283	1.8274296997115016	377.12216140003875	379.46516470005736	381.4896785998717	0.8122128997929394	1.0155941997654736	0.9153301999904215	n/a	1.0	n/a	1	0	57	4	go_reward	1	1	0	1	1	1	0	n/a	n/a	1	0.3232251000590622	1.0	412.70953289978206	788.8164774999022	789.8316942998208	790.6439071996137	792.1746975998394	793.1902917996049	n/a	n/a	794.1992114996538	795.1145416996442	2020-01-17 16:10:56.011595	13.6242874973854	9.1295465609542	0.0	9.1295465609542	13.6242874973854	0.0	-13.6242874973854	9.1295465609542	0.0	13.6242874973854	0.0	0.6934342661995903	9.910356746547755	8.635628415073553	-0.5060305626167872	7.051178536871802	11.98840978938754	-0.5060305626167872	0.3441966542418408	10.696367986659254	0.7860112401114977	6.838474244677144	1.2911236077796218	1	missed	0.0
382.3948079003021	6.212650300003588	nogo_reward	1.0	382.44879310019314	383.78368679992855	386.3083700002171	1.334893699735403	383.45574939996004	385.2833556002006	387.31771770026535	0.3279373999685049	1.0250144000165164	1.3437256999313831	n/a	1.0	n/a	1	0	58	3	nogo_reward	1	0	1	0	0	1	1	n/a	n/a	1	1.0	1.0	412.70953289978206	795.1583259999752	796.1652822997421	796.4932196997106	797.9928884999827	799.0179028999992	n/a	n/a	800.0272506000474	801.3709762999788	2020-01-17 16:10:56.011595	4.32340887846018	0.53099696805497	9.51944713642669	9.51447647596194	5.19603825796651	9.51944713642669	-4.32340887846018	9.51944713642669	0.53099696805497	9.51944713642669	5.19603825796651	0.30353369072710024	0.6094781276225363	0.03707882217432312	9.013416573809902	7.436108451879543	3.560160549968649	9.013416573809902	-0.0457039212306492	6.591527625700545	5.982049498078008	7.228374820149634	1.8221205758345917	1	missed	0.0
388.6419526003301	7.170957800000906	nogo_punish	1.0	388.69593780022115	391.3272271002643	393.8629637998529	2.631289300043136	389.71203810023144	392.8430435000919	394.8670530002564	1.6151890000328422	1.0199202997609973	0.999842599965632	n/a	1.0	n/a	1	0	59	1	nogo_punish	1	-1	0	0	0	1	0	n/a	n/a	0	1.0	1.0	412.70953289978206	801.4054707000032	802.4215710000135	804.0367600000463	805.5525763998739	806.5724966996349	n/a	n/a	807.5765859000385	808.5764285000041	2020-01-17 16:10:56.011595	2.6196552200222	-4.48282543453023	-2.86514229594243	-3.18906806891479	-5.48479751596463	-2.86514229594243	-2.6196552200222	-2.86514229594243	-4.48282543453023	-2.86514229594243	-5.48479751596463	2.86514229594243	-1.0942755308154437	-4.976743580410877	-3.3711728585592176	-5.267436092997189	-7.120675223962491	-3.3711728585592176	2.515904683984681	-5.793061806668575	-4.698786275853132	-5.156214612219486	-3.1917018267506077	1	missed	0.0
395.84934280021116	6.513257099781185	go_punish	0.3566183000802994	395.9033280001022	397.4650368001312	400.0192263000645	1.5617088000290096	396.9177931002341	398.9954429999925	401.0227228999138	0.5472436998970807	1.0237833000719547	1.3938621999695897	n/a	1.0	n/a	1	0	60	2	go_punish	0	-1	0	1	1	1	0	n/a	n/a	-1	0.3566183000802994	1.0	412.70953289978206	808.6128608998843	809.6273260000162	810.1745696999133	811.7049758997746	812.7287591998465	n/a	n/a	813.7322557996958	815.1261179996654	2020-01-17 16:10:56.011595	5.34393825465822	-0.0398343002547555	-5.05851410459193	-0.162834403026583	0.285424150066288	-5.05851410459193	-5.34393825465822	-0.0398343002547555	-5.05851410459193	0.285424150066288	-5.05851410459193	-5.2202835375077745	1.6300075038205768	-0.5337524461354024	-5.564544667208717	-2.241202427108981	-1.3504535579315728	-5.564544667208717	-5.569521149465524	-2.6424953606598565	-4.272502864480432	-2.330906616531811	-3.7673904968123084	1	missed	0.0
