onset	duration	trial_type	response_time	cueOnset	targetOnset	fbOnset	cueRT	firstfixOnset	secondfixOnset	waitOnset	firstfixdur	secondfixdur	waitdur	nback_fbOnset	nback_response_time	nback_targetOnset	block	wm	trial	cue	cond	is_common	outcome_go	outcome_nogo	key_correct	key_pressed	is_correct	key_correct_nback	key_pressed_nback	is_correct_nback	outcome	rt	rt_nback	time_scan	time_onset	time_isi1	time_circle	time_isi2	time_feedback	time_same	time_correct	time_iti	time_done	timestamp_scan	DV	Qgo	Qnogo	SV	Wgo	Wnogo	mDV	Qchosen	Qunchosen	Wchosen	Wunchosen	PE	DVC	QgoC	QnogoC	SVC	WgoC	WnogoC	PEC	WchosenC	WunchosenC	QchosenC	QunchosenC	run	outcome_nback	nback_targetResp
0.0	9.799851399846602	go_reward	0.3160867998376488	0.009184800088178235	2.966973899863433	5.517240199725848	2.9577890997752547	1.0072884997350684	4.496758399996679	8.565692000091076	1.9596854001283646	1.0204817997291684	1.2433441998437047	7.554207399952702	0.7858974998816848	6.531490999739617	2	1	61	4	go_reward	0	0	1	1	1	1	0	0.0	1.0	0	0.3160867998376488	0.7858974998816848	1962.9694902999329	1962.978675100021	1963.976778799668	1965.9364641997963	1967.4662486999296	1968.4867304996587	1969.5009812996725	1970.5236976998856	1971.535182300024	1972.7785264998677	2020-01-17 16:36:46.271541	8.190459515608	6.55662986044711	0.0	6.30448908213222	8.190459515608	0.0	-8.190459515608	6.55662986044711	0.0	8.190459515608	0.0	-6.55662986044711	4.4765287647703556	6.062711714566463	-0.5060305626167872	4.226121058049822	6.5545818076101385	-0.5060305626167872	-6.90586747240486	5.2625400048818545	0.7860112401114977	4.265557544170054	1.2911236077796218	4	correct	1.0
9.845851399935782	7.79570950008906	go_punish	0.3115655998699367	9.85503620002396	11.212925199884694	13.777003899682086	1.3578889998607337	10.859603299759101	12.757768199779093	16.81392419990152	0.35332190012559295	1.0192356999029926	0.8368215002114994	15.808274900075048	0.2878388999961316	14.792533500119816	2	1	62	2	go_punish	1	0	-1	1	1	1	1	0.0	0.0	0	0.3115655998699367	0.2878388999961316	1962.9694902999329	1972.8245264999568	1973.829093599692	1974.1824154998176	1975.727258499712	1976.746494199615	1977.7620238000527	1978.777765200008	1979.7834144998344	1980.620236000046	2020-01-17 16:36:46.271541	0.712938156596772	-1.88972816697582	-2.67802490906754	-2.60745462068421	-1.96508675247076	-2.67802490906754	-0.712938156596772	-1.88972816697582	-2.67802490906754	-1.96508675247076	-2.67802490906754	1.88972816697582	-3.0009925942408717	-2.3836463128564667	-3.1840554716843275	-4.685822644766608	-3.600964460468621	-3.1840554716843275	1.5404905550180705	-4.893006263196905	-1.8920136689560425	-4.180800483252876	-1.3869013012879183	4	wrong	1.0
17.68224859982729	9.793907199986052	go_punish	0.2597237997688353	17.691433399915468	20.434650899842154	22.992211899719905	2.7432174999266863	18.701878000050783	21.97222589980788	26.04310559993587	1.732772899791371	1.0199859999120235	1.442234999965649	25.038779499939892	0.3143474999815225	24.010098499711603	2	1	63	2	go_punish	1	0	-1	1	1	1	0	0.0	1.0	0	0.2597237997688353	0.3143474999815225	1962.9694902999329	1980.6609236998484	1981.6713682999837	1983.404141199775	1984.9417161997408	1985.9617021996528	1986.9795887996445	1988.0082697998728	1989.0125958998688	1990.4548308998344	2020-01-17 16:36:46.271541	1.09249019165707	-1.58137463579842	-2.67802490906754	-2.20201720748855	-1.58553471741046	-2.67802490906754	-1.09249019165707	-1.58137463579842	-2.67802490906754	-1.58553471741046	-2.67802490906754	1.58137463579842	-2.6214405591805736	-2.075292781679067	-3.1840554716843275	-4.280385231570948	-3.221412425408321	-3.1840554716843275	1.2321370238406706	-4.513454228136604	-1.8920136689560425	-3.8724469520754754	-1.3869013012879183	4	correct	1.0
27.502257099840563	8.665033800062474	nogo_punish	1.0	27.51144189992874	29.291372600011073	31.806382900103927	1.779930700082332	28.520345999859046	30.796933500095975	34.84967099968321	0.7710266001520267	1.0094494000079521	1.3268047003080028	33.83517380012199	0.3830877998843789	32.825219599995535	2	1	64	1	nogo_punish	1	-1	0	0	0	1	0	0.0	1.0	0	1.0	0.3830877998843789	1962.9694902999329	1990.4809321998616	1991.489836299792	1992.260862899944	1993.7664238000289	1994.7758732000368	1995.7947098999284	1996.8046641000549	1997.819161299616	1999.145965999924	2020-01-17 16:36:46.271541	1.5821428154849	-2.76489352521028	-1.07559540620167	-1.59824613131939	-2.65773822168657	-1.07559540620167	-1.5821428154849	-1.07559540620167	-2.76489352521028	-1.07559540620167	-2.65773822168657	1.07559540620167	-2.131787935352744	-3.258811671090927	-1.5816259688184573	-3.676614155401788	-4.293615929684431	-1.5816259688184573	0.7263577942439206	-4.003514916927815	-1.8717269815750726	-3.3666677224787254	-1.4737699174306582	4	correct	1.0
36.21125479973898	9.369746200274449	go_punish	0.2698610001243651	36.22043959982716	38.64049359969749	41.19768820004515	2.4200539998703334	37.2191264000719	40.177090299781185	44.246970099862665	1.4213671996255925	1.0205979002639651	1.343215700238943	43.23425230011321	0.3525852998718619	42.204913099761825	2	1	65	2	go_punish	1	0	-1	1	1	1	1	1.0	1.0	0	0.2698610001243651	0.3525852998718619	1962.9694902999329	1999.18992989976	2000.1886167000048	2001.6099838996304	2003.146580599714	2004.167178499978	2005.1744033996947	2006.203742600046	2007.2164603997956	2008.5596761000345	2020-01-17 16:36:46.271541	1.40239508584598	-1.33055343860675	-2.67802490906754	-1.86848986138873	-1.27562982322155	-2.67802490906754	-1.40239508584598	-1.33055343860675	-2.67802490906754	-1.27562982322155	-2.67802490906754	1.33055343860675	-2.3115356649916636	-1.8244715844873967	-3.1840554716843275	-3.946857885471128	-2.911507531219411	-3.1840554716843275	0.9813158266490005	-4.203549333947695	-1.8920136689560425	-3.621625754883805	-1.3869013012879183	4	correct	1.0
45.62507439963542	9.157633600290637	nogo_reward	1.0	45.6342591997236	47.80900229979261	50.33334949985101	2.1747431000690085	46.63697639992438	49.31577139999672	53.38585059996717	1.1720258998682311	1.0175780998542905	1.406042200047068	52.37126330006822	0.6102555999532342	51.34817649982824	2	1	66	3	nogo_reward	1	0	1	0	0	1	0	0.0	1.0	1	1.0	0.6102555999532342	1962.9694902999329	2008.6037494996565	2009.6064666998573	2010.7784925997255	2012.2852616999296	2013.302839799784	2014.3176667997611	2015.340753600001	2016.3553408999	2017.7613830999471	2020-01-17 16:36:46.271541	2.61591789361124	0.0	3.53076182275213	2.60719542866779	0.914843929140895	3.53076182275213	-2.61591789361124	3.53076182275213	0.0	3.53076182275213	0.914843929140895	6.292219004401661	-1.0980128572264034	-0.49391814588064686	3.0247312601353427	0.528827404585392	-0.7210337788569658	3.0247312601353427	5.942981392443911	0.6028423120259854	1.7008551692523928	1.2396895064750746	1.2911236077796218	4	correct	1.0
54.824239599983684	8.09218289982573	go_punish	0.3141218000091612	54.83342440007186	56.38021430000663	58.937398599926155	1.5467898999347653	55.84261689987011	57.91674820007756	61.974362900015194	0.5375974001365194	1.0206503998485914	0.9512443998823983	60.96651750011347	0.3815863002091646	59.95384029997513	2	1	67	2	go_punish	1	0	-1	1	1	1	1	0.0	0.0	0	0.3141218000091612	0.3815863002091646	1962.9694902999329	2017.8029147000047	2018.812107199803	2019.3497045999395	2020.8862385000104	2021.906888899859	2022.923330599908	2023.9360078000464	2024.943853199948	2025.8950975998305	2020-01-17 16:36:46.271541	1.65727566833647	-1.12497700997979	-2.67802490906754	-1.59229444913202	-1.02074924073106	-2.67802490906754	-1.65727566833647	-1.12497700997979	-2.67802490906754	-1.02074924073106	-2.67802490906754	1.12497700997979	-2.0566550825011736	-1.6188951558604368	-3.1840554716843275	-3.670662473214418	-2.656626948728921	-3.1840554716843275	0.7757393980220406	-3.9486687514572045	-1.8920136689560425	-3.4160493262568457	-1.3869013012879183	4	wrong	1.0
62.946903099771816	8.82201350014634	nogo_punish	1.0	62.956087899859995	64.72971639968387	67.24694050010316	1.7736284998238716	63.974465999752056	66.23526079999237	70.30631810007594	0.7552503999318105	1.0116797001107898	1.4717832999303937	69.29358609998553	0.3754106997512281	68.26500739995345	2	1	68	1	nogo_punish	1	-1	0	0	0	1	0	0.0	1.0	0	1.0	0.3754106997512281	1962.9694902999329	2025.9255781997929	2026.943956299685	2027.6992066996168	2029.2047510999253	2030.216430800036	2031.2344976998863	2032.2630763999184	2033.2758084000088	2034.7475916999392	2020-01-17 16:36:46.271541	1.71517513404642	-2.76489352521028	-0.899145542767814	-1.35065383665186	-2.61432067681424	-0.899145542767814	-1.71517513404642	-0.899145542767814	-2.76489352521028	-0.899145542767814	-2.61432067681424	0.899145542767814	-1.9987556167912235	-3.258811671090927	-1.4051761053846012	-3.4290218607342577	-4.2501983848121005	-1.4051761053846012	0.5499079308100645	-3.8270650534939588	-1.8283094367027424	-3.1902178590448695	-1.4737699174306582	4	correct	1.0
71.79464400000847	9.490652999840904	go_reward	0.2755661001428962	71.80382880009665	74.23579900013237	76.78674159990601	2.431970200035721	72.81463890010468	75.76707560010232	79.82640809984832	1.4211601000276914	1.019665999803692	1.468073700089235	78.81369380000956	0.4109972999431193	77.79342760005943	2	1	69	4	go_reward	1	1	0	1	1	1	0	0.0	1.0	1	0.2755661001428962	0.4109972999431193	1962.9694902999329	2034.7733191000295	2035.7841292000376	2037.2052893000653	2038.7365659000352	2039.756231899839	2040.7629178999923	2041.7831840999424	2042.7958983997812	2044.2639720998704	2020-01-17 16:36:46.271541	6.81078961380524	5.38698652849061	0.0	5.17658134294846	6.81078961380524	0.0	-6.81078961380524	5.38698652849061	0.0	6.81078961380524	0.0	4.43599429866318	3.0968588629675966	4.893068382609963	-0.5060305626167872	3.0982133188660623	5.174911905807379	-0.5060305626167872	4.086756686705431	3.8828701030790955	0.7860112401114977	3.0959142122135543	1.2911236077796218	4	correct	1.0
81.32967689959332	9.934790800325572	go_punish	0.2654899000190198	81.3388616996815	84.17093200003706	86.72304429998599	2.8320703003555536	82.33597770007304	85.70370989991329	89.78008090006165	1.8349542999640107	1.0193344000726938	1.493571599945426	88.76715089986078	0.4626163002103567	87.739825800061	2	1	70	2	go_punish	0	-1	0	1	1	1	0	0.0	1.0	-1	0.2654899000190198	0.4626163002103567	1962.9694902999329	2044.3083519996144	2045.305468000006	2047.14042229997	2048.673200199846	2049.692534599919	2050.709316099994	2051.7366411997937	2052.7495711999945	2054.24314279994	2020-01-17 16:36:46.271541	1.86823497332995	-0.955361268827241	-2.67802490906754	-1.36223679648923	-0.809789935737587	-2.67802490906754	-1.86823497332995	-0.955361268827241	-2.67802490906754	-0.809789935737587	-2.67802490906754	-4.3047565689352885	-1.8456957775076936	-1.4492794147078878	-3.1840554716843275	-3.440604820571628	-2.445667643735448	-3.1840554716843275	-4.653994180893038	-3.7377094464637315	-1.8920136689560425	-3.2464335851042962	-1.3869013012879183	4	correct	1.0
91.28930649999529	7.878172699827701	go_reward	0.5112729999236763	91.29849130008347	92.65812759986125	95.2031664997337	1.359636299777776	92.29982009995706	94.17809099983401	98.26146439975105	0.35830749990418553	1.0250754998996854	0.9151996001601219	97.2484872001221	0.3441336997784674	96.21236949972786	2	1	71	4	go_reward	1	1	0	1	1	1	1	1.0	1.0	1	0.5112729999236763	0.3441336997784674	1962.9694902999329	2054.2679816000164	2055.26931039989	2055.627617899794	2057.147581299767	2058.1726567996666	2059.1818597996607	2060.217977500055	2061.230954699684	2062.146154299844	2020-01-17 16:36:46.271541	7.66255460889163	6.09543475940985	0.0	5.91906785862811	7.66255460889163	0.0	-7.66255460889163	6.09543475940985	0.0	7.66255460889163	0.0	3.7275460677439405	3.948623858053986	5.601516613529203	-0.5060305626167872	3.840699834545712	6.026676900893769	-0.5060305626167872	3.378308455786191	4.7346350981654854	0.7860112401114977	3.8043624431327943	1.2911236077796218	4	correct	1.0
99.1914756000042	8.818484999705106	go_reward	0.5188023997470737	99.20066040009237	101.25761759979628	103.81816300004698	2.056957199703902	100.21181500004582	102.79473099997244	106.85275449976302	1.0458025997504592	1.0234320000745356	1.1663909000344574	105.8458348996935	0.442520699929446	104.8329289997921	2	1	72	4	go_reward	1	1	0	1	1	1	0	0.0	1.0	1	0.5188023997470737	0.442520699929446	1962.9694902999329	2062.1701507000253	2063.1813052999787	2064.227107899729	2065.7642212999053	2066.78765329998	2067.802419299725	2068.8153251996264	2069.822244799696	2070.9886356997304	2020-01-17 16:36:46.271541	8.35496682741649	6.66998521837972	0.0	6.52153534676433	8.35496682741649	0.0	-8.35496682741649	6.66998521837972	0.0	8.35496682741649	0.0	3.15299560877407	4.641036076578846	6.176067072499073	-0.5060305626167872	4.443167322681932	6.719089119418629	-0.5060305626167872	2.8037579968163207	5.427047316690345	0.7860112401114977	4.378912902102664	1.2911236077796218	4	correct	1.0
108.03689109999686	8.25750369997695	nogo_punish	1.0	108.04607590008504	109.5152592998927	112.04113689996325	1.4691833998076618	109.04606539988868	111.03222389984853	115.10157479997702	0.4691939000040293	1.0089130001147169	1.2020048000849783	114.08867819979764	0.4247852000407874	113.05956130009122	2	1	73	1	nogo_punish	1	-1	0	0	0	1	0	0.0	1.0	0	1.0	0.4247852000407874	1962.9694902999329	2071.015566200018	2072.0155556998216	2072.4847495998256	2074.0017141997814	2075.010627199896	2076.029051600024	2077.0581684997305	2078.07106509991	2079.273069899995	2020-01-17 16:36:46.271541	1.82234752510858	-2.76489352521028	-0.755955693603398	-1.147109347704	-2.57830321871198	-0.755955693603398	-1.82234752510858	-0.755955693603398	-2.76489352521028	-0.755955693603398	-2.57830321871198	0.755955693603398	-1.8915832257290637	-3.258811671090927	-1.2619862562201853	-3.225477371786398	-4.214180926709841	-1.2619862562201853	0.40671808164564854	-3.6838752043295426	-1.7922919786004825	-3.0470280098804534	-1.4737699174306582	4	correct	1.0
116.34104019962297	8.136815499980003	nogo_reward	1.0	116.35022499971114	117.6736113997174	120.21226819977142	1.3233864000062567	117.34644440002717	119.18921379977814	123.2746880999764	0.32716699969023466	1.0230543999932706	1.2123523997147458	122.26252949982813	0.2938212002627551	121.22747340006731	2	1	74	3	nogo_reward	1	0	1	0	0	1	0	0.0	1.0	1	1.0	0.2938212002627551	1962.9694902999329	2079.319715299644	2080.31593469996	2080.6431016996503	2082.158704099711	2083.1817584997043	2084.1969637	2085.232019799761	2086.2441783999093	2087.456530799624	2020-01-17 16:36:46.271541	3.40420720157469	0.0	4.54662490307339	3.79641253683235	1.1424177014987	4.54662490307339	-3.40420720157469	4.54662490307339	0.0	4.54662490307339	1.1424177014987	5.2763559240804	-0.30972354926295376	-0.49391814588064686	4.040594340456603	1.7180445127499517	-0.4934600064991608	4.040594340456603	4.9271183121226505	1.6187053923472452	1.9284289416101976	2.2555525867963344	1.2911236077796218	4	correct	1.0
124.50543179968372	8.156527500133961	nogo_punish	1.0	124.5146165997719	126.09601019974775	128.6205698000265	1.5813935999758542	125.53402569983132	127.60661889985181	131.6830504001116	0.5619844999164343	1.0139509001746774	0.9880936997942626	130.66345949983202	0.5450354996137321	129.63444870011858	2	1	75	1	nogo_punish	0	0	-1	0	0	1	1	1.0	1.0	-1	1.0	0.5450354996137321	1962.9694902999329	2087.484106899705	2088.503515999764	2089.0655004996806	2090.5761091997847	2091.5900600999594	2092.6039390000515	2093.632949799765	2094.6525407000445	2095.6406343998387	2020-01-17 16:36:46.271541	1.90943693034255	-2.76489352521028	-0.638806012089657	-0.978576106780095	-2.54824294243221	-0.638806012089657	-1.90943693034255	-0.638806012089657	-2.76489352521028	-0.638806012089657	-2.54824294243221	-4.621311825672873	-1.8044938204950935	-3.258811671090927	-1.1448365747064444	-3.056944130862493	-4.184120650430071	-1.1448365747064444	-4.9705494376306225	-3.5667255228158017	-1.7622317023207126	-2.9298783283667125	-1.4737699174306582	4	correct	1.0
132.69041949976236	8.750099699944712	nogo_punish	1.0	132.69960429985053	134.67169500002615	137.18788849981524	1.9720907001756132	133.70728980004765	136.18659189995356	140.237472400069	0.9644051999785006	1.0012965998616892	1.2122315997262376	139.22471559979	0.4429259002208709	138.20555139984913	2	1	76	1	nogo_punish	1	-1	0	0	0	1	0	0.0	1.0	0	1.0	0.4429259002208709	1962.9694902999329	2095.6690945997834	2096.6767800999805	2097.641185299959	2099.1560821998864	2100.157378799748	2101.175041699782	2102.194205899723	2103.206962700002	2104.419194299728	2020-01-17 16:36:46.271541	1.30094386579735	-2.76489352521028	-1.3655255755646	-1.66140558234202	-2.66646944136194	-1.3655255755646	-1.30094386579735	-1.3655255755646	-2.76489352521028	-1.3655255755646	-2.66646944136194	1.3655255755646	-2.4129868850402936	-3.258811671090927	-1.8715561381813872	-3.739773606424418	-4.302347149359801	-1.8715561381813872	1.0162879636068507	-4.2934450862907445	-1.8804582012504425	-3.6565978918416553	-1.4737699174306582	4	correct	1.0
141.48561869980767	8.99582719989121	nogo_reward	1.0	141.49480349989585	143.82167450012616	146.33974009985127	2.3268710002303123	142.49134009983368	145.32698319992028	149.3880471000441	1.330334400292486	1.0127568999309915	1.1025835997429567	148.37509929994098	0.6368765002116561	147.3455380001103	2	1	77	3	nogo_reward	1	0	1	0	0	1	0	0.0	1.0	1	1.0	0.6368765002116561	1962.9694902999329	2104.4642937998287	2105.4608303997666	2106.791164800059	2108.296473499853	2109.309230399784	2110.315028300043	2111.344589599874	2112.357537399977	2113.46012099972	2020-01-17 16:36:46.271541	4.04134212779253	0.0	5.37007693766107	4.75638924137395	1.32873480986854	5.37007693766107	-4.04134212779253	5.37007693766107	0.0	5.37007693766107	1.32873480986854	4.45290388949272	0.3274113769548861	-0.49391814588064686	4.864046375044283	2.6780212172915516	-0.3071428981293207	4.864046375044283	4.103666277534971	2.442157426934925	2.1147460499800377	3.0790046213840143	1.2911236077796218	4	correct	1.0
150.5091189998202	8.721954899840057	nogo_punish	1.0	150.51830379990838	152.4242874998597	154.95722350012488	1.9059836999513209	151.52590620005526	153.9403376998373	158.01256249984704	0.8983812998044414	1.0168858002875822	1.227696199901402	156.99835629994027	0.3525059996172786	155.975970899686	2	1	78	1	nogo_punish	1	-1	0	0	0	1	1	1.0	1.0	0	1.0	0.3525059996172786	1962.9694902999329	2113.4877940998413	2114.495396499988	2115.3937777997926	2116.90982799977	2117.9267138000578	2118.945461199619	2119.967846599873	2120.98205279978	2122.2097489996813	2020-01-17 16:36:46.271541	1.48393858166637	-2.76489352521028	-1.13645624314689	-1.39473110161757	-2.62039482481326	-1.13645624314689	-1.48393858166637	-1.13645624314689	-2.76489352521028	-1.13645624314689	-2.62039482481326	1.13645624314689	-2.2299921691712736	-3.258811671090927	-1.6424868057636774	-3.473099125699968	-4.256272532811121	-1.6424868057636774	0.7872186311891407	-4.064375753873035	-1.8343835847017624	-3.4275285594239455	-1.4737699174306582	4	correct	1.0
159.25562920002312	9.546131899579905	go_reward	0.3463181001134217	159.2648140001113	161.88114539999492	164.4204898998139	2.61633139988362	160.26622280012793	163.39625009987526	167.45564559986792	1.6149225998669863	1.0242397999386412	1.3553002998232841	166.45114160003118	0.6912970999255776	165.4331660000605	2	1	79	4	go_reward	1	1	0	1	1	1	0	0.0	1.0	1	0.3463181001134217	0.6912970999255776	1962.9694902999329	2122.234304300044	2123.235713100061	2124.850635699928	2126.365740399808	2127.389980199747	2128.4026562999934	2129.420631899964	2130.425135899801	2131.780436199624	2020-01-17 16:36:46.271541	8.92343095148642	7.14070386167965	0.0	7.01526898991467	8.92343095148642	0.0	-8.92343095148642	7.14070386167965	0.0	8.92343095148642	0.0	2.6822769654741405	5.209500200648776	6.646785715799003	-0.5060305626167872	4.9369009658322724	7.287553243488559	-0.5060305626167872	2.333039353516391	5.995511440760275	0.7860112401114977	4.849631545402595	1.2911236077796218	4	correct	1.0
168.84572539990768	8.706346899736673	nogo_reward	1.0	168.85491019999586	170.51460939971707	173.03509519994236	1.6596991997212172	169.8618994001297	172.01931100012712	176.0795884998513	0.6527099995873868	1.0157841998152435	1.4816685998812318	175.0770459999328	0.4540642998181283	174.04945759987436	2	1	80	3	nogo_reward	1	0	1	0	0	1	0	1.0	0.0	1	1.0	0.4540642998181283	1962.9694902999329	2131.8244004999287	2132.8313897000626	2133.48409969965	2134.98880130006	2136.0045854998752	2137.0189478998072	2138.0465362998657	2139.049078799784	2140.5307473996654	2020-01-17 16:36:46.271541	4.56148052389918	0.0	6.04399335472599	5.53882800225882	1.48251283082681	6.04399335472599	-4.56148052389918	6.04399335472599	0.0	6.04399335472599	1.48251283082681	3.7789874724278	0.847549773061536	-0.49391814588064686	5.537962792109203	3.4604599781764223	-0.15336487717105074	5.537962792109203	3.4297498604700505	3.1160738439998457	2.268524070938308	3.752921038448935	1.2911236077796218	4	wrong	1.0
177.579144199844	8.390895099845238	nogo_punish	1.0	177.58832899993217	179.4297384000381	181.95472519984446	1.8414094001059311	178.59607709990792	180.94514800002776	185.01031740009762	0.8336613001301885	1.0095771998167038	0.9689066996797919	184.0103688999077	0.3457300001755357	182.9755962998604	2	1	81	1	nogo_punish	1	-1	0	0	0	1	0	0.0	1.0	0	1.0	0.3457300001755357	1962.9694902999329	2140.557819299865	2141.565567399841	2142.399228699971	2143.9146382999606	2144.9242154997773	2145.9450865997933	2146.9798591998406	2147.9798077000305	2148.9487143997103	2020-01-17 16:36:46.271541	1.63057019276222	-2.76489352521028	-0.951964265742326	-1.17792539369099	-2.58253445850455	-0.951964265742326	-1.63057019276222	-0.951964265742326	-2.76489352521028	-0.951964265742326	-2.58253445850455	0.951964265742326	-2.0833605580754235	-3.258811671090927	-1.457994828359113	-3.2562934177733878	-4.218412166502411	-1.457994828359113	0.6027266537845766	-3.8798837764684704	-1.7965232183930526	-3.243036582019381	-1.4737699174306582	4	correct	1.0
186.01487689977512	8.770277500152588	nogo_reward	1.0	186.0240616998633	187.82324860012136	190.3620327999813	1.7991869002580643	187.02577419998102	189.33900879975386	193.4101438997311	0.7974744001403451	1.0230240002274513	1.3841953002847731	192.3957718000745	0.4313038997352123	191.37319569988153	2	1	82	3	nogo_reward	1	0	1	0	0	1	1	1.0	1.0	1	1.0	0.4313038997352123	1962.9694902999329	2148.993551999796	2149.995264499914	2150.7927389000542	2152.3084990996867	2153.331523099914	2154.3426859998144	2155.3652621000074	2156.379634199664	2157.7638294999488	2020-01-17 16:36:46.271541	4.98972768868687	0.0	6.60000966978673	6.18181608464236	1.61028198109986	6.60000966978673	-4.98972768868687	6.60000966978673	0.0	6.60000966978673	1.61028198109986	3.22297115736706	1.2757969378492269	-0.49391814588064686	6.093979107169943	4.103448060559963	-0.025595726898000715	6.093979107169943	2.8737335454093107	3.6720901590605854	2.3962932212113577	4.308937353509675	1.2911236077796218	4	correct	1.0
194.82899019960314	8.643926800228655	nogo_reward	1.0	194.83817499969132	196.56828289991222	199.09919699979923	1.7301079002209008	195.8449570997616	198.0752309998495	202.12806969974167	0.7233258001506329	1.0239659999497235	1.3540321001783013	201.12614860013105	0.5246902997605503	200.1121125998909	2	1	83	3	nogo_reward	1	0	1	0	0	1	0	0.0	1.0	1	1.0	0.5246902997605503	1962.9694902999329	2157.807665299624	2158.8144473996945	2159.537773199845	2161.0447212997824	2162.068687299732	2163.081602899824	2164.095638900064	2165.0975599996746	2166.451592099853	2020-01-17 16:36:46.271541	5.34491907623965	0.0	7.06196514515441	6.71398224233292	1.71704606891477	7.06196514515441	-5.34491907623965	7.06196514515441	0.0	7.06196514515441	1.71704606891477	2.76101568199938	1.6309883254020066	-0.49391814588064686	6.555934582537623	4.635614218250522	0.08116836091690915	6.555934582537623	2.4117780700416307	4.134045634428265	2.5030573090262678	4.770892828877354	1.2911236077796218	4	correct	1.0
203.49933009967208	9.001917300280184	go_reward	0.3166730999946594	203.50851489976026	206.0007886998353	208.55873659998156	2.492273800075054	204.51757870009146	207.53488769987575	211.6197986998593	1.483209999743849	1.0238489001058042	0.8906335001811385	210.60719479992963	0.5255261003039777	209.57894450006984	2	1	84	4	go_reward	1	1	0	1	1	1	0	0.0	1.0	1	0.3166730999946594	0.5255261003039777	1962.9694902999329	2166.478005199693	2167.4870690000243	2168.970278999768	2170.5043779998086	2171.5282268999144	2172.5484348000027	2173.5766850998625	2174.589288999792	2175.4799224999733	2020-01-17 16:36:46.271541	9.39397852148045	7.52963867379956	0.0	7.42326808599938	9.39397852148045	0.0	-9.39397852148045	7.52963867379956	0.0	9.39397852148045	0.0	2.2933421533542298	5.6800477706428065	7.0357205279189134	-0.5060305626167872	5.344900061916983	7.7581008134825895	-0.5060305626167872	1.9441045413964804	6.4660590107543054	0.7860112401114977	5.2385663575225045	1.2911236077796218	4	correct	1.0
212.54627669975162	7.960600099992007	go_punish	0.9567355997860432	212.5554614998398	213.91670730011515	216.45595380011923	1.3612458002753556	213.5557372998444	215.43501470005117	219.5068656997753	0.3609700002707541	1.0209391000680625	1.0091959000565112	218.4943277998825	0.3124893000349402	217.464912000112	2	1	85	2	go_punish	1	0	-1	1	1	1	0	0.0	1.0	0	0.9567355997860432	0.3124893000349402	1962.9694902999329	2175.5249517997727	2176.5252275997773	2176.886197600048	2178.404504999984	2179.425444100052	2180.434402300045	2181.4638180998154	2182.476355999708	2183.4855518997647	2020-01-17 16:36:46.271541	1.07713828061312	-1.63783140595638	-2.67802490906754	-1.99285115356539	-1.60088662845441	-2.67802490906754	-1.07713828061312	-1.63783140595638	-2.67802490906754	-1.60088662845441	-2.67802490906754	1.63783140595638	-2.6367924702245236	-2.131749551837027	-3.1840554716843275	-4.071219177647788	-3.236764336452271	-3.1840554716843275	1.2885937939986307	-4.5288061391805545	-1.8920136689560425	-3.9289037222334358	-1.3869013012879183	4	correct	1.0
220.53102110000327	8.436669199727476	go_reward	0.352620399557054	220.54020590009145	222.10287139983825	224.65926870005183	1.5626654997467995	221.5514495000241	223.63534899987212	227.68654959974788	0.5514218998141587	1.0239197001797038	1.2903255000710487	226.6827628999015	0.2898209998384118	225.6647028001023	2	1	86	4	go_reward	1	1	0	1	1	1	1	1.0	1.0	1	0.352620399557054	0.2898209998384118	1962.9694902999329	2183.5096962000243	2184.520939799957	2185.072361699771	2186.604839299805	2187.6287589999847	2188.634193100035	2189.6522531998344	2190.6560398996808	2191.946365399752	2020-01-17 16:36:46.271541	9.78620723119544	7.85333630104954	0.0	7.76282734225556	9.78620723119544	0.0	-9.78620723119544	7.85333630104954	0.0	9.78620723119544	0.0	1.9696445261042506	6.072276480357797	7.359418155168893	-0.5060305626167872	5.684459318173161	8.15032952319758	-0.5060305626167872	1.6204069141465012	6.858287720469296	0.7860112401114977	5.562263984772484	1.2911236077796218	4	correct	1.0
228.99565229984	9.185444499831647	nogo_punish	1.0	229.00483709992818	231.37140739988513	233.89606630010508	2.3665702999569476	230.01210819976382	232.876103099901	236.94485919969134	1.3592992001213133	1.0199632002040744	1.2454224000684917	235.9427084997294	0.3730468996800482	234.9134710999199	2	1	87	1	nogo_punish	1	-1	0	0	0	1	0	0.0	1.0	0	1.0	0.3730468996800482	1962.9694902999329	2191.974327399861	2192.9815984996967	2194.340897699818	2195.845593399834	2196.865556600038	2197.882961399853	2198.9121987996623	2199.914349499624	2201.1597718996927	2020-01-17 16:36:46.271541	1.74922450665505	-2.76489352521028	-0.80195157133379	-1.00006976661568	-2.55117607798884	-0.80195157133379	-1.74922450665505	-0.80195157133379	-2.76489352521028	-0.80195157133379	-2.55117607798884	0.80195157133379	-1.9647062441825935	-3.258811671090927	-1.3079821339505773	-3.0784377906980778	-4.187053785986701	-1.3079821339505773	0.4527139593760406	-3.7298710820599346	-1.7651648378773426	-3.0930238876108453	-1.4737699174306582	4	correct	1.0
238.22622929979116	8.248357499949634	go_punish	1.0	238.23541409987934	239.90652019996173	242.41322789993114	1.6711061000823975	239.23316380009032	241.4120891997593	245.46283969981573	0.6733563998714089	1.0011387001718504	1.0209319000132382	244.4505186998283	0.6540431999601424	243.42255049990467	2	1	88	2	go_punish	0	-1	0	1	0	0	0	0.0	1.0	0	1.0	0.6540431999601424	1962.9694902999329	2201.204904399812	2202.202654100023	2202.8760104998946	2204.381579499692	2205.382718199864	2206.3920407998376	2207.420008999761	2208.4323299997486	2209.453261899762	2020-01-17 16:36:46.271541	-1.39789841012686	-1.37133121393301	-2.67802490906754	-1.68175559692286	-1.28012649894068	-2.67802490906754	1.39789841012686	-2.67802490906754	-1.37133121393301	-2.67802490906754	-1.28012649894068	2.67802490906754	-5.111829160964503	-1.865249359813657	-3.1840554716843275	-3.760123621005258	-2.916004206938541	-3.1840554716843275	2.3287872971097907	-5.605944419793685	-0.4941152588291823	-4.969097225344596	-0.08020760615338829	4	correct	1.0
246.49968019966036	9.281949500087649	go_reward	0.720002899877727	246.50886499974854	249.2274750000795	251.78807909972943	2.718610000330955	247.51834259973816	250.7636903999371	254.82863130001328	1.709132400341332	1.0243886997923255	0.9621831998229027	253.82077240012563	0.4706119000911712	252.79189739981643	2	1	89	4	go_reward	1	1	0	1	1	1	0	0.0	1.0	1	0.720002899877727	0.4706119000911712	1962.9694902999329	2209.4783552996814	2210.487832899671	2212.1969653000124	2213.73318069987	2214.7575693996623	2215.7613876997493	2216.7902627000585	2217.798121599946	2218.760304799769	2020-01-17 16:36:46.271541	10.1151475454647	8.12444581120391	0.0	8.0471882408222	10.1151475454647	0.0	-10.1151475454647	8.12444581120391	0.0	10.1151475454647	0.0	1.6985350159498793	6.4012167946270555	7.630527665323264	-0.5060305626167872	5.968820216739802	8.47926983746684	-0.5060305626167872	1.34929740399213	7.187228034738554	0.7860112401114977	5.833373494926855	1.2911236077796218	4	correct	1.0
255.8277973998338	9.424349199980952	nogo_reward	1.0	255.83698219992198	258.2823803001081	260.8157458999192	2.4453981001861393	256.8354426999574	259.797582299914	263.8617408000862	1.4469376001507044	1.0181636000052094	1.3995905998167473	262.84868649998657	0.7078358996659517	261.830541399773	2	1	90	3	nogo_reward	1	0	1	0	0	1	0	0.0	1.0	1	1.0	0.7078358996659517	1962.9694902999329	2218.806472499855	2219.8049329998903	2221.251870600041	2222.767072599847	2223.785236199852	2224.800031699706	2225.8181767999195	2226.831231100019	2228.230821699836	2020-01-17 16:36:46.271541	5.64142684827861	0.0	7.44813104848998	7.1572010866727	1.80670420021137	7.44813104848998	-5.64142684827861	7.44813104848998	0.0	7.44813104848998	1.80670420021137	2.37484977866381	1.9274960974409665	-0.49391814588064686	6.942100485873193	5.078833062590302	0.1708264922135092	6.942100485873193	2.0256121667060607	4.520211537763835	2.5927154403228676	5.157058732212924	1.2911236077796218	4	correct	1.0
265.293740799651	9.434043200220458	go_punish	0.5468179997988045	265.3029255997392	267.7766335997728	270.32830350007885	2.473708000033639	266.31184839969524	269.3076037997373	273.39366339985213	1.4647852000775856	1.0206997003415381	1.3433054001075106	272.3808029000645	0.2938493997789919	271.34458869975083	2	1	91	2	go_punish	1	0	-1	1	1	1	0	0.0	1.0	0	0.5468179997988045	0.2938493997789919	1962.9694902999329	2228.272415899672	2229.281338699628	2230.7461238997057	2232.27709409967	2233.2977938000117	2234.3140789996837	2235.3502931999974	2236.363153699785	2237.7064590998925	2020-01-17 16:36:46.271541	1.0009331376639	-1.37133121393301	-2.2362042664311	-1.4270647798808	-1.23527112876719	-2.2362042664311	-1.0009331376639	-1.37133121393301	-2.2362042664311	-1.23527112876719	-2.2362042664311	1.37133121393301	-2.7129976131737434	-1.865249359813657	-2.7422348290478875	-3.505432803963198	-2.871148836765051	-2.7422348290478875	1.0220936019752607	-4.163190639493335	-1.4501930263196026	-3.6624035302100655	-0.9450806586514784	4	correct	1.0
274.7748545999639	7.627344300039113	nogo_reward	1.0	274.78403940005205	276.05909190000943	278.5939986999149	1.2750524999573827	275.77839200012363	277.5704075000242	281.6461410000918	0.28069989988580346	1.0235911998906886	0.7652426999993622	280.6366985999041	0.3859330001287162	279.6087054996749	2	1	92	3	nogo_reward	1	0	1	0	0	1	1	1.0	1.0	1	1.0	0.3859330001287162	1962.9694902999329	2237.753529699985	2238.7478823000565	2239.0285821999423	2240.539897799957	2241.563488999848	2242.578195799608	2243.606188899837	2244.6156313000247	2245.380874000024	2020-01-17 16:36:46.271541	5.89037362173346	0.0	7.772707690356	7.528415694234	1.88233406862254	7.772707690356	-5.89037362173346	7.772707690356	0.0	7.772707690356	1.88233406862254	2.0502731367977898	2.176442870895816	-0.49391814588064686	7.2666771277392135	5.450047670151601	0.24645636062467924	7.2666771277392135	1.7010355248400404	4.844788179629855	2.668345308734038	5.4816353740789445	1.2911236077796218	4	correct	1.0
282.42686059977905	9.293578899930708	go_reward	0.3848715000785887	282.4360453998672	285.2116622999313	287.7484033000653	2.775616900064051	283.4469232000408	286.7323424001222	290.79840049985773	1.7647390998904484	1.0160608999431133	0.9312237999401987	289.78750859992556	0.4653893997892737	288.75918899988733	2	1	93	4	go_reward	1	1	0	1	1	1	0	0.0	1.0	1	0.3848715000785887	0.4653893997892737	1962.9694902999329	2245.4055356998	2246.4164134999737	2248.181152599864	2249.701832700055	2250.717893599998	2251.72867929982	2252.7569988998584	2253.7678907997906	2254.699114599731	2020-01-17 16:36:46.271541	10.3925005328441	8.35278313079178	0.0	8.2866389159745	10.3925005328441	0.0	-10.3925005328441	8.35278313079178	0.0	10.3925005328441	0.0	1.4701976963620105	6.678569782006456	7.858864984911133	-0.5060305626167872	6.208270891892102	8.75662282484624	-0.5060305626167872	1.120960084404261	7.4645810221179545	0.7860112401114977	6.061710814514724	1.2911236077796218	4	correct	1.0
291.7648097998467	7.925215700175158	go_punish	0.8250532001256943	291.7739945999349	293.3334209998136	295.88506289990596	1.5594263998787028	292.77130999974884	294.8642221000043	298.92453699978046	0.5621110000647604	1.0208407999016345	0.7746733003295958	297.9119088998989	0.6949786003679037	296.8945447998119	2	1	94	2	go_punish	1	0	-1	1	1	1	0	0.0	1.0	0	0.8250532001256943	0.6949786003679037	1962.9694902999329	2254.743484899868	2255.7408002996817	2256.3029112997465	2257.833712399937	2258.854553199839	2259.864035099745	2260.881399199832	2261.8940272997133	2262.668700600043	2020-01-17 16:36:46.271541	1.25453270662102	-1.15508158722105	-2.2362042664311	-1.21681670009831	-0.981671559810081	-2.2362042664311	-1.25453270662102	-1.15508158722105	-2.2362042664311	-0.981671559810081	-2.2362042664311	1.15508158722105	-2.4593980442166234	-1.648999733101697	-2.7422348290478875	-3.295184724180708	-2.617549267807942	-2.7422348290478875	0.8058439752633006	-3.9095910705362256	-1.4501930263196026	-3.4461539034981055	-0.9450806586514784	4	correct	1.0
299.7178171998821	8.49585520010487	nogo_punish	1.0	299.7270019999703	301.51570599991805	304.0445949998682	1.7887039999477565	300.73466149996943	303.0210208999922	307.0985158998517	0.7810444999486208	1.0235740998759866	1.1243413002234774	306.0886621000243	0.4178189001977443	305.0578018999656	2	1	95	1	nogo_punish	0	0	-1	0	0	1	0	0.0	1.0	-1	1.0	0.4178189001977443	1962.9694902999329	2262.696492299903	2263.7041517999023	2264.485196299851	2265.990511199925	2267.014085299801	2268.0272921998985	2269.058152399957	2270.0680061997846	2271.192347500008	2020-01-17 16:36:46.271541	1.84605033439967	-2.76489352521028	-0.678983520502087	-0.853048811228955	-2.52503385490176	-0.678983520502087	-1.84605033439967	-0.678983520502087	-2.76489352521028	-0.678983520502087	-2.52503385490176	-4.581134317260442	-1.8678804164379736	-3.258811671090927	-1.1850140831188742	-2.931416835311353	-4.160911562899621	-1.1850140831188742	-4.930371929218192	-3.6069030312282315	-1.7390226147902625	-2.9700558367791423	-1.4737699174306582	4	correct	1.0
308.240171999671	8.351713700219989	nogo_punish	1.0	308.2493567997592	310.244902399834	312.77270590001694	1.99554560007482	309.25629570009164	311.7612534998914	315.8266064999623	0.9886066997423768	1.0114524001255631	0.7744640000169056	314.81357599981106	0.3932560998946428	313.7893451997081	2	1	96	1	nogo_punish	1	-1	0	0	0	1	0	0.0	1.0	0	1.0	0.3932560998946428	1962.9694902999329	2271.218847099692	2272.2257860000245	2273.214392699767	2274.7307437998243	2275.74219619995	2276.758835499641	2277.783066299744	2278.796096799895	2279.570560799912	2020-01-17 16:36:46.271541	1.24584595216903	-2.76489352521028	-1.40071888749223	-1.55395425428959	-2.64656483966126	-1.40071888749223	-1.24584595216903	-1.40071888749223	-2.76489352521028	-1.40071888749223	-2.64656483966126	1.40071888749223	-2.4680847986686136	-3.258811671090927	-1.9067494501090172	-3.632322278371988	-4.282442547659121	-1.9067494501090172	1.0514812755344807	-4.3286383982183745	-1.8605535995497626	-3.6917912037692853	-1.4737699174306582	4	correct	1.0
316.6354009998031	8.828558700159647	go_punish	0.6144019002094865	316.6445857998913	318.6481550000601	321.2029848000964	2.0035692001688403	317.64840940013505	320.178764299955	324.2388762999324	0.9997455999250633	1.0242205001413822	1.2342682001185494	323.21976679982595	0.4252088996581733	322.2052754997269	2	1	97	2	go_punish	0	-1	0	1	1	1	0	0.0	1.0	-1	0.6144019002094865	0.4252088996581733	1962.9694902999329	2279.614076099824	2280.617899700068	2281.617645299993	2283.148254599888	2284.1724751000293	2285.17476579966	2286.189257099759	2287.2083665998653	2288.442634799984	2020-01-17 16:36:46.271541	1.46285494566398	-0.978045404033005	-2.2362042664311	-1.04203028485581	-0.77334932076712	-2.2362042664311	-1.46285494566398	-0.978045404033005	-2.2362042664311	-0.77334932076712	-2.2362042664311	-4.282072433729525	-2.2510758051736635	-1.4719635499136519	-2.7422348290478875	-3.120398308938208	-2.409227028764981	-2.7422348290478875	-4.6313100456872744	-3.7012688314932647	-1.4501930263196026	-3.2691177203100605	-0.9450806586514784	4	correct	1.0
325.49000969994813	8.080939800012857	go_reward	0.3854855000972748	325.4991945000363	327.0050786999052	329.5511345998382	1.5058841998688877	326.5140798999921	328.54024769971124	332.6022008000871	0.49099879991308626	1.010886900126934	0.9779334999620914	331.5987462997434	0.391472099814564	330.5711425999177	2	1	98	4	go_reward	0	0	1	1	1	1	0	0.0	1.0	0	0.3854855000972748	0.391472099814564	1962.9694902999329	2288.468684799969	2289.483570199925	2289.974568999838	2291.509737999644	2292.520624899771	2293.5406328998506	2294.5682365996763	2295.57169110002	2296.549624599982	2020-01-17 16:36:46.271541	10.6274882719446	8.54606157131258	0.0	8.48927132904961	10.6274882719446	0.0	-10.6274882719446	8.54606157131258	0.0	10.6274882719446	0.0	-8.54606157131258	6.913557521106956	8.052143425431932	-0.5060305626167872	6.410903304967212	8.99161056394674	-0.5060305626167872	-8.895299183270328	7.699568761218455	0.7860112401114977	6.2549892550355235	1.2911236077796218	4	correct	1.0
333.61594669986516	7.807563299778849	nogo_reward	1.0	333.62513149995334	335.0994551996698	337.6118517001157	1.4743236997164786	334.6308788997119	336.6074826000256	340.6736618001012	0.46857629995793104	1.0043691000901163	0.7590329996310174	339.65937899984397	0.4181760000064969	338.6252756998872	2	1	99	3	nogo_reward	1	0	1	0	0	1	0	0.0	1.0	1	1.0	0.4181760000064969	1962.9694902999329	2296.594621799886	2297.600369199645	2298.0689454996027	2299.5769728999585	2300.5813420000486	2301.59476599982	2302.628869299777	2303.643152100034	2304.402185099665	2020-01-17 16:36:46.271541	6.10047150965182	0.0	8.04686160400411	7.84090195596399	1.94639009435229	8.04686160400411	-6.10047150965182	8.04686160400411	0.0	8.04686160400411	1.94639009435229	1.7761192231496796	2.3865407588141765	-0.49391814588064686	7.540831041387324	5.762533931881592	0.31051238635442924	7.540831041387324	1.4268816111919302	5.1189420932779655	2.7324013344637876	5.755789287727055	1.2911236077796218	4	correct	1.0
341.45261769974604	8.067122200038284	go_reward	0.4672179999761283	341.4618024998342	342.8922709999604	345.4364380999466	1.4304685001261532	342.4715718999503	344.41326199984155	348.48890909971647	0.420699100010097	1.0231761001050472	1.040015600156039	347.47647320013516	0.6079683001153171	346.45158649981	2	1	100	4	go_reward	1	1	0	1	1	1	1	1.0	1.0	1	0.4672179999761283	0.6079683001153171	1962.9694902999329	2304.431292799767	2305.441062199883	2305.8617612998933	2307.3827522997744	2308.4059283998795	2309.421076799743	2310.445963500068	2311.4583993996494	2312.4984149998054	2020-01-17 16:36:46.271541	8.87837133532614	7.07384978498717	0.0	7.02495944599034	8.87837133532614	0.0	-8.87837133532614	7.07384978498717	0.0	8.87837133532614	0.0	2.7491310421666197	5.164440584488496	6.5799316391065235	-0.5060305626167872	4.946591421907941	7.242493627328279	-0.5060305626167872	2.3998934302088704	5.950451824599995	0.7860112401114977	4.782777468710115	1.2911236077796218	4	correct	1.0
349.56538439961196	9.251720600295357	nogo_reward	1.0	349.57456919970014	352.34917749976717	354.8895752998071	2.7746083000670296	350.579891500063	353.8665057998153	357.9266674998214	1.7692859997041523	1.0230694999918342	0.8996223001740873	356.92327809985704	0.302460600156337	355.89522580010794	2	1	101	3	nogo_reward	1	0	1	0	0	1	1	1.0	1.0	1	1.0	0.302460600156337	1962.9694902999329	2312.544059499633	2313.549381799996	2315.3186677997	2316.835996099748	2317.85906559974	2318.864716100041	2319.89276839979	2320.8961577997543	2321.7957800999284	2020-01-17 16:36:46.271541	6.27861606904905	0.0	8.27946240877344	8.105166725633	2.00084633972439	8.27946240877344	-6.27861606904905	8.27946240877344	0.0	8.27946240877344	2.00084633972439	1.5435184183803496	2.564685318211406	-0.49391814588064686	7.773431846156654	6.026798701550602	0.36496863172652927	7.773431846156654	1.1942808064226003	5.351542898047295	2.7868575798358877	5.988390092496385	1.2911236077796218	4	correct	1.0
358.8627680996433	8.845839300192438	nogo_reward	1.0	358.87195289973147	360.7141313999889	363.240129899699	1.8421785002574325	359.87724599987246	362.2257310999555	366.3046812000682	0.8368854001164436	1.0143987997435033	1.4131109998556894	365.29098829999543	0.2809084998443723	364.25544669991336	2	1	102	3	nogo_reward	1	0	1	0	0	1	0	0.0	1.0	1	1.0	0.2809084998443723	1962.9694902999329	2321.8414431996644	2322.8467362998053	2323.683621699922	2325.1952213998884	2326.209620199632	2327.2249369998462	2328.2604785999283	2329.274171500001	2330.687282499857	2020-01-17 16:36:46.271541	6.43031523473421	0.0	8.47761727752655	8.32959854230784	2.04730204279234	8.47761727752655	-6.43031523473421	8.47761727752655	0.0	8.47761727752655	2.04730204279234	1.3453635496272405	2.7163844838965665	-0.49391814588064686	7.971586714909763	6.251230518225443	0.41142433479447926	7.971586714909763	0.9961259376694911	5.549697766800405	2.8333132829038377	6.186544961249494	1.2911236077796218	4	correct	1.0
367.7338115000166	9.142700199969113	go_reward	0.3312877002172172	367.7429963001048	369.79931510006986	372.34009729977674	2.0563187999650836	368.7528433999976	371.3301454000173	375.3870703000573	1.0464717000722885	1.0099518997594714	1.498626200016588	374.38226559990994	0.6366464998573065	373.3579756999386	2	1	103	4	go_reward	0	0	1	1	1	1	0	0.0	1.0	0	0.3312877002172172	0.6366464998573065	1962.9694902999329	2330.7124866000377	2331.7223336999305	2332.7688054000027	2334.29963569995	2335.3095875997096	2336.3274659998715	2337.351755899843	2338.35656059999	2339.855186800007	2020-01-17 16:36:46.271541	9.42395038422969	7.53184869196308	0.0	7.48965163794078	9.42395038422969	0.0	-9.42395038422969	7.53184869196308	0.0	9.42395038422969	0.0	-7.53184869196308	5.710019633392045	7.037930546082433	-0.5060305626167872	5.411283613858382	7.788072676231828	-0.5060305626167872	-7.88108630392083	6.496030873503544	0.7860112401114977	5.240776375686025	1.2911236077796218	4	correct	1.0
376.90141089959116	8.318659900221519	go_reward	0.2884198003448546	376.91059569967933	378.77219429984666	381.33379569975637	1.8615986001673264	377.91337310010545	380.3101472998967	384.3611336001193	0.8588211997412145	1.0236483998596668	0.8681219997815788	383.34806529991306	0.3173668002709746	382.33422870002664	2	1	104	4	go_reward	1	1	0	1	1	1	0	0.0	1.0	1	0.2884198003448546	0.3173668002709746	1962.9694902999329	2339.880085999612	2340.8828634000383	2341.7416845997795	2343.2796375998296	2344.3032859996893	2345.3037189999595	2346.317555599846	2347.330623900052	2348.1987458998337	2020-01-17 16:36:46.271541	7.91214009396915	6.26136486436133	0.0	6.22485599636505	7.91214009396915	0.0	-7.91214009396915	6.26136486436133	0.0	7.91214009396915	0.0	3.5616159627924597	4.198209343131506	5.7674467184806835	-0.5060305626167872	4.146487972282651	6.276262385971289	-0.5060305626167872	3.2123783508347103	4.984220583243005	0.7860112401114977	3.970292548084275	1.2911236077796218	4	correct	1.0
385.2471804996021	8.422472000121616	nogo_punish	1.0	385.2563652996903	386.8310875999739	389.3488431000153	1.5747223002836108	386.2644406999459	388.3384369998241	392.3971686000002	0.5666469000279903	1.010406100191176	1.2816686998116893	391.3955954001283	0.3741294001229107	390.36548609985016	2	1	105	1	nogo_punish	1	-1	0	0	0	1	0	0.0	1.0	0	1.0	0.3741294001229107	1962.9694902999329	2348.225855599623	2349.233930999879	2349.800577899907	2351.307927299757	2352.318333399948	2353.334976399783	2354.365085700061	2355.366658899933	2356.648327599745	2020-01-17 16:36:46.271541	1.43592211215742	-2.76489352521028	-1.16736285855128	-1.30251716773082	-2.6032849707087	-1.16736285855128	-1.43592211215742	-1.16736285855128	-2.76489352521028	-1.16736285855128	-2.6032849707087	1.16736285855128	-2.2780086386802236	-3.258811671090927	-1.6733934211680674	-3.380885191813218	-4.239162678706561	-1.6733934211680674	0.8181252465935307	-4.095282369277425	-1.8172737305972024	-3.4584351748283355	-1.4737699174306582	4	correct	1.0
393.71668879967183	8.322484000120312	nogo_reward	1.0	393.72587359976	395.4172860998658	397.9335754998026	1.6914125001057982	394.72995549999155	396.9219587999394	400.9923614999277	0.687330599874258	1.0116166998632252	1.0559960999526083	399.97955599985994	0.3468037000857293	398.9508130997417	2	1	106	3	nogo_reward	0	1	0	0	0	1	0	0.0	1.0	0	1.0	0.3468037000857293	1962.9694902999329	2356.695363899693	2357.6994457999244	2358.3867763997987	2359.8914490998723	2360.9030657997355	2361.9203033996746	2362.949046299793	2363.9618517998606	2365.017847899813	2020-01-17 16:36:46.271541	6.56000440855846	0.0	8.64706538867086	8.52094700691369	2.08706098011239	8.64706538867086	-6.56000440855846	8.64706538867086	0.0	8.64706538867086	2.08706098011239	-8.64706538867086	2.8460736577208166	-0.49391814588064686	8.141034826054073	6.442578982831293	0.45118327211452924	8.141034826054073	-8.99630300062861	5.719145877944715	2.8730722202238876	6.3559930723938045	1.2911236077796218	4	correct	1.0
402.06511690001935	8.81767789972946	go_reward	0.3249726998619735	402.0743017001075	404.3545466996727	406.90688889985927	2.280244999565184	403.07427129987605	405.89232670003526	409.93863270012685	1.2802753997966647	1.014562199824013	0.9533468997101409	408.9340550997292	0.8069342998787761	407.9117097998967	2	1	107	4	go_reward	1	1	0	1	1	1	0	0.0	1.0	1	0.3249726998619735	0.8069342998787761	1962.9694902999329	2365.0437920000404	2366.043761599809	2367.3240369996056	2368.861816999968	2369.876379199792	2370.8812000998296	2371.903545399662	2372.9081230000597	2373.86146989977	2020-01-17 16:36:46.271541	8.64168562374359	6.87533533943542	0.0	6.84367441117563	8.64168562374359	0.0	-8.64168562374359	6.87533533943542	0.0	8.64168562374359	0.0	2.94764548771837	4.927754872905947	6.381417193554773	-0.5060305626167872	4.765306387093231	7.00580791574573	-0.5060305626167872	2.598407875760621	5.713766113017446	0.7860112401114977	4.584263023158364	1.2911236077796218	4	correct	1.0
410.9124865997587	9.595684799830906	nogo_punish	1.0	410.9216713998469	413.6983917998152	416.2336665000764	2.776720399968326	411.9271986996753	415.21403450006596	419.27409159997455	1.7711931001399535	1.0196320000104606	1.2432645997032523	418.2615151996722	0.5038628997281194	417.2427237001241	2	1	108	1	nogo_punish	1	-1	0	0	0	1	0	0.0	1.0	0	1.0	0.5038628997281194	1962.9694902999329	2373.89116169978	2374.896688999608	2376.667882099748	2378.183524799999	2379.2031568000093	2380.212214000057	2381.231005499605	2382.2435818999074	2383.4868464996107	2020-01-17 16:36:46.271541	1.58862364737253	-2.76489352521028	-0.979170869933373	-1.09859516653495	-2.56779451730591	-0.979170869933373	-1.58862364737253	-0.979170869933373	-2.76489352521028	-0.979170869933373	-2.56779451730591	0.979170869933373	-2.1253071034651136	-3.258811671090927	-1.4852014325501601	-3.1769631906173483	-4.20367222530377	-1.4852014325501601	0.6299332579756236	-3.9070903806595174	-1.7817832771944122	-3.270243186210428	-1.4737699174306582	4	correct	1.0
420.55445649987087	7.886993300169706	nogo_reward	1.0	420.56364129995904	421.94817239977397	424.48306880006544	1.3845310998149216	421.5581589001233	423.4590706001029	427.53429109975673	0.39001349965064946	1.0239981999625343	0.9163435003720224	426.52611939981557	0.5610420000739396	425.4964586999265	2	1	109	3	nogo_reward	1	0	1	0	0	1	0	0.0	1.0	1	1.0	0.5610420000739396	1962.9694902999329	2383.533131599892	2384.527649200056	2384.917662699707	2386.428560900036	2387.4525590999983	2388.4659489998594	2389.4956096997485	2390.5037813996896	2391.4201249000616	2020-01-17 16:36:46.271541	5.3472504321854	0.0	7.15591607060441	7.0481237083686	1.80866563841902	7.15591607060441	-5.3472504321854	7.15591607060441	0.0	7.15591607060441	1.80866563841902	2.6670647565493804	1.6333196813477566	-0.49391814588064686	6.649885507987623	4.969755684286202	0.17278793042115925	6.649885507987623	2.317827144591631	4.227996559878266	2.594676878530518	4.864843754327355	1.2911236077796218	4	correct	1.0
428.4671559999697	7.977101400029369	go_reward	0.6418793997727334	428.47634080005787	429.8286966998128	432.37650740006916	1.3523558997549117	429.48576009972	431.36029070010386	435.4288045996798	0.34293660009279847	1.0162166999652982	1.024637600407459	434.41577089996986	0.5417482000775635	433.39389949990414	2	1	110	4	go_reward	1	1	0	1	1	1	0	0.0	1.0	1	0.6418793997727334	0.5417482000775635	1962.9694902999329	2391.4458310999908	2392.455250399653	2392.7981869997457	2394.3297810000367	2395.345997700002	2396.363389799837	2397.3852611999027	2398.3982948996127	2399.42293250002	2020-01-17 16:36:46.271541	9.22328558389841	7.36346272463665	0.0	7.33594491769912	9.22328558389841	0.0	-9.22328558389841	7.36346272463665	0.0	9.22328558389841	0.0	2.4595181025171398	5.509354833060765	6.869544578756003	-0.5060305626167872	5.257576893616722	7.587407875900548	-0.5060305626167872	2.1102804905593904	6.295366073172264	0.7860112401114977	5.072390408359595	1.2911236077796218	4	correct	1.0
436.48779199970886	9.605443600099079	go_punish	0.4395298003219068	436.49697679979704	439.03915000008396	441.58180889999517	2.542173200286925	437.50040260003857	440.5697147999888	444.6244491999962	1.538747400045395	1.0120941000063794	1.4779711998999119	443.6122340001159	0.4741156999953091	442.58854450006015	2	1	111	2	go_punish	1	0	-1	1	1	1	0	0.0	1.0	0	0.4395298003219068	0.4741156999953091	1962.9694902999329	2399.46646709973	2400.4698928999715	2402.008640300017	2403.5392050999217	2404.551299199928	2405.558034799993	2406.581724300049	2407.593939499929	2409.071910699829	2020-01-17 16:36:46.271541	0.668535428628134	-1.65525994801558	-2.2362042664311	-1.71907791748186	-1.56766883780296	-2.2362042664311	-0.668535428628134	-1.65525994801558	-2.2362042664311	-1.56766883780296	-2.2362042664311	1.65525994801558	-3.04539532220951	-2.149178093896227	-2.7422348290478875	-3.7974459415642583	-3.2035465458008208	-2.7422348290478875	1.3060223360578307	-4.495588348529105	-1.4501930263196026	-3.9463322642926357	-0.9450806586514784	4	correct	1.0
446.1198131996207	8.717283900361963	go_reward	0.2676269998773932	446.1289979997089	448.05597040010593	450.61141859972827	1.9269724003970623	447.12901959987335	449.5878467997534	453.65734909987054	0.9269508002325892	1.0235717999748886	1.1889328002002912	452.6586313000878	0.4626984000205993	451.6259631998835	2	1	112	4	go_reward	1	1	0	1	1	1	1	1.0	1.0	1	0.2676269998773932	0.4626984000205993	1962.9694902999329	2409.0984882996418	2410.0985098998062	2411.025460700039	2412.5573370996863	2413.580908899661	2414.5954534998164	2415.6281216000207	2416.6268393998034	2417.8157722000037	2020-01-17 16:36:46.271541	9.69246961235811	7.75624951110959	0.0	7.73228170532238	9.69246961235811	0.0	-9.69246961235811	7.75624951110959	0.0	9.69246961235811	0.0	2.0667313160442005	5.978538861520466	7.262331365228943	-0.5060305626167872	5.653913681239981	8.05659190436025	-0.5060305626167872	1.717493704086451	6.764550101631965	0.7860112401114977	5.465177194832535	1.2911236077796218	4	correct	1.0
454.88273889990523	8.430059100035578	nogo_reward	1.0	454.8919236999934	456.5373110999351	459.071880799718	1.6453873999416828	455.8879480999892	458.04880589991785	462.1033819001161	0.649362999945879	1.0230748998001218	1.2186008999128717	461.09856479987525	0.4102686997503042	460.085450899787	2	1	113	3	nogo_reward	1	0	1	0	0	1	0	0.0	1.0	1	1.0	0.4102686997503042	1962.9694902999329	2417.8614139999263	2418.857438399922	2419.506801399868	2421.0182961998507	2422.041371099651	2423.05494119972	2424.068055099808	2425.072872200049	2426.291473099962	2020-01-17 16:36:46.271541	5.7036728011049	0.0	7.59877818172267	7.50637851649652	1.89510538061776	7.59877818172267	-5.7036728011049	7.59877818172267	0.0	7.59877818172267	1.89510538061776	2.22420264543112	1.9897420502672563	-0.49391814588064686	7.092747619105883	5.428010492414122	0.2592276726198992	7.092747619105883	1.8749650334733707	4.670858670996525	2.6811166207292576	5.307705865445614	1.2911236077796218	4	correct	1.0
463.3578053996898	9.539141099900007	nogo_reward	1.0	463.366990199778	465.9502946999853	468.46926750009857	2.583304500207305	464.372681699693	467.4554039998909	471.5162883996961	1.577613000292331	1.0138635002076626	1.3898428999818861	470.50148299988336	0.4764749999158084	469.48407709971093	2	1	114	3	nogo_reward	1	0	1	0	0	1	0	0.0	1.0	1	1.0	0.4764749999158084	1962.9694902999329	2426.336480499711	2427.342171999626	2428.919784999918	2430.424894299824	2431.4387578000315	2432.453567399644	2433.4709732998163	2434.485778699629	2435.875621599611	2020-01-17 16:36:46.271541	5.98725728693999	0.0	7.95268957321893	7.87326444236799	1.96543228627893	7.95268957321893	-5.98725728693999	7.95268957321893	0.0	7.95268957321893	1.96543228627893	1.8702912539348597	2.273326536102346	-0.49391814588064686	7.4466590106021435	5.794896418285592	0.32955457828106915	7.4466590106021435	1.5210536419771103	5.024770062492786	2.7514435263904278	5.6616172569418755	1.2911236077796218	4	correct	1.0
472.92483729962305	8.407207400071911	nogo_punish	1.0	472.9340220997112	474.3780700997447	476.90349639998726	1.44404800003349	473.9415879999285	475.8940689996814	479.95175969973184	0.4364820998162031	1.0094274003058672	1.3894698000513017	478.93890939978814	0.2842597002163529	477.91344180004694	2	1	115	1	nogo_punish	1	-1	0	0	0	1	0	0.0	1.0	0	1.0	0.2842597002163529	1962.9694902999329	2435.903512399644	2436.9110782998614	2437.3475603996776	2438.8635592996143	2439.87298669992	2440.88293209998	2441.908399699721	2442.9212499996647	2444.310719799716	2020-01-17 16:36:46.271541	1.71249668825075	-2.76489352521028	-0.825954208099456	-0.931664616164129	-2.53845089635021	-0.825954208099456	-1.71249668825075	-0.825954208099456	-2.76489352521028	-0.825954208099456	-2.53845089635021	0.825954208099456	-2.0014340625868936	-3.258811671090927	-1.331984770716243	-3.010032640246527	-4.174328604348071	-1.331984770716243	0.47671659614170653	-3.7538737188256004	-1.7524396562387126	-3.117026524376511	-1.4737699174306582	4	correct	1.0
481.37950259959325	8.383128400426358	go_punish	0.617282799910754	481.38868739968143	482.7103642998261	485.26474429992936	1.3216769001446664	482.3918387996962	484.2407257999291	488.3082900997249	0.3185255001299083	1.0240185000002384	1.4635257003828883	487.3001435999756	0.3842946998775005	486.28240370005346	2	1	116	2	go_punish	1	0	-1	1	1	1	0	0.0	1.0	0	0.617282799910754	0.3842946998775005	1962.9694902999329	2444.3581776996143	2445.361329099629	2445.679854599759	2447.210216099862	2448.2342345998622	2449.2518939999864	2450.2696338999085	2451.277780399658	2452.7413061000407	2020-01-17 16:36:46.271541	0.985917882535132	-1.38497413020221	-2.2362042664311	-1.44709168461409	-1.25028638389597	-2.2362042664311	-0.985917882535132	-1.38497413020221	-2.2362042664311	-1.25028638389597	-2.2362042664311	1.38497413020221	-2.7280128683025113	-1.878892276082857	-2.7422348290478875	-3.525459708696488	-2.8861640918938307	-2.7422348290478875	1.0357365182444607	-4.178205894622114	-1.4501930263196026	-3.6760464464792655	-0.9450806586514784	4	correct	1.0
489.80962309986353	7.977484500035189	nogo_reward	1.0	489.8188078999517	491.3221726999616	493.8508023996835	1.5033648000098765	490.82253760006256	492.82744899997465	496.91470209974773	0.49963509989902377	1.023353399708867	0.8815903002391678	495.90211169980444	0.5101731000468135	494.8724313997661	2	1	117	3	nogo_reward	1	0	1	0	0	1	0	0.0	1.0	1	1.0	0.5101731000468135	1962.9694902999329	2452.7882981998846	2453.7920278999954	2454.2916629998945	2455.7969392999075	2456.8202926996164	2457.841921699699	2458.8716019997373	2459.8841923996806	2460.76578269992	2020-01-17 16:36:46.271541	6.2158821494087	0.0	8.23916591266575	8.17071340823458	2.02328376325705	8.23916591266575	-6.2158821494087	8.23916591266575	0.0	8.23916591266575	2.02328376325705	1.5838149144880393	2.5019513985710566	-0.49391814588064686	7.733135350048964	6.092345384152182	0.38740605525918936	7.733135350048964	1.23457730253029	5.311246401939606	2.8092950033685478	5.948093596388695	1.2911236077796218	4	correct	1.0
497.83586520003155	9.197200599592179	nogo_reward	1.0	497.8450500001197	500.05396639974765	502.5931472997179	2.208916399627924	498.8356399997135	501.5695826997978	505.6372774997724	1.2183264000341296	1.0235645999200642	1.4049730999395251	504.6229648999872	0.4915012000128627	503.60416369978316	2	1	118	3	nogo_reward	1	0	1	0	0	1	0	0.0	1.0	1	1.0	0.4915012000128627	1962.9694902999329	2460.8145403000526	2461.8051302996464	2463.0234566996805	2464.5390729997307	2465.5626375996508	2466.573653999716	2467.59245519992	2468.6067677997053	2470.011740899645	2020-01-17 16:36:46.271541	6.40224236802997	0.0	8.4735280343664	8.41438427778215	2.07128566633643	8.4735280343664	-6.40224236802997	8.4735280343664	0.0	8.4735280343664	2.07128566633643	1.3494527927873907	2.6883116171923267	-0.49391814588064686	7.9674974717496125	6.336016253699752	0.43540795833856927	7.9674974717496125	1.0002151808296413	5.545608523640254	2.8572969064479277	6.182455718089344	1.2911236077796218	4	correct	1.0
507.0589917995967	8.902811300009944	go_reward	0.2837620000354945	507.0681765996849	509.5939373997969	512.1496883998623	2.525760800112039	508.0789159000849	511.12525160005293	515.1747377999125	1.5150214997120202	1.0244367998093367	0.7962500997823554	514.1668231999499	0.5397687000222504	513.1532511999833	2	1	119	4	go_reward	1	1	0	1	1	1	0	0.0	1.0	1	0.2837620000354945	0.5397687000222504	1962.9694902999329	2470.0376668996178	2471.048406200018	2472.56342769973	2474.094741899986	2475.119178699795	2476.122741499916	2477.136313499883	2478.1442280998453	2478.9404781996277	2020-01-17 16:36:46.271541	10.0747206587656	8.07553216068719	0.0	8.05461370876209	10.0747206587656	0.0	-10.0747206587656	8.07553216068719	0.0	10.0747206587656	0.0	1.7474486664665996	6.3607899079279555	7.581614014806544	-0.5060305626167872	5.976245684679693	8.43884295076774	-0.5060305626167872	1.3982110545088502	7.146801148039454	0.7860112401114977	5.784459844410135	1.2911236077796218	4	correct	1.0
516.0081344000064	8.387576499953866	go_punish	0.372841399628669	516.0173192000946	517.8777817999942	520.4224319998173	1.8604625998996198	517.0272673000579	519.4114120998413	523.4729037997311	0.8505144999362528	1.0110198999759632	0.9319919003173709	522.4526500999925	0.4426083001308143	521.4400804000909	2	1	120	2	go_punish	1	0	-1	1	1	1	0	0.0	1.0	0	0.372841399628669	0.4426083001308143	1962.9694902999329	2478.9868095000274	2479.996757599991	2480.847272099927	2482.380902399774	2483.39192229975	2484.409570700024	2485.4221403999254	2486.442394099664	2487.3743859999813	2020-01-17 16:36:46.271541	1.24372667006032	-1.16595425991895	-2.2362042664311	-1.22542925431881	-0.99247759637078	-2.2362042664311	-1.24372667006032	-1.16595425991895	-2.2362042664311	-0.99247759637078	-2.2362042664311	1.16595425991895	-2.4702040807773233	-1.659872405799597	-2.7422348290478875	-3.303797278401208	-2.628355304368641	-2.7422348290478875	0.8167166479612007	-3.9203971070969246	-1.4501930263196026	-3.4570265761960055	-0.9450806586514784	4	correct	1.0
