onset	duration	trial_type	response_time	cueOnset	targetOnset	fbOnset	cueRT	firstfixOnset	secondfixOnset	waitOnset	firstfixdur	secondfixdur	waitdur	nback_fbOnset	nback_response_time	nback_targetOnset	block	wm	trial	cue	cond	is_common	outcome_go	outcome_nogo	key_correct	key_pressed	is_correct	key_correct_nback	key_pressed_nback	is_correct_nback	outcome	rt	rt_nback	time_scan	time_onset	time_isi1	time_circle	time_isi2	time_feedback	time_same	time_correct	time_iti	time_done	timestamp_scan	DV	Qgo	Qnogo	SV	Wgo	Wnogo	mDV	Qchosen	Qunchosen	Wchosen	Wunchosen	PE	DVC	QgoC	QnogoC	SVC	WgoC	WnogoC	PEC	WchosenC	WunchosenC	QchosenC	QunchosenC	run	outcome_nback	nback_targetResp
0.0	8.627041399944574	nogo_punish	0.4235406001098454	0.02572369994595647	1.8668205998837948	4.408902400173474	1.8410968999378383	1.0320056001655757	3.3967153998091817	7.457819600123912	0.834814999718219	1.0121870003642925	1.194945499766618	6.444479600060731	1.0	5.434452400077134	2	1	1	1	nogo_punish	0	0	-1	0	1	0	0	n/a	0.0	-1	0.4235406001098454	1.0	1368.320141099859	1368.345864799805	1369.3521467000246	1370.1869616997428	1371.7168564996682	1372.7290435000325	1373.7545934999362	1374.7646206999198	1375.777960699983	1376.9729061997496	2020-01-17 16:26:51.612797	0.395825605425495	0.0	0.0	0.0	0.395825605425495	0.0	-0.395825605425495	0.0	0.0	0.395825605425495	0.0	0.0	-3.3181051454121486	-0.49391814588064686	-0.5060305626167872	-2.078368024082398	-1.2400521025723659	-0.5060305626167872	-0.34923761195774944	-2.5320939053006497	0.7860112401114977	-2.2910723162770554	1.2911236077796218	3	missed	0.0
8.674825800117105	8.030850199982524	go_punish	0.4960214998573065	8.700549500063062	10.015088399872184	12.570934600196779	1.314538899809122	9.697761800140142	11.55131880007707	15.606197999790083	0.31732659973204136	1.019615800119709	1.1252017002555021	14.597332899924368	1.0	13.588351999875158	2	1	2	2	go_punish	1	0	-1	1	1	1	0	n/a	0.0	-1	0.4960214998573065	1.0	1368.320141099859	1377.020690599922	1378.0179028999992	1378.3352294997312	1379.871459899936	1380.8910757000558	1381.9084930997342	1382.9174739997834	1383.926339099649	1385.0515407999046	2020-01-17 16:26:51.612797	0.395825605425495	0.0	0.0	0.0	0.395825605425495	0.0	-0.395825605425495	0.0	0.0	0.395825605425495	0.0	0.0	-3.3181051454121486	-0.49391814588064686	-0.5060305626167872	-2.078368024082398	-1.2400521025723659	-0.5060305626167872	-0.34923761195774944	-2.5320939053006497	0.7860112401114977	-2.2910723162770554	1.2911236077796218	3	missed	0.0
16.735790499951918	8.652426999993395	go_reward	0.3676919001154601	16.761514199897874	18.33964930009097	20.89146440010518	1.5781351001930943	17.77129640011117	19.866442299913615	23.945757899899036	0.5683528999798	1.0250221001915634	1.4681832999922335	22.936666199937463	0.7349168001674116	21.905321499798674	2	1	3	4	go_reward	1	1	0	1	1	1	0	0.0	1.0	1	0.3676919001154601	0.7349168001674116	1368.320141099859	1385.081655299757	1386.0914374999702	1386.65979039995	1388.1865833997726	1389.2116054999642	1390.2254625996577	1391.2568072997965	1392.265898999758	1393.7340822997503	2020-01-17 16:26:51.612797	0.395825605425495	0.0	0.0	0.0	0.395825605425495	0.0	-0.395825605425495	0.0	0.0	0.395825605425495	0.0	9.82298082715379	-3.3181051454121486	-0.49391814588064686	-0.5060305626167872	-2.078368024082398	-1.2400521025723659	-0.5060305626167872	9.473743215196041	-2.5320939053006497	0.7860112401114977	-2.2910723162770554	1.2911236077796218	3	correct	1.0
25.413900699932128	9.470820300281048	nogo_punish	0.2951096999458968	25.439624399878085	28.420127899851877	30.974419599864632	2.9805034999737927	26.449561200104654	29.94645999977388	34.02018920006208	1.9705666997472235	1.0279596000907532	0.8902555000970551	33.00797299994156	0.4455138999037444	31.995874899905175	2	1	4	1	nogo_punish	1	-1	0	0	1	0	0	0.0	1.0	-1	0.2951096999458968	0.4455138999037444	1368.320141099859	1393.7597654997371	1394.7697022999637	1396.740268999711	1398.266601099633	1399.2945606997237	1400.3160159997642	1401.3281140998006	1402.340330299921	1403.2305858000182	2020-01-17 16:26:51.612797	-0.570862992909007	-0.823243376137699	0.0	-0.823243376137699	-0.570862992909007	0.0	0.570862992909007	-0.823243376137699	0.0	-0.570862992909007	0.0	-4.43687446162483	-4.284793743746651	-1.317161522018346	-0.5060305626167872	-2.901611400220097	-2.2067407009068676	-0.5060305626167872	-4.78611207358258	-3.4987825036351516	0.7860112401114977	-3.1143156924147544	1.2911236077796218	3	correct	1.0
34.908689300064	8.21891860011965	go_reward	0.3895372999832034	34.934413000009954	36.497840099968016	39.04429649980739	1.5634270999580622	35.936382099986076	38.030242499895394	42.09771509980783	0.5614579999819398	1.0140539999119937	1.0556165003217757	41.084046700038016	0.5252733998931944	40.055021000094484	2	1	5	4	go_reward	1	1	0	1	1	1	1	1.0	1.0	1	0.3895372999832034	0.5252733998931944	1368.320141099859	1403.254554099869	1404.256523199845	1404.817981199827	1406.3503835997544	1407.3644375996664	1408.3751620999535	1409.404187799897	1410.4178561996669	1411.4734726999886	2020-01-17 16:26:51.612797	2.34490929497248	1.63655730698504	0.0	1.63655730698504	2.34490929497248	0.0	-2.34490929497248	1.63655730698504	0.0	2.34490929497248	0.0	8.18642352016875	-1.3690214558651634	1.1426391611043933	-0.5060305626167872	-0.441810717097358	0.7090315869746193	-0.5060305626167872	7.8371859082110005	-0.5830102157536645	0.7860112401114977	-0.6545150092920153	1.2911236077796218	3	correct	1.0
43.17095800023526	9.115455399733037	go_punish	0.2697614002972841	43.196681700181216	45.38654180010781	47.926298200152814	2.189860099926591	44.21213770005852	46.902372399810474	50.953350299969316	1.174404100049287	1.0239258003423402	1.3587867999449372	49.94797929981746	0.4662179998122155	48.93927459977567	2	1	6	2	go_punish	0	-1	0	1	1	1	0	0.0	1.0	-1	0.2697614002972841	0.4662179998122155	1368.320141099859	1411.5168228000402	1412.5322787999175	1413.7066828999668	1415.2225134996695	1416.2464393000118	1417.2594156996347	1418.2681203996765	1419.2734913998283	1420.6322781997733	2020-01-17 16:26:51.612797	-0.570862992909007	-0.823243376137699	0.0	-0.823243376137699	-0.570862992909007	0.0	0.570862992909007	-0.823243376137699	0.0	-0.570862992909007	0.0	-4.43687446162483	-4.284793743746651	-1.317161522018346	-0.5060305626167872	-2.901611400220097	-2.2067407009068676	-0.5060305626167872	-4.78611207358258	-3.4987825036351516	0.7860112401114977	-3.1143156924147544	1.2911236077796218	3	correct	1.0
52.33420890010893	8.361993600148708	nogo_reward	0.5466533000580966	52.35993260005489	53.85767300007865	56.414014199748635	1.4977404000237584	53.366109900176525	55.394180399831384	59.48158210003726	0.4915630999021232	1.0198337999172509	1.2403441001663396	58.46916850004345	0.6068743001669645	57.434477199800085	2	1	7	3	nogo_reward	1	0	1	0	1	0	0	0.0	1.0	0	0.5466533000580966	0.6068743001669645	1368.320141099859	1420.680073699914	1421.6862510000356	1422.1778140999377	1423.7143214996904	1424.7341552996077	1425.7546182996591	1426.7893095999025	1427.8017231998963	1429.0420673000626	2020-01-17 16:26:51.612797	0.395825605425495	0.0	0.0	0.0	0.395825605425495	0.0	-0.395825605425495	0.0	0.0	0.395825605425495	0.0	0.0	-3.3181051454121486	-0.49391814588064686	-0.5060305626167872	-2.078368024082398	-1.2400521025723659	-0.5060305626167872	-0.34923761195774944	-2.5320939053006497	0.7860112401114977	-2.2910723162770554	1.2911236077796218	3	correct	1.0
60.72110740002245	9.406274000182748	nogo_punish	0.3867752999067306	60.746831099968404	63.49155959999189	66.04844949999824	2.7447285000234842	61.7571363998577	65.02803369984008	69.09759220015258	1.734423200134188	1.0204158001581618	1.0555128999985754	68.08519920008257	0.5426734001375735	67.06555290007987	2	1	8	1	nogo_punish	0	0	-1	0	1	0	0	0.0	1.0	0	0.3867752999067306	0.5426734001375735	1368.320141099859	1429.0669721998274	1430.0772774997167	1431.811700699851	1433.348174799699	1434.3685905998573	1435.385693999939	1436.4053402999416	1437.4177333000116	1438.4732462000102	2020-01-17 16:26:51.612797	-1.36368619217982	-1.4974424757297	0.0	-1.4974424757297	-1.36368619217982	0.0	1.36368619217982	-1.4974424757297	0.0	-1.36368619217982	0.0	1.4974424757297	-5.077616943017464	-1.991360621610347	-0.5060305626167872	-3.575810499812098	-2.999563900177681	-0.5060305626167872	1.1482048637719506	-4.291605702905965	0.7860112401114977	-3.7885147920067554	1.2911236077796218	3	correct	1.0
70.17022600024939	8.241369899827987	nogo_reward	0.438500499818474	70.19594970019534	71.54785900004208	74.11375520005822	1.3519092998467386	71.20376899978146	73.09357459982857	77.14754500007257	0.3440900002606213	1.0201806002296507	1.2897745999507606	76.1384080001153	0.5683160000480711	75.12305219983682	2	1	9	3	nogo_reward	1	0	1	0	1	0	1	0.0	0.0	0	0.438500499818474	0.5683160000480711	1368.320141099859	1438.5160908000544	1439.5239100996405	1439.868000099901	1441.4137156996876	1442.4338962999173	1443.4431932996958	1444.4585490999743	1445.4676860999316	1446.7574606998824	2020-01-17 16:26:51.612797	0.395825605425495	0.0	0.0	0.0	0.395825605425495	0.0	-0.395825605425495	0.0	0.0	0.395825605425495	0.0	0.0	-3.3181051454121486	-0.49391814588064686	-0.5060305626167872	-2.078368024082398	-1.2400521025723659	-0.5060305626167872	-0.34923761195774944	-2.5320939053006497	0.7860112401114977	-2.2910723162770554	1.2911236077796218	3	wrong	1.0
78.45318299997598	8.181874000001926	go_punish	0.356190700083971	78.47890669992194	79.80519030010328	82.36261259997264	1.3262836001813412	79.48782140016556	81.34242619993188	85.41766239982098	0.3173688999377191	1.0201864000407568	1.2431183001028785	84.41402659984306	0.7058970001526177	83.3794005997479	2	1	10	2	go_punish	1	0	-1	1	1	1	0	0.0	1.0	0	0.356190700083971	0.7058970001526177	1368.320141099859	1446.799047799781	1447.8079625000246	1448.1253313999623	1449.662567299791	1450.6827536998317	1451.699541699607	1452.734167699702	1453.73780349968	1454.980921799783	2020-01-17 16:26:51.612797	-1.36368619217982	-1.4974424757297	0.0	-1.4974424757297	-1.36368619217982	0.0	1.36368619217982	-1.4974424757297	0.0	-1.36368619217982	0.0	1.4974424757297	-5.077616943017464	-1.991360621610347	-0.5060305626167872	-3.575810499812098	-2.999563900177681	-0.5060305626167872	1.1482048637719506	-4.291605702905965	0.7860112401114977	-3.7885147920067554	1.2911236077796218	3	correct	1.0
86.66055310005322	8.788748399820179	nogo_punish	0.2662466000765562	86.68627679999918	88.46214180020615	91.0130574000068	1.7758650002069771	87.69644889980555	89.98821840016171	94.06883919984102	0.7656929004006088	1.0248389998450875	1.4061859999783337	93.05589819978945	0.7918126001022756	92.02762540010735	2	1	11	1	nogo_punish	1	-1	0	0	1	0	0	0.0	1.0	-1	0.2662466000765562	0.7918126001022756	1368.320141099859	1455.0064178998582	1456.0165899996646	1456.7822829000652	1458.3083595000207	1459.3331984998658	1460.3477664999664	1461.3760392996485	1462.3889802997	1463.7951662996784	2020-01-17 16:26:51.612797	-1.0521685870097	-1.23062136952009	0.0	-1.23062136952009	-1.0521685870097	0.0	1.0521685870097	-1.23062136952009	0.0	-1.0521685870097	0.0	-4.0294964682424395	-4.7660993378473435	-1.7245395154007368	-0.5060305626167872	-3.308989393602488	-2.6880462950075605	-0.5060305626167872	-4.378734080200189	-3.9800880977358446	0.7860112401114977	-3.5216936857971453	1.2911236077796218	3	correct	1.0
95.47213470004499	8.324772300198674	go_reward	0.4026447003707289	95.49785839999095	97.0097276000306	99.56570459995419	1.511869200039655	96.51065419986867	98.54133770009503	102.62622210010886	0.499073400161933	1.0243668998591602	1.1964086000807583	101.61375040002167	0.6533784000203013	100.583989799954	2	1	12	4	go_reward	1	1	0	1	1	1	0	0.0	1.0	1	0.4026447003707289	0.6533784000203013	1368.320141099859	1463.81799949985	1464.8307952997277	1465.3298686998896	1466.861478799954	1467.8858456998132	1468.904130899813	1469.9338914998807	1470.946363199968	1472.1427718000486	2020-01-17 16:26:51.612797	3.91926109708595	2.9554386067226	0.0	2.9554386067226	3.91926109708595	0.0	-3.91926109708595	2.9554386067226	0.0	3.91926109708595	0.0	6.86754222043119	0.20533034624830648	2.461520460841953	-0.5060305626167872	0.8770705826402021	2.2833833890880895	-0.5060305626167872	6.51830460847344	0.9913415863598054	0.7860112401114977	0.6643662904455447	1.2911236077796218	3	correct	1.0
103.82021610019751	9.291706999763392	go_reward	0.2926579997874796	103.84593980014347	106.11375880008586	108.66469219978899	2.267818999942392	104.84674429986626	107.64472980005667	111.72273010015488	1.2670145002196023	1.0199623997323215	1.4149166997519842	110.70940080005676	0.3868967997841537	109.68744339980185	2	1	13	4	go_reward	0	0	1	1	1	1	0	0.0	1.0	0	0.2926579997874796	0.3868967997841537	1368.320141099859	1472.1660809000025	1473.1668853997253	1474.433899899945	1475.9648708999157	1476.984833299648	1478.0075844996609	1479.0295418999158	1480.042871200014	1481.457787899766	2020-01-17 16:26:51.612797	5.20284633585104	4.02851453599802	0.0	4.02851453599802	5.20284633585104	0.0	-5.20284633585104	4.02851453599802	0.0	5.20284633585104	0.0	-4.02851453599802	1.4889155850133968	3.5345963901173727	-0.5060305626167872	1.9501465119156216	3.5669686278531794	-0.5060305626167872	-4.3777521479557695	2.2749268251248957	0.7860112401114977	1.7374422197209642	1.2911236077796218	3	correct	1.0
113.13525649998337	8.08763730013743	go_reward	0.3879745001904666	113.16098019992933	114.63141570007406	117.18023800011747	1.4704355001447311	114.16221860004589	116.16820399975404	120.23928439989686	0.4691971000281683	1.0120340003634283	1.009333100169897	119.22377299983054	0.5103628998622298	118.19602280016989	2	1	14	4	go_reward	0	0	1	1	1	1	1	0.0	0.0	0	0.3879745001904666	0.5103628998622298	1368.320141099859	1481.4811212997884	1482.482359699905	1482.951556799933	1484.488345099613	1485.5003790999765	1486.516163900029	1487.5439140996896	1488.559425499756	1489.5687585999258	2020-01-17 16:26:51.612797	4.30859820752619	3.27218136992192	0.0	3.27218136992192	4.30859820752619	0.0	-4.30859820752619	3.27218136992192	0.0	4.30859820752619	0.0	-3.27218136992192	0.5946674566885464	2.778263224041273	-0.5060305626167872	1.193813345839522	2.672720499528329	-0.5060305626167872	-3.6214189818796694	1.3806786968000453	0.7860112401114977	0.9811090536448646	1.2911236077796218	3	wrong	1.0
121.26977160014212	8.628026599995792	go_punish	1.0	121.29549530008808	122.96078239986673	125.49034859985113	1.6652870997786522	122.29573740018532	124.47644420014694	128.5277030998841	0.6650449996814132	1.013904399704188	1.3958188001997769	127.51548990001902	0.525322999805212	126.49509890004992	2	1	15	2	go_punish	1	0	-1	1	0	0	0	0.0	1.0	-1	1.0	0.525322999805212	1368.320141099859	1489.615636399947	1490.6158785000443	1491.2809234997258	1492.796585300006	1493.8104896997102	1494.815239999909	1495.835630999878	1496.8478441997431	1498.243662999943	2020-01-17 16:26:51.612797	1.0521685870097	-1.23062136952009	0.0	-1.23062136952009	-1.0521685870097	0.0	-1.0521685870097	0.0	-1.23062136952009	0.0	-1.0521685870097	-5.26011783776253	-2.6617621638279436	-1.7245395154007368	-0.5060305626167872	-3.308989393602488	-2.6880462950075605	-0.5060305626167872	-5.6093554497202796	-2.9279195107261446	-0.26615734689820225	-2.2910723162770554	0.060502238259531715	3	correct	1.0
129.92319020023592	9.055082699749391	nogo_punish	1.0	129.94891390018188	132.54335309984185	135.06438959995307	2.5944391996599734	130.9658777001314	134.04944350011647	138.1105931000784	1.5774753997104654	1.0149460998366067	0.8934034998528659	137.0982380998321	0.694297400303185	136.08416510000825	2	1	16	1	nogo_punish	1	-1	0	0	0	1	0	0.0	1.0	0	1.0	0.694297400303185	1368.320141099859	1498.269055000041	1499.2860187999904	1500.8634941997009	1502.3695845999755	1503.384530699812	1504.4043061998673	1505.4183791996911	1506.4307341999374	1507.3241376997903	2020-01-17 16:26:51.612797	1.77100726977247	-1.84197280923875	0.0	-1.84197280923875	-1.77100726977247	0.0	-1.77100726977247	0.0	-1.84197280923875	0.0	-1.77100726977247	0.0	-1.9429234810651737	-2.335890955119397	-0.5060305626167872	-3.920340833321148	-3.4068849777703307	-0.5060305626167872	-0.34923761195774944	-2.9279195107261446	-0.9849960296609722	-2.2910723162770554	-0.5508492014591282	3	correct	1.0
139.02039590012282	8.86114769987762	go_punish	0.3570922999642789	139.04611960006878	140.86125809978694	143.41226289980114	1.8151384997181594	140.04688569996506	142.39147779997438	146.45981959998608	0.8143723998218775	1.0207850998267531	1.4474476999603212	145.44632200011984	0.3240924999117851	144.42538170004264	2	1	17	2	go_punish	1	0	-1	1	1	1	1	1.0	1.0	0	0.3570922999642789	0.3240924999117851	1368.320141099859	1507.3662606999278	1508.367026799824	1509.181399199646	1510.7116188998334	1511.7324039996602	1512.7455227999017	1513.7664630999789	1514.779960699845	1516.2274083998054	2020-01-17 16:26:51.612797	-0.336412453916114	-1.23062136952009	-0.823243376137699	-1.84197280923875	-1.15965583005381	-0.823243376137699	0.336412453916114	-1.23062136952009	-0.823243376137699	-1.15965583005381	-0.823243376137699	1.23062136952009	-4.050343204753758	-1.7245395154007368	-1.3292739387544863	-3.920340833321148	-2.7955335380516706	-1.3292739387544863	0.8813837575623407	-4.087575340779955	-0.037232136026201346	-3.5216936857971453	0.4678802316419227	3	correct	1.0
147.92241280013695	8.904736400116235	go_punish	1.0	147.9481365000829	149.92279209988192	152.4601241000928	1.9746555997990072	148.94749040016904	151.43650479987264	155.50016289995983	0.9753016997128725	1.0236193002201617	1.3527100002393126	154.48652319982648	0.4173718998208642	153.4680240000598	2	1	18	2	go_punish	1	0	-1	1	0	0	0	0.0	1.0	-1	1.0	0.4173718998208642	1368.320141099859	1516.268277599942	1517.267631500028	1518.242933199741	1519.7566458997317	1520.7802651999518	1521.7881650999188	1522.8066642996855	1523.8203039998189	1525.1730140000582	2020-01-17 16:26:51.612797	0.0704936832433596	-1.01872943310105	-0.823243376137699	-1.52289278114575	-0.893737059381058	-0.823243376137699	-0.0704936832433596	-0.823243376137699	-1.01872943310105	-0.823243376137699	-0.893737059381058	-4.43687446162483	-3.643437067594284	-1.5126475789816967	-1.3292739387544863	-3.601260805228148	-2.5296147673789187	-1.3292739387544863	-4.78611207358258	-3.7511628868638436	-0.10772581926956026	-3.1143156924147544	0.27239417467857185	3	correct	1.0
156.8688834998759	9.17778090015031	go_punish	0.4274082002229988	156.89460719982185	159.2631048997864	161.80501990020275	2.368497699964564	157.90402079978958	160.78387949988246	164.85226339986548	1.359084099996835	1.0211404003202915	1.2201247001066804	163.84900770010427	0.5801464999094605	162.8212557998486	2	1	19	2	go_punish	1	0	-1	1	1	1	1	0.0	0.0	0	0.4274082002229988	0.5801464999094605	1368.320141099859	1525.2147482996809	1526.2241618996486	1527.5832459996454	1529.1040205997415	1530.1251610000618	1531.1413968997076	1532.1691487999633	1533.1724044997245	1534.3925291998312	2020-01-17 16:26:51.612797	0.504041808995901	-1.01872943310105	-1.4974424757297	-2.09069442561827	-0.993400666733803	-1.4974424757297	-0.504041808995901	-1.01872943310105	-1.4974424757297	-0.993400666733803	-1.4974424757297	1.01872943310105	-3.2098889418417427	-1.5126475789816967	-2.0034730383464874	-4.169062449700668	-2.6292783747316637	-2.0034730383464874	0.6694918211433005	-3.9213201774599478	-0.7114312356182023	-3.3098017493781056	-0.20631886795007826	3	wrong	1.0
166.0880157998763	8.697340700309724	go_punish	0.3243725001811981	166.11373949982226	167.77091339975595	170.31661089975387	1.6571738999336958	167.11415039980784	169.30131709994748	173.34876140020788	0.6567629999481142	1.0152937998063862	1.4623187999241054	172.34439310012385	0.5971889002248645	171.32620819984004	2	1	20	2	go_punish	0	-1	0	1	1	1	1	1.0	1.0	-1	0.3243725001811981	0.5971889002248645	1368.320141099859	1534.4338805996813	1535.4342914996669	1536.091054499615	1537.6214581998065	1538.636751999613	1539.646349299699	1540.6645341999829	1541.668902500067	1543.131221299991	2020-01-17 16:26:51.612797	0.734677970663823	-0.848693681553742	-1.4974424757297	-1.73521612075867	-0.762764505065881	-1.4974424757297	-0.734677970663823	-0.848693681553742	-1.4974424757297	-0.762764505065881	-1.4974424757297	-4.4114241562087875	-2.9792527801738204	-1.3426118274343888	-2.0034730383464874	-3.813584144841068	-2.398642213063742	-2.0034730383464874	-4.760661768166537	-3.6906840157920255	-0.7114312356182023	-3.1397659978307972	-0.20631886795007826	3	correct	1.0
174.83162879990414	9.247345699928701	nogo_reward	0.2697497000917792	174.8573524998501	177.288716299925	179.8248649998568	2.431363800074905	175.86715100007132	178.8043190999888	182.89231810020306	1.4215652998536825	1.0205458998680115	1.2123800995757392	181.8797829998657	0.5582018997520208	180.84724690020107	2	1	21	3	nogo_reward	1	0	1	0	1	0	0	0.0	1.0	0	0.2697497000917792	0.5582018997520208	1368.320141099859	1543.1774935997091	1544.1872920999303	1545.608857399784	1547.1244601998478	1548.1450060997158	1549.16738800006	1550.1999240997247	1551.212459200062	1552.4248392996378	2020-01-17 16:26:51.612797	0.395825605425495	0.0	0.0	0.0	0.395825605425495	0.0	-0.395825605425495	0.0	0.0	0.395825605425495	0.0	0.0	-3.3181051454121486	-0.49391814588064686	-0.5060305626167872	-2.078368024082398	-1.2400521025723659	-0.5060305626167872	-0.34923761195774944	-2.5320939053006497	0.7860112401114977	-2.2910723162770554	1.2911236077796218	3	correct	1.0
184.12140890024602	8.589272699784487	nogo_reward	0.3446243996731937	184.14713260019198	186.3658358999528	188.91245839977637	2.2187032997608185	185.1469005001709	187.89613710017875	191.96171589987352	1.2189353997819126	1.016321299597621	0.7746894001029432	190.94924469990656	0.5475705000571907	189.91983509995066	2	1	22	3	nogo_reward	1	0	1	0	1	0	0	0.0	1.0	0	0.3446243996731937	0.5475705000571907	1368.320141099859	1552.467273700051	1553.46704160003	1554.6859769998118	1556.2162782000378	1557.2325994996354	1558.2399761998097	1559.2693857997656	1560.2818569997326	1561.0565463998355	2020-01-17 16:26:51.612797	0.395825605425495	0.0	0.0	0.0	0.395825605425495	0.0	-0.395825605425495	0.0	0.0	0.395825605425495	0.0	0.0	-3.3181051454121486	-0.49391814588064686	-0.5060305626167872	-2.078368024082398	-1.2400521025723659	-0.5060305626167872	-0.34923761195774944	-2.5320939053006497	0.7860112401114977	-2.2910723162770554	1.2911236077796218	3	correct	1.0
192.73612370016053	9.058595499955118	nogo_punish	0.2946835001930594	192.7618474001065	195.21575109986588	197.773136400152	2.453903699759394	193.7715571001172	196.74667199980468	200.82724450016394	1.444193999748677	1.0264644003473222	0.9931983998976648	199.80811809981242	0.7942336001433432	198.78911089990288	2	1	23	1	nogo_punish	1	-1	0	0	1	0	0	0.0	1.0	-1	0.2946835001930594	0.7942336001433432	1368.320141099859	1561.0819884999655	1562.0916981999762	1563.535892199725	1565.0668130996637	1566.093277500011	1567.109251999762	1568.1282591996714	1569.147385600023	1570.1405839999206	2020-01-17 16:26:51.612797	-1.71698043551876	-1.84197280923875	0.0	-1.52289278114575	-1.71698043551876	0.0	1.71698043551876	-1.84197280923875	0.0	-1.71698043551876	0.0	-3.4181450285237798	-5.430911186356403	-2.335890955119397	-0.5060305626167872	-3.601260805228148	-3.3528581435166207	-0.5060305626167872	-3.767382640481529	-4.644899946244904	0.7860112401114977	-4.133045125515805	1.2911236077796218	3	correct	1.0
201.82103360025212	8.822185699827969	nogo_punish	1.0	201.84675730019808	203.63652310008183	206.16337120020762	1.789765799883753	202.85564919980266	205.14240380004048	209.2005032999441	0.7808739002791754	1.0209674001671374	1.4684397000819445	208.18726440006867	0.7254522000439465	207.17700689984508	2	1	24	1	nogo_punish	0	0	-1	0	0	1	0	0.0	1.0	-1	1.0	0.7254522000439465	1368.320141099859	1570.166898400057	1571.1757902996617	1571.9566641999409	1573.4625448998995	1574.4835123000666	1575.497147999704	1576.5074054999277	1577.5206443998031	1578.989084099885	2020-01-17 16:26:51.612797	2.32080739091619	-2.34613615728345	0.0	-2.09069442561827	-2.32080739091619	0.0	-2.32080739091619	0.0	-2.34613615728345	0.0	-2.32080739091619	-5.26011783776253	-1.3931233599214536	-2.840054303164097	-0.5060305626167872	-4.169062449700668	-3.9566850989140505	-0.5060305626167872	-5.6093554497202796	-2.9279195107261446	-1.5347961508046923	-2.2910723162770554	-1.055012549503828	3	correct	1.0
210.6869072001425	8.254437400028337	nogo_reward	1.0	210.71263090008847	212.40896590007446	214.94192230002955	1.696334999985993	211.72047929977998	213.9224326000549	217.98892530007288	0.6884866002944818	1.019489699974656	0.9781430000439286	216.97633589990437	0.6894070999696851	215.94706799974665	2	1	25	3	nogo_reward	1	0	1	0	0	1	0	0.0	1.0	1	1.0	0.6894070999696851	1368.320141099859	1579.0327719999475	1580.040620399639	1580.7291069999335	1582.242573699914	1583.2620633998886	1584.2672090996057	1585.2964769997634	1586.309066399932	1587.2872093999758	2020-01-17 16:26:51.612797	-0.395825605425495	0.0	0.0	0.0	0.395825605425495	0.0	0.395825605425495	0.0	0.0	0.0	0.395825605425495	9.82298082715379	-4.109756356263139	-0.49391814588064686	-0.5060305626167872	-2.078368024082398	-1.2400521025723659	-0.5060305626167872	9.473743215196041	-2.9279195107261446	1.1818368455369928	-2.2910723162770554	1.2911236077796218	3	correct	1.0
218.96466899989173	9.479248300194968	go_reward	0.2553109000436961	218.99039269983768	221.50816820003092	224.05940830009058	2.5177755001932383	219.99164350004867	223.03961119987048	227.10889039980248	1.5165246999822557	1.019797100220103	1.3607506002301761	226.0968662998639	0.6555676003918052	225.06692299991846	2	1	26	4	go_reward	0	0	1	1	1	1	0	0.0	1.0	0	0.2553109000436961	0.6555676003918052	1368.320141099859	1587.3105337996967	1588.3117845999077	1589.82830929989	1591.3597522997295	1592.3795493999496	1593.3870640997775	1594.417007399723	1595.4290314996615	1596.7897820998917	2020-01-17 16:26:51.612797	3.60706782641197	2.6804647599821	0.0	2.6804647599821	3.60706782641197	0.0	-3.60706782641197	2.6804647599821	0.0	3.60706782641197	0.0	-2.6804647599821	-0.10686292442567336	2.186546614101453	-0.5060305626167872	0.602096735899702	1.9711901184141094	-0.5060305626167872	-3.0297023719398495	0.6791483156858256	0.7860112401114977	0.38939244370504467	1.2911236077796218	3	correct	1.0
228.48961069993652	8.126585000194837	nogo_reward	1.0	228.51533439988248	230.1675990000365	232.6964900000021	1.6522646001540124	229.52064940007403	231.6720973001793	235.72665320010856	0.6469495999624542	1.0243926998227835	0.9152661999687552	234.73044960014522	0.8002288998104632	233.70924679981545	2	1	27	3	nogo_reward	1	0	1	0	0	1	1	0.0	0.0	1	1.0	0.8002288998104632	1368.320141099859	1596.8354754997415	1597.840790499933	1598.4877400998955	1599.9922384000383	1601.0166310998611	1602.0293878996745	1603.0505907000042	1604.0467942999676	1604.9620604999363	2020-01-17 16:26:51.612797	0.928205318997609	0.0	1.63655730698504	1.63655730698504	0.708351987987433	1.63655730698504	-0.928205318997609	1.63655730698504	0.0	1.63655730698504	0.708351987987433	8.18642352016875	-2.7857254318400346	-0.49391814588064686	1.130526744368253	-0.441810717097358	-0.9275257200104278	1.130526744368253	7.8371859082110005	-1.2913622037411046	1.4943632280989307	-0.6545150092920153	1.2911236077796218	3	wrong	1.0
236.65877530025318	8.911681899800897	nogo_reward	1.0	236.68449900019914	238.53758420003578	241.05587140005082	1.8530851998366416	237.69298390019708	240.04081889986992	244.10654969979078	0.844600299838703	1.0150525001809	1.48963120020926	243.09882339974865	0.529709399677813	242.07078729989007	2	1	28	3	nogo_reward	1	0	1	0	0	1	0	0.0	1.0	1	1.0	0.529709399677813	1368.320141099859	1605.0046401000582	1606.013125000056	1606.8577252998948	1608.360959999729	1609.3760124999098	1610.390928399749	1611.4189644996077	1612.4266907996498	1613.916321999859	2020-01-17 16:26:51.612797	1.99161611635925	0.0	2.9554386067226	2.9554386067226	0.963822490363351	2.9554386067226	-1.99161611635925	2.9554386067226	0.0	2.9554386067226	0.963822490363351	6.86754222043119	-1.7223146344783935	-0.49391814588064686	2.449408044105813	0.8770705826402021	-0.6720552176345098	2.449408044105813	6.51830460847344	0.027519095996455523	1.7498337304748488	0.6643662904455447	1.2911236077796218	3	correct	1.0
245.59379249997437	9.51736140018329	go_reward	1.0	245.61951619992033	248.10564639978088	250.62712770001986	2.486130199860554	246.63133790018037	249.61533499974757	253.6698419000022	1.474308499600511	1.0117927002722809	1.4670357001014054	252.65724990004674	0.5848830002360046	251.64360329974465	2	1	29	4	go_reward	1	1	0	1	0	0	0	0.0	1.0	0	1.0	0.5848830002360046	1368.320141099859	1613.9396572997794	1614.9514790000394	1616.42578749964	1617.9354760996066	1618.9472687998789	1619.9637443996037	1620.9773909999058	1621.9899829998612	1623.4570186999626	2020-01-17 16:26:51.612797	-3.05008333709525	2.21188052301457	0.0	2.21188052301457	3.05008333709525	0.0	3.05008333709525	0.0	2.21188052301457	0.0	3.05008333709525	0.0	-6.764014087932893	1.7179623771339232	-0.5060305626167872	0.1335124989321721	1.414205629097389	-0.5060305626167872	-0.34923761195774944	-2.9279195107261446	3.8360945772067474	-2.2910723162770554	3.503004130794192	3	correct	1.0
255.13724890025333	9.022382099647075	nogo_punish	1.0	255.16297260019928	257.2208801000379	259.74503749981545	2.0579074998386204	256.1731301001273	258.72516730008647	262.7952572000213	1.047749999910593	1.0198701997289845	1.3900974998250604	261.7825028998777	0.5095401997677982	260.75401809997857	2	1	30	1	nogo_punish	1	-1	0	0	0	1	0	0.0	1.0	0	1.0	0.5095401997677982	1368.320141099859	1623.4831137000583	1624.4932711999863	1625.541021199897	1627.0453083999455	1628.0651785996745	1629.0741591998376	1630.1026439997368	1631.1153982998803	1632.5054957997054	2020-01-17 16:26:51.612797	1.58040882685469	-2.34613615728345	-0.823243376137699	-2.55845949689637	-2.40365220299239	-0.823243376137699	-1.58040882685469	-0.823243376137699	-2.34613615728345	-0.823243376137699	-2.40365220299239	0.823243376137699	-2.1335219239829533	-2.840054303164097	-1.3292739387544863	-4.636827520978768	-4.039529910990251	-1.3292739387544863	0.4740057641799496	-3.7511628868638436	-1.6176409628808925	-3.1143156924147544	-1.055012549503828	3	correct	1.0
264.18278349982575	9.1868763002567	go_reward	1.0	264.2085071997717	266.67081280006096	269.1964610000141	2.4623056002892554	265.2162075000813	268.1858422998339	272.2302979999222	1.4546052999796757	1.0106187001802027	1.1650855001062155	271.21602289984	0.6283622998744249	270.20219470001757	2	1	31	4	go_reward	1	1	0	1	0	0	1	0.0	0.0	0	1.0	0.6283622998744249	1368.320141099859	1632.5286482996307	1633.5363485999403	1634.99095389992	1636.505983399693	1637.5166020998731	1638.5223357998766	1639.536163999699	1640.5504390997812	1641.7155245998874	2020-01-17 16:26:51.612797	-2.97829757496074	2.21188052301457	0.0	1.83699166681293	2.97829757496074	0.0	2.97829757496074	0.0	2.21188052301457	0.0	2.97829757496074	0.0	-6.692228325798384	1.7179623771339232	-0.5060305626167872	-0.24137635726946804	1.342419866962879	-0.5060305626167872	-0.34923761195774944	-2.9279195107261446	3.7643088150722375	-2.2910723162770554	3.503004130794192	3	wrong	1.0
273.3953686999157	8.196362500078976	nogo_punish	0.3926369003020227	273.42109239986166	274.9009286998769	277.45702010020614	1.4798363000152222	274.43083330010995	276.43238600017503	280.50848530000076	0.47009539976693304	1.0246341000311077	1.1089695999398828	279.4971861001104	0.6879266002215445	278.47059889975935	2	1	32	1	nogo_punish	1	-1	0	0	1	0	1	0.0	0.0	-1	0.3926369003020227	0.6879266002215445	1368.320141099859	1641.7412334997207	1642.750974399969	1643.221069799736	1644.752527100034	1645.7771612000652	1646.7907399996184	1647.8173271999694	1648.8286263998598	1649.9375959997997	2020-01-17 16:26:51.612797	-1.65531297129852	-2.34613615728345	-0.674199099592005	-2.12345394167842	-2.32951207089053	-0.674199099592005	1.65531297129852	-2.34613615728345	-0.674199099592005	-2.32951207089053	-0.674199099592005	-2.91398168047908	-5.369243722136163	-2.840054303164097	-1.1802296622087922	-4.201821965760818	-3.965389778888391	-1.1802296622087922	-3.2632192924368293	-5.257431581616675	0.11181214051949273	-4.637208473560506	0.6169245081876168	3	wrong	1.0
281.6337053999307	9.38796940026782	go_punish	0.2756984997540712	281.65942909987666	284.41766430018447	286.97752399975434	2.7582352003078086	282.65795509982854	285.95348779996857	290.03244569990784	1.7597092003559283	1.024036199785769	1.0149528002366424	289.0133923999965	0.8243855000473559	287.990159700159	2	1	33	2	go_punish	0	-1	0	1	1	1	0	0.0	1.0	-1	0.2756984997540712	0.8243855000473559	1368.320141099859	1649.9795701997357	1650.9780961996876	1652.7378054000435	1654.2736288998276	1655.2976650996134	1656.310300800018	1657.3335334998555	1658.3525867997669	1659.3675396000035	2020-01-17 16:26:51.612797	-0.0450267160855606	-1.53427215569019	-1.4974424757297	-2.27249821822411	-1.54246919181526	-1.4974424757297	0.0450267160855606	-1.53427215569019	-1.4974424757297	-1.54246919181526	-1.4974424757297	-3.7258456820723396	-3.758957466923204	-2.0281903015708367	-2.0034730383464874	-4.350866242306508	-3.178346899813121	-2.0034730383464874	-4.075083294030089	-4.470388702541404	-0.7114312356182023	-3.825344471967245	-0.20631886795007826	3	correct	1.0
291.0631614997983	8.593715000431985	go_punish	1.0	291.08888519974425	292.87994799995795	295.4089413001202	1.7910628002136946	292.0984724997543	294.3942329999991	298.4394760001451	0.7814755002036691	1.0147083001211286	1.2431242000311613	297.4267016998492	0.3486579996533692	296.41387340007327	2	1	34	2	go_punish	1	0	-1	1	0	0	0	0.0	1.0	-1	1.0	0.3486579996533692	1368.320141099859	1659.4090262996033	1660.4186135996133	1661.200089099817	1662.714374099858	1663.7290823999792	1664.7340144999323	1665.7468427997082	1666.759617100004	1668.0027413000353	2020-01-17 16:26:51.612797	0.68507423343305	-2.09615233372341	-1.4974424757297	-2.71458789320593	-2.18251670916275	-1.4974424757297	-0.68507423343305	-1.4974424757297	-2.09615233372341	-1.4974424757297	-2.18251670916275	-3.7626753620328297	-3.0288565174045936	-2.590070479604057	-2.0034730383464874	-4.792955917288328	-3.8183944171606106	-2.0034730383464874	-4.111912973990579	-4.425361986455845	-1.3965054690512524	-3.7885147920067554	-0.805028725943788	3	correct	1.0
299.68195950007066	9.23960840003565	go_reward	0.2410049000754952	299.7076832000166	302.1525612999685	304.70770000014454	2.444878099951893	300.72741949977353	303.68436569999903	307.73903169995174	1.4251418001949787	1.0233343001455069	1.2082599001005292	306.72560560004786	0.7081367000937462	305.71244450006634	2	1	35	4	go_reward	1	1	0	1	1	1	0	0.0	1.0	1	0.2410049000754952	0.7081367000937462	1368.320141099859	1668.0278242998756	1669.0475605996326	1670.4727023998275	1672.004506799858	1673.0278411000036	1674.0325855999254	1675.0457466999069	1676.0591727998108	1677.2674326999113	2020-01-17 16:26:51.612797	2.91958035029158	2.21188052301457	0.0	1.53441419002952	2.91958035029158	0.0	-2.91958035029158	2.21188052301457	0.0	2.91958035029158	0.0	7.61110030413922	-0.7943504005460635	1.7179623771339232	-0.5060305626167872	-0.543953834052878	1.2837026422937192	-0.5060305626167872	7.26186269218147	-0.008339160434564619	0.7860112401114977	-0.07919179326248527	1.2911236077796218	3	correct	1.0
308.96630340022966	8.346027699765045	go_punish	1.0	308.9920271001756	310.8947006999513	313.4223079998046	1.9026735997756532	309.99805859988555	312.40930810011946	316.46982750017196	0.8966421000657192	1.0129998996851555	0.868227299768705	315.4569783001207	0.356641000136733	314.43791999993846	2	1	36	2	go_punish	1	0	-1	1	0	0	1	1.0	1.0	-1	1.0	0.356641000136733	1368.320141099859	1677.3121682000346	1678.3181996997446	1679.2148417998103	1680.7294491999785	1681.7424490996636	1682.7580610997975	1683.7771193999797	1684.789968600031	1685.6581958997997	2020-01-17 16:26:51.612797	0.193994809167942	-2.09615233372341	-2.05386474565779	-3.08115424669063	-2.24785955482573	-2.05386474565779	-0.193994809167942	-2.05386474565779	-2.09615233372341	-2.05386474565779	-2.24785955482573	-3.2062530921047396	-3.5199359416697016	-2.590070479604057	-2.5598953082745775	-5.159522270773028	-3.8837372628235904	-2.5598953082745775	-3.555490704062489	-4.981784256383935	-1.4618483147142323	-4.3449370619348455	-0.805028725943788	3	correct	1.0
317.3349313000217	8.95601599989459	go_reward	0.2635027999058366	317.36065499996766	319.7011107997969	322.2608360000886	2.340455799829215	318.3735643001273	321.2375529999845	325.2908390001394	1.3275464996695518	1.0232830001041293	1.0258319997228682	324.295939499978	0.8709428999572992	323.2745281998068	2	1	37	4	go_reward	1	1	0	1	1	1	1	0.0	0.0	1	0.2635027999058366	0.8709428999572992	1368.320141099859	1685.6807960998267	1686.6937053999864	1688.021251899656	1689.5576940998435	1690.5809770999476	1691.5946692996658	1692.616080599837	1693.6109800999984	1694.6368120997213	2020-01-17 16:26:51.612797	4.44544878312489	3.47354897379797	0.0	2.92487143591527	4.44544878312489	0.0	-4.44544878312489	3.47354897379797	0.0	4.44544878312489	0.0	6.349431853355821	0.7315180322872465	2.979630827917323	-0.5060305626167872	0.846503411832872	2.809571075127029	-0.5060305626167872	6.000194241398071	1.5175292723987455	0.7860112401114977	1.1824766575209145	1.2911236077796218	3	wrong	1.0
326.3338462002573	9.261893599760015	go_punish	1.0	326.35956990020327	329.07506750011817	331.60521799977846	2.7154975999148974	327.3677956000902	330.58160200016573	334.6536964001134	1.7072719000279903	1.0236159996127299	0.9677670998498797	333.63881109980866	0.4749356000684201	332.61963979993016	2	1	38	2	go_punish	1	0	-1	1	0	0	1	0.0	0.0	-1	1.0	0.4749356000684201	1368.320141099859	1694.6797110000623	1695.6879366999492	1697.3952085999772	1698.9017431000248	1699.9253590996375	1700.9397808997892	1701.9589521996677	1702.9738374999724	1703.9416045998223	2020-01-17 16:26:51.612797	-0.213386153591858	-2.09615233372341	-2.51617190883076	-3.38711621327589	-2.3027857552389	-2.51617190883076	0.213386153591858	-2.51617190883076	-2.09615233372341	-2.51617190883076	-2.3027857552389	-2.74394592893177	-3.9273169044295018	-2.590070479604057	-3.0222024714475473	-5.465484237358288	-3.938663463236761	-3.0222024714475473	-3.093183540889519	-5.444091419556905	-1.5167745151274024	-4.807244225107816	-0.805028725943788	3	wrong	1.0
335.62223709980026	8.767446600366384	nogo_punish	1.0	335.6479607997462	337.5003383997828	340.0166090000421	1.8523776000365615	336.65670339995995	338.9938126001505	343.06270659994334	0.8436349998228252	1.0227963998916039	1.3527008001692593	342.05831959983334	0.8366851997561753	341.0361087000929	2	1	39	1	nogo_punish	0	0	-1	0	0	1	0	0.0	1.0	-1	1.0	0.8366851997561753	1368.320141099859	1703.9681018996052	1704.976844499819	1705.8204794996418	1707.3139537000095	1708.336750099901	1709.356249799952	1710.3784606996924	1711.3828476998024	1712.7355484999716	2020-01-17 16:26:51.612797	2.1571834246151	-2.76489352521028	-0.674199099592005	-2.59681106354201	-2.83138252420711	-0.674199099592005	-2.1571834246151	-0.674199099592005	-2.76489352521028	-0.674199099592005	-2.83138252420711	-4.585918738170525	-1.5567473262225437	-3.258811671090927	-1.1802296622087922	-4.675179087624408	-4.46726023220497	-1.1802296622087922	-4.935156350128275	-3.6021186103181497	-2.045371284095612	-2.9652714158690605	-1.4737699174306582	3	correct	1.0
344.41715000011027	9.282096299808245	nogo_punish	1.0	344.4428737000562	347.2038218001833	349.72917959978804	2.7609481001270524	345.4571449998766	348.7085160999559	352.7628481001593	1.746676800306659	1.0206634998321533	0.9621218997051528	351.7495253998786	0.5877008996903896	350.7368637002073	2	1	40	1	nogo_punish	1	-1	0	0	0	1	0	0.0	1.0	0	1.0	0.5877008996903896	1368.320141099859	1712.7630147999153	1713.7772860997356	1715.5239629000423	1717.028657199815	1718.049320699647	1719.0570048000664	1720.0696664997377	1721.0829892000183	1722.0451110997235	2020-01-17 16:26:51.612797	1.52085249753665	-2.76489352521028	-1.37966564606579	-2.98703913993551	-2.90051814360243	-1.37966564606579	-1.52085249753665	-1.37966564606579	-2.76489352521028	-1.37966564606579	-2.90051814360243	1.37966564606579	-2.1930782533009934	-3.258811671090927	-1.8856962086825773	-5.065407164017908	-4.5363958516002905	-1.8856962086825773	1.0304280341080405	-4.3075851567919345	-2.1145069034909323	-3.6707379623428453	-1.4737699174306582	3	correct	1.0
353.7228295002135	8.445798799861223	go_reward	0.4123627999797463	353.74855320015945	355.1200938001273	357.66324059991166	1.3715405999678296	354.76036990014836	356.63988169981167	360.71103519992903	0.35972389997891696	1.0233589000999928	1.483316800091643	359.7065844000317	0.7799841999076307	358.677595899906	2	1	41	4	go_reward	1	1	0	1	1	1	0	0.0	1.0	1	0.4123627999797463	0.7799841999076307	1368.320141099859	1722.0686943000185	1723.0805110000074	1723.4402348999863	1724.9600227996707	1725.9833816997707	1726.997736999765	1728.0267254998907	1729.031176299788	1730.5144930998797	2020-01-17 16:26:51.612797	5.67723169113706	4.48985279675212	0.0	4.04221790729449	5.67723169113706	0.0	-5.67723169113706	4.48985279675212	0.0	5.67723169113706	0.0	5.33312803040167	1.9633009402994168	3.9959346508714733	-0.5060305626167872	1.963849883212092	4.041353983139199	-0.5060305626167872	4.98389041844392	2.7493121804109157	0.7860112401114977	2.198780480475065	1.2911236077796218	3	correct	1.0
362.2126120999453	8.943685899954517	go_punish	1.0	362.2383357998913	364.8450895999558	367.3661352000199	2.6067538000645527	363.23613920016214	366.34989689989015	370.40589000005275	1.6089503997936845	1.0162383001297712	0.7761316997930408	369.40399400005117	0.5632783998735249	368.38129370007664	2	1	42	2	go_punish	1	0	-1	1	0	0	0	0.0	1.0	-1	1.0	0.5632783998735249	1368.320141099859	1730.5584768997503	1731.5562803000212	1733.1652306998149	1734.6700379997492	1735.686276299879	1736.7014347999357	1737.7241350999102	1738.7260310999118	1739.5021627997048	2020-01-17 16:26:51.612797	-0.553379307719543	-2.09615233372341	-2.90255842721153	-3.64397997764958	-2.34917911949199	-2.90255842721153	0.553379307719543	-2.90255842721153	-2.09615233372341	-2.90255842721153	-2.34917911949199	-2.3575594105509996	-4.267310058557187	-2.590070479604057	-3.4085889898283175	-5.722348001731978	-3.985056827489851	-3.4085889898283175	-2.706797022508749	-5.830477937937674	-1.5631678793804924	-5.193630743488585	-0.805028725943788	3	correct	1.0
371.2007654998449	9.688430699985702	nogo_reward	0.2912744996137917	371.2264891997909	374.07434980012476	376.63161920011066	2.847860600333888	372.23359500011406	375.61091089993715	379.68074889993295	1.8407548000107	1.02070830017351	1.2341709998436272	378.6666508000344	0.7230129996314645	377.6486153001897	2	1	43	3	nogo_reward	1	0	1	0	1	0	0	0.0	1.0	0	0.2912744996137917	0.7230129996314645	1368.320141099859	1739.54663029965	1740.553736099973	1742.3944908999838	1743.9310519997962	1744.9517602999697	1745.9687564000487	1746.9867918998934	1748.000889999792	1749.2350609996356	2020-01-17 16:26:51.612797	-2.85418273614499	0.0	4.02851453599802	4.02851453599802	1.17433179985303	4.02851453599802	2.85418273614499	0.0	4.02851453599802	1.17433179985303	4.02851453599802	0.0	-6.568113486982634	-0.49391814588064686	3.5224839733812323	1.9501465119156216	-0.46154590814483076	3.5224839733812323	-0.34923761195774944	-1.7535877108731146	4.814525776109518	-2.2910723162770554	5.319638143777642	3	correct	1.0
380.9305413002148	8.789940799586475	go_punish	1.0	380.9562650001608	382.88706729980186	385.4159415997565	1.9308022996410728	381.9658161997793	384.4027684000321	388.4716121000238	0.9212511000225732	1.013173199724406	1.2745936997234821	387.4585027000867	0.3438921999186277	386.43077259976417	2	1	44	2	go_punish	0	-1	0	1	0	0	1	1.0	1.0	0	1.0	0.3438921999186277	1368.320141099859	1749.2764061000198	1750.2859572996383	1751.2072083996609	1752.722909499891	1753.7360826996155	1754.7509136996232	1755.7786437999457	1756.7917531998828	1758.0663468996063	2020-01-17 16:26:51.612797	-0.838666880151303	-2.09615233372341	-3.22720068838325	-3.86074143281438	-2.38853380823194	-3.22720068838325	0.838666880151303	-3.22720068838325	-2.09615233372341	-3.22720068838325	-2.38853380823194	3.22720068838325	-4.552597630988947	-2.590070479604057	-3.733231251000037	-5.939109456896778	-4.024411516229801	-3.733231251000037	2.8779630764255004	-6.155120199109394	-1.6025225681204422	-5.518273004660305	-0.805028725943788	3	correct	1.0
389.7462415001355	8.181266299914569	nogo_punish	1.0	389.77196520008147	391.12217119988054	393.64810949983075	1.3502059997990727	390.7722777999006	392.62813050020486	396.710010800045	0.3498933999799192	1.0199789996258914	1.2432206999510527	395.69099549995735	0.3938564001582563	394.6657238001933	2	1	45	1	nogo_punish	1	-1	0	0	0	1	0	0.0	1.0	0	1.0	0.3938564001582563	1368.320141099859	1758.0921062999405	1759.0924188997597	1759.4423122997396	1760.948271600064	1761.9682505996898	1762.9858649000523	1764.0111365998164	1765.030151899904	1766.273372599855	2020-01-17 16:26:51.612797	1.67845235273844	-2.76489352521028	-1.13650626276497	-2.487952192346	-2.81495861550342	-1.13650626276497	-1.67845235273844	-1.13650626276497	-2.76489352521028	-1.13650626276497	-2.81495861550342	1.13650626276497	-2.0354783980992037	-3.258811671090927	-1.6425368253817574	-4.566320216428398	-4.450836323501281	-1.6425368253817574	0.7872686508072206	-4.064425773491115	-2.0289473753919225	-3.4275785790420255	-1.4737699174306582	3	correct	1.0
397.9519815999083	7.99097070004791	go_reward	0.2546985996887088	397.9777052998543	399.53483740007505	402.07022550003603	1.5571321002207696	398.988635300193	401.04597820015624	405.1260003000498	0.5462020998820662	1.0242472998797894	0.842675699852407	404.1147980000824	0.409926800057292	403.0856572999619	2	1	46	4	go_reward	1	1	0	1	1	1	0	0.0	1.0	1	0.2546985996887088	0.409926800057292	1368.320141099859	1766.2978463997133	1767.308776400052	1767.854978499934	1769.3661193000153	1770.390366599895	1771.405798399821	1772.4349390999414	1773.4461413999088	1774.2888170997612	2020-01-17 16:26:51.612797	6.68146136397327	5.31682866492824	0.0	4.94924102974042	6.68146136397327	0.0	-6.68146136397327	5.31682866492824	0.0	6.68146136397327	0.0	4.5061521622255505	2.9675306131356263	4.822910519047593	-0.5060305626167872	2.8708730056580216	5.045583655975409	-0.5060305626167872	4.156914550267801	3.753541853247125	0.7860112401114977	3.0257563486511843	1.2911236077796218	3	correct	1.0
405.9699732000008	9.25554580008611	nogo_punish	1.0	405.9956968999468	408.77126249996945	411.2865503001958	2.7755656000226736	407.00528619997203	410.27373099979013	414.3204006999729	1.7659762999974191	1.0128193004056811	0.9308420000600108	413.30785890016705	0.382852700073272	412.29450209997594	2	1	47	1	nogo_punish	1	-1	0	0	0	1	1	1.0	1.0	0	1.0	0.382852700073272	1368.320141099859	1774.3158379998058	1775.325427299831	1777.0914035998285	1778.5938720996492	1779.6066914000548	1780.614643199835	1781.628000000026	1782.640541799832	1783.571383799892	2020-01-17 16:26:51.612797	1.8022590714184	-2.76489352521028	-0.942808788308861	-2.08479324471081	-2.74506785972726	-0.942808788308861	-1.8022590714184	-0.942808788308861	-2.76489352521028	-0.942808788308861	-2.74506785972726	0.942808788308861	-1.9116716794192437	-3.258811671090927	-1.448839350925648	-4.163161268793209	-4.380945567725121	-1.448839350925648	0.5935711763511116	-3.8707282990350054	-1.9590566196157626	-3.233881104585916	-1.4737699174306582	3	correct	1.0
415.2706474000588	7.758410799782496	nogo_reward	0.7526918998919427	415.29637110000476	416.7149303997867	419.26587759982795	1.4185592997819185	416.29322300013155	418.2452569999732	422.3049833998084	0.4217073996551335	1.0206205998547375	0.7497984999788514	421.29200999997556	0.7220042999833822	420.28364829998463	2	1	48	3	nogo_reward	1	0	1	0	1	0	0	0.0	1.0	0	0.7526918998919427	0.7220042999833822	1368.320141099859	1783.6165121998638	1784.6133640999906	1785.0350714996457	1786.5653980998322	1787.586018699687	1788.6037893998437	1789.6121510998346	1790.6251244996674	1791.3749229996463	2020-01-17 16:26:51.612797	-2.99209769839374	0.0	4.02851453599802	3.27218136992192	1.03641683760427	4.02851453599802	2.99209769839374	0.0	4.02851453599802	1.03641683760427	4.02851453599802	0.0	-6.7060284492313835	-0.49391814588064686	3.5224839733812323	1.193813345839522	-0.5994608703935909	3.5224839733812323	-0.34923761195774944	-1.8915026731218747	4.814525776109518	-2.2910723162770554	5.319638143777642	3	correct	1.0
423.05289880000055	9.51114059984684	go_reward	0.2715635001659393	423.0786224999465	425.6360539998859	428.16280619986355	2.557431499939412	424.0899093998596	427.14627279993147	431.20573299983516	1.5461446000263095	1.0165333999320865	1.3840300999581814	430.19611570006236	0.6864829999394715	429.16709409980103	2	1	49	4	go_reward	1	1	0	1	1	1	0	0.0	1.0	1	0.2715635001659393	0.6864829999394715	1368.320141099859	1791.3987635998055	1792.4100504997186	1793.956195099745	1795.4664138997905	1796.4829472997226	1797.48723519966	1798.5162567999214	1799.5258740996942	1800.9099041996524	2020-01-17 16:26:51.612797	7.50698549741733	5.99551797747885	0.0	5.69188745337002	7.50698549741733	0.0	-7.50698549741733	5.99551797747885	0.0	7.50698549741733	0.0	3.82746284967494	3.793054746579686	5.501599831598203	-0.5060305626167872	3.613519429287622	5.871107789419469	-0.5060305626167872	3.4782252377171905	4.579065986691186	0.7860112401114977	3.704445661201795	1.2911236077796218	3	correct	1.0
432.590558799915	8.944482200313132	nogo_punish	1.0	432.616282499861	434.67102489992976	437.1949632000178	2.0547424000687897	433.6250101001933	436.1741375001145	440.25781140010804	1.0460147997364402	1.0208256999032983	1.302953300066065	439.2454788000325	0.6549384999088943	438.2166546001099	2	1	50	1	nogo_punish	1	-1	0	0	0	1	0	0.0	1.0	0	1.0	0.6549384999088943	1368.320141099859	1800.93642359972	1801.9451512000524	1802.9911659997888	1804.4942785999735	1805.5151042998768	1806.536795699969	1807.5656198998915	1808.577952499967	1809.8809058000331	2020-01-17 16:26:51.612797	1.90059397474577	-2.76489352521028	-0.786949424344682	-1.75630202280686	-2.68754339909045	-0.786949424344682	-1.90059397474577	-0.786949424344682	-2.76489352521028	-0.786949424344682	-2.68754339909045	0.786949424344682	-1.8133367760918735	-3.258811671090927	-1.2929799869614693	-3.834670046889258	-4.32342110708831	-1.2929799869614693	0.4377118123869325	-3.7148689350708266	-1.9015321589789522	-3.0780217406217374	-1.4737699174306582	3	correct	1.0
441.56068800017215	8.389533899724483	nogo_punish	1.0	441.5864117001181	443.56883230013773	446.10175269981823	1.9824206000196227	442.59586409991607	445.0854063001457	449.1574985999614	0.9729682002216578	1.0163463996725568	0.8184469998811892	448.14492089999817	0.2675045002251863	447.12005629995815	2	1	51	1	nogo_punish	1	-1	0	0	0	1	0	0.0	1.0	0	1.0	0.2675045002251863	1368.320141099859	1809.9065527999771	1810.916005199775	1811.8889733999968	1813.4055474000047	1814.4218937996773	1815.4401973998172	1816.4650619998572	1817.4776396998204	1818.2960866997016	2020-01-17 16:26:51.612797	1.97944362804262	-2.76489352521028	-0.660454115202762	-1.48665352387177	-2.63989774324538	-0.660454115202762	-1.97944362804262	-0.660454115202762	-2.76489352521028	-0.660454115202762	-2.63989774324538	0.660454115202762	-1.7344871227950236	-3.258811671090927	-1.1664846778195492	-3.565021547954168	-4.27577545124324	-1.1664846778195492	0.31121650324501254	-3.5883736259289067	-1.8538865031338823	-2.9515264314798175	-1.4737699174306582	3	correct	1.0
449.99558270024136	7.917560899629962	nogo_reward	0.4867024999111891	450.0213064001873	451.3759320001118	453.92825029976666	1.354625599924475	451.0247888998131	452.9071130999366	456.97643959987886	0.35114310029871376	1.0211371998300365	0.9624276999384165	455.9584094998427	0.7225988996215165	454.94703439995646	2	1	52	3	nogo_reward	1	0	1	0	1	0	0	0.0	1.0	0	0.4867024999111891	0.7225988996215165	1368.320141099859	1818.3414475000463	1819.344929999672	1819.6960730999708	1821.2272541997957	1822.2483913996257	1823.2671754998155	1824.2785505997017	1825.296580699738	1826.2590083996763	2020-01-17 16:26:51.612797	-3.10191146956815	0.0	4.02851453599802	2.6804647599821	0.926603066429868	4.02851453599802	3.10191146956815	0.0	4.02851453599802	0.926603066429868	4.02851453599802	0.0	-6.815842220405793	-0.49391814588064686	3.5224839733812323	0.602096735899702	-0.7092746415679928	3.5224839733812323	-0.34923761195774944	-2.0013164442962768	4.814525776109518	-2.2910723162770554	5.319638143777642	3	correct	1.0
457.9545670999214	8.232521099969517	go_punish	0.5911311996169388	457.98029079986736	459.7234898000022	462.25090199988335	1.7431990001348368	458.9895008001479	461.2416917001826	465.30076730018504	0.7339889998543185	1.009210299700726	0.9120445996518356	464.2879781997765	0.4028965001925826	463.25862379977457	2	1	53	2	go_punish	1	0	-1	1	1	1	0	0.0	1.0	0	0.5911311996169388	0.4028965001925826	1368.320141099859	1826.3004318997264	1827.309641900007	1828.0436308998612	1829.5618328000417	1830.5710430997424	1831.5787648996336	1832.6081192996355	1833.620908400044	1834.532952999696	2020-01-17 16:26:51.612797	0.399422445268473	-2.09615233372341	-2.67802490906754	-3.22127119643125	-2.27860246379906	-2.67802490906754	-0.399422445268473	-2.09615233372341	-2.67802490906754	-2.27860246379906	-2.67802490906754	2.09615233372341	-3.3145083055691704	-2.590070479604057	-3.1840554716843275	-5.299639220513648	-3.914480171796921	-3.1840554716843275	1.7469147217656604	-5.206521974525204	-1.8920136689560425	-4.387224650000466	-1.3869013012879183	3	correct	1.0
466.2135999999009	8.543208899907768	nogo_punish	1.0	466.23932369984686	467.8116482999178	470.3457253999077	1.5723246000709423	467.24968799995304	469.327612699941	473.3984611001797	0.5619602999647668	1.0181126999666503	1.3840714995749295	472.3858258998953	0.7963920999318361	471.3572563999335	2	1	54	1	nogo_punish	0	0	-1	0	0	1	0	0.0	1.0	-1	1.0	0.7963920999318361	1368.320141099859	1834.559464799706	1835.569829099812	1836.1317893997768	1837.6477537998	1838.6658664997667	1839.6773974997925	1840.7059669997543	1841.7186022000387	1843.1026736996137	2020-01-17 16:26:51.612797	2.04319869825828	-2.76489352521028	-0.557020718127282	-1.26386097176672	-2.60021941638556	-0.557020718127282	-2.04319869825828	-0.557020718127282	-2.76489352521028	-0.557020718127282	-2.60021941638556	-4.703097119635248	-1.6707320525793636	-3.258811671090927	-1.0630512807440693	-3.3422289958491183	-4.236097124383421	-1.0630512807440693	-5.052334731592998	-3.484940228853427	-1.8142081762740623	-2.8480930344043376	-1.4737699174306582	3	correct	1.0
474.7824858999811	7.917822599876672	nogo_punish	1.0	474.80820959992707	476.3713051001537	478.89751419983804	1.5630955002266091	475.820482300129	477.8766451999543	481.96673079999186	0.5508228000246618	1.02086899988376	0.7593013998118749	480.9482867000622	0.4367470000870526	479.91391339991264	2	1	55	1	nogo_punish	1	-1	0	0	0	1	0	0.0	1.0	0	1.0	0.4367470000870526	1368.320141099859	1843.128350699786	1844.140623399988	1844.6914462000127	1846.1967862998133	1847.217655299697	1848.2340544997717	1849.2684277999213	1850.286871899851	1851.0461732996628	2020-01-17 16:26:51.612797	1.41533395528873	-2.76489352521028	-1.29512850913566	-1.90195684434582	-2.71046246442439	-1.29512850913566	-1.41533395528873	-1.29512850913566	-2.76489352521028	-1.29512850913566	-2.71046246442439	1.29512850913566	-2.2985967955489137	-3.258811671090927	-1.8011590717524473	-3.9803248684282178	-4.346340172422251	-1.8011590717524473	0.9458908971779105	-4.223048019861805	-1.9244512243128926	-3.5862008254127153	-1.4737699174306582	3	correct	1.0
482.7449158001691	8.529680199921131	nogo_reward	1.0	482.77063950011507	484.77669049985707	487.3025520001538	2.0060509997420013	483.77715539978817	486.28131309989817	490.3569037998093	0.999535100068897	1.0212389002556392	0.9434159002269098	489.3442688998771	0.3954392001032829	488.3212453997694	2	1	56	3	nogo_reward	0	1	0	0	0	1	0	0.0	1.0	0	1.0	0.3954392001032829	1368.320141099859	1851.090780599974	1852.0972964996472	1853.096831599716	1854.6014541997572	1855.6226931000128	1856.6413864996284	1857.664409999736	1858.6770448996683	1859.6204607998952	2020-01-17 16:26:51.612797	3.19031172191734	0.0	4.02851453599802	2.21188052301457	0.838202814080675	4.02851453599802	-3.19031172191734	4.02851453599802	0.0	4.02851453599802	0.838202814080675	-4.02851453599802	-0.5236190289203035	-0.49391814588064686	3.5224839733812323	0.1335124989321721	-0.7976748939171858	3.5224839733812323	-4.3777521479557695	1.100595025271875	1.6242140541921728	1.7374422197209642	1.2911236077796218	3	correct	1.0
491.31783499987796	7.872091799974214	nogo_reward	1.0	491.3435586998239	492.73110450012587	495.26883180020377	1.3875458003019503	492.3509701997973	494.2454682998359	498.31615269975737	0.38013430032856377	1.02336350036785	0.8994978000407627	497.3030038001018	0.5181477000005543	496.27248150017135	2	1	57	3	nogo_reward	1	0	1	0	0	1	0	0.0	1.0	1	1.0	0.5181477000005543	1368.320141099859	1859.663699799683	1860.6711112996563	1861.051245599985	1862.565609399695	1863.5889729000628	1864.5926226000304	1865.6231448999608	1866.6362937996164	1867.5357915996572	2020-01-17 16:26:51.612797	2.50576431797576	0.0	3.27218136992192	1.83699166681293	0.766417051946165	3.27218136992192	-2.50576431797576	3.27218136992192	0.0	3.27218136992192	0.766417051946165	6.55079945723187	-1.2081664328618835	-0.49391814588064686	2.7661508073051326	-0.24137635726946804	-0.8694606560516958	2.7661508073051326	6.20156184527412	0.34426185919577534	1.5524282920576629	0.9811090536448646	1.2911236077796218	3	correct	1.0
499.2316581001505	8.473751700017601	nogo_reward	1.0	499.2573818000965	500.69358150009066	503.21968339988985	1.4361996999941766	500.26629579998576	502.1990979998375	506.25219210004457	0.4272857001049033	1.0205854000523686	1.478941400069516	505.2503864001485	0.3806976000778377	504.237000499852	2	1	58	3	nogo_reward	0	1	0	0	0	1	1	1.0	1.0	0	1.0	0.3806976000778377	1368.320141099859	1867.5775228999555	1868.5864368998448	1869.0137225999497	1870.5192390996965	1871.5398244997489	1872.557141599711	1873.5705275000075	1874.5723331999036	1876.051274599973	2020-01-17 16:26:51.612797	3.2967958571282	0.0	4.31702206696715	3.17097149701456	1.02022620983894	4.31702206696715	-3.2967958571282	4.31702206696715	0.0	4.31702206696715	1.02022620983894	-4.31702206696715	-0.4171348937094437	-0.49391814588064686	3.8109915043503624	1.0926034729321619	-0.6156514981589207	3.8109915043503624	-4.6662596789249	1.389102556241005	1.8062374499504377	2.0259497506900943	1.2911236077796218	3	correct	1.0
507.74576070019975	7.8023248999379575	go_punish	0.2886973000131547	507.7714844001457	509.0509484000502	511.5957023999654	1.2794639999044648	508.78147079981863	510.58028279989935	514.6270241998138	0.2694776002315393	1.015419600066025	0.9467851002698353	513.6137557001782	0.5359938000328839	512.5995327001438	2	1	59	2	go_punish	0	-1	0	1	1	1	0	0.0	1.0	-1	0.2886973000131547	0.5359938000328839	1368.320141099859	1876.0916255000047	1877.1016118996777	1877.3710894999092	1878.9004238997584	1879.9158434998244	1880.9196738000028	1881.9338968000372	1882.9471652996729	1883.8939503999427	2020-01-17 16:26:51.612797	0.848489679652579	-1.73706742329765	-2.67802490906754	-2.70353784402814	-1.82953522941496	-2.67802490906754	-0.848489679652579	-1.73706742329765	-2.67802490906754	-1.82953522941496	-2.67802490906754	-3.5230504144648798	-2.8654410711850646	-2.230985569178297	-3.1840554716843275	-4.781905868110538	-3.465412937412821	-3.1840554716843275	-3.872288026422629	-4.757454740141105	-1.8920136689560425	-4.028139739574705	-1.3869013012879183	3	correct	1.0
515.5891438000833	8.859910199884553	go_punish	0.0843076002784073	515.6148675000293	517.4743564999662	520.0260617998429	1.859488999936957	516.6156409000978	519.0054199001754	523.075381000061	0.8587155998684466	1.020641899667453	1.3993966998527867	522.0586823001502	0.8753361999988556	521.0373598998415	2	1	60	2	go_punish	1	0	-1	1	1	1	0	0.0	1.0	0	0.0843076002784073	0.8753361999988556	1368.320141099859	1883.9350085998883	1884.9357819999568	1885.7944975998253	1887.3255610000344	1888.346202899702	1889.3575009997005	1890.3788234000092	1891.39552209992	1892.7949187997729	2020-01-17 16:26:51.612797	0.244132999979603	-2.2721688023703	-2.67802490906754	-3.10409247359315	-2.43389190908793	-2.67802490906754	-0.244132999979603	-2.2721688023703	-2.67802490906754	-2.43389190908793	-2.67802490906754	2.2721688023703	-3.4697977508580404	-2.766086948250947	-3.1840554716843275	-5.182460497675548	-4.06976961708579	-3.1840554716843275	1.9229311904125508	-5.3618114198140745	-1.8920136689560425	-4.563241118647356	-1.3869013012879183	3	correct	1.0
