onset	duration	trial_type	response_time	cueOnset	targetOnset	fbOnset	cueRT	firstfixOnset	secondfixOnset	waitOnset	firstfixdur	secondfixdur	waitdur	nback_fbOnset	nback_response_time	nback_targetOnset	block	wm	trial	cue	cond	is_common	outcome_go	outcome_nogo	key_correct	key_pressed	is_correct	key_correct_nback	key_pressed_nback	is_correct_nback	outcome	rt	rt_nback	time_scan	time_onset	time_isi1	time_circle	time_isi2	time_feedback	time_same	time_correct	time_iti	time_done	timestamp_scan	DV	Qgo	Qnogo	SV	Wgo	Wnogo	mDV	Qchosen	Qunchosen	Wchosen	Wunchosen	PE	DVC	QgoC	QnogoC	SVC	WgoC	WnogoC	PEC	WchosenC	WunchosenC	QchosenC	QunchosenC	run	outcome_nback	nback_targetResp
0.0	7.91325129987672	nogo_punish	1.0	0.024567999877035618	3.000501699745655	5.535412399563938	2.9759336998686194	1.0332203996367753	4.514728699810803	6.548406199552119	1.9672813001088798	1.0206836997531354	1.3894131002016366	n/a	1.0	n/a	1	0	61	1	nogo_punish	1	-1	0	0	0	1	1	n/a	n/a	0	1.0	1.0	885.3228897000663	885.3474576999433	886.3561100997031	888.323391399812	889.8376183998771	890.8583020996302	n/a	n/a	891.8712958996184	893.26070899982	2020-01-17 16:18:48.628973	3.43680825334118	-4.48282543453023	-1.30340954352335	-1.49339408428926	-4.74021779686453	-1.30340954352335	-3.43680825334118	-1.30340954352335	-4.48282543453023	-1.30340954352335	-4.74021779686453	1.30340954352335	-0.27712249749646345	-4.976743580410877	-1.809440106140137	-3.571762108371658	-6.376095504862391	-1.809440106140137	0.9541719315656005	-4.231329054249494	-3.9542065567530327	-3.594481859800405	-3.1917018267506077	2	missed	0.0
7.949504099786282	6.45175029989332	go_reward	0.4147940003313124	7.974072099663317	9.488466399721801	12.04059989983216	1.514394300058484	8.988659399561584	11.025836599990726	13.04189519956708	0.4998070001602173	1.0147632998414338	1.3839271999895573	n/a	1.0	n/a	1	0	62	4	go_reward	1	1	0	1	1	1	0	n/a	n/a	1	0.4147940003313124	1.0	885.3228897000663	893.2969617997296	894.3115490996279	894.8113560997881	896.348726300057	897.3634895998985	n/a	n/a	898.3647848996334	899.7487120996229	2020-01-17 16:18:48.628973	14.0474568023864	9.42255094976074	0.0	9.42255094976074	14.0474568023864	0.0	-14.0474568023864	9.42255094976074	0.0	14.0474568023864	0.0	0.4004298773930497	10.333526051548755	8.928632803880094	-0.5060305626167872	7.344182925678343	12.41157909438854	-0.5060305626167872	0.051192265435300255	11.119537291660254	0.7860112401114977	7.131478633483685	1.2911236077796218	2	missed	0.0
14.436576699838042	6.281809200067073	go_reward	0.3336195996962487	14.461144699715078	16.2896362999453	18.831502399872875	1.8284916002302225	15.477027299813926	17.810783699620515	19.84357079956692	0.8126090001313742	1.0207187002523597	0.8993831002152319	n/a	1.0	n/a	1	0	63	4	go_reward	0	0	1	1	1	1	0	n/a	n/a	0	0.3336195996962487	1.0	885.3228897000663	899.7840343997814	900.7999169998802	901.6125260000116	903.1336733996868	904.1543920999392	n/a	n/a	905.1664604996332	906.0658435998484	2020-01-17 16:18:48.628973	14.2702511494173	9.57712691995233	0.0	9.57712691995233	14.2702511494173	0.0	-14.2702511494173	9.57712691995233	0.0	14.2702511494173	0.0	-9.57712691995233	10.556320398579656	9.083208774071682	-0.5060305626167872	7.498758895869932	12.63437344141944	-0.5060305626167872	-9.926364531910078	11.342331638691155	0.7860112401114977	7.286054603675273	1.2911236077796218	2	missed	0.0
20.759902100078648	7.314064099919165	nogo_reward	1.0	20.784470099955684	23.227799999993294	25.754840099718535	2.443329900037611	21.79403259977687	24.743679799605275	26.754364599939322	1.433767400216425	1.0111603001132607	1.344169599935526	n/a	1.0	n/a	1	0	64	3	nogo_reward	1	0	1	0	0	1	0	n/a	n/a	1	1.0	1.0	885.3228897000663	906.107359800022	907.1169222998432	908.5506897000596	910.0665694996716	911.0777297997848	n/a	n/a	912.0772543000056	913.4214238999411	2020-01-17 16:18:48.628973	4.39306133252468	0.53099696805497	9.64567112218154	9.64221133329285	5.25260978965686	9.64567112218154	-4.39306133252468	9.64567112218154	0.53099696805497	9.64567112218154	5.25260978965686	0.17730970497225051	0.6791305816870365	0.03707882217432312	9.139640559564752	7.563843309210453	3.6167320816589994	9.139640559564752	-0.17192790698549892	6.717751611455395	6.0386210297683585	7.354598805904484	1.8221205758345917	2	missed	0.0
28.113710099831223	7.561895700171476	go_reward	0.2503368002362549	28.13827809970826	30.684867099858934	33.2209816998801	2.546589000150675	29.138435699976867	32.206736799795294	34.23022559983656	1.5464313998820671	1.0142449000848046	1.4699482000431772	n/a	1.0	n/a	1	0	65	4	go_reward	1	1	0	1	1	1	1	n/a	n/a	1	0.2503368002362549	1.0	885.3228897000663	913.4611677997746	914.4613254000432	916.0077567999252	917.5296264998616	918.5438713999464	n/a	n/a	919.5531152999029	921.023063499946	2020-01-17 16:18:48.628973	6.78662583336543	4.41990548192024	0.0	4.41990548192024	6.78662583336543	0.0	-6.78662583336543	4.41990548192024	0.0	6.78662583336543	0.0	5.4030753452335505	3.0726950825277863	3.9259873360395927	-0.5060305626167872	2.3415374578378416	5.150748125367569	-0.5060305626167872	5.053837733275801	3.8587063226392853	0.7860112401114977	2.1288331656431843	1.2911236077796218	2	missed	0.0
35.710446199867874	6.333402399905026	go_punish	1.0	35.73501419974491	37.16486509982485	39.70122329983849	1.4298509000799413	36.742170199751854	38.67748839966953	40.710401899646854	0.42269490007299737	1.0237349001689608	1.358014700003082	n/a	1.0	n/a	1	0	66	2	go_punish	1	0	-1	1	0	0	0	n/a	n/a	-1	1.0	1.0	885.3228897000663	921.0579038998112	922.0650598998182	922.4877547998911	924.0003780997358	925.0241129999048	n/a	n/a	926.0332915997132	927.3913062997162	2020-01-17 16:18:48.628973	-1.50149037098958	-2.72163480136353	-5.05851410459193	-2.80537267815275	-3.55702373360235	-5.05851410459193	1.50149037098958	-5.05851410459193	-2.72163480136353	-5.05851410459193	-3.55702373360235	-0.20160373317059932	-5.215421121827223	-3.215552947244177	-5.564544667208717	-4.883740702235148	-5.192901441600211	-5.564544667208717	-0.5508413451283487	-7.9864336153180755	-2.7710124934908524	-7.349586420868986	-1.4305111935839083	2	missed	0.0
42.08385080005985	7.2445353996008635	nogo_reward	1.0	42.108418799936885	44.851916199550146	47.3908884995617	2.7434973996132612	43.118131999857724	46.36768869962532	48.39072659984231	1.7337841996924226	1.0231997999363784	0.9622275996954386	n/a	1.0	n/a	1	0	67	3	nogo_reward	1	0	1	0	0	1	0	n/a	n/a	1	1.0	1.0	885.3228897000663	927.4313085000032	928.441021699924	930.1748058996164	931.6905783996916	932.713778199628	n/a	n/a	933.7136162999086	934.675843899604	2020-01-17 16:18:48.628973	4.4306844203011	0.53099696805497	9.71367572811431	9.71122755581594	5.28299130781321	9.71367572811431	-4.4306844203011	9.71367572811431	0.53099696805497	9.71367572811431	5.28299130781321	0.10930509903947971	0.7167536694634564	0.03707882217432312	9.207645165497523	7.632859531733542	3.6471135998153486	9.207645165497523	-0.23993251291826972	6.785756217388165	6.069002547924708	7.422603411837255	1.8221205758345917	2	missed	0.0
49.36892460007232	5.721558099612366	go_reward	0.3920058999210596	49.393492599949354	50.76321159955114	53.299098399933314	1.369718999601787	50.403761399909854	52.284865099936724	54.300745399668926	0.3594501996412873	1.0142332999965902	0.8143052998927942	n/a	1.0	n/a	1	0	68	4	go_reward	1	1	0	1	1	1	0	n/a	n/a	1	0.3920058999210596	1.0	885.3228897000663	934.7163823000157	935.7266510999762	936.0861012996174	937.607754800003	938.6219880999996	n/a	n/a	939.6236350997352	940.437940399628	2020-01-17 16:18:48.628973	11.2154467217982	7.46957974824189	0.0	7.46957974824189	11.2154467217982	0.0	-11.2154467217982	7.46957974824189	0.0	11.2154467217982	0.0	2.3534010789119	7.501515970960556	6.975661602361243	-0.5060305626167872	5.391211724159492	9.57956901380034	-0.5060305626167872	2.0041634669541506	8.287527211072055	0.7860112401114977	5.178507431964835	1.2911236077796218	2	missed	0.0
55.127066199667865	6.017351000103986	go_reward	0.7131544998846948	55.1516341995449	56.85021879989654	59.3963978998363	1.6985846003516372	56.169935199897736	58.38632049970329	60.4021995998919	0.680283599998802	1.0100774001330137	0.7667855997569859	n/a	1.0	n/a	1	0	69	4	go_reward	0	0	1	1	1	1	0	n/a	n/a	0	0.7131544998846948	1.0	885.3228897000663	940.4745238996112	941.492824899964	942.1731084999628	943.7092101997696	944.7192875999026	n/a	n/a	945.7250892999582	946.4918748997152	2020-01-17 16:18:48.628973	12.9955044200537	8.69640339241441	0.0	8.69640339241441	12.9955044200537	0.0	-12.9955044200537	8.69640339241441	0.0	12.9955044200537	0.0	-8.69640339241441	9.281573669216057	8.202485246533763	-0.5060305626167872	6.618035368332013	11.35962671205584	-0.5060305626167872	-9.04564100437216	10.067584909327556	0.7860112401114977	6.4053310761373545	1.2911236077796218	2	missed	0.0
61.18053560005512	5.876767499837911	go_punish	1.0	61.20510359993216	62.5395312998445	65.07512459997088	1.3344276999123394	62.21020569978293	64.0516483997925	66.07287889998406	0.32932560006156564	1.0234762001783793	1.0089921997860074	n/a	1.0	n/a	1	0	70	2	go_punish	1	0	-1	1	0	0	0	n/a	n/a	-1	1.0	1.0	885.3228897000663	946.5279932999985	947.5330953998492	947.8624209999108	949.3745380998588	950.3980143000372	n/a	n/a	951.3957686000504	952.4047607998364	2020-01-17 16:18:48.628973	-1.05008554882723	-2.72163480136353	-5.12036504500983	-3.97548704521891	-4.07027949618259	-5.12036504500983	1.05008554882723	-5.12036504500983	-2.72163480136353	-5.12036504500983	-4.07027949618259	-0.13975279275269958	-4.764016299664874	-3.215552947244177	-5.626395607626617	-6.053855069301308	-5.706157204180451	-5.626395607626617	-0.488990404710449	-8.048284555735975	-3.2842682560710927	-7.411437361286886	-1.4305111935839083	2	missed	0.0
67.09456239966664	7.293785000220055	nogo_punish	1.0	67.11913039954368	69.96247289981693	72.48509769979853	2.843342500273252	68.12850119965151	71.47918629972253	73.48825459973887	1.8339717001654208	1.0059114000760019	0.9246608000248671	n/a	1.0	n/a	1	0	71	1	nogo_punish	1	-1	0	0	0	1	0	n/a	n/a	0	1.0	1.0	885.3228897000663	952.44202009961	953.4513908997178	955.2853625998832	956.8020759997888	957.8079873998648	n/a	n/a	958.8111442998052	959.73580509983	2020-01-17 16:18:48.628973	3.77373326404143	-4.48282543453023	-0.646362784712356	-0.764047525994716	-4.42009604875379	-0.646362784712356	-3.77373326404143	-0.646362784712356	-4.48282543453023	-0.646362784712356	-4.42009604875379	0.646362784712356	0.05980251320378649	-4.976743580410877	-1.1523933473291432	-2.842415550077114	-6.055973756751651	-1.1523933473291432	0.29712517275460654	-3.5742822954385005	-3.6340848086422928	-2.9374351009894113	-3.1917018267506077	2	missed	0.0
74.4267114000395	7.10350529989239	nogo_punish	1.0	74.45127939991653	77.05969729973015	79.5903129996733	2.6084178998136167	75.45521479984745	78.56660629995167	80.59292049985368	1.6044824998826925	1.0237066997216289	0.9618641999552437	n/a	1.0	n/a	1	0	72	1	nogo_punish	0	0	-1	0	0	1	0	n/a	n/a	-1	1.0	1.0	885.3228897000663	959.7741690999828	960.7781044999138	962.3825869997964	963.889496000018	964.9132026997396	n/a	n/a	965.91581019992	966.8776743998752	2020-01-17 16:18:48.628973	3.92495677285484	-4.48282543453023	-0.345284721086448	-0.421623497768635	-4.27024149394129	-0.345284721086448	-3.92495677285484	-0.345284721086448	-4.48282543453023	-0.345284721086448	-4.27024149394129	-4.914833116676082	0.21102602201719645	-4.976743580410877	-0.8513152837032352	-2.499991521851033	-5.906119201939151	-0.8513152837032352	-5.264070728633832	-3.2732042318125925	-3.4842302538297925	-2.6363570373635032	-3.1917018267506077	2	missed	0.0
81.56899849977344	7.27112720021978	go_punish	0.2478470001369714	81.59356649965048	84.0794797996059	86.61803799960774	2.4859132999554276	82.60429009981453	85.60542599996552	87.63074119994405	1.4751896997913718	1.0126119996422176	1.233952499926204	n/a	1.0	n/a	1	0	73	2	go_punish	1	0	-1	1	1	1	0	n/a	n/a	0	0.2478470001369714	1.0	885.3228897000663	966.9164561997168	967.9271797998808	969.4023694996722	970.9283157000318	971.940927699674	n/a	n/a	972.9536309000104	974.1875833999366	2020-01-17 16:18:48.628973	0.843879502180635	-2.72163480136353	-5.16019934526458	-4.53827862128389	-4.31631984308395	-5.16019934526458	-0.843879502180635	-2.72163480136353	-5.16019934526458	-4.31631984308395	-5.16019934526458	2.72163480136353	-2.8700512486570084	-3.215552947244177	-5.666229907881367	-6.616646645366288	-5.952197551081811	-5.666229907881367	2.3723971894057807	-7.244239353810094	-4.374188105153082	-5.012707117640586	-3.869075737484958	2	missed	0.0
88.87869279971346	6.325077699963003	go_punish	0.3993766000494361	88.9032607995905	90.27502869954333	92.80552679998812	1.3717678999528289	89.91556819994014	91.80558509984974	93.81329829990852	0.3594604996031876	0.999941700138379	1.4150401996449773	n/a	1.0	n/a	1	0	74	2	go_punish	1	0	-1	1	1	1	0	n/a	n/a	0	0.3993766000494361	1.0	885.3228897000663	974.2261504996568	975.2384579000064	975.5979183996096	977.128474799916	978.1284165000544	n/a	n/a	979.1361879999748	980.5512281996198	2020-01-17 16:18:48.628973	3.40059769437045	-1.22160250068827	-5.16019934526458	-2.13401293534836	-1.75960165089413	-5.16019934526458	-3.40059769437045	-1.22160250068827	-5.16019934526458	-1.75960165089413	-5.16019934526458	1.22160250068827	-0.31333305646719367	-1.7155206465689168	-5.666229907881367	-4.212380959430758	-3.3954793588919907	-5.666229907881367	0.8723648887305206	-4.687521161620275	-4.374188105153082	-3.5126748169653252	-3.869075737484958	2	missed	0.0
95.23843530006707	6.445651199668646	nogo_punish	1.0	95.2630032999441	96.93587989965454	99.4550231997855	1.6728765997104347	96.27927709976211	98.4400439998135	100.4654205995613	0.6566027998924255	1.0149791999720037	1.2432339000514503	n/a	1.0	n/a	1	0	75	1	nogo_punish	0	0	-1	0	0	1	0	n/a	n/a	-1	1.0	1.0	885.3228897000663	980.5858930000104	981.6021667998284	982.2587695997208	983.7629336998798	984.7779128998518	n/a	n/a	985.7883102996276	987.031544199679	2020-01-17 16:18:48.628973	2.48619594864946	-4.48282543453023	-2.89174114429188	-2.94322207511566	-5.37793709294134	-2.89174114429188	-2.48619594864946	-2.89174114429188	-4.48282543453023	-2.89174114429188	-5.37793709294134	-2.36837669347065	-1.2277348021881838	-4.976743580410877	-3.3977717069086673	-5.0215900991980575	-7.013814800939201	-3.3977717069086673	-2.717614305428399	-5.8196606550180245	-4.591925852829842	-5.182813460568935	-3.1917018267506077	2	missed	0.0
101.71942640002828	5.8636801997199655	nogo_punish	1.0	101.74399439990532	103.3031720998697	105.83367949957028	1.5591776999643798	102.7519863997585	104.81825939984992	106.83857389958575	0.5511857001112048	1.0154200997203588	0.7691007000395302	n/a	1.0	n/a	1	0	76	1	nogo_punish	0	0	-1	0	0	1	0	n/a	n/a	-1	1.0	1.0	885.3228897000663	987.0668840999716	988.0748760998248	988.626061799936	990.1411490999162	991.1565691996366	n/a	n/a	992.161463599652	992.9305642996916	2020-01-17 16:18:48.628973	1.84796862956344	-4.48282543453023	-4.01677036000402	-4.05264467023386	-5.86473898956746	-4.01677036000402	-1.84796862956344	-4.01677036000402	-4.48282543453023	-4.01677036000402	-5.86473898956746	-1.24334747775851	-1.8659621212742035	-4.976743580410877	-4.522800922620807	-6.131012694316258	-7.500616697565321	-4.522800922620807	-1.5925850897162594	-6.944689870730164	-5.078727749455962	-6.307842676281075	-3.1917018267506077	2	missed	0.0
107.62168349977583	6.804543999955058	go_reward	0.3531221998855471	107.64625149965286	110.10827459953725	112.66104369983088	2.462023099884391	108.64051499962807	111.64645869983372	113.67629209998995	1.4677595999091864	1.0145849999971688	0.77450339961797	n/a	1.0	n/a	1	0	77	4	go_reward	1	1	0	1	1	1	0	n/a	n/a	1	0.3531221998855471	1.0	885.3228897000663	992.9691411997192	993.9634046996944	995.4311642996036	996.9693483999	997.9839333998972	n/a	n/a	998.9991818000562	999.7736851996742	2020-01-17 16:18:48.628973	6.17095206095028	3.99361908555554	0.0	3.99361908555554	6.17095206095028	0.0	-6.17095206095028	3.99361908555554	0.0	6.17095206095028	0.0	5.82936174159825	2.4570213101126366	3.499700939674893	-0.5060305626167872	1.9152510614731417	4.535074352952419	-0.5060305626167872	5.4801241296405	3.2430325502241355	0.7860112401114977	1.7025467692784844	1.2911236077796218	2	missed	0.0
114.46302519971505	7.536363000050187	go_reward	0.4673546999692917	114.48759319959208	117.26703609991807	119.82706769974891	2.7794429003259893	115.50170299969614	118.80378279974695	120.8362926999107	1.7653331002219375	1.0232849000019542	1.1876634997315705	n/a	1.0	n/a	1	0	78	4	go_reward	1	1	0	1	1	1	0	n/a	n/a	1	0.4673546999692917	1.0	885.3228897000663	999.8104828996584	1000.8245926997624	1002.5899257999844	1004.1266724998133	1005.1499573998152	n/a	n/a	1006.159182399977	1007.3468458997086	2020-01-17 16:18:48.628973	10.8995868296173	7.25040351900472	0.0	7.25040351900472	10.8995868296173	0.0	-10.8995868296173	7.25040351900472	0.0	10.8995868296173	0.0	2.5725773081490706	7.185656078779656	6.756485373124073	-0.5060305626167872	5.172035494922321	9.26370912161944	-0.5060305626167872	2.223339696191321	7.971667318891155	0.7860112401114977	4.959331202727665	1.2911236077796218	2	missed	0.0
122.03699530009192	7.033328999765104	go_reward	0.6147199999541044	122.06156329996895	124.22960209986195	126.77360619977128	2.1680387998929973	123.05794829968374	125.75014589959767	127.78299829969171	1.1716538001782055	1.0234603001736104	1.3118940000423436	n/a	1.0	n/a	1	0	79	4	go_reward	1	1	0	1	1	1	1	n/a	n/a	1	0.6147199999541044	1.0	885.3228897000663	1007.3844530000353	1008.38083799975	1009.5524917999282	1011.073035599664	1012.0964958998376	n/a	n/a	1013.105887999758	1014.4177819998004	2020-01-17 16:18:48.628973	12.8248011425237	8.57770682253883	0.0	8.57770682253883	12.8248011425237	0.0	-12.8248011425237	8.57770682253883	0.0	12.8248011425237	0.0	1.2452740046149593	9.110870391686056	8.083788676658184	-0.5060305626167872	6.499338798456433	11.18892343452584	-0.5060305626167872	0.8960363926572099	9.896881631797555	0.7860112401114977	6.286634506261775	1.2911236077796218	2	missed	0.0
129.11131720012065	6.605151099618411	go_reward	0.3495718999765813	129.1358851999977	131.14589039981365	133.69226099969808	2.0100051998159643	130.14571999991313	132.67739929957327	134.7009466998279	1.0001703999005258	1.0148617001248113	1.040089599788189	n/a	1.0	n/a	1	0	80	4	go_reward	1	1	0	1	1	1	1	n/a	n/a	1	0.3495718999765813	1.0	885.3228897000663	1014.458774900064	1015.4686096999794	1016.46878009988	1018.0002889996396	1019.0151506997644	n/a	n/a	1020.0238363998942	1021.0639259996824	2020-01-17 16:18:48.628973	13.6830913551692	9.17049670727308	0.0	9.17049670727308	13.6830913551692	0.0	-13.6830913551692	9.17049670727308	0.0	13.6830913551692	0.0	0.652484119880711	9.969160604331556	8.676578561392432	-0.5060305626167872	7.092128683190682	12.04721364717134	-0.5060305626167872	0.30324650792296154	10.755171844443055	0.7860112401114977	6.879424390996023	1.2911236077796218	2	missed	0.0
135.75867709983152	6.489286100026106	nogo_reward	1.0	135.78324509970855	137.26063429983333	139.78939789999276	1.477389200124776	136.79171649971966	138.76571179972962	140.79884039983153	0.46891780011367246	1.0236861002631485	1.4736907999031246	n/a	1.0	n/a	1	0	81	3	nogo_reward	1	0	1	0	0	1	0	n/a	n/a	1	1.0	1.0	885.3228897000663	1021.1061347997748	1022.114606199786	1022.5835239998996	1024.088601499796	1025.112287600059	n/a	n/a	1026.1217300998978	1027.595420899801	2020-01-17 16:18:48.628973	4.45212239025568	0.53099696805497	9.75236201916229	9.75060409683121	5.30023962890661	9.75236201916229	-4.45212239025568	9.75236201916229	0.53099696805497	9.75236201916229	5.30023962890661	0.07061880799150089	0.7381916394180368	0.03707882217432312	9.246331456545501	7.672236072748813	3.664361920908749	9.246331456545501	-0.27861880396624855	6.824442508436144	6.086250869018108	7.461289702885233	1.8221205758345917	2	missed	0.0
142.2847111998126	6.338292600121349	go_punish	0.2754571000114083	142.30927919968963	144.21802839962766	146.7644109996038	1.908749199938029	143.30547799961641	145.7487877998501	147.773105699569	0.9125504000112414	1.0156231997536906	0.8744661002419889	n/a	1.0	n/a	1	0	82	2	go_punish	0	-1	0	1	1	1	0	n/a	n/a	-1	0.2754571000114083	1.0	885.3228897000663	1027.632168899756	1028.6283676996827	1029.540918099694	1031.0716774999164	1032.08730069967	n/a	n/a	1033.0959953996353	1033.9704614998773	2020-01-17 16:18:48.628973	4.48290121163481	-0.597482471088847	-5.16019934526458	-1.0906440764773	-0.677298133629771	-5.16019934526458	-4.48290121163481	-0.597482471088847	-5.16019934526458	-0.677298133629771	-5.16019934526458	-4.662635366673682	0.7689704607971666	-1.0914006169694939	-5.666229907881367	-3.169012100559698	-2.313175841627632	-5.666229907881367	-5.011872978631432	-3.605217644355916	-4.374188105153082	-2.8885547873659023	-3.869075737484958	2	missed	0.0
148.66590690007433	6.741069999989122	go_reward	0.3419637000188231	148.69047489995137	150.5424560997635	153.0706950998865	1.851981199812144	149.69871889986098	152.06041619973257	154.08319109957665	0.8437371999025345	1.010278900153935	1.3483538003638387	n/a	1.0	n/a	1	0	83	4	go_reward	0	0	1	1	1	1	0	n/a	n/a	0	0.3419637000188231	1.0	885.3228897000663	1034.0133646000177	1035.0216085999273	1035.8653457998298	1037.3833058997989	1038.3935847999528	n/a	n/a	1039.406080799643	1040.7544346000068	2020-01-17 16:18:48.628973	14.0968668674404	9.45687223642628	0.0	9.45687223642628	14.0968668674404	0.0	-14.0968668674404	9.45687223642628	0.0	14.0968668674404	0.0	-9.45687223642628	10.382936116602757	8.962954090545633	-0.5060305626167872	7.378504212343882	12.46098915944254	-0.5060305626167872	-9.806109848384029	11.168947356714256	0.7860112401114977	7.165799920149224	1.2911236077796218	2	missed	0.0
155.44364239973947	7.411323300097138	go_reward	0.315406700130552	155.4682103996165	158.19877699995413	160.731613199692	2.7305666003376245	156.48276239959523	159.70877819973975	161.7384774996899	1.7160146003589034	1.022834999952238	1.1410562000237405	n/a	1.0	n/a	1	0	84	4	go_reward	1	1	0	1	1	1	0	n/a	n/a	1	0.315406700130552	1.0	885.3228897000663	1040.7911000996828	1041.8056520996615	1043.5216667000204	1045.031667899806	1046.0545028997583	n/a	n/a	1047.0613671997562	1048.20242339978	2020-01-17 16:18:48.628973	6.70183945330553	4.36091446675578	0.0	4.36091446675578	6.70183945330553	0.0	-6.70183945330553	4.36091446675578	0.0	6.70183945330553	0.0	5.46206636039801	2.987908702467886	3.866996320875133	-0.5060305626167872	2.282546442673382	5.065961745307669	-0.5060305626167872	5.11282874844026	3.773919942579385	0.7860112401114977	2.0698421504787246	1.2911236077796218	2	missed	0.0
162.89115489972755	6.85952110029757	nogo_punish	1.0	162.9157228996046	165.3643235997297	167.8907802999022	2.4486007001250982	163.93515999987721	166.87077709985897	168.90698589989938	1.4291635998524725	1.0200032000432202	0.8682581000027767	n/a	1.0	n/a	1	0	85	1	nogo_punish	1	-1	0	0	0	1	0	n/a	n/a	0	1.0	1.0	885.3228897000663	1048.238612599671	1049.2580496999435	1050.687213299796	1052.1936667999253	1053.2136699999685	n/a	n/a	1054.2298755999657	1055.0981336999685	2020-01-17 16:18:48.628973	1.53921274203809	-4.48282543453023	-4.55764700174251	-4.583348677633	-6.0968597437806	-4.55764700174251	-1.53921274203809	-4.55764700174251	-4.48282543453023	-4.55764700174251	-6.0968597437806	4.55764700174251	-2.1747180087995535	-4.976743580410877	-5.063677564359297	-6.661716701715399	-7.732737451778461	-5.063677564359297	4.2084093897847605	-7.485566512468655	-5.310848503669102	-6.848719318019565	-3.1917018267506077	2	missed	0.0
169.78859149990603	5.64599040010944	nogo_punish	1.0	169.81315949978307	171.17492579994723	173.69058269960806	1.3617663001641631	170.83125930000097	172.68004779983312	174.70941959973402	0.3436664999462664	1.0105348997749388	0.7497303001584896	n/a	1.0	n/a	1	0	86	1	nogo_punish	1	-1	0	0	0	1	0	n/a	n/a	0	1.0	1.0	885.3228897000663	1055.1360491998494	1056.1541490000673	1056.4978155000135	1058.0029374998994	1059.0134723996744	n/a	n/a	1060.0323092998003	1060.7820395999588	2020-01-17 16:18:48.628973	2.89003338236331	-4.48282543453023	-2.1424726273056	-2.16132491991192	-5.03250600966892	-2.1424726273056	-2.89003338236331	-2.1424726273056	-4.48282543453023	-2.1424726273056	-5.03250600966892	2.1424726273056	-0.8238973684743334	-4.976743580410877	-2.6485031899223874	-4.239692943994318	-6.668383717666781	-2.6485031899223874	1.7932350153478507	-5.070392138031744	-4.2464947695574216	-4.433544943582655	-3.1917018267506077	2	missed	0.0
175.46918429993116	6.474230200051807	nogo_punish	1.0	175.4937522998082	177.20975259970874	179.7431137999522	1.7160002999005428	176.50071929953992	178.72312229964882	180.75610349979252	0.7090333001688123	1.0199915003033766	1.2118790000674835	n/a	1.0	n/a	1	0	87	1	nogo_punish	1	-1	0	0	0	1	1	n/a	n/a	0	1.0	1.0	885.3228897000663	1060.8166419998745	1061.8236089996062	1062.532642299775	1064.0460119997151	1065.0660035000185	n/a	n/a	1066.0789931998588	1067.2908721999263	2020-01-17 16:18:48.628973	3.47630665876494	-4.48282543453023	-1.09361744506145	-1.10772632488877	-4.56992410382639	-1.09361744506145	-3.47630665876494	-1.09361744506145	-4.48282543453023	-1.09361744506145	-4.56992410382639	1.09361744506145	-0.23762409207270352	-4.976743580410877	-1.5996480076782373	-3.186094348971168	-6.205801811824251	-1.5996480076782373	0.7443798331037006	-4.021536955787594	-3.783912863714892	-3.3846897613385054	-3.1917018267506077	2	missed	0.0
181.97862279973924	6.622446100227535	go_reward	0.4007207001559436	182.00319079961628	183.67173579987139	186.22230199957266	1.6685450002551079	183.01389349997044	185.2025222997181	187.235350899864	0.657842299900949	1.0197796998545527	1.3902859999798238	n/a	1.0	n/a	1	0	88	4	go_reward	0	0	1	1	1	1	0	n/a	n/a	0	0.4007207001559436	1.0	885.3228897000663	1067.3260804996826	1068.3367832000367	1068.9946254999377	1070.5254119997844	1071.545191699639	n/a	n/a	1072.5582405999303	1073.94852659991	2020-01-17 16:18:48.628973	11.1736226493875	7.4403606505402	0.0	7.4403606505402	11.1736226493875	0.0	-11.1736226493875	7.4403606505402	0.0	11.1736226493875	0.0	-7.4403606505402	7.459691898549856	6.946442504659553	-0.5060305626167872	5.361992626457802	9.53774494138964	-0.5060305626167872	-7.789598262497949	8.245703138661355	0.7860112401114977	5.149288334263144	1.2911236077796218	2	missed	0.0
188.63966509979218	6.086413800250966	go_punish	0.2754569998942315	188.66423309966922	190.24373089987762	192.76938169961818	1.5794978002084008	189.6761508998461	191.77276469999924	193.7729762997476	0.5675800000315121	0.9966169996189365	0.977670600172587	n/a	1.0	n/a	1	0	89	2	go_punish	1	0	-1	1	1	1	0	n/a	n/a	0	0.2754569998942315	1.0	885.3228897000663	1073.9871227997355	1074.9990405999124	1075.566620599944	1077.0956544000655	1078.0922713996845	n/a	n/a	1079.095865999814	1080.0735365999865	2020-01-17 16:18:48.628973	1.10243904527407	-3.00988479854879	-5.16019934526458	-3.29404487118053	-4.05776029999051	-5.16019934526458	-1.10243904527407	-3.00988479854879	-5.16019934526458	-4.05776029999051	-5.16019934526458	3.00988479854879	-2.611491705563574	-3.503802944429437	-5.666229907881367	-5.3724128952629275	-5.693638007988371	-5.666229907881367	2.660647186591041	-6.985679810716654	-4.374188105153082	-5.300957114825845	-3.869075737484958	2	missed	0.0
194.7628609999083	6.4634238998405635	go_reward	0.4534032000228762	194.78742899978533	196.4690755996853	199.013947899919	1.6816465998999774	195.7968760998922	197.99922229954973	200.02289909962565	0.6721994997931233	1.0147256003692746	1.2279538000002503	n/a	1.0	n/a	1	0	90	4	go_reward	1	1	0	1	1	1	1	n/a	n/a	1	0.4534032000228762	1.0	885.3228897000663	1080.1103186998516	1081.1197657999585	1081.7919652997516	1083.322111999616	1084.3368375999853	n/a	n/a	1085.345788799692	1086.5737425996922	2020-01-17 16:18:48.628973	5.36659023169682	3.43804912588362	0.0	3.43804912588362	5.36659023169682	0.0	-5.36659023169682	3.43804912588362	0.0	5.36659023169682	0.0	6.384931701270171	1.6526594808591768	2.944130980002973	-0.5060305626167872	1.3596811018012218	3.7307125236989593	-0.5060305626167872	6.035694089312421	2.4386707209706757	0.7860112401114977	1.1469768096065645	1.2911236077796218	2	missed	0.0
201.26179290004075	5.757279699668288	go_reward	0.3930224003270268	201.28636089991778	202.6364057995379	205.19575479999162	1.3500448996201158	202.30642949976027	204.17194449994713	206.20036779996008	0.329976299777627	1.023810300044488	0.8432727996259928	n/a	1.0	n/a	1	0	91	4	go_reward	1	1	0	1	1	1	0	n/a	n/a	1	0.3930224003270268	1.0	885.3228897000663	1086.609250599984	1087.6293191998266	1087.9592954996042	1089.4948342000134	1090.518644500058	n/a	n/a	1091.5232575000264	1092.3665302996524	2020-01-17 16:18:48.628973	10.5163788643974	6.98512887888023	0.0	6.98512887888023	10.5163788643974	0.0	-10.5163788643974	6.98512887888023	0.0	10.5163788643974	0.0	2.83785194827356	6.802448113559755	6.491210732999583	-0.5060305626167872	4.906760854797833	8.88050115639954	-0.5060305626167872	2.4886143363158104	7.588459353671254	0.7860112401114977	4.6940565626031745	1.2911236077796218	2	missed	0.0
207.05821570008993	7.039354600012302	go_reward	0.4356247000396251	207.08278369996697	209.118862299714	211.66912269964814	2.036078599747043	208.08340179966763	210.6442133998496	212.6691392995417	1.0354605000463835	1.0249092997985372	1.4529990004375577	n/a	1.0	n/a	1	0	92	4	go_reward	1	1	0	1	1	1	1	n/a	n/a	1	0.4356247000396251	1.0	885.3228897000663	1092.4056734000333	1093.406291499734	1094.4417519997803	1095.967103099916	1096.9920123997144	n/a	n/a	1097.992028999608	1099.4450280000456	2020-01-17 16:18:48.628973	12.6299517050194	8.44250610742452	0.0	8.44250610742452	12.6299517050194	0.0	-12.6299517050194	8.44250610742452	0.0	12.6299517050194	0.0	1.3804747197292695	8.916020954181755	7.948587961543874	-0.5060305626167872	6.364138083342123	10.99407399702154	-0.5060305626167872	1.0312371077715201	9.702032194293254	0.7860112401114977	6.151433791147465	1.2911236077796218	2	missed	0.0
214.13201519986637	6.793968200217705	nogo_punish	1.0	214.1565831997434	216.50127859972417	219.02675609989092	2.3446953999807647	215.1730872998014	218.01573389954865	220.03532459959388	1.3281912999227643	1.0110222003422678	0.9152268003672361	n/a	1.0	n/a	1	0	93	1	nogo_punish	1	-1	0	0	0	1	0	n/a	n/a	0	1.0	1.0	885.3228897000663	1099.4794728998097	1100.4959769998677	1101.8241682997905	1103.338623599615	1104.3496457999572	n/a	n/a	1105.3582142996602	1106.2734411000274	2020-01-17 16:18:48.628973	3.75282984649947	-4.48282543453023	-0.599244807377868	-0.609987370956957	-4.35207465387734	-0.599244807377868	-3.75282984649947	-0.599244807377868	-4.48282543453023	-0.599244807377868	-4.35207465387734	0.599244807377868	0.038899095661826255	-4.976743580410877	-1.1052753699946551	-2.688355395039355	-5.987952361875201	-1.1052753699946551	0.25000719542011857	-3.5271643181040124	-3.5660634137658422	-2.890317123654923	-3.1917018267506077	2	missed	0.0
220.96747289970517	6.530357900075387	nogo_reward	1.0	220.9920408995822	222.5389935998246	225.0470197997056	1.5469527002424002	222.00169549975521	224.0333121996373	226.0542376996018	0.5372981000693926	1.013707600068301	1.468161100055795	n/a	1.0	n/a	1	0	94	3	nogo_reward	1	0	1	0	0	1	0	n/a	n/a	1	1.0	1.0	885.3228897000663	1106.3149305996485	1107.3245851998215	1107.861883299891	1109.3562018997036	1110.369909499772	n/a	n/a	1111.377127399668	1112.845288499724	2020-01-17 16:18:48.628973	4.46493204922121	0.53099696805497	9.77546478830921	9.77418589792782	5.310532739088	9.77546478830921	-4.46493204922121	9.77546478830921	0.53099696805497	9.77546478830921	5.310532739088	0.04751603884458078	0.7510012983835668	0.03707882217432312	9.269434225692422	7.695817873845423	3.674655031090139	9.269434225692422	-0.30172157311316866	6.847545277583064	6.096543979199498	7.4843924720321535	1.8221205758345917	2	missed	0.0
227.53675189986825	6.664254799950868	nogo_punish	1.0	227.56131989974529	229.41396649973467	231.94906229991466	1.8526465999893844	228.5705007999204	230.9293562998066	232.9535130998122	0.84346569981426	1.0197060001080445	1.2720615998839548	n/a	1.0	n/a	1	0	95	1	nogo_punish	1	-1	0	0	0	1	1	n/a	n/a	0	1.0	1.0	885.3228897000663	1112.8842095998116	1113.8933904999867	1114.736856199801	1116.252245999873	1117.271951999981	n/a	n/a	1118.2764027998785	1119.5484643997625	2020-01-17 16:18:48.628973	3.89289283502197	-4.48282543453023	-0.349058842300067	-0.357360876599048	-4.24195167732204	-0.349058842300067	-3.89289283502197	-0.349058842300067	-4.48282543453023	-0.349058842300067	-4.24195167732204	0.349058842300067	0.17896208418432646	-4.976743580410877	-0.8550894049168543	-2.435728900681446	-5.877829385319901	-0.8550894049168543	-0.00017876965768243158	-3.2769783530262115	-3.455940437210542	-2.6401311585771223	-3.1917018267506077	2	missed	0.0
234.23763779969886	6.058798900339752	go_reward	0.3505630004219711	234.2622057995759	235.66691619995981	238.2137246998027	1.4047104003839195	235.27646889956668	237.19791459990665	239.2276688995771	0.39044730039313436	1.0158100998960435	1.0933358003385365	n/a	1.0	n/a	1	0	96	4	go_reward	0	0	1	1	1	1	0	n/a	n/a	0	0.3505630004219711	1.0	885.3228897000663	1119.5850954996422	1120.599358599633	1120.989805900026	1122.520804299973	1123.536614399869	n/a	n/a	1124.5505585996434	1125.643894399982	2020-01-17 16:18:48.628973	13.5783318467988	9.09764122498983	0.0	9.09764122498983	13.5783318467988	0.0	-13.5783318467988	9.09764122498983	0.0	13.5783318467988	0.0	-9.09764122498983	9.864401095961156	8.603723079109184	-0.5060305626167872	7.019273200907433	11.94245413880094	-0.5060305626167872	-9.44687883694758	10.650412336072655	0.7860112401114977	6.806568908712775	1.2911236077796218	2	missed	0.0
240.33207400003448	5.971018299926072	nogo_punish	1.0	240.35664199991152	241.63294029980898	244.14923589956015	1.2762982998974621	241.36234469991177	243.128086599987	245.16251879977062	0.27059559989720583	1.0211492995731533	1.1651415000669658	n/a	1.0	n/a	1	0	97	1	nogo_punish	1	-1	0	0	0	1	1	n/a	n/a	0	1.0	1.0	885.3228897000663	1125.6795316999778	1126.685234399978	1126.9558299998753	1128.4509763000533	1129.4721255996265	n/a	n/a	1130.485408499837	1131.650549999904	2020-01-17 16:18:48.628973	3.96835331965634	-4.48282543453023	-0.214314399685191	-0.220813743050127	-4.18266771934153	-0.214314399685191	-3.96835331965634	-0.214314399685191	-4.48282543453023	-0.214314399685191	-4.18266771934153	0.214314399685191	0.2544225688186965	-4.976743580410877	-0.7203449623019782	-2.299181767132525	-5.818545427339391	-0.7203449623019782	-0.13492321227255843	-3.1422339104113357	-3.396656479230032	-2.5053867159622465	-3.1917018267506077	2	missed	0.0
246.33975349972025	6.286874300334603	nogo_punish	1.0	246.36432149959728	248.16401699977018	250.70029829954728	1.799695500172902	247.37868599966168	249.6803779997863	251.7122675999999	0.7853310001084992	1.0199202997609973	0.9389281999319792	n/a	1.0	n/a	1	0	98	1	nogo_punish	1	-1	0	0	0	1	0	n/a	n/a	0	1.0	1.0	885.3228897000663	1131.6872111996636	1132.701575699728	1133.4869066998365	1135.0032676998526	1136.0231879996136	n/a	n/a	1137.0351573000662	1137.9740854999982	2020-01-17 16:18:48.628973	4.01125049735223	-4.48282543453023	-0.137664221754056	-0.1428099941905	-4.14891471910629	-0.137664221754056	-4.01125049735223	-0.137664221754056	-4.48282543453023	-0.137664221754056	-4.14891471910629	0.137664221754056	0.2973197465145865	-4.976743580410877	-0.6436947843708433	-2.221178018272898	-5.784792427104151	-0.6436947843708433	-0.21157339020369345	-3.0655837324802007	-3.362903478994792	-2.4287365380311114	-3.1917018267506077	2	missed	0.0
252.6676385998726	7.561862700153142	nogo_reward	1.0	252.69220659974962	255.47093249997124	257.9924609996376	2.778725900221616	253.6990767996756	256.9809330999851	259.0112380995415	1.7718557002956459	1.0115278996524921	1.2428312003612518	n/a	1.0	n/a	1	0	99	3	nogo_reward	0	1	0	0	0	1	0	n/a	n/a	0	1.0	1.0	885.3228897000663	1138.015096299816	1139.021966499742	1140.7938222000375	1142.3038228000514	1143.315350699704	n/a	n/a	1144.3341277996078	1145.576958999969	2020-01-17 16:18:48.628973	4.47291619826705	0.53099696805497	9.78987168516717	9.78893035727442	5.31695548690012	9.78987168516717	-4.47291619826705	9.78987168516717	0.53099696805497	9.78987168516717	5.31695548690012	-9.78987168516717	0.758985447429406	0.03707882217432312	9.283841122550383	7.710562333192023	3.6810777789022593	9.283841122550383	-10.13910929712492	6.861952174441026	6.102966727011618	7.498799368890115	1.8221205758345917	2	missed	0.0
260.26460109977074	7.287790600210428	nogo_punish	1.0	260.2891690996478	262.6559089999646	265.1786905997433	2.3667399003168157	261.3053501998072	264.1574334995821	266.1921908999793	1.350558800157387	1.021257100161165	1.3847687998788842	n/a	1.0	n/a	1	0	100	1	nogo_punish	1	-1	0	0	0	1	1	n/a	n/a	0	1.0	1.0	885.3228897000663	1145.612058799714	1146.6282398998735	1147.978798700031	1149.4803231996484	1150.5015802998096	n/a	n/a	1151.5150806000456	1152.8998493999245	2020-01-17 16:18:48.628973	4.03680403024156	-4.48282543453023	-0.0919152808258978	-0.0960299030425851	-4.12871931106746	-0.0919152808258978	-4.03680403024156	-0.0919152808258978	-4.48282543453023	-0.0919152808258978	-4.12871931106746	0.0919152808258978	0.32287327940391686	-4.976743580410877	-0.5979458434426851	-2.1743979271249834	-5.764597019065321	-0.5979458434426851	-0.25732233113185166	-3.0198347915520425	-3.3427080709559625	-2.3829875971029533	-3.1917018267506077	2	missed	0.0
267.59202379966155	7.202997700311016	go_reward	0.2711949003860354	267.6165917995386	270.3843281995505	272.9204744999297	2.767736400011927	268.6186211998572	271.9143185997382	273.9200868997723	1.7657069996932933	1.0061559001915157	0.8995026000773123	n/a	1.0	n/a	1	0	101	4	go_reward	1	1	0	1	1	1	0	n/a	n/a	1	0.2711949003860354	1.0	885.3228897000663	1152.9394814996049	1153.9415108999235	1155.7072178996168	1157.2372082998045	1158.243364199996	n/a	n/a	1159.2429765998386	1160.142479199916	2020-01-17 16:18:48.628973	6.42915740394947	4.17160093159441	0.0	4.17160093159441	6.42915740394947	0.0	-6.42915740394947	4.17160093159441	0.0	6.42915740394947	0.0	5.65137989555938	2.7152266531118268	3.6776827857137633	-0.5060305626167872	2.093232907512012	4.793279695951609	-0.5060305626167872	5.30214228360163	3.5012378932233257	0.7860112401114977	1.8805286153173548	1.2911236077796218	2	missed	0.0
274.83073280006647	6.744932499714196	go_reward	0.3150253999046981	274.8553007999435	276.64346459973603	279.1851669996977	1.7881637997925282	275.87055799970403	278.173528099898	280.1970179998318	0.7729066000320017	1.0116388997996637	1.403215299825888	n/a	1.0	n/a	1	0	102	4	go_reward	0	0	1	1	1	1	0	n/a	n/a	0	0.3150253999046981	1.0	885.3228897000663	1160.1781905000098	1161.1934476997703	1161.9663542998023	1163.4964177999643	1164.508056699764	n/a	n/a	1165.519907699898	1166.923122999724	2020-01-17 16:18:48.628973	11.0218009083235	7.33475567714293	0.0	7.33475567714293	11.0218009083235	0.0	-11.0218009083235	7.33475567714293	0.0	11.0218009083235	0.0	-7.33475567714293	7.307870157485857	6.840837531262283	-0.5060305626167872	5.256387653060532	9.38592320032564	-0.5060305626167872	-7.6839932891006795	8.093881397597356	0.7860112401114977	5.043683360865874	1.2911236077796218	2	missed	0.0
281.61041809991	6.422813199926168	nogo_punish	1.0	281.63498609978706	283.1146340998821	285.643923799973	1.4796480000950396	282.6438911999578	284.6262410995548	286.65046049980447	0.4707428999242893	1.0176827004181632	1.4073387999087572	n/a	1.0	n/a	1	0	103	1	nogo_punish	1	-1	0	0	0	1	0	n/a	n/a	0	1.0	1.0	885.3228897000663	1166.9578757998534	1167.966780900024	1168.4375237999484	1169.9491307996211	1170.9668135000393	n/a	n/a	1171.9733501998708	1173.3806889997795	2020-01-17 16:18:48.628973	4.05265990094051	-4.48282543453023	-0.0634341786930599	-0.066753147238863	-4.11609407963357	-0.0634341786930599	-4.05265990094051	-0.0634341786930599	-4.48282543453023	-0.0634341786930599	-4.11609407963357	0.0634341786930599	0.3387291501028664	-4.976743580410877	-0.5694647413098471	-2.1451211713212612	-5.751971787631431	-0.5694647413098471	-0.28580343326468954	-2.9913536894192045	-3.3300828395220727	-2.3545064949701153	-3.1917018267506077	2	missed	0.0
288.07197650009766	5.920444299932569	go_punish	0.4084819997660815	288.0965444999747	289.47630579955876	292.01381039991975	1.379761299584061	289.1144267995842	291.0013356995769	293.0176269998774	0.3618789999745786	1.0124747003428638	0.9993618000298738	n/a	1.0	n/a	1	0	104	2	go_punish	1	0	-1	1	1	1	0	n/a	n/a	0	0.4084819997660815	1.0	885.3228897000663	1173.419434200041	1174.4373164996505	1174.799195499625	1176.3242253996432	1177.336700099986	n/a	n/a	1178.3405166999437	1179.3398784999736	2020-01-17 16:18:48.628973	3.49625437140749	-1.38033396880753	-5.16019934526458	-1.55341604962288	-1.6639449738571	-5.16019934526458	-3.49625437140749	-1.38033396880753	-5.16019934526458	-1.6639449738571	-5.16019934526458	1.38033396880753	-0.2176763794301535	-1.874252114688177	-5.666229907881367	-3.631784073705278	-3.2998226818549607	-5.666229907881367	1.0310963568497806	-4.591864484583245	-4.374188105153082	-3.6714062850845854	-3.869075737484958	2	missed	0.0
294.0301268999465	6.829723400063813	nogo_punish	1.0	294.0546948998235	295.85299699986354	298.3767269998789	1.7983021000400186	295.0715446998365	297.3682959997095	299.390735599678	0.7814523000270128	1.0084310001693666	1.4936827002093196	n/a	1.0	n/a	1	0	105	1	nogo_punish	1	-1	0	0	0	1	1	n/a	n/a	0	1.0	1.0	885.3228897000663	1179.3775845998898	1180.3944343999028	1181.1758866999298	1182.6911856997758	1183.6996166999452	n/a	n/a	1184.7136252997443	1186.2073079999536	2020-01-17 16:18:48.628973	4.06285519811647	-4.48282543453023	-0.0450357495068882	-0.0477337497658318	-4.10789094762336	-0.0450357495068882	-4.06285519811647	-0.0450357495068882	-4.48282543453023	-0.0450357495068882	-4.10789094762336	0.0450357495068882	0.3489244472788262	-4.976743580410877	-0.5510663121236754	-2.1261017738482297	-5.743768655621221	-0.5510663121236754	-0.3042018624508612	-2.9729552602330327	-3.321879707511862	-2.3361080657839435	-3.1917018267506077	2	missed	0.0
300.90222640009597	6.600271999835968	go_punish	0.2636559000238776	300.926794399973	302.9108045999892	305.4579506996088	1.9840102000162005	301.93543099984527	304.4477103999816	306.4713124996051	0.9753736001439393	1.0102402996271849	1.0557539002038538	n/a	1.0	n/a	1	0	106	2	go_punish	1	0	-1	1	1	1	1	n/a	n/a	0	0.2636559000238776	1.0	885.3228897000663	1186.2496841000393	1187.2583206999116	1188.2336943000555	1189.770600100048	1190.780840399675	n/a	n/a	1191.7942021996714	1192.8499560998753	2020-01-17 16:18:48.628973	4.51713031201674	-0.689875024445707	-5.16019934526458	-0.800477741629276	-0.643069033247845	-5.16019934526458	-4.51713031201674	-0.689875024445707	-5.16019934526458	-0.643069033247845	-5.16019934526458	0.689875024445707	0.8031995611790967	-1.183793170326354	-5.666229907881367	-2.878845765711674	-2.278946741245706	-5.666229907881367	0.3406374124879576	-3.5709885439739897	-4.374188105153082	-2.9809473407227625	-3.869075737484958	2	missed	0.0
307.54139859974384	7.064214700367302	nogo_punish	1.0	307.5659665996209	309.6237820996903	312.1588502996601	2.0578155000694096	308.57814009999856	311.1381450998597	313.1623478997499	1.0456419996917248	1.0207051998004317	1.4678334002383053	n/a	1.0	n/a	1	0	107	1	nogo_punish	1	-1	0	0	0	1	1	n/a	n/a	0	1.0	1.0	885.3228897000663	1192.8888562996872	1193.9010298000649	1194.9466717997566	1196.461034799926	1197.4817399997264	n/a	n/a	1198.4852375998162	1199.9530710000545	2020-01-17 16:18:48.628973	4.06961823844224	-4.48282543453023	-0.0327594636020013	-0.0349678815266434	-4.10237770204424	-0.0327594636020013	-4.06961823844224	-0.0327594636020013	-4.48282543453023	-0.0327594636020013	-4.10237770204424	0.0327594636020013	0.3556874876045968	-4.976743580410877	-0.5387900262187886	-2.1133359056090413	-5.738255410042101	-0.5387900262187886	-0.31647814835574817	-2.960678974328146	-3.3163664619327426	-2.3238317798790566	-3.1917018267506077	2	missed	0.0
314.6410082997754	6.867520400322746	nogo_punish	1.0	314.66557629965246	316.96335449954495	319.4982392997481	2.297778199892491	315.6823893999681	318.477307099849	320.50580889964476	1.2809650995768607	1.0209321998991072	1.0272878003304413	n/a	1.0	n/a	1	0	108	1	nogo_punish	0	0	-1	0	0	1	0	n/a	n/a	-1	1.0	1.0	885.3228897000663	1199.9884659997188	1201.0052791000344	1202.2862441996112	1203.8001967999153	1204.8211289998144	n/a	n/a	1205.828698599711	1206.8559864000415	2020-01-17 16:18:48.628973	4.07422873574888	-4.48282543453023	-0.0243323344034824	-0.0261512294477977	-4.09856107015236	-0.0243323344034824	-4.07422873574888	-0.0243323344034824	-4.48282543453023	-0.0243323344034824	-4.09856107015236	-5.235785503359048	0.36029798491123666	-4.976743580410877	-0.5303628970202696	-2.1045192535301958	-5.734438778150221	-0.5303628970202696	-5.5850231153167975	-2.952251845129627	-3.312549830040862	-2.315404650680538	-3.1917018267506077	2	missed	0.0
321.5460402998142	6.565010400023311	go_punish	0.407995100133121	321.57060829969123	323.07833229983225	325.63316909968853	1.5077240001410246	322.5749753997661	324.61260449979454	326.6409578998573	0.5033569000661373	1.0205645998939872	1.494660799857229	n/a	1.0	n/a	1	0	109	2	go_punish	1	0	-1	1	1	1	0	n/a	n/a	0	0.407995100133121	1.0	885.3228897000663	1206.8934979997575	1207.8978650998324	1208.4012219998986	1209.9354941998608	1210.9560587997548	n/a	n/a	1211.9638475999236	1213.4585083997808	2020-01-17 16:18:48.628973	4.99126225351413	-0.371300387107365	-5.16019934526458	-0.44494991699463	-0.168937091750452	-5.16019934526458	-4.99126225351413	-0.371300387107365	-5.16019934526458	-0.168937091750452	-5.16019934526458	0.371300387107365	1.2773315026764869	-0.8652185329880119	-5.666229907881367	-2.523317941077028	-1.8048147997483128	-5.666229907881367	0.022062775149615577	-3.0968566024765964	-4.374188105153082	-2.6623727033844204	-3.869075737484958	2	missed	0.0
328.1474150996655	5.9478075001386514	nogo_punish	1.0	328.17198309954256	329.6147325998172	332.1528425998986	1.4427495002746582	329.17657529981807	331.1294656996615	333.1672256998718	0.43815729999914765	1.0233769002370536	0.9525648998094312	n/a	1.0	n/a	1	0	110	1	nogo_punish	0	0	-1	0	0	1	1	n/a	n/a	-1	1.0	1.0	885.3228897000663	1213.4948727996089	1214.4994649998844	1214.9376222998835	1216.4523553997278	1217.4757322999649	n/a	n/a	1218.490115399938	1219.4426802997475	2020-01-17 16:18:48.628973	2.56570687220732	-4.48282543453023	-2.71343755756126	-2.71494399435605	-5.27914442976859	-2.71343755756126	-2.56570687220732	-2.71343755756126	-4.48282543453023	-2.71343755756126	-5.27914442976859	-2.5466802802012696	-1.1482238786303234	-4.976743580410877	-3.2194681201780475	-4.7933120184384475	-6.915022137766451	-3.2194681201780475	-2.895917892159019	-5.641357068287405	-4.493133189657092	-5.004509873838316	-3.1917018267506077	2	missed	0.0
334.12858319981024	7.069577999878675	nogo_punish	1.0	334.1531511996873	336.73498049983755	339.2486099996604	2.5818293001502752	335.1552655999549	338.2376973996868	340.2607799996622	1.5797148998826742	1.010912599973608	0.9619491999037564	n/a	1.0	n/a	1	0	111	1	nogo_punish	1	-1	0	0	0	1	0	n/a	n/a	0	1.0	1.0	885.3228897000663	1219.4760408997536	1220.4781553000212	1222.0578701999038	1223.560587099753	1224.5714996997267	n/a	n/a	1225.5836696997285	1226.5456188996322	2020-01-17 16:18:48.628973	1.89227467862336	-4.48282543453023	-3.91244898539465	-3.91370292577597	-5.80472366401801	-3.91244898539465	-1.89227467862336	-3.91244898539465	-4.48282543453023	-3.91244898539465	-5.80472366401801	3.91244898539465	-1.8216560722142836	-4.976743580410877	-4.418479548011437	-5.992070949858368	-7.4406013720158715	-4.418479548011437	3.5632113734369004	-6.840368496120794	-5.018712423906512	-6.203521301671705	-3.1917018267506077	2	missed	0.0
341.24008589982986	7.023932000156492	nogo_reward	1.0	341.2646538997069	343.70830589998513	346.24734839983284	2.4436520002782345	342.2737102997489	345.2233648998663	347.2637258996258	1.4345956002362072	1.0239834999665618	1.0248600002375952	n/a	1.0	n/a	1	0	112	3	nogo_reward	1	0	1	0	0	1	0	n/a	n/a	1	1.0	1.0	885.3228897000663	1226.5875435997732	1227.5965999998152	1229.0311956000514	1230.5462545999326	1231.5702380998991	n/a	n/a	1232.586615599692	1233.6114755999297	2020-01-17 16:18:48.628973	1.5985157239044	0.53099696805497	4.55510554256495	4.55440538554661	2.95658981866055	4.55510554256495	-1.5985157239044	4.55510554256495	0.53099696805497	4.55510554256495	2.95658981866055	5.267875284588841	-2.1154150269332437	0.03707882217432312	4.049074979948163	2.4760373614642117	1.3207121106626893	4.049074979948163	4.918637672631091	1.627186031838805	3.7426010587720477	2.264033226287894	1.8221205758345917	2	missed	0.0
348.30374979972817	7.275641200132895	go_reward	0.2866039001382887	348.3283177996052	350.8509344998747	353.3850228996016	2.5226167002695092	349.3347407998517	352.38206069963053	354.3858694997616	1.5161937000229955	1.0029621999710798	1.218089499976486	n/a	1.0	n/a	1	0	113	4	go_reward	1	1	0	1	1	1	0	n/a	n/a	1	0.2866039001382887	1.0	885.3228897000663	1233.6512074996715	1234.657630499918	1236.173824199941	1237.7049503996968	1238.707912599668	n/a	n/a	1239.708759199828	1240.9268486998044	2020-01-17 16:18:48.628973	5.27776219132829	3.37616489828048	0.0	3.37616489828048	5.27776219132829	0.0	-5.27776219132829	3.37616489828048	0.0	5.27776219132829	0.0	6.44681592887331	1.5638314404906466	2.882246752399833	-0.5060305626167872	1.2977968741980819	3.641884483330429	-0.5060305626167872	6.09757831691556	2.3498426806021455	0.7860112401114977	1.0850925820034245	1.2911236077796218	2	missed	0.0
355.62025449983776	6.297337200026959	nogo_reward	1.0	355.6448224997148	357.2080593998544	359.7363730999641	1.5632369001396	356.6438622996211	358.71300519956276	360.7457135999575	0.5641971002332866	1.0233679004013538	1.1964460997842252	n/a	1.0	n/a	1	0	114	3	nogo_reward	1	0	1	0	0	1	1	n/a	n/a	1	1.0	1.0	885.3228897000663	1240.967712199781	1241.9667519996874	1242.5309490999207	1244.035894899629	1245.0592628000304	n/a	n/a	1246.0686033000238	1247.265049399808	2020-01-17 16:18:48.628973	3.24344755820249	0.53099696805497	7.55942589781453	7.55890020252826	4.31597833961205	7.55942589781453	-3.24344755820249	7.55942589781453	0.53099696805497	7.55942589781453	4.31597833961205	2.26355492933926	-0.47048319263515337	0.03707882217432312	7.053395335197743	5.480532178445863	2.680100631614189	7.053395335197743	1.9143173173815105	4.631506387088386	5.101989579723548	5.268353581537475	1.8221205758345917	2	missed	0.0
361.95917779998877	6.406776200048398	nogo_reward	1.0	361.9837457998658	363.9434573999606	366.4635320999662	1.9597116000948063	362.9841666999273	365.4502232996747	367.475325099658	0.9592907000333071	1.0133088002914974	0.9151969002562055	n/a	1.0	n/a	1	0	115	3	nogo_reward	0	1	0	0	0	1	0	n/a	n/a	0	1.0	1.0	885.3228897000663	1247.306635499932	1248.3070563999936	1249.266347100027	1250.773112999741	1251.7864218000325	n/a	n/a	1252.7982147997243	1253.7134116999805	2020-01-17 16:18:48.628973	3.90127312510997	0.53099696805497	8.75839764997415	8.7579995893519	4.85712452486418	8.75839764997415	-3.90127312510997	8.75839764997415	0.53099696805497	8.75839764997415	4.85712452486418	-8.75839764997415	0.18734237427232658	0.03707882217432312	8.252367087357362	6.679631565269503	3.2212468168663193	8.252367087357362	-9.107635261931899	5.8304781392480045	5.643135764975678	6.467325333697094	1.8221205758345917	2	missed	0.0
368.4062855998054	6.615080300252885	go_punish	0.276613200083375	368.43085359968245	370.2958309999667	372.8340861997567	1.8649774002842605	369.4478644998744	371.823915399611	373.83347729966044	0.8479665000922978	1.0101708001457155	1.2124566002748907	n/a	1.0	n/a	1	0	116	2	go_punish	1	0	-1	1	1	1	0	n/a	n/a	0	0.276613200083375	1.0	885.3228897000663	1253.7537432997487	1254.7707541999407	1255.618720700033	1257.1468050996773	1258.156975899823	n/a	n/a	1259.1563669997267	1260.3688236000016	2020-01-17 16:18:48.628973	5.22845507564458	-0.213039471190961	-5.16019934526458	-0.26384200273055	0.0682557303799986	-5.16019934526458	-5.22845507564458	-0.213039471190961	-5.16019934526458	0.0682557303799986	-5.16019934526458	0.213039471190961	1.5145243248069362	-0.7069576170716079	-5.666229907881367	-2.342210026812948	-1.5676219776178622	-5.666229907881367	-0.13619814076678843	-2.859663780346146	-4.374188105153082	-2.5041117874680165	-3.869075737484958	2	missed	0.0
375.0576776000671	6.858890299685072	go_reward	0.3698993003927171	375.08224559994414	376.95662799989805	379.48562389984727	1.8743823999539018	376.0969272996299	378.4757745997049	380.49437229987234	0.8597007002681494	1.0098493001423776	1.4467635997568777	n/a	1.0	n/a	1	0	117	4	go_reward	1	1	0	1	1	1	0	n/a	n/a	1	0.3698993003927171	1.0	885.3228897000663	1260.4051353000104	1261.4198169996962	1262.2795176999643	1263.7986642997712	1264.8085135999136	n/a	n/a	1265.8172619999386	1267.2640255996955	2020-01-17 16:18:48.628973	10.4621208246624	6.9472836065209	0.0	6.9472836065209	10.4621208246624	0.0	-10.4621208246624	6.9472836065209	0.0	10.4621208246624	0.0	2.8756972206328903	6.748190073824755	6.453365460640253	-0.5060305626167872	4.868915582438502	8.82624311666454	-0.5060305626167872	2.526459608675141	7.534201313936254	0.7860112401114977	4.656211290243844	1.2911236077796218	2	missed	0.0
381.9534497000277	6.374968999996781	go_punish	0.3215625998564064	381.97801769990474	383.55101549997926	386.1068438999355	1.5729978000745177	382.98352129990235	385.0857159998268	387.1085698995739	0.5674942000769079	1.021127900108695	1.244416800327599	n/a	1.0	n/a	1	0	118	2	go_punish	1	0	-1	1	1	1	1	n/a	n/a	0	0.3215625998564064	1.0	885.3228897000663	1267.300907399971	1268.3064109999686	1268.8739052000456	1270.408605699893	1271.4297336000018	n/a	n/a	1272.4314595996402	1273.6758763999678	2020-01-17 16:18:48.628973	5.35512798673645	-0.129160898725567	-5.16019934526458	-0.165275012248382	0.194928641471873	-5.16019934526458	-5.35512798673645	-0.129160898725567	-5.16019934526458	0.194928641471873	-5.16019934526458	0.129160898725567	1.6411972358988067	-0.6230790446062139	-5.666229907881367	-2.24364303633078	-1.4409490665259879	-5.666229907881367	-0.22007671323218245	-2.7329908692542717	-4.374188105153082	-2.4202332150026225	-3.869075737484958	2	missed	0.0
388.36759119993076	6.82823899993673	go_punish	0.3462456003762781	388.3921591998078	390.3163046999832	392.85815289989114	1.9241455001754275	389.4099741997197	391.84674899978563	393.8685917998664	0.9063305002634934	1.0114039001055062	1.3518063998781145	n/a	1.0	n/a	1	0	119	2	go_punish	1	0	-1	1	1	1	0	n/a	n/a	0	0.3462456003762781	1.0	885.3228897000663	1273.715048899874	1274.732863899786	1275.6391944000495	1277.169638699852	1278.1810425999574	n/a	n/a	1279.1914814999327	1280.5432878998108	2020-01-17 16:18:48.628973	5.42678678730151	-0.0821017987900084	-5.16019934526458	-0.108442759990893	0.26658744203693	-5.16019934526458	-5.42678678730151	-0.0821017987900084	-5.16019934526458	0.26658744203693	-5.16019934526458	0.0821017987900084	1.7128560364638665	-0.5760199446706553	-5.666229907881367	-2.186810784073291	-1.3692902659609307	-5.666229907881367	-0.26713581316774104	-2.6613320686892146	-4.374188105153082	-2.373174115067064	-3.869075737484958	2	missed	0.0
395.23183379974216	7.052012600004673	nogo_punish	1.0	395.2564017996192	397.4904689998366	400.014529899694	2.234067200217396	396.27131599979475	398.9948395998217	401.0276817996055	1.2191530000418425	1.019690299872309	1.280732600018382	n/a	1.0	n/a	1	0	120	1	nogo_punish	1	-1	0	0	0	1	0	n/a	n/a	0	1.0	1.0	885.3228897000663	1280.5792914996855	1281.594205699861	1282.813358699903	1284.317729299888	1285.3374195997603	n/a	n/a	1286.3505714996718	1287.6313040996902	2020-01-17 16:18:48.628973	3.07657762821776	-4.48282543453023	-1.79879629534582	-1.79984482706273	-4.87537392356357	-1.79879629534582	-3.07657762821776	-1.79879629534582	-4.48282543453023	-1.79879629534582	-4.87537392356357	1.79879629534582	-0.6373531226198836	-4.976743580410877	-2.3048268579626074	-3.878212851145128	-6.511251631561431	-2.3048268579626074	1.4495586833880707	-4.726715806071965	-4.089362683452072	-4.089868611622876	-3.1917018267506077	2	missed	0.0
