onset	duration	trial_type	response_time	cueOnset	targetOnset	fbOnset	cueRT	firstfixOnset	secondfixOnset	waitOnset	firstfixdur	secondfixdur	waitdur	nback_fbOnset	nback_response_time	nback_targetOnset	block	wm	trial	cue	cond	is_common	outcome_go	outcome_nogo	key_correct	key_pressed	is_correct	key_correct_nback	key_pressed_nback	is_correct_nback	outcome	rt	rt_nback	time_scan	time_onset	time_isi1	time_circle	time_isi2	time_feedback	time_same	time_correct	time_iti	time_done	timestamp_scan	DV	Qgo	Qnogo	SV	Wgo	Wnogo	mDV	Qchosen	Qunchosen	Wchosen	Wunchosen	PE	DVC	QgoC	QnogoC	SVC	WgoC	WnogoC	PEC	WchosenC	WunchosenC	QchosenC	QunchosenC	run	outcome_nback	nback_targetResp
0.0	7.2787742000073195	go_punish	0.0694889998994767	0.028677399968728423	2.7989190999651328	5.335718599963002	2.7702416999964043	1.0334090000251308	4.31813939998392	6.350673699984327	1.765510099940002	1.0175791999790817	0.9567778999917209	n/a	1.0	n/a	2	0	61	3	go_punish	1	0	-1	1	1	1	0	n/a	n/a	0	0.0694889998994767	1.0	1742.8246283000335	1742.8533057000022	1743.8580373000586	1745.6235473999986	1747.1427677000174	1748.1603468999965	n/a	n/a	1749.1753020000178	1750.1320799000096	2019-12-11 16:44:59.403254	3.14268989951791	-0.779449797233303	-3.40180256861784	-0.831988618905269	-0.259112669099929	-3.40180256861784	-3.14268989951791	-0.779449797233303	-3.40180256861784	-0.259112669099929	-3.40180256861784	0.779449797233303	-0.7892434682227036	-1.7760494531275481	-4.6114775260732195	-3.776718500820892	-1.1186348318568962	-4.6114775260732195	-1.0123387995344768	-3.259677913076411	-2.470434444853706	-3.7422080126303565	-2.645318966570411	4	missed	0.0
7.305403599981446	6.435948100057203	nogo_punish	1.0	7.334080999950174	9.029705900000408	11.548047399963252	1.695624900050234	8.34277290001046	10.52371179999318	12.557661999948323	0.6869329999899492	1.0243355999700725	1.2123671000590548	n/a	1.0	n/a	2	0	62	4	nogo_punish	0	0	-1	0	0	1	0	n/a	n/a	-1	1.0	1.0	1742.8246283000335	1750.1587092999837	1751.167401200044	1751.854334200034	1753.3483401000267	1754.3726756999968	n/a	n/a	1755.3822902999818	1756.594657400041	2019-12-11 16:44:59.403254	0.73288901370717	-3.0709633570723	-1.61182391145055	-1.73021998205495	-2.34471292515772	-1.61182391145055	-0.73288901370717	-1.61182391145055	-3.0709633570723	-1.61182391145055	-2.34471292515772	-4.08229300425121	-3.1990443540334432	-4.067563012966545	-2.82149886890593	-4.674949863970573	-3.2042350879146873	-2.82149886890593	-5.87408160101899	-4.6123891554270315	-1.413344801393586	-4.574582126847604	-2.3144797550248715	4	missed	0.0
13.767879000050243	6.230860100011114	go_reward	0.025613100035116	13.796556400018972	15.156768999993801	17.705649600014794	1.3602125999748296	14.81284070003312	16.68033010000363	18.714929400011897	0.3439282999606803	1.0253195000111646	1.3124871000181884	n/a	1.0	n/a	2	0	63	1	go_reward	1	1	0	1	1	1	0	n/a	n/a	1	0.025613100035116	1.0	1742.8246283000335	1756.6211847000525	1757.6374690000666	1757.9813973000273	1759.5049584000371	1760.5302779000483	n/a	n/a	1761.5395577000454	1762.8520448000636	2019-12-11 16:44:59.403254	10.5663056820201	13.2421614455598	0.0	13.2421614455598	10.5663056820201	0.0	-10.5663056820201	13.2421614455598	0.0	10.5663056820201	0.0	6.679089918852101	6.634372314279487	12.245561789665555	-1.20967495745538	10.297431563644176	9.706783519263134	-1.20967495745538	4.887301322084322	7.565740438043619	0.931368123764134	10.279403230162746	0.7564836020474288	4	missed	0.0
20.043561000027694	6.403957400005311	go_punish	0.0738528999499976	20.072238399996422	22.045508399954997	24.59526349999942	1.9732699999585748	21.078033300000243	23.577236599987373	25.607720999978483	0.9674750999547541	1.018026900012046	0.8684748000232503	n/a	1.0	n/a	2	0	64	3	go_punish	0	-1	0	1	1	1	0	n/a	n/a	-1	0.0738528999499976	1.0	1742.8246283000335	1762.89686670003	1763.9026616000338	1764.8701366999885	1766.4018649000209	1767.419891800033	n/a	n/a	1768.432349300012	1769.3008241000352	2019-12-11 16:44:59.403254	3.36199959029337	-0.492676137525997	-3.40180256861784	-0.53092939161227	-0.0398029783244635	-3.40180256861784	-3.36199959029337	-0.492676137525997	-3.40180256861784	-0.0398029783244635	-3.40180256861784	-5.201440778175763	-0.5699337774472433	-1.489275793420242	-4.6114775260732195	-3.4756592735278935	-0.8993251410814307	-4.6114775260732195	-6.993229374943542	-3.040368222300945	-2.470434444853706	-3.4554343529230507	-2.645318966570411	4	missed	0.0
26.493896599975415	6.365092599997297	go_punish	0.0835280999308452	26.522573999944143	28.07885059993737	30.622449800022878	1.5562765999932253	27.5175317999674	29.597584299976006	31.634637899929658	0.5613187999699676	1.0248655000468716	1.2530287000117823	n/a	1.0	n/a	2	0	65	3	go_punish	1	0	-1	1	1	1	0	n/a	n/a	0	0.0835280999308452	1.0	1742.8246283000335	1769.3472022999777	1770.342160100001	1770.9034788999709	1772.4222126000095	1773.4470781000564	n/a	n/a	1774.4592661999632	1775.712294899975	2019-12-11 16:44:59.403254	1.83295388315332	-2.45247401149055	-3.40180256861784	-2.48060163562184	-1.56884868546451	-3.40180256861784	-1.83295388315332	-2.45247401149055	-3.40180256861784	-1.56884868546451	-3.40180256861784	2.45247401149055	-2.0989794845872933	-3.449073667384795	-4.6114775260732195	-5.4253315175374635	-2.428370848221477	-4.6114775260732195	0.6606854147227701	-4.569413929440992	-2.470434444853706	-5.415232226887603	-2.645318966570411	4	missed	0.0
32.8832759000361	7.483358399942517	nogo_punish	0.1101180999539792	32.911953300004825	35.362176200025715	37.91724099998828	2.45022290002089	33.928766699973494	36.89375179994386	38.9269833000144	1.4334095000522211	1.0234892000444233	1.4683283999329433	n/a	1.0	n/a	2	0	66	4	nogo_punish	1	-1	0	0	1	0	0	n/a	n/a	-1	0.1101180999539792	1.0	1742.8246283000335	1775.7365816000383	1776.753395000007	1778.1868045000592	1779.7183800999774	1780.7418693000218	n/a	n/a	1781.751611600048	1783.2199399999809	2019-12-11 16:44:59.403254	1.13888790516479	-3.0709633570723	-3.14821032325809	-3.25670184768505	-2.0093224180933	-3.14821032325809	-1.13888790516479	-3.0709633570723	-3.14821032325809	-2.0093224180933	-3.14821032325809	-2.62315355862946	-2.793045462575823	-4.067563012966545	-4.35788528071347	-6.201431729600674	-2.868844580850267	-4.35788528071347	-4.41494215539724	-5.009887662069781	-2.216842199493956	-6.033721572469354	-2.391726721210661	4	missed	0.0
40.39330300001893	6.326717399992049	go_reward	0.1078255999600514	40.42198039998766	41.84953130001668	44.385058199986815	1.4275509000290185	41.43061669997405	43.37213569995947	45.39592049992643	0.41891460004262626	1.0129225000273436	1.3527773000532761	n/a	1.0	n/a	2	0	67	1	go_reward	1	1	0	1	1	1	0	n/a	n/a	1	0.1078255999600514	1.0	1742.8246283000335	1783.2466087000212	1784.2552450000076	1784.6741596000502	1786.196763999993	1787.2096865000203	n/a	n/a	1788.22054879996	1789.5733261000132	2019-12-11 16:44:59.403254	12.5714600321692	15.8308952396671	0.0	15.8308952396671	12.5714600321692	0.0	-12.5714600321692	15.8308952396671	0.0	12.5714600321692	0.0	4.090356124744801	8.639526664428587	14.834295583772855	-1.20967495745538	12.886165357751477	11.711937869412234	-1.20967495745538	2.2985675279770215	9.570894788192719	0.931368123764134	12.868137024270046	0.7564836020474288	4	missed	0.0
46.766427500057034	7.039168399991468	go_punish	0.1658142999513074	46.79510490002576	49.01651819993299	51.576004300033674	2.2214132999072262	47.79953119996935	50.55522420001216	52.58824109996203	1.2169869999636376	1.0207801000215113	1.2460322000551969	n/a	1.0	n/a	2	0	68	3	go_punish	1	0	-1	1	1	1	0	n/a	n/a	0	0.1658142999513074	1.0	1742.8246283000335	1789.6197332000593	1790.6241595000029	1791.8411464999665	1793.3798525000457	1794.4006326000672	n/a	n/a	1795.4128693999955	1796.6589016000507	2019-12-11 16:44:59.403254	2.59174826001809	-1.47969507162975	-3.40180256861784	-1.50056514397294	-0.810054308599744	-3.40180256861784	-2.59174826001809	-1.47969507162975	-3.40180256861784	-0.810054308599744	-3.40180256861784	1.47969507162975	-1.3401851077225233	-2.476294727523995	-4.6114775260732195	-4.445295025888563	-1.6695764713567112	-4.6114775260732195	-0.3120935251380299	-3.8106195525762256	-2.470434444853706	-4.442453287026804	-2.645318966570411	4	missed	0.0
53.84726690000366	7.12409759999764	go_punish	0.0149025000864639	53.87594429997239	56.31861389998812	58.879988300031755	2.4426696000157335	54.88111870002467	57.85689079994336	59.88512079999805	1.4374951999634504	1.0230975000883973	1.1149210999719799	n/a	1.0	n/a	2	0	69	3	go_punish	0	-1	0	1	1	1	0	n/a	n/a	-1	0.0149025000864639	1.0	1742.8246283000335	1796.700572600006	1797.7057470000582	1799.1432422000216	1800.6815190999769	1801.7046166000653	n/a	n/a	1802.7097491000316	1803.8246702000035	2019-12-11 16:44:59.403254	3.0246038585733	-0.921930879000757	-3.40180256861784	-0.937545475680087	-0.377198710044531	-3.40180256861784	-3.0246038585733	-0.921930879000757	-3.40180256861784	-0.377198710044531	-3.40180256861784	-4.772186036701003	-0.9073295091673135	-1.9185305348950021	-4.6114775260732195	-3.8822753575957103	-1.2367208728014982	-4.6114775260732195	-6.563974633468782	-3.3777639540210127	-2.470434444853706	-3.8846890943978103	-2.645318966570411	4	missed	0.0
60.99706409999612	6.876307200058591	go_reward	0.1778932000743225	61.02574149996485	63.519423599937	66.05578439997043	2.4936820999721476	62.036450700019486	65.03144769999176	67.06332830002088	1.4829728999175131	1.0243366999786758	0.8387204000025577	n/a	1.0	n/a	2	0	70	1	go_reward	1	1	0	1	1	1	0	n/a	n/a	1	0.1778932000743225	1.0	1742.8246283000335	1803.8503697999984	1804.861079000053	1806.3440518999705	1807.8560760000253	1808.880412700004	n/a	n/a	1809.8879566000544	1810.726677000057	2019-12-11 16:44:59.403254	13.7358894036154	17.3397625115682	0.0	17.3397625115682	13.7358894036154	0.0	-13.7358894036154	17.3397625115682	0.0	13.7358894036154	0.0	2.5814888528437017	9.803956035874785	16.343162855673956	-1.20967495745538	14.395032629652576	12.876367240858432	-1.20967495745538	0.7897002560759219	10.735324159638918	0.931368123764134	14.377004296171146	0.7564836020474288	4	missed	0.0
67.90396310004871	7.450231299968664	go_reward	0.1962687999475747	67.93264050001744	70.55203739996091	73.1062413000036	2.6193968999434674	68.9371127999625	72.08351919997949	74.1166223000032	1.6149245999984032	1.0227221000241116	1.266249499982905	n/a	1.0	n/a	2	0	71	1	go_reward	1	1	0	1	1	1	0	n/a	n/a	1	0.1962687999475747	1.0	1742.8246283000335	1810.757268800051	1811.761741099996	1813.3766656999944	1814.908147500013	1815.930869600037	n/a	n/a	1816.9412506000367	1818.2075001000196	2019-12-11 16:44:59.403254	14.4356467743103	18.2491222241004	0.0	18.2491222241004	14.4356467743103	0.0	-14.4356467743103	18.2491222241004	0.0	14.4356467743103	0.0	1.672129140311501	10.503713406569686	17.252522568206157	-1.20967495745538	15.304392342184777	13.576124611553332	-1.20967495745538	-0.11965945645627873	11.435081530333818	0.931368123764134	15.286364008703346	0.7564836020474288	4	missed	0.0
75.39712059998419	6.818608900066465	go_punish	0.002480800030753	75.42579799995292	77.27300229994603	79.8265653999988	1.847204299993109	76.42527399992082	78.80603570002131	80.844551599934	0.84772830002521	1.0205296999774873	1.3998553000853917	n/a	1.0	n/a	2	0	72	3	go_punish	1	0	-1	1	1	1	0	n/a	n/a	0	0.002480800030753	1.0	1742.8246283000335	1818.2504262999864	1819.2499022999543	1820.0976305999795	1821.6306640000548	1822.6511937000323	n/a	n/a	1823.6691798999675	1825.069035200053	2019-12-11 16:44:59.403254	1.61976731998061	-2.72375923884932	-3.40180256861784	-2.73553196497851	-1.78203524863722	-3.40180256861784	-1.61976731998061	-2.72375923884932	-3.40180256861784	-1.78203524863722	-3.40180256861784	2.72375923884932	-2.3121660477600035	-3.7203588947435655	-4.6114775260732195	-5.680261846894133	-2.641557411394187	-4.6114775260732195	0.9319706420815403	-4.782600492613701	-2.470434444853706	-5.686517454246374	-2.645318966570411	4	missed	0.0
82.24098210001807	6.86950000003003	go_reward	0.0804755999706685	82.2696594999868	84.09098209999479	86.65023709996603	1.8213226000079885	83.27932510001119	85.61891499999933	87.66140729992208	0.8116569999835974	1.031322099966701	1.4777522000947556	n/a	1.0	n/a	2	0	73	1	go_reward	1	1	0	1	1	1	1	n/a	n/a	1	0.0804755999706685	1.0	1742.8246283000335	1825.0942878000203	1826.1039534000447	1826.9156104000283	1828.4435433000328	1829.4748653999995	n/a	n/a	1830.4860355999556	1831.9637878000503	2019-12-11 16:44:59.403254	14.868829661976	18.8132994750718	0.0	18.8132994750718	14.868829661976	0.0	-14.868829661976	18.8132994750718	0.0	14.868829661976	0.0	1.1079518893401001	10.936896294235385	17.816699819177558	-1.20967495745538	15.868569593156177	14.009307499219032	-1.20967495745538	-0.6838367074276797	11.868264417999518	0.931368123764134	15.850541259674747	0.7564836020474288	4	missed	0.0
89.13851600000658	5.968895100056898	go_reward	0.0935997000196948	89.1671933999753	90.82076809997693	93.36546140001155	1.6535747000016272	90.1656090000181	92.34132399992086	94.37071069993544	0.655159099958837	1.0241374000906944	0.7653778000967577	n/a	1.0	n/a	2	0	74	1	go_reward	1	1	0	1	1	1	0	n/a	n/a	1	0.0935997000196948	1.0	1742.8246283000335	1831.9918217000088	1832.9902373000516	1833.6453964000104	1835.1659522999544	1836.190089700045	n/a	n/a	1837.195338999969	1837.9607168000657	2019-12-11 16:44:59.403254	15.1440425245238	19.1723203459006	0.0	19.1723203459006	15.1440425245238	0.0	-15.1440425245238	19.1723203459006	0.0	15.1440425245238	0.0	0.7489310185112998	11.212109156783185	18.175720690006358	-1.20967495745538	16.227590463984978	14.284520361766832	-1.20967495745538	-1.04285757825648	12.143477280547318	0.931368123764134	16.20956213050355	0.7564836020474288	4	missed	0.0
95.13131399999861	6.258838400011655	nogo_punish	1.0	95.15999139996734	96.72352919995319	99.25896769994893	1.563537799985852	96.17213159997482	98.23971999995456	100.26320409995924	0.5513975999783725	1.0192476999943665	1.1556257000197547	n/a	1.0	n/a	2	0	75	4	nogo_punish	1	-1	0	0	0	1	0	n/a	n/a	0	1.0	1.0	1742.8246283000335	1837.9846197000008	1838.9967599000083	1839.5481574999867	1841.064348299988	1842.0835959999824	n/a	n/a	1843.0878323999927	1844.2434581000125	2019-12-11 16:44:59.403254	-0.330288093027284	-4.07830519183653	-3.14821032325809	-4.14790125361791	-2.81792223023081	-3.14821032325809	0.330288093027284	-3.14821032325809	-4.07830519183653	-3.14821032325809	-2.81792223023081	3.14821032325809	-4.262221460767897	-5.074904847730775	-4.35788528071347	-7.092631135533534	-3.677444392987777	-4.35788528071347	1.35642172649031	-6.148775567234571	-1.8865541064666758	-6.110968538655143	-3.321821589789101	4	missed	0.0
101.43525540002179	6.2245778000212795	go_punish	0.2055565998889506	101.46393279999052	102.92685299995355	105.47256060002815	1.4629201999630368	102.4598368000004	104.4488730999874	106.49193559994455	0.46701619995315014	1.0236875000407508	1.1965750000672415	n/a	1.0	n/a	2	0	76	3	go_punish	1	0	-1	1	1	1	0	n/a	n/a	0	0.2055565998889506	1.0	1742.8246283000335	1844.288561100024	1845.284465100034	1845.751481299987	1847.273501400021	1848.2971889000617	n/a	n/a	1849.316563899978	1850.5131389000453	2019-12-11 16:44:59.403254	2.45337615916603	-1.65570288677889	-3.40180256861784	-1.66464242770789	-0.948426409451807	-3.40180256861784	-2.45337615916603	-1.65570288677889	-3.40180256861784	-0.948426409451807	-3.40180256861784	1.65570288677889	-1.4785572085745833	-2.6523025426731355	-4.6114775260732195	-4.609372309623513	-1.8079485722087743	-4.6114775260732195	-0.1360857099888897	-3.9489916534282887	-2.470434444853706	-4.618461102175944	-2.645318966570411	4	missed	0.0
107.68797740002606	5.794899299973622	nogo_punish	0.133652799995616	107.71665479999479	109.04068500001449	111.6022507000016	1.3240302000197062	108.71284369996283	110.57883539993804	112.61161359993298	0.32784130005165935	1.0234153000635615	0.8999405000354272	n/a	1.0	n/a	2	0	77	4	nogo_punish	1	-1	0	0	1	0	1	n/a	n/a	-1	0.133652799995616	1.0	1742.8246283000335	1850.5412831000283	1851.5374719999963	1851.865313300048	1853.4034636999716	1854.4268790000351	n/a	n/a	1855.4362418999665	1856.336182400002	2019-12-11 16:44:59.403254	-1.24354804738774	-4.07830519183653	-1.92514196509558	-2.55340336282528	-3.16869001248332	-1.92514196509558	1.24354804738774	-4.07830519183653	-1.92514196509558	-3.16869001248332	-1.92514196509558	-1.6158117238652299	-5.1754814151283535	-5.074904847730775	-3.13481692255096	-5.498133244740903	-4.028212175240287	-3.13481692255096	-3.4076003206330094	-6.1692552564598016	-0.9937738413314461	-7.041063407233583	-1.1686583630481513	4	missed	0.0
113.52504930004966	7.278241699910495	nogo_reward	1.0	113.55372670001839	115.90298050001729	118.43589930003532	2.3492537999989054	114.55137310002488	117.41276079998352	119.44591060001403	1.3516073999924174	1.0231385000518003	1.3860577999148518	n/a	1.0	n/a	2	0	78	2	nogo_reward	1	0	1	0	0	1	0	n/a	n/a	1	1.0	1.0	1742.8246283000335	1856.378355000052	1857.3760014000584	1858.7276088000508	1860.237389100017	1861.2605276000688	n/a	n/a	1862.2705389000475	1863.6565966999624	2019-12-11 16:44:59.403254	18.8903321811867	0.0	15.6689362605808	15.6689362605808	-3.22139592060584	15.6689362605808	-18.8903321811867	15.6689362605808	0.0	15.6689362605808	-3.22139592060584	4.252315103831101	14.958398813446086	-0.9965996558942452	14.45926130312542	12.724206378665176	-4.080918083362807	14.45926130312542	2.4605265070633218	12.668371016604318	-2.2900277968417058	12.706178045183746	0.7564836020474288	4	missed	0.0
120.82651110005054	6.3075964999156895	nogo_punish	1.0	120.85518850001927	122.6013840999226	125.13366029993608	1.7461955999033307	121.86774699995294	124.11732319998555	126.14803979999851	0.7336370999696555	1.0163370999505332	1.014745199936442	n/a	1.0	n/a	2	0	79	4	nogo_punish	1	-1	0	0	0	1	1	n/a	n/a	0	1.0	1.0	1742.8246283000335	1863.6798168000528	1864.6923752999865	1865.426012399956	1866.941951500019	1867.9582885999696	n/a	n/a	1868.972668100032	1869.9874132999685	2019-12-11 16:44:59.403254	1.56619688485525	-4.66507774292978	-1.92514196509558	-3.75399585656143	-3.49133884995083	-1.92514196509558	-1.56619688485525	-1.92514196509558	-4.66507774292978	-1.92514196509558	-3.49133884995083	1.92514196509558	-2.3657364828853633	-5.661677398824025	-3.13481692255096	-6.698725738477053	-4.350861012707798	-3.13481692255096	0.13335336832780031	-4.925707209072062	-2.559970726186696	-4.887900180492633	-3.908594140882351	4	missed	0.0
127.18052689998876	6.103774499963038	nogo_reward	1.0	127.20920429995749	128.78334189997963	131.30979730002605	1.5741376000221408	128.22181050002087	130.28643099998612	132.3192242999794	0.561531399958767	1.0233663000399247	0.993754499941133	n/a	1.0	n/a	2	0	80	2	nogo_reward	1	0	1	0	0	1	1	n/a	n/a	1	1.0	1.0	1742.8246283000335	1870.033832599991	1871.0464388000544	1871.6079702000131	1873.1110593000196	1874.1344256000596	n/a	n/a	1875.143852600013	1876.137607099954	2019-12-11 16:44:59.403254	20.8264609424483	0.0	17.2450548028576	17.2450548028576	-3.58140613959077	17.2450548028576	-20.8264609424483	17.2450548028576	0.0	17.2450548028576	-3.58140613959077	2.6761965615543026	16.894527574707688	-0.9965996558942452	16.03537984540222	14.300324920941975	-4.4409283023477375	16.03537984540222	0.8844079647865228	14.244489558881117	-2.650038015826636	14.282296587460545	0.7564836020474288	4	missed	0.0
133.3297440999886	6.289074899978004	go_punish	0.1241699000820517	133.35842149995733	135.32229629997119	137.8750561999625	1.9638748000138548	134.36339990003057	136.8555217999965	138.88861479994375	0.9588963999406133	1.0195343999660054	0.7588815999915823	n/a	1.0	n/a	2	0	81	3	go_punish	1	0	-1	1	1	1	0	n/a	n/a	0	0.1241699000820517	1.0	1742.8246283000335	1876.1830497999908	1877.188028200064	1878.1469246000047	1879.68015010003	1880.699684499996	n/a	n/a	1881.7132430999773	1882.4721246999688	2019-12-11 16:44:59.403254	2.93267499812558	-1.03875601792838	-3.40180256861784	-1.04558919459186	-0.469127570492256	-3.40180256861784	-2.93267499812558	-1.03875601792838	-3.40180256861784	-0.469127570492256	-3.40180256861784	1.03875601792838	-0.9992583696150334	-2.0353556738226253	-4.6114775260732195	-3.9903190765074834	-1.328649733249223	-4.6114775260732195	-0.7530325788393999	-3.4696928144687376	-2.470434444853706	-4.001514233325434	-2.645318966570411	4	missed	0.0
139.66032969998173	6.588092199992843	nogo_reward	1.0	139.68900709995046	141.7413959000262	144.27039429999445	2.0523888000757324	140.6888908999972	143.24715219996892	145.2754490999505	1.0525050000289866	1.0232421000255272	1.0016501999928096	n/a	1.0	n/a	2	0	82	2	nogo_reward	1	0	1	0	0	1	1	n/a	n/a	1	1.0	1.0	1742.8246283000335	1882.513635399984	1883.5135192000307	1884.5660242000597	1886.0717805000024	1887.095022600028	n/a	n/a	1888.100077399984	1889.1017275999768	2019-12-11 16:44:59.403254	21.9940091155073	0.0	18.1938067507759	18.1938067507759	-3.80020236473148	18.1938067507759	-21.9940091155073	18.1938067507759	0.0	18.1938067507759	-3.80020236473148	1.7274446136360027	18.062075747766688	-0.9965996558942452	16.98413179332052	15.249076868860275	-4.659724527488447	16.98413179332052	-0.06434398313177714	15.193241506799417	-2.868834240967346	15.231048535378845	0.7564836020474288	4	missed	0.0
146.29441500001099	6.05227430001878	nogo_reward	1.0	146.3230923999797	147.79550559993368	150.3254271999465	1.4724131999539622	147.32759000000078	149.3117425999369	151.3353317999281	0.4679155999328941	1.013684600009583	1.0400349000703955	n/a	1.0	n/a	2	0	83	2	nogo_reward	1	0	1	0	0	1	0	n/a	n/a	1	1.0	1.0	1742.8246283000335	1889.1477207000132	1890.1522183000343	1890.6201338999672	1892.1363708999704	1893.15005549998	n/a	n/a	1894.1599600999616	1895.199995000032	2019-12-11 16:44:59.403254	22.7179348671658	0.0	18.7812630332602	18.7812630332602	-3.93667183390558	18.7812630332602	-22.7179348671658	18.7812630332602	0.0	18.7812630332602	-3.93667183390558	1.1399883311517023	18.786001499425186	-0.9965996558942452	17.57158807580482	15.836533151344575	-4.796193996662547	17.57158807580482	-0.6518002656160775	15.780697789283717	-3.005303710141446	15.818504817863145	0.7564836020474288	4	missed	0.0
152.39056510000978	6.618391399970051	go_punish	0.5324309000279754	152.4192424999785	154.27209550002613	156.81702139996924	1.8528530000476167	153.4263382999925	155.79688679997344	157.81927440001118	0.8457572000336313	1.0201345999957994	1.2183594999373781	n/a	1.0	n/a	2	0	84	3	go_punish	1	0	-1	1	1	1	0	n/a	n/a	0	0.5324309000279754	1.0	1742.8246283000335	1895.243870800012	1896.250966600026	1897.0967238000596	1898.621515100007	1899.6416497000027	n/a	n/a	1900.6439027000447	1901.862262199982	2019-12-11 16:44:59.403254	3.21842797603964	-0.669534618598227	-3.40180256861784	-0.674789928229698	-0.183374592578195	-3.40180256861784	-3.21842797603964	-0.669534618598227	-3.40180256861784	-0.183374592578195	-3.40180256861784	0.669534618598227	-0.7135053917009735	-1.6661342744924723	-4.6114775260732195	-3.6195198101453214	-1.0428967553351622	-4.6114775260732195	-1.1222539781695526	-3.1839398365546767	-2.470434444853706	-3.6322928339952805	-2.645318966570411	4	missed	0.0
159.05193349998467	6.151924400008056	go_punish	0.0053255999227985	159.0806108999534	160.74124729994242	163.28092879999895	1.6606363999890164	160.08910280000418	162.25740280002356	164.2905231999464	0.6521444999382311	1.0235259999753907	0.942012100015063	n/a	1.0	n/a	2	0	85	3	go_punish	0	-1	0	1	1	1	0	n/a	n/a	-1	0.0053255999227985	1.0	1742.8246283000335	1901.905239199987	1902.9137311000377	1903.565875599976	1905.082031100057	1906.1055571000325	n/a	n/a	1907.11515149998	1908.057163599995	2019-12-11 16:44:59.403254	3.39417124209225	-0.441751946364175	-3.40180256861784	-0.445816942078293	-0.0076313265255865	-3.40180256861784	-3.39417124209225	-0.441751946364175	-3.40180256861784	-0.0076313265255865	-3.40180256861784	-5.252364969337585	-0.5377621256483636	-1.4383516022584202	-4.6114775260732195	-3.3905468239939163	-0.8671534892825536	-4.6114775260732195	-7.044153566105365	-3.008196570502068	-2.470434444853706	-3.4045101617612286	-2.645318966570411	4	missed	0.0
165.2345422999938	7.698340900009043	go_reward	0.3954507999587804	165.26321969996252	168.0329848999388	170.56783039995935	2.769765199976291	166.26847739995014	169.5552278999237	171.5777541999705	1.7645074999886674	1.0126025000356549	1.383806400001049	n/a	1.0	n/a	2	0	86	1	go_reward	1	1	0	1	1	1	0	n/a	n/a	1	0.3954507999587804	1.0	1742.8246283000335	1908.087847999996	1909.0931056999837	1910.8576131999723	1912.3798561999572	1913.3924586999929	n/a	n/a	1914.402382500004	1915.786188900005	2019-12-11 16:44:59.403254	15.3229399850558	19.4059625687857	0.0	19.4059625687857	15.3229399850558	0.0	-15.3229399850558	19.4059625687857	0.0	15.3229399850558	0.0	0.5152887956262013	11.391006617315186	18.409362912891456	-1.20967495745538	16.461232686870076	14.463417822298833	-1.20967495745538	-1.2764998011415785	12.322374741079319	0.931368123764134	16.443204353388648	0.7564836020474288	4	missed	0.0
172.95800179999787	6.888550600036979	go_reward	0.0634711999446153	172.9866791999666	174.89905639993958	177.44640339992498	1.9123771999729797	173.99649289995455	176.42667099996493	178.4599074999569	0.9025634999850354	1.0197323999600485	1.4153223000466824	n/a	1.0	n/a	2	0	87	1	go_reward	0	0	1	1	1	1	0	n/a	n/a	0	0.0634711999446153	1.0	1742.8246283000335	1915.8113075	1916.821121199988	1917.723684699973	1919.2512992999984	1920.2710316999585	n/a	n/a	1921.2845357999904	1922.699858100037	2019-12-11 16:44:59.403254	15.4416159379622	19.5610686701338	0.0	19.5610686701338	15.4416159379622	0.0	-15.4416159379622	19.5610686701338	0.0	15.4416159379622	0.0	-19.5610686701338	11.509682570221585	18.564469014239556	-1.20967495745538	16.616338788218176	14.582093775205232	-1.20967495745538	-21.35285726690158	12.441050693985718	0.931368123764134	16.598310454736747	0.7564836020474288	4	missed	0.0
179.88975570001617	7.486074400018424	nogo_reward	1.0	179.9184330999849	182.89508029993158	185.41582190000918	2.976647199946683	180.92623520002257	184.41095869999845	186.425650799996	1.9688450999090037	1.0048632000107318	0.9788567000073272	n/a	1.0	n/a	2	0	88	2	nogo_reward	1	0	1	0	0	1	0	n/a	n/a	1	1.0	1.0	1742.8246283000335	1922.7430614000184	1923.750863500056	1925.719708599965	1927.235587000032	1928.2404502000427	n/a	n/a	1929.2502791000295	1930.2291358000368	2019-12-11 16:44:59.403254	23.1778695842626	0.0	19.1541115604001	19.1541115604001	-4.0237580238625	19.1541115604001	-23.1778695842626	19.1541115604001	0.0	19.1541115604001	-4.0237580238625	0.7671398040118014	19.245936216521986	-0.9965996558942452	17.94443660294472	16.209381678484476	-4.8832801866194675	17.94443660294472	-1.0246487927559784	16.15354631642362	-3.0923899000983663	16.191353345003048	0.7564836020474288	4	missed	0.0
187.40158659999747	6.87024489999726	nogo_punish	1.0	187.4302639999662	189.29845320002642	191.82497630000603	1.8681892000602147	188.4405023999277	190.80518539994955	192.8385313999604	0.8579508000987062	1.0197909000564778	1.4619775000030586	n/a	1.0	n/a	2	0	89	4	nogo_punish	1	-1	0	0	0	1	0	n/a	n/a	0	1.0	1.0	1742.8246283000335	1930.2548922999997	1931.2651306999612	1932.12308150006	1933.629813699983	1934.6496046000395	n/a	n/a	1935.663159699994	1937.125137199997	2019-12-11 16:44:59.403254	2.59210058989153	-4.66507774292978	-1.21445427442781	-2.32440289938553	-3.80655486431933	-1.21445427442781	-2.59210058989153	-1.21445427442781	-4.66507774292978	-1.21445427442781	-3.80655486431933	1.21445427442781	-1.3398327778490833	-5.661677398824025	-2.4241292318831897	-5.2691327813011535	-4.666077027076297	-2.4241292318831897	-0.5773343223399698	-4.215019518404292	-2.875186740555196	-4.177212489824863	-3.908594140882351	4	missed	0.0
194.29620290000457	7.6239302000030875	nogo_punish	1.0	194.3248802999733	197.0662416999694	199.59212329995353	2.7413613999960944	195.3318578000185	198.57250509993128	200.596459900029	1.734383899950899	1.0196182000222507	1.3523505999473855	n/a	1.0	n/a	2	0	90	4	nogo_punish	1	-1	0	0	0	1	0	n/a	n/a	0	1.0	1.0	1742.8246283000335	1937.1495086000068	1938.156486100052	1939.890870000003	1941.3971333999648	1942.416751599987	n/a	n/a	1943.4210882000625	1944.77343880001	2019-12-11 16:44:59.403254	3.20789494255655	-4.66507774292978	-0.786806715150078	-1.48320612016251	-3.99470165770663	-0.786806715150078	-3.20789494255655	-0.786806715150078	-4.66507774292978	-0.786806715150078	-3.99470165770663	0.786806715150078	-0.7240384251840633	-5.661677398824025	-1.9964816726054582	-4.427936002078133	-4.854223820463597	-1.9964816726054582	-1.0049818816177019	-3.7873719591265598	-3.063333533942496	-3.7495649305471317	-3.908594140882351	4	missed	0.0
201.96380789997056	5.997284100041497	go_punish	0.2371352000627666	201.9924852999393	203.49137579998933	206.03915610001445	1.498890500050038	202.99938900000416	205.02880309999455	207.0429341000272	0.49198679998517036	1.0103530000199044	0.946835299953591	n/a	1.0	n/a	2	0	91	3	go_punish	1	0	-1	1	1	1	0	n/a	n/a	0	0.2371352000627666	1.0	1742.8246283000335	1944.8171135999728	1945.8240173000377	1946.3160041000228	1947.853431400028	1948.863784400048	n/a	n/a	1949.8675624000607	1950.8143977000143	2019-12-11 16:44:59.403254	1.84421903651218	-2.43080687527884	-3.40180256861784	-2.43396800684639	-1.55758353210566	-3.40180256861784	-1.84421903651218	-2.43080687527884	-3.40180256861784	-1.55758353210566	-3.40180256861784	2.43080687527884	-2.087714331228433	-3.4274065311730855	-4.6114775260732195	-5.378697888762013	-2.4171056948626273	-4.6114775260732195	0.6390182785110603	-4.558148776082142	-2.470434444853706	-5.393565090675894	-2.645318966570411	4	missed	0.0
208.00443349999864	5.738648500060208	go_punish	0.0529097999678924	208.03311089996737	209.40459379996173	211.95186749997083	1.371482899994362	209.04598739999346	210.93259600002762	212.96611549996328	0.3586063999682665	1.0192714999432155	0.8056439000642968	n/a	1.0	n/a	2	0	92	3	go_punish	1	0	-1	1	1	1	0	n/a	n/a	0	0.0529097999678924	1.0	1742.8246283000335	1950.8577392000009	1951.870615700027	1952.2292220999952	1953.7572243000611	1954.7764958000043	n/a	n/a	1955.7907437999968	1956.596387700061	2019-12-11 16:44:59.403254	2.59321951048746	-1.47242914537519	-3.40180256861784	-1.47489970368232	-0.808583058130374	-3.40180256861784	-2.59321951048746	-1.47242914537519	-3.40180256861784	-0.808583058130374	-3.40180256861784	1.47242914537519	-1.3387138572531536	-2.4690288012694355	-4.6114775260732195	-4.419629585597943	-1.668105220887341	-4.6114775260732195	-0.3193594513925897	-3.8091483021068555	-2.470434444853706	-4.435187360772243	-2.645318966570411	4	missed	0.0
213.77063759998418	7.194455399993103	go_reward	0.1489723999984562	213.7993149999529	216.2243112999713	218.7612444999395	2.4249963000183925	214.79778279992752	217.74097889999416	219.77533480001148	1.426528500043787	1.0202655999453327	1.218435599934537	n/a	1.0	n/a	2	0	93	1	go_reward	0	0	1	1	1	1	0	n/a	n/a	0	0.1489723999984562	1.0	1742.8246283000335	1956.6239432999864	1957.622411099961	1959.0489396000048	1960.5656072000277	1961.585872799973	n/a	n/a	1962.599963100045	1963.8183986999795	2019-12-11 16:44:59.403254	9.38651926302843	11.7607084457253	0.0	11.7607084457253	9.38651926302843	0.0	-9.38651926302843	11.7607084457253	0.0	9.38651926302843	0.0	-11.7607084457253	5.454585895287817	10.764108789831054	-1.20967495745538	8.815978563809676	8.526997100271464	-1.20967495745538	-13.55249704249308	6.385954019051949	0.931368123764134	8.797950230328246	0.7564836020474288	4	missed	0.0
221.00734660006128	6.502488399972435	go_punish	0.0463420000160113	221.03602400003	223.0902105999412	225.630290500005	2.0541865999111906	222.0441355999792	224.6151739000345	226.63326429994777	1.046074999962002	1.0151165999704972	0.9052481000546777	n/a	1.0	n/a	2	0	94	3	go_punish	0	-1	0	1	1	1	1	n/a	n/a	-1	0.0463420000160113	1.0	1742.8246283000335	1963.8606523000635	1964.8687639000127	1965.9148388999747	1967.439802200068	1968.4549188000385	n/a	n/a	1969.4578925999813	1970.363140700036	2019-12-11 16:44:59.403254	3.02177359241272	-0.921544838818195	-3.40180256861784	-0.923484742823355	-0.380028976205112	-3.40180256861784	-3.02177359241272	-0.921544838818195	-3.40180256861784	-0.380028976205112	-3.40180256861784	-4.772572076883565	-0.9101597753278936	-1.9181444947124402	-4.6114775260732195	-3.8682146247389784	-1.2395511389620792	-4.6114775260732195	-6.564360673651344	-3.3805942201815937	-2.470434444853706	-3.8843030542152484	-2.645318966570411	4	missed	0.0
227.5372119999954	6.108155300026283	nogo_punish	1.0	227.56588939996414	229.11069819994736	231.63606649998087	1.5448087999832296	228.56319100002293	230.6162216999801	232.64982509997208	0.5475071999244392	1.019844800000783	1.0242196000183412	n/a	1.0	n/a	2	0	95	4	nogo_punish	1	-1	0	0	0	1	0	n/a	n/a	0	1.0	1.0	1742.8246283000335	1970.3905176999976	1971.3878193000564	1971.9353264999809	1973.4408500000136	1974.4606948000144	n/a	n/a	1975.4744534000056	1976.498673000024	2019-12-11 16:44:59.403254	3.58888725820496	-4.66507774292978	-0.521637227544486	-0.971103410462075	-4.11052448574945	-0.521637227544486	-3.58888725820496	-0.521637227544486	-4.66507774292978	-0.521637227544486	-4.11052448574945	0.521637227544486	-0.3430461095356536	-5.661677398824025	-1.731312184999866	-3.915833292377698	-4.970046648506417	-1.731312184999866	-1.2701513692232937	-3.5222024715209677	-3.1791563619853163	-3.4843954429415396	-3.908594140882351	4	missed	0.0
233.68939920002572	6.491738999960944	go_punish	0.2315310999983921	233.71807659999445	235.4999934999505	238.05359659995884	1.7819168999560588	234.71428940002806	237.033736299956	239.06849959993292	0.785704099922441	1.019860300002847	1.1413160000224707	n/a	1.0	n/a	2	0	96	3	go_punish	1	0	-1	1	1	1	1	n/a	n/a	0	0.2315310999983921	1.0	1742.8246283000335	1976.542704900028	1977.5389177000616	1978.324621799984	1979.8583645999895	1980.8782248999923	n/a	n/a	1981.8931278999664	1983.034443899989	2019-12-11 16:44:59.403254	1.61533637991937	-2.72643055520515	-3.40180256861784	-2.72796048781018	-1.78646618869847	-3.40180256861784	-1.61533637991937	-2.72643055520515	-3.40180256861784	-1.78646618869847	-3.40180256861784	2.72643055520515	-2.316596987821243	-3.7230302110993954	-4.6114775260732195	-5.672690369725803	-2.645988351455437	-4.6114775260732195	0.9346419584373702	-4.787031432674952	-2.470434444853706	-5.689188770602204	-2.645318966570411	4	missed	0.0
240.2230035000248	7.093409799970686	go_punish	0.0276891000103205	240.25168089999352	243.0347645999866	245.57455369993136	2.7830836999930852	241.26444129995048	244.57497660000809	246.5876362000124	1.7703233000361251	0.9995770999232718	0.7574544999517911	n/a	1.0	n/a	2	0	97	3	go_punish	1	0	-1	1	1	1	0	n/a	n/a	0	0.0276891000103205	1.0	1742.8246283000335	1983.076309200027	1984.089069599984	1985.85939290002	1987.3996049000416	1988.3991819999649	n/a	n/a	1989.412264500046	1990.1697189999977	2019-12-11 16:44:59.403254	2.44864090629278	-1.65950513265205	-3.40180256861784	-1.66071672414482	-0.953161662325057	-3.40180256861784	-2.44864090629278	-1.65950513265205	-3.40180256861784	-0.953161662325057	-3.40180256861784	1.65950513265205	-1.4832924614478333	-2.656104788546295	-4.6114775260732195	-4.605446606060443	-1.812683825082024	-4.6114775260732195	-0.13228346411572978	-3.9537269063015383	-2.470434444853706	-4.6222633480491035	-2.645318966570411	4	missed	0.0
247.34577839996177	5.954476600047656	go_reward	0.0358099000295624	247.3744557999305	248.7398825000273	251.26982569997176	1.3654267000968048	248.3810281000333	250.25598519993946	252.2720029000193	0.3588543999940157	1.0138405000323019	1.0569294999588692	n/a	1.0	n/a	2	0	98	1	go_reward	1	1	0	1	1	1	0	n/a	n/a	1	0.0358099000295624	1.0	1742.8246283000335	1990.199084099964	1991.2056564000668	1991.5645108000608	1993.080613499973	1994.0944540000053	n/a	n/a	1995.0966312000528	1996.1535607000117	2019-12-11 16:44:59.403254	5.94010642373754	7.30216623495228	0.0	7.30216623495228	5.94010642373754	0.0	-5.94010642373754	7.30216623495228	0.0	5.94010642373754	0.0	12.619085129459622	2.008173055996927	6.305566579058034	-1.20967495745538	4.357436353036656	5.080584260980573	-1.20967495745538	10.827296532691841	2.9395411797610587	0.931368123764134	4.339408019555226	0.7564836020474288	4	missed	0.0
253.34341400000267	6.404755100025795	nogo_reward	1.0	253.3720913999714	254.88437340001133	257.41093649994605	1.5122820000399315	254.37936509994324	256.3974814999385	258.4244939000346	0.5050083000680843	1.013455000007525	1.3523525999626145	n/a	1.0	n/a	2	0	99	2	nogo_reward	0	1	0	0	0	1	0	n/a	n/a	0	1.0	1.0	1742.8246283000335	1996.196719700005	1997.2039933999768	1997.7090017000448	1999.222109799972	2000.2355647999796	n/a	n/a	2001.249122200068	2002.6014748000307	2019-12-11 16:44:59.403254	23.476444048983	0.0	19.3959749051877	19.3959749051877	-4.08046914379536	19.3959749051877	-23.476444048983	19.3959749051877	0.0	19.3959749051877	-4.08046914379536	-19.3959749051877	19.54451068124239	-0.9965996558942452	18.18629994773232	16.451245023272076	-4.9399913065523275	18.18629994773232	-21.18776350195548	16.395409661211218	-3.1491010200312264	16.433216689790648	0.7564836020474288	4	missed	0.0
259.77277120004874	6.759720499976538	nogo_punish	1.0	259.80144860001747	262.1289308000121	264.6658178999785	2.32748219999462	260.80309279996413	263.6457492000193	265.67738719994645	1.325838000047952	1.0200686999592108	0.883781900047552	n/a	1.0	n/a	2	0	100	4	nogo_punish	1	-1	0	0	0	1	0	n/a	n/a	0	1.0	1.0	1742.8246283000335	2002.626076900051	2003.6277210999976	2004.9535591000456	2006.4703775000528	2007.490446200012	n/a	n/a	2008.50201549998	2009.3857974000275	2019-12-11 16:44:59.403254	3.83086568163569	-4.66507774292978	-0.352877253336749	-0.650121853044874	-4.18374293497244	-0.352877253336749	-3.83086568163569	-0.352877253336749	-4.66507774292978	-0.352877253336749	-4.18374293497244	0.352877253336749	-0.10106768610492356	-5.661677398824025	-1.562552210792129	-3.594851734960497	-5.043265097729408	-1.562552210792129	-1.4389113434310308	-3.353442497313231	-3.2523748112083064	-3.3156354687338023	-3.908594140882351	4	missed	0.0
266.5793416999513	7.549328000051673	go_punish	0.1144655999960377	266.60801909992006	269.1490027999969	271.675817499985	2.540983700076822	267.6035171999829	270.6558831	272.67991429998096	1.5454856000139898	1.0199343999850043	1.4774327999907655	n/a	1.0	n/a	2	0	101	3	go_punish	1	0	-1	1	1	1	0	n/a	n/a	0	0.1144655999960377	1.0	1742.8246283000335	2009.4326473999536	2010.4281455000164	2011.9736311000304	2013.4805114000335	2014.5004458000185	n/a	n/a	2015.5045426000145	2016.9819754000052	2019-12-11 16:44:59.403254	2.92822212938494	-1.04274421198604	-3.40180256861784	-1.04370743410948	-0.473580439232897	-3.40180256861784	-2.92822212938494	-1.04274421198604	-3.40180256861784	-0.473580439232897	-3.40180256861784	1.04274421198604	-1.0037112383556734	-2.039343867880285	-4.6114775260732195	-3.988437316025103	-1.3331026019898642	-4.6114775260732195	-0.7490443847817398	-3.4741456832093784	-2.470434444853706	-4.005502427383093	-2.645318966570411	4	missed	0.0
274.1691714000185	6.4095254000280875	nogo_reward	1.0	274.19784879998724	276.09499120002147	278.6305175999878	1.8971424000342267	275.19936069997493	277.607273199945	279.64044460002333	0.8956305000465363	1.0232444000428131	0.9669295999919996	n/a	1.0	n/a	2	0	102	2	nogo_reward	1	0	1	0	0	1	0	n/a	n/a	1	1.0	1.0	1742.8246283000335	2017.0224771000208	2018.0239890000084	2018.919619500055	2020.4319014999785	2021.4551459000213	n/a	n/a	2022.4650729000568	2023.4320025000488	2019-12-11 16:44:59.403254	13.9989302283193	0.0	11.6507684572804	11.6507684572804	-2.34816177103894	11.6507684572804	-13.9989302283193	11.6507684572804	0.0	11.6507684572804	-2.34816177103894	8.270482907131502	10.066996860578685	-0.9965996558942452	10.441093499825019	8.706038575364776	-3.207683933795907	10.441093499825019	6.478694310363722	8.650203213303918	-1.416793647274806	8.688010241883346	0.7564836020474288	4	missed	0.0
280.602337099961	7.504419200005486	nogo_punish	1.0	280.63101449992973	283.1114859000081	285.6271176999435	2.480471400078386	281.6439288000113	284.6274339000229	286.64214409992564	1.4675570999968386	0.9996837999206036	1.4932896000095752	n/a	1.0	n/a	2	0	103	4	nogo_punish	1	-1	0	0	0	1	0	n/a	n/a	0	1.0	1.0	1742.8246283000335	2023.4556427999632	2024.4685571000448	2025.9361142000416	2027.4520622000564	2028.451745999977	n/a	n/a	2029.4667723999592	2030.9600619999687	2019-12-11 16:44:59.403254	3.9881149255517	-4.66507774292978	-0.242996086891226	-0.443782922347489	-4.23111101244293	-0.242996086891226	-3.9881149255517	-0.242996086891226	-4.66507774292978	-0.242996086891226	-4.23111101244293	0.242996086891226	0.05618155781108669	-5.661677398824025	-1.452671044346606	-3.3885128042631125	-5.090633175199897	-1.452671044346606	-1.5487925098765538	-3.2435613308677076	-3.2997428886787956	-3.2057543022882795	-3.908594140882351	4	missed	0.0
288.1358732000226	7.360732399975177	go_reward	0.092230699956417	288.16455059999134	290.73640669998736	293.2907714999744	2.571856099996012	289.1620057999389	292.26762769999937	294.3017307999544	1.5744009000484311	1.0231437999750597	1.2235522000121364	n/a	1.0	n/a	2	0	104	1	go_reward	1	1	0	1	1	1	0	n/a	n/a	1	0.092230699956417	1.0	1742.8246283000335	2030.9891789000249	2031.9866340999724	2033.5610350000209	2035.0922560000329	2036.115399800008	n/a	n/a	2037.126359099988	2038.3499113	2019-12-11 16:44:59.403254	10.0399406215871	12.5654178121005	0.0	12.5654178121005	10.0399406215871	0.0	-10.0399406215871	12.5654178121005	0.0	10.0399406215871	0.0	7.355833552311401	6.108007253846486	11.568818156206255	-1.20967495745538	9.620687930184877	9.180418458830133	-1.20967495745538	5.564044955543621	7.039375377610618	0.931368123764134	9.602659596703447	0.7564836020474288	4	missed	0.0
295.52439619996585	7.2235328000970185	go_reward	0.0821730999741703	295.5530735999346	297.7324393999297	300.2717530999796	2.1793657999951392	296.56151329993736	299.2484793999465	301.283153299941	1.1709260999923572	1.0232737000330872	1.493453100090619	n/a	1.0	n/a	2	0	105	1	go_reward	1	1	0	1	1	1	0	n/a	n/a	1	0.0821730999741703	1.0	1742.8246283000335	2038.377701899968	2039.3861415999709	2040.5570676999632	2042.07310769998	2043.0963814000131	n/a	n/a	2044.1077815999745	2045.601234700065	2019-12-11 16:44:59.403254	12.3006880557	15.4813887366679	0.0	15.4813887366679	12.3006880557	0.0	-12.3006880557	15.4813887366679	0.0	12.3006880557	0.0	4.4398626277440005	8.368754687959386	14.484789080773655	-1.20967495745538	12.536658854752277	11.441165892943033	-1.20967495745538	2.648074030976221	9.300122811723519	0.931368123764134	12.518630521270847	0.7564836020474288	4	missed	0.0
302.77345259999856	6.969796900055371	nogo_punish	1.0	302.8021299999673	305.33320959995035	307.8588337999536	2.531079599983059	303.81177309993654	306.8389358000127	308.87253549997695	1.521436500013806	1.0198979999408948	0.8993914000457153	n/a	1.0	n/a	2	0	106	4	nogo_punish	1	-1	0	0	0	1	0	n/a	n/a	0	1.0	1.0	1742.8246283000335	2045.6267583000008	2046.63640139997	2048.157837899984	2049.663564100046	2050.683462099987	n/a	n/a	2051.6971638000105	2052.596555200056	2019-12-11 16:44:59.403254	4.09239051304786	-4.66507774292978	-0.169994715748812	-0.308172323710336	-4.26238522879667	-0.169994715748812	-4.09239051304786	-0.169994715748812	-4.66507774292978	-0.169994715748812	-4.26238522879667	0.169994715748812	0.16045714530724675	-5.661677398824025	-1.379669673204192	-3.2529022056259596	-5.121907391553637	-1.379669673204192	-1.6217938810189678	-3.170559959725294	-3.3310171050325357	-3.1327529311458657	-3.908594140882351	4	missed	0.0
309.77191110001877	6.7149628000333905	nogo_punish	1.0	309.8005884999875	311.6395305999322	314.17605150002055	1.8389420999446884	310.79724300000817	313.1562586999503	315.180797399953	0.8422875999240205	1.0197928000702632	1.3347539000678807	n/a	1.0	n/a	2	0	107	4	nogo_punish	1	-1	0	0	0	1	0	n/a	n/a	0	1.0	1.0	1742.8246283000335	2052.625216800021	2053.6218713000417	2054.4641588999657	2055.980886999984	2057.000679800054	n/a	n/a	2058.0054256999865	2059.3401796000544	2019-12-11 16:44:59.403254	4.1627930390685	-4.66507774292978	-0.120617048225335	-0.217286980134257	-4.28341008729384	-0.120617048225335	-4.1627930390685	-0.120617048225335	-4.66507774292978	-0.120617048225335	-4.28341008729384	0.120617048225335	0.23085967132788676	-5.661677398824025	-1.330292005680715	-3.1620168620498803	-5.142932250050807	-1.330292005680715	-1.6711715485424448	-3.1211822922018166	-3.3520419635297056	-3.0833752636223886	-3.908594140882351	4	missed	0.0
316.5322060000617	5.680070599890314	nogo_reward	1.0	316.56088340003043	317.9205938000232	320.46062509994954	1.359710399992764	317.5611967999721	319.43682359997183	321.4662270999979	0.35939700005110353	1.0238014999777079	0.7747268999228254	n/a	1.0	n/a	2	0	108	2	nogo_reward	1	0	1	0	0	1	0	n/a	n/a	1	1.0	1.0	1742.8246283000335	2059.385511700064	2060.3858251000056	2060.7452221000567	2062.2614519000053	2063.285253399983	n/a	n/a	2064.2908554000314	2065.0655822999543	2019-12-11 16:44:59.403254	18.2474559643442	0.0	15.1330939209121	15.1330939209121	-3.11436204343213	15.1330939209121	-18.2474559643442	15.1330939209121	0.0	15.1330939209121	-3.11436204343213	4.788157443499802	14.315522596603588	-0.9965996558942452	13.923418963456719	12.188364038996475	-3.9738842061890973	13.923418963456719	2.9963688467320226	12.132528676935618	-2.182993919667996	12.170335705515045	0.7564836020474288	4	missed	0.0
322.23904590005986	7.0828505998943	go_reward	0.2223524000728503	322.2677233000286	324.5472277000081	327.0954148999881	2.279504399979487	323.2672727999743	326.0743973000208	328.10722689994145	1.279954900033772	1.0210175999673083	1.2433469999814406	n/a	1.0	n/a	2	0	109	1	go_reward	0	0	1	1	1	1	0	n/a	n/a	0	0.2223524000728503	1.0	1742.8246283000335	2065.092351600062	2066.091901100008	2067.3718560000416	2068.8990256000543	2069.9200432000216	n/a	n/a	2070.931855199975	2072.1752021999564	2019-12-11 16:44:59.403254	13.59722195192	17.1600415677814	0.0	17.1600415677814	13.59722195192	0.0	-13.59722195192	17.1600415677814	0.0	13.59722195192	0.0	-17.1600415677814	9.665288584179386	16.163441911887155	-1.20967495745538	14.215311685865775	12.737699789163033	-1.20967495745538	-18.95183016454918	10.596656707943518	0.931368123764134	14.197283352384344	0.7564836020474288	4	missed	0.0
329.3502762999856	6.817410500021197	go_reward	0.1315600000089034	329.3789536999543	331.3754016000312	333.911333899945	1.9964479000768733	330.3862420999212	332.8913814999396	334.91439849999733	0.9891595001099631	1.0199524000054225	1.2819656999781728	n/a	1.0	n/a	2	0	110	1	go_reward	0	0	1	1	1	1	0	n/a	n/a	0	0.1315600000089034	1.0	1742.8246283000335	2072.203581999988	2073.2108703999547	2074.2000299000647	2075.716009799973	2076.7359621999785	n/a	n/a	2077.739026800031	2079.020992500009	2019-12-11 16:44:59.403254	8.23106109292835	10.2536586580155	0.0	10.2536586580155	8.23106109292835	0.0	-8.23106109292835	10.2536586580155	0.0	8.23106109292835	0.0	-10.2536586580155	4.299127725187736	9.257059002121254	-1.20967495745538	7.308928776099876	7.371538930171383	-1.20967495745538	-12.04544725478328	5.230495848951868	0.931368123764134	7.290900442618446	0.7564836020474288	4	missed	0.0
336.21073579997756	6.567949100048281	nogo_reward	1.0	336.2394131999463	337.8130632999819	340.3482391999569	1.573650100035593	337.2468010999728	339.3215676000109	341.3608480999246	0.5662622000090778	1.0266715999459848	1.4465142000699416	n/a	1.0	n/a	2	0	111	2	nogo_reward	1	0	1	0	0	1	0	n/a	n/a	1	1.0	1.0	1742.8246283000335	2079.06404149998	2080.0714294000063	2080.6376916000154	2082.1461959000444	2083.1728674999904	n/a	n/a	2084.185476399958	2085.631990600028	2019-12-11 16:44:59.403254	20.5876268464387	0.0	17.0451500448021	17.0451500448021	-3.54247680163655	17.0451500448021	-20.5876268464387	17.0451500448021	0.0	17.0451500448021	-3.54247680163655	2.876101319609802	16.655693478698087	-0.9965996558942452	15.835475087346719	14.100420162886476	-4.401998964393517	15.835475087346719	1.0843127228420222	14.044584800825618	-2.611108677872416	14.082391829405045	0.7564836020474288	4	missed	0.0
342.80235999997194	5.854575900012151	nogo_punish	1.0	342.83103739994067	344.2321066999575	346.74889379995875	1.401069300016843	343.8422042999882	345.7277871000115	347.76223689992867	0.3899023999692872	1.0211066999472678	0.9233764000241536	n/a	1.0	n/a	2	0	112	4	nogo_punish	1	-1	0	0	0	1	0	n/a	n/a	0	1.0	1.0	1742.8246283000335	2085.655665699974	2086.6668326000217	2087.056734999991	2088.552415400045	2089.5735220999923	n/a	n/a	2090.586865199962	2091.5102415999863	2019-12-11 16:44:59.403254	4.2110977689987	-4.66507774292978	-0.0866771017876579	-0.155307681225455	-4.29777487078636	-0.0866771017876579	-4.2110977689987	-0.0866771017876579	-4.66507774292978	-0.0866771017876579	-4.29777487078636	0.0866771017876579	0.2791644012580865	-5.661677398824025	-1.296352059243038	-3.100037563141078	-5.157297033543327	-1.296352059243038	-1.7051114949801218	-3.0872423457641394	-3.366406747022226	-3.0494353171847113	-3.908594140882351	4	missed	0.0
348.6861146000447	6.3723676999798045	go_reward	0.1601772999856621	348.7147920000134	350.0454152999446	352.5886273999927	1.330623299931176	349.7188390999795	351.56910900003277	353.6023362999549	0.3265761999650749	1.0195183999599067	1.4848234000382945	n/a	1.0	n/a	2	0	113	1	go_reward	0	0	1	1	1	1	0	n/a	n/a	0	0.1601772999856621	1.0	1742.8246283000335	2091.539420300047	2092.543467400013	2092.870043599978	2094.3937373000663	2095.413255700026	n/a	n/a	2096.4269645999884	2097.9117880000267	2019-12-11 16:44:59.403254	5.19944000183796	6.33474361263757	0.0	6.33474361263757	5.19944000183796	0.0	-5.19944000183796	6.33474361263757	0.0	5.19944000183796	0.0	-6.33474361263757	1.2675066340973467	5.338143956743324	-1.20967495745538	3.3900137307219462	4.339917839080993	-1.20967495745538	-8.12653220940535	2.1988747578614785	0.931368123764134	3.371985397240516	0.7564836020474288	4	missed	0.0
355.10277280001856	6.227823499939859	nogo_reward	1.0	355.1314501999873	356.41434309992474	358.9547427999787	1.2828928999374511	356.1345113000134	357.9309184999438	359.9640761000337	0.2798317999113351	1.023824300034903	1.3951975998934358	n/a	1.0	n/a	2	0	114	2	nogo_reward	1	0	1	0	0	1	0	n/a	n/a	1	1.0	1.0	1742.8246283000335	2097.956078500021	2098.959139600047	2099.2389713999582	2100.7555467999773	2101.779371100012	n/a	n/a	2102.788704400067	2104.1839019999607	2019-12-11 16:44:59.403254	21.9289588859354	0.0	18.1383234593069	18.1383234593069	-3.7906354266285	18.1383234593069	-21.9289588859354	18.1383234593069	0.0	18.1383234593069	-3.7906354266285	1.7829279051050015	17.99702551819479	-0.9965996558942452	16.92864850185152	15.193593577391276	-4.650157589385467	16.92864850185152	-0.008860691662778253	15.137758215330418	-2.859267302864366	15.175565243909846	0.7564836020474288	4	missed	0.0
361.3739530000603	6.624245899962261	go_punish	0.3563817000249401	361.402630400029	363.0652147999499	365.6080816999315	1.6625843999208882	362.41030749992933	364.59688690002076	366.62739439995494	0.6549073000205681	1.0111947999107542	1.399481900036335	n/a	1.0	n/a	2	0	115	3	go_punish	1	0	-1	1	1	1	0	n/a	n/a	0	0.3563817000249401	1.0	1742.8246283000335	2104.2272587000625	2105.234935799963	2105.8898430999834	2107.4215152000543	2108.432709999965	n/a	n/a	2109.4520226999884	2110.851504600025	2019-12-11 16:44:59.403254	3.21448803514968	-0.67327272223622	-3.40180256861784	-0.674041296914727	-0.187314533468151	-3.40180256861784	-3.21448803514968	-0.67327272223622	-3.40180256861784	-0.187314533468151	-3.40180256861784	0.67327272223622	-0.7174453325909336	-1.6698723781304652	-4.6114775260732195	-3.6187711788303503	-1.046836696225118	-4.6114775260732195	-1.1185158745315598	-3.187879777444633	-2.470434444853706	-3.6360309376332736	-2.645318966570411	4	missed	0.0
368.027388800052	6.2000527000059265	go_reward	0.194005100056529	368.0560662000207	369.4985603999812	372.0502368999878	1.4424941999604926	369.0616754000075	371.02642879995983	373.05950979993213	0.43688499997369945	1.0238081000279635	1.1966091000945198	n/a	1.0	n/a	2	0	116	1	go_reward	1	1	0	1	1	1	0	n/a	n/a	1	0.194005100056529	1.0	1742.8246283000335	2110.8806945000542	2111.886303700041	2112.3231887000147	2113.8510570999933	2114.8748652000213	n/a	n/a	2115.8841380999656	2117.08074720006	2019-12-11 16:44:59.403254	3.42016939093562	4.02675083046557	0.0	4.02675083046557	3.42016939093562	0.0	-3.42016939093562	4.02675083046557	0.0	3.42016939093562	0.0	15.894500533946331	-0.5117639768049935	3.0301511745713245	-1.20967495745538	1.0820209485499466	2.5606472281786528	-1.20967495745538	14.102711937178551	0.4196041469591383	0.931368123764134	1.0639926150685164	0.7564836020474288	4	missed	0.0
374.27040819998365	6.2781224000500515	nogo_reward	1.0	374.2990855999524	376.09690380003303	378.6361823999323	1.7978182000806555	375.30932380002923	377.6131789999786	379.6465787999332	0.7875800000037998	1.0230033999537227	0.9306292000692338	n/a	1.0	n/a	2	0	117	2	nogo_reward	1	0	1	0	0	1	0	n/a	n/a	1	1.0	1.0	1742.8246283000335	2117.123713899986	2118.1339521000627	2118.9215321000665	2120.437807300012	2121.460810699966	n/a	n/a	2122.4712070999667	2123.401836300036	2019-12-11 16:44:59.403254	22.7245536352954	0.0	18.7854240807685	18.7854240807685	-3.93912955452694	18.7854240807685	-22.7245536352954	18.7854240807685	0.0	18.7854240807685	-3.93912955452694	1.1358272836434011	18.79262026755479	-0.9965996558942452	17.57574912331312	15.840694198852876	-4.7986517172839065	17.57574912331312	-0.6559613131243787	15.784858836792019	-3.0077614307628058	15.822665865371446	0.7564836020474288	4	missed	0.0
380.5750707000261	7.658111699973233	go_reward	0.0807672999799251	380.60374809999485	383.3109307999257	385.8451973999622	2.707182699930854	381.60893009998836	384.84243039996363	386.84507189993747	1.7020006999373436	1.0027669999985847	1.416787900030613	n/a	1.0	n/a	2	0	118	1	go_reward	1	1	0	1	1	1	1	n/a	n/a	1	0.0807672999799251	1.0	1742.8246283000335	2123.4283764000284	2124.433558400022	2126.135559099959	2127.667058699997	2128.6698256999957	n/a	n/a	2129.669700199971	2131.0864881000016	2019-12-11 16:44:59.403254	8.47651361995072	10.5286280160248	0.0	10.5286280160248	8.47651361995072	0.0	-8.47651361995072	10.5286280160248	0.0	8.47651361995072	0.0	9.392623348387101	4.544580252210107	9.532028360130555	-1.20967495745538	7.583898134109177	7.616991457193754	-1.20967495745538	7.600834751619321	5.475948375974239	0.931368123764134	7.5658698006277465	0.7564836020474288	4	missed	0.0
388.2635144999949	7.32896489999257	go_reward	0.146922199986875	388.29219189996365	391.12175339995883	393.65895149996504	2.8295614999951795	389.29675969993696	392.6438763999613	394.6663913999223	1.8249937000218779	1.0150751000037417	0.9547654000339207	n/a	1.0	n/a	2	0	119	1	go_reward	0	0	1	1	1	1	0	n/a	n/a	0	0.146922199986875	1.0	1742.8246283000335	2131.116820199997	2132.1213879999705	2133.9463816999923	2135.468504699995	2136.4835797999986	n/a	n/a	2137.491019699956	2138.4457850999897	2019-12-11 16:44:59.403254	11.3049718846334	14.1820130737225	0.0	14.1820130737225	11.3049718846334	0.0	-11.3049718846334	14.1820130737225	0.0	11.3049718846334	0.0	-14.1820130737225	7.373038516892786	13.185413417828254	-1.20967495745538	11.237283191806876	10.445449721876432	-1.20967495745538	-15.97380167049028	8.304406640656918	0.931368123764134	11.219254858325446	0.7564836020474288	4	missed	0.0
395.6337478000205	6.563668399932794	nogo_reward	1.0	395.66242519998923	397.4423707999522	399.9816176999593	1.7799455999629572	396.6776382999956	398.9584096999606	400.9828902999875	0.7647324999566081	1.0232079999987036	1.243203299934521	n/a	1.0	n/a	2	0	120	2	nogo_reward	1	0	1	0	0	1	0	n/a	n/a	1	1.0	1.0	1742.8246283000335	2138.4870535000227	2139.502266600029	2140.2669990999857	2141.783037999994	2142.806245999993	n/a	n/a	2143.807518600021	2145.0507218999555	2019-12-11 16:44:59.403254	23.210699194703	0.0	19.1802133063509	19.1802133063509	-4.03048588835207	19.1802133063509	-23.210699194703	19.1802133063509	0.0	19.1802133063509	-4.03048588835207	0.741038058061001	19.27876582696239	-0.9965996558942452	17.97053834889552	16.235483424435277	-4.890008051109037	17.97053834889552	-1.0507505387067788	16.17964806237442	-3.0991177645879358	16.217455090953848	0.7564836020474288	4	missed	0.0
