onset	duration	trial_type	response_time	cueOnset	targetOnset	fbOnset	cueRT	firstfixOnset	secondfixOnset	waitOnset	firstfixdur	secondfixdur	waitdur	nback_fbOnset	nback_response_time	nback_targetOnset	block	wm	trial	cue	cond	is_common	outcome_go	outcome_nogo	key_correct	key_pressed	is_correct	key_correct_nback	key_pressed_nback	is_correct_nback	outcome	rt	rt_nback	time_scan	time_onset	time_isi1	time_circle	time_isi2	time_feedback	time_same	time_correct	time_iti	time_done	timestamp_scan	DV	Qgo	Qnogo	SV	Wgo	Wnogo	mDV	Qchosen	Qunchosen	Wchosen	Wunchosen	PE	DVC	QgoC	QnogoC	SVC	WgoC	WnogoC	PEC	WchosenC	WunchosenC	QchosenC	QunchosenC	run	outcome_nback	nback_targetResp
0.0	7.2992772000143304	nogo_punish	0.593498200061731	0.02477049990557134	2.8008622999768704	5.362108199973591	2.776091800071299	1.029985399916768	4.337839599931613	6.37051199993607	1.7708769000601023	1.024268600041978	0.9535356999838314	n/a	1.0	n/a	2	0	1	4	nogo_punish	1	-1	0	0	1	0	0	n/a	n/a	-1	0.593498200061731	1.0	1269.2943146000616	1269.3190850999672	1270.3242999999784	1272.0951769000385	1273.6321541999932	1274.6564228000352	n/a	n/a	1275.6648265999977	1276.6183622999815	2019-12-11 16:37:05.879843	0.331451420903946	0.0	0.0	0.0	0.331451420903946	0.0	-0.331451420903946	0.0	0.0	0.331451420903946	0.0	-5.69411691570176	-3.6004819468366676	-0.9965996558942452	-1.20967495745538	-2.9447298819156233	-0.528070741853021	-1.20967495745538	-7.4859055124695395	-2.6691138230725358	0.931368123764134	-2.9627582153970535	0.7564836020474288	3	missed	0.0
7.351652399986051	7.254914900055155	nogo_reward	0.2733621000079438	7.376422899891622	9.943934599985369	12.479635700001381	2.567511700093746	8.379762599943206	11.466215399908833	13.48380109993741	1.5641720000421628	1.0134203000925481	1.1475367000093684	n/a	1.0	n/a	2	0	2	2	nogo_reward	1	0	1	0	1	0	0	n/a	n/a	0	0.2733621000079438	1.0	1269.2943146000616	1276.6707374999532	1277.6740772000048	1279.238249200047	1280.7605299999705	1281.773950300063	n/a	n/a	1282.778115699999	1283.9256524000084	2019-12-11 16:37:05.879843	0.331451420903946	0.0	0.0	0.0	0.331451420903946	0.0	-0.331451420903946	0.0	0.0	0.331451420903946	0.0	0.0	-3.6004819468366676	-0.9965996558942452	-1.20967495745538	-2.9447298819156233	-0.528070741853021	-1.20967495745538	-1.7917885967677798	-2.6691138230725358	0.931368123764134	-2.9627582153970535	0.7564836020474288	3	missed	0.0
14.646775200031698	6.891750799957663	nogo_reward	0.2954716000240296	14.671545699937269	17.09777120000217	19.651499799918383	2.426225500064902	15.672285499982536	18.630578899988677	20.662239699973725	1.4254857000196353	1.0209208999297061	0.9010567999212071	n/a	1.0	n/a	2	0	3	2	nogo_reward	1	0	1	0	1	0	0	n/a	n/a	0	0.2954716000240296	1.0	1269.2943146000616	1283.965860299999	1284.9666001000442	1286.3920858000638	1287.9248935000503	1288.94581439998	n/a	n/a	1289.9565543000354	1290.8576110999566	2019-12-11 16:37:05.879843	0.331451420903946	0.0	0.0	0.0	0.331451420903946	0.0	-0.331451420903946	0.0	0.0	0.331451420903946	0.0	0.0	-3.6004819468366676	-0.9965996558942452	-1.20967495745538	-2.9447298819156233	-0.528070741853021	-1.20967495745538	-1.7917885967677798	-2.6691138230725358	0.931368123764134	-2.9627582153970535	0.7564836020474288	3	missed	0.0
21.588881200063042	6.317717700032517	go_punish	1.0	21.613651699968614	23.169599999906268	25.708596699987538	1.5559482999376542	22.617428399971686	24.685575099894777	26.724351199925877	0.5521715999345815	1.0230216000927612	1.2070182000752538	n/a	1.0	n/a	2	0	4	3	go_punish	1	0	-1	1	0	0	0	n/a	n/a	-1	1.0	1.0	1269.2943146000616	1290.9079663000302	1291.9117430000333	1292.463914599968	1293.9798896999564	1295.0029113000492	n/a	n/a	1296.0186657999875	1297.2256840000628	2019-12-11 16:37:05.879843	-0.331451420903946	0.0	0.0	0.0	0.331451420903946	0.0	0.331451420903946	0.0	0.0	0.0	0.331451420903946	-5.69411691570176	-4.26338478864456	-0.9965996558942452	-1.20967495745538	-2.9447298819156233	-0.528070741853021	-1.20967495745538	-7.4859055124695395	-3.0005652439764816	1.26281954466808	-2.9627582153970535	0.7564836020474288	3	missed	0.0
27.9321757000871	6.99672479997389	nogo_punish	0.4313944999594241	27.95694619999267	30.46494039997924	33.019811999984086	2.5079941999865696	28.950658799964003	32.00544889993034	34.03835159994196	1.514281600015238	1.0143631000537425	0.9153194000246003	n/a	1.0	n/a	2	0	5	4	nogo_punish	1	-1	0	0	1	0	0	n/a	n/a	-1	0.4313944999594241	1.0	1269.2943146000616	1297.2512608000543	1298.2449734000256	1299.7592550000409	1301.299763499992	1302.3141266000457	n/a	n/a	1303.3326662000036	1304.2479856000282	2019-12-11 16:37:05.879843	-1.32953928649863	-2.13333166080731	0.0	-2.13333166080731	-1.32953928649863	0.0	1.32953928649863	-2.13333166080731	0.0	-1.32953928649863	0.0	-3.56078525489445	-5.261472654239244	-3.1299313167015548	-1.20967495745538	-5.078061542722933	-2.189061449255597	-1.20967495745538	-5.35257385166223	-4.330104530475111	0.931368123764134	-5.096089876204363	0.7564836020474288	3	missed	0.0
34.97169090004172	7.310806700028479	go_punish	0.5571780999889597	34.99646139994729	37.713173499912955	40.25048709998373	2.7167120999656618	36.004271199926734	39.23708819993749	41.26280189992394	1.708902299986221	1.0133989000462407	1.0444662000518292	n/a	1.0	n/a	2	0	6	3	go_punish	1	0	-1	1	1	1	1	n/a	n/a	0	0.5571780999889597	1.0	1269.2943146000616	1304.290776000009	1305.2985857999884	1307.0074880999746	1308.5314027999991	1309.5448017000454	n/a	n/a	1310.5571164999856	1311.6015827000374	2019-12-11 16:37:05.879843	2.93712403511598	0.0	-2.13333166080731	-2.13333166080731	0.803792374308672	-2.13333166080731	-2.93712403511598	0.0	-2.13333166080731	0.803792374308672	-2.13333166080731	0.0	-0.9948093326246332	-0.9965996558942452	-3.34300661826269	-5.078061542722933	-0.055729788448295126	-3.34300661826269	-1.7917885967677798	-2.1967728696678095	-1.2019635370431758	-2.9627582153970535	-1.376848058759881	3	missed	0.0
42.3240899000084	7.1180479000324794	nogo_reward	1.0	42.348860399913974	44.880844299914315	47.406787899904884	2.5319839000003412	43.35088599997107	46.396286099916324	48.41068450000603	1.529958299943246	1.0105017999885604	1.056223799940426	n/a	1.0	n/a	2	0	7	2	nogo_reward	0	1	0	0	0	1	0	n/a	n/a	0	1.0	1.0	1269.2943146000616	1311.6431749999756	1312.6452006000327	1314.175158899976	1315.690600699978	1316.7011024999665	n/a	n/a	1317.7049991000677	1318.761222900008	2019-12-11 16:37:05.879843	-0.331451420903946	0.0	0.0	0.0	0.331451420903946	0.0	0.331451420903946	0.0	0.0	0.0	0.331451420903946	0.0	-4.26338478864456	-0.9965996558942452	-1.20967495745538	-2.9447298819156233	-0.528070741853021	-1.20967495745538	-1.7917885967677798	-3.0005652439764816	1.26281954466808	-2.9627582153970535	0.7564836020474288	3	missed	0.0
49.485109200002626	6.262870700098574	nogo_reward	1.0	49.5098796999082	50.94655819993932	53.47711979993619	1.436678500031121	50.517327199922875	52.46271180000622	54.48137329996098	0.42923100001644343	1.014407999929972	1.2913771000457928	n/a	1.0	n/a	2	0	8	2	nogo_reward	1	0	1	0	0	1	0	n/a	n/a	1	1.0	1.0	1269.2943146000616	1318.8041942999698	1319.8116417999845	1320.240872800001	1321.7570264000678	1322.7714343999978	n/a	n/a	1323.7756879000226	1325.0670650000684	2019-12-11 16:37:05.879843	-0.331451420903946	0.0	0.0	0.0	0.331451420903946	0.0	0.331451420903946	0.0	0.0	0.0	0.331451420903946	19.9212513644119	-4.26338478864456	-0.9965996558942452	-1.20967495745538	-2.9447298819156233	-0.528070741853021	-1.20967495745538	18.12946276764412	-3.0005652439764816	1.26281954466808	-2.9627582153970535	0.7564836020474288	3	missed	0.0
55.79107889998704	6.52820870000869	go_punish	1.0	55.81584939989261	57.37666449998528	59.91130599996541	1.5608151000926682	56.82317210000474	58.88826749997679	60.928970599896275	0.5534923999805414	1.0230384999886155	1.4150875000050291	n/a	1.0	n/a	2	0	9	3	go_punish	1	0	-1	1	0	0	0	n/a	n/a	-1	1.0	1.0	1269.2943146000616	1325.1101639999542	1326.1174867000664	1326.670979100047	1328.1825821000384	1329.205620600027	n/a	n/a	1330.223285199958	1331.638372699963	2019-12-11 16:37:05.879843	-2.74943270002572	0.0	-2.13333166080731	-1.26847090781053	0.616101039218417	-2.13333166080731	2.74943270002572	-2.13333166080731	0.0	-2.13333166080731	0.616101039218417	-3.56078525489445	-6.681366067766334	-0.9965996558942452	-3.34300661826269	-4.213200789726153	-0.24342112353855017	-3.34300661826269	-5.35257385166223	-5.133896904783791	1.547469162982551	-5.096089876204363	0.7564836020474288	3	missed	0.0
62.34218320006039	6.147589699947275	nogo_punish	1.0	62.36695369996596	63.721824399893876	66.26052129990421	1.3548706999279148	63.37731359992176	65.23745649994817	67.26195559999928	0.3445107999721131	1.023064799956046	1.2525877999139539	n/a	1.0	n/a	2	0	10	4	nogo_punish	0	0	-1	0	0	1	0	n/a	n/a	-1	1.0	1.0	1269.2943146000616	1331.6612683000276	1332.6716281999834	1333.0161389999555	1334.5317711000098	1335.5548358999658	n/a	n/a	1336.556270200061	1337.8088579999749	2019-12-11 16:37:05.879843	2.31336057599469	-3.40180256861784	0.0	-3.40180256861784	-2.31336057599469	0.0	-2.31336057599469	0.0	-3.40180256861784	0.0	-2.31336057599469	-5.69411691570176	-1.6185727917459234	-4.398402224512085	-1.20967495745538	-6.346532450533463	-3.172882738751657	-1.20967495745538	-7.4859055124695395	-3.0005652439764816	-1.381992452230556	-2.9627582153970535	-2.645318966570411	3	missed	0.0
68.53299530001823	6.261684100027196	nogo_reward	1.0	68.5577657999238	70.2960987999104	72.83597559994087	1.7383329999865964	69.5631669999566	71.81277809990547	73.84094129991718	0.7329317999538034	1.0231975000353941	0.9785086000338197	n/a	1.0	n/a	2	0	11	2	nogo_reward	1	0	1	0	0	1	0	n/a	n/a	1	1.0	1.0	1269.2943146000616	1337.8520803999854	1338.8574816000182	1339.590413399972	1341.107092699967	1342.1302902000025	n/a	n/a	1343.1352558999788	1344.1137645000126	2019-12-11 16:37:05.879843	9.34364225236388	0.0	7.90517958545183	7.90517958545183	-1.43846266691205	7.90517958545183	-9.34364225236388	7.90517958545183	0.0	7.90517958545183	-1.43846266691205	12.016071778960072	5.411708884623266	-0.9965996558942452	6.695504627996449	4.960449703536206	-2.297984829669017	6.695504627996449	10.224283182192291	4.904614341475348	-0.5070945431479159	4.942421370054776	0.7564836020474288	3	missed	0.0
74.82601190009154	6.3653422999195755	go_reward	1.0	74.85078239999712	76.18768789991736	78.72505109990016	1.336905499920249	75.86006669991207	77.70129659993108	79.73845780000556	0.3276212000052965	1.0237544999690726	1.477666899911128	n/a	1.0	n/a	2	0	12	1	go_reward	1	1	0	1	0	0	0	n/a	n/a	0	1.0	1.0	1269.2943146000616	1344.1450970000587	1345.1543812999737	1345.482002499979	1346.9956111999927	1348.0193656999618	n/a	n/a	1349.0327724000672	1350.5104392999783	2019-12-11 16:37:05.879843	-0.331451420903946	0.0	0.0	0.0	0.331451420903946	0.0	0.331451420903946	0.0	0.0	0.0	0.331451420903946	0.0	-4.26338478864456	-0.9965996558942452	-1.20967495745538	-2.9447298819156233	-0.528070741853021	-1.20967495745538	-1.7917885967677798	-3.0005652439764816	1.26281954466808	-2.9627582153970535	0.7564836020474288	3	missed	0.0
81.21533850010019	6.936180699965917	go_reward	1.0	81.24010900000576	83.24573149997741	85.78224259999115	2.0056224999716505	82.24838979996275	84.76255709992256	86.79525729990564	0.9973417000146583	1.01968550006859	1.381032400066033	n/a	1.0	n/a	2	0	13	1	go_reward	1	1	0	1	0	0	0	n/a	n/a	0	1.0	1.0	1269.2943146000616	1350.5344236000674	1351.5427044000244	1352.540046100039	1354.0568716999842	1355.0765572000528	n/a	n/a	1356.0895718999673	1357.4706043000333	2019-12-11 16:37:05.879843	-0.331451420903946	0.0	0.0	0.0	0.331451420903946	0.0	0.331451420903946	0.0	0.0	0.0	0.331451420903946	0.0	-4.26338478864456	-0.9965996558942452	-1.20967495745538	-2.9447298819156233	-0.528070741853021	-1.20967495745538	-1.7917885967677798	-3.0005652439764816	1.26281954466808	-2.9627582153970535	0.7564836020474288	3	missed	0.0
88.19442000007257	6.56974209996406	nogo_reward	1.0	88.21919049997814	89.8990304999752	92.40428329992574	1.679839999997057	89.22732319997158	91.3951381999068	93.40546019992325	0.671707300003618	1.0091451000189409	1.3834724000189453	n/a	1.0	n/a	2	0	14	2	nogo_reward	1	0	1	0	0	1	0	n/a	n/a	1	1.0	1.0	1269.2943146000616	1357.5135051000398	1358.5216378000332	1359.1933451000368	1360.6894527999684	1361.6985978999874	n/a	n/a	1362.6997747999849	1364.0832472000038	2019-12-11 16:37:05.879843	14.9032277270228	0.0	12.4357023453986	12.4357023453986	-2.46752538162421	12.4357023453986	-14.9032277270228	12.4357023453986	0.0	12.4357023453986	-2.46752538162421	7.485549019013302	10.971294359282187	-0.9965996558942452	11.226027387943219	9.490972463482976	-3.3270475443811773	11.226027387943219	5.693760422245522	9.435137101422118	-1.5361572578600762	9.472944130001546	0.7564836020474288	3	missed	0.0
94.78759540000465	6.330637300037779	nogo_punish	0.4709265000419691	94.81236589991022	96.68241009989288	99.23370029998478	1.870044199982658	95.8239855999127	98.21032109996327	100.24336279998533	0.858424499980174	1.023379200021509	0.8996403999626637	n/a	1.0	n/a	2	0	15	4	nogo_punish	1	-1	0	0	1	0	0	n/a	n/a	-1	0.4709265000419691	1.0	1269.2943146000616	1364.1066804999718	1365.1183001999743	1365.9767246999545	1367.504635700025	1368.5280149000464	n/a	n/a	1369.537677400047	1370.4373178000096	2019-12-11 16:37:05.879843	-0.0032911389911051	-3.40180256861784	-2.13333166080731	-4.18125236585114	-2.13662279979841	-2.13333166080731	0.0032911389911051	-3.40180256861784	-2.13333166080731	-2.13662279979841	-2.13333166080731	-2.29231434708392	-3.9352245067317186	-4.398402224512085	-3.34300661826269	-7.125982247766764	-2.9961449625553773	-3.34300661826269	-4.0841029438517	-5.137188043774891	-1.2019635370431758	-6.364560784014893	-1.376848058759881	3	missed	0.0
101.16001830005553	5.975212699966505	go_punish	0.4955327999778092	101.1847887999611	102.84094559994992	105.38398729998153	1.6561567999888211	102.18585479992907	104.36279529996682	106.39571379998233	0.6550908000208437	1.0211920000147074	0.764287699945271	n/a	1.0	n/a	2	0	16	3	go_punish	1	0	-1	1	1	1	0	n/a	n/a	0	0.4955327999778092	1.0	1269.2943146000616	1370.4791034000227	1371.4801693999907	1372.1352602000115	1373.6571099000284	1374.6783019000432	n/a	n/a	1375.690028400044	1376.4543160999892	2019-12-11 16:37:05.879843	4.38233271912279	0.0	-3.40180256861784	-2.91278145804061	0.980530150504952	-3.40180256861784	-4.38233271912279	0.0	-3.40180256861784	0.980530150504952	-3.40180256861784	0.0	0.45039935138217624	-0.9965996558942452	-4.6114775260732195	-5.8575113399562335	0.12100798774798482	-4.6114775260732195	-1.7917885967677798	-2.0200350934715297	-2.470434444853706	-2.9627582153970535	-2.645318966570411	3	missed	0.0
107.16460360004567	5.922967000049539	go_reward	1.0	107.18937409995124	108.45811539993156	110.99028729996644	1.26874129998032	108.19203819998074	109.97440529998858	112.00530469999649	0.26607719995081425	1.0158819999778643	1.10703640000429	n/a	1.0	n/a	2	0	17	1	go_reward	1	1	0	1	0	0	0	n/a	n/a	0	1.0	1.0	1269.2943146000616	1376.4836887000129	1377.4863528000424	1377.7524299999932	1379.2687199000502	1380.284601900028	n/a	n/a	1381.299619300058	1382.4066557000624	2019-12-11 16:37:05.879843	-0.331451420903946	0.0	0.0	0.0	0.331451420903946	0.0	0.331451420903946	0.0	0.0	0.0	0.331451420903946	0.0	-4.26338478864456	-0.9965996558942452	-1.20967495745538	-2.9447298819156233	-0.528070741853021	-1.20967495745538	-1.7917885967677798	-3.0005652439764816	1.26281954466808	-2.9627582153970535	0.7564836020474288	3	missed	0.0
113.12881100003142	6.6672889000037685	go_punish	0.0431465000146999	113.15358149993699	115.06222789990716	117.60417409997899	1.9086463999701664	114.16444699990097	116.59291179990396	118.60866589995567	0.8977809000061825	1.0112623000750318	1.2122044999850914	n/a	1.0	n/a	2	0	18	3	go_punish	1	0	-1	1	1	1	1	n/a	n/a	0	0.0431465000146999	1.0	1269.2943146000616	1382.4478960999986	1383.4587615999626	1384.3565424999688	1385.8872263999656	1386.8984887000406	n/a	n/a	1387.9029805000173	1389.1151850000024	2019-12-11 16:37:05.879843	4.13049859498036	0.0	-3.40180256861784	-1.76114704533652	0.728696026362526	-3.40180256861784	-4.13049859498036	0.0	-3.40180256861784	0.728696026362526	-3.40180256861784	0.0	0.1985652272397469	-0.9965996558942452	-4.6114775260732195	-4.7058769272521435	-0.13082613639444118	-4.6114775260732195	-1.7917885967677798	-2.271869217613956	-2.470434444853706	-2.9627582153970535	-2.645318966570411	3	missed	0.0
119.81816030002665	6.45352850004565	nogo_punish	1.0	119.84293079993222	121.88546709995717	124.39924749999773	2.042536300024949	120.84742269990966	123.39799450000282	125.4127121999627	1.0380444000475109	1.0012529999949038	0.8837471000151709	n/a	1.0	n/a	2	0	19	4	nogo_punish	1	-1	0	0	0	1	0	n/a	n/a	0	1.0	1.0	1269.2943146000616	1389.1372453999938	1390.1417372999713	1391.1797817000188	1392.6923091000644	1393.6935621000594	n/a	n/a	1394.7070268000243	1395.5907739000395	2019-12-11 16:37:05.879843	0.670145949080299	-4.18125236585114	-2.13333166080731	-4.67392850337714	-2.80347760988761	-2.13333166080731	-0.670145949080299	-2.13333166080731	-4.18125236585114	-2.13333166080731	-2.80347760988761	2.13333166080731	-3.2617874186603144	-5.177852021745386	-3.34300661826269	-7.618658385292763	-3.6629997726445773	-3.34300661826269	0.34154306403953005	-5.133896904783791	-1.8721094861234762	-5.096089876204363	-3.424768763803711	3	missed	0.0
126.29624590009917	6.857904799981043	nogo_punish	1.0	126.32101640000474	128.60193849995267	131.135940499953	2.2809220999479294	127.32923609996215	130.11622829991393	132.1492805999003	1.2727023999905214	1.0197122000390664	1.0296406000854859	n/a	1.0	n/a	2	0	20	4	nogo_punish	1	-1	0	0	0	1	0	n/a	n/a	0	1.0	1.0	1269.2943146000616	1395.6153310000664	1396.6235507000238	1397.8962531000143	1399.4105428999756	1400.4302551000146	n/a	n/a	1401.443595199962	1402.4732358000474	2019-12-11 16:37:05.879843	1.93398854413059	-4.18125236585114	-1.26847090781053	-2.85973919325308	-3.20245945194112	-1.26847090781053	-1.93398854413059	-1.26847090781053	-4.18125236585114	-1.26847090781053	-3.20245945194112	1.26847090781053	-1.9979448236100235	-5.177852021745386	-2.47814586526591	-5.804469075168703	-4.061981614698087	-2.47814586526591	-0.5233176889572497	-4.269036151787011	-2.271091328176986	-4.231229123207584	-3.424768763803711	3	missed	0.0
133.1765939000761	6.321289599989541	nogo_punish	1.0	133.20136439998168	135.02037739998195	137.56013629992958	1.8190130000002682	134.2072068999987	136.53611879993696	138.56036459992174	0.8131704999832436	1.024017499992624	0.9622894000494853	n/a	1.0	n/a	2	0	21	4	nogo_punish	0	0	-1	0	0	1	1	n/a	n/a	-1	1.0	1.0	1269.2943146000616	1402.4956790000433	1403.5015215000603	1404.3146920000436	1405.8304333999986	1406.8544508999912	n/a	n/a	1407.8546791999834	1408.8169686000329	2019-12-11 16:37:05.879843	2.65890874647123	-4.18125236585114	-0.779449797233303	-1.80249244926177	-3.43835854370453	-0.779449797233303	-2.65890874647123	-0.779449797233303	-4.18125236585114	-0.779449797233303	-3.43835854370453	-4.914667118468457	-1.2730246212693834	-5.177852021745386	-1.989124754688683	-4.747222331177394	-4.297880706461497	-1.989124754688683	-6.7064557152362365	-3.7800150412097846	-2.506990419940396	-3.7422080126303565	-3.424768763803711	3	missed	0.0
139.5211377000669	6.3370437999255955	nogo_punish	1.0	139.54590819997247	141.09410220000427	143.62182209989987	1.548194000031799	140.55522789992392	142.61025539995148	144.63245739997365	0.5388743000803515	1.0115666999483892	1.2504945999244228	n/a	1.0	n/a	2	0	22	4	nogo_punish	1	-1	0	0	0	1	1	n/a	n/a	0	1.0	1.0	1269.2943146000616	1408.840222800034	1409.8495424999855	1410.388416800066	1411.904570000013	1412.9161366999615	n/a	n/a	1413.9267720000353	1415.1772665999597	2019-12-11 16:37:05.879843	0.483775810830112	-4.18125236585114	-2.6260077983333	-3.29885539460323	-3.10978360916342	-2.6260077983333	-0.483775810830112	-2.6260077983333	-4.18125236585114	-2.6260077983333	-3.10978360916342	2.6260077983333	-3.4481575569105014	-5.177852021745386	-3.83568275578868	-6.2435852765188535	-3.969305771920387	-3.83568275578868	0.8342192015655201	-5.626573042309781	-2.178415485399286	-5.588766013730353	-3.424768763803711	3	missed	0.0
145.88735169998836	7.502741800039075	go_reward	0.2708258000202477	145.91212219989393	148.63341879996005	151.17041049990803	2.7212966000661254	146.91790339991007	150.15793190000113	152.17934469995066	1.7155154000499806	1.012478599906899	1.235519299982343	n/a	1.0	n/a	2	0	23	1	go_reward	1	1	0	1	1	1	0	n/a	n/a	1	0.2708258000202477	1.0	1269.2943146000616	1415.2064367999556	1416.2122179999717	1417.9277334000217	1419.4522465000628	1420.4647250999697	n/a	n/a	1421.4736593000123	1422.7091785999946	2019-12-11 16:37:05.879843	0.331451420903946	0.0	0.0	0.0	0.331451420903946	0.0	-0.331451420903946	0.0	0.0	0.331451420903946	0.0	19.9212513644119	-3.6004819468366676	-0.9965996558942452	-1.20967495745538	-2.9447298819156233	-0.528070741853021	-1.20967495745538	18.12946276764412	-2.6691138230725358	0.931368123764134	-2.9627582153970535	0.7564836020474288	3	missed	0.0
153.41588660003617	6.564672000007704	nogo_punish	1.0	153.44065709994175	155.01515909994487	157.52743359992746	1.5745020000031218	154.45829300000332	156.52252070000395	158.52766009990592	0.5568660999415442	1.0049128999235108	1.4776690000435337	n/a	1.0	n/a	2	0	24	4	nogo_punish	0	0	-1	0	0	1	1	n/a	n/a	-1	1.0	1.0	1269.2943146000616	1422.7349717000034	1423.752607600065	1424.3094737000065	1425.8168353000656	1426.821748199989	n/a	n/a	1427.8219746999675	1429.299643700011	2019-12-11 16:37:05.879843	1.79980269989608	-4.18125236585114	-1.58761325849377	-2.03906994459647	-3.38741595838985	-1.58761325849377	-1.79980269989608	-1.58761325849377	-4.18125236585114	-1.58761325849377	-3.38741595838985	-4.106503657207989	-2.1321306678445335	-5.177852021745386	-2.79728821594915	-4.983799826512094	-4.246938121146817	-2.79728821594915	-5.898292253975769	-4.588178502470251	-2.456047834625716	-4.550371473890824	-3.424768763803711	3	missed	0.0
160.00277420005295	6.770987199968658	nogo_punish	1.0	160.02754469995853	162.3990022999933	164.92539039999247	2.3714576000347733	161.04062729992438	163.90435079997405	165.9302444999339	1.3583750000689179	1.0210396000184119	0.8682873999932781	n/a	1.0	n/a	2	0	25	4	nogo_punish	1	-1	0	0	0	1	0	n/a	n/a	0	1.0	1.0	1269.2943146000616	1429.3218593000202	1430.334941899986	1431.693316900055	1433.1986654000357	1434.219705000054	n/a	n/a	1435.2245590999955	1436.0928464999888	2019-12-11 16:37:05.879843	-0.04344700319966	-4.18125236585114	-3.12400562185984	-3.43232777242842	-3.08055861866018	-3.12400562185984	0.04344700319966	-3.12400562185984	-4.18125236585114	-3.12400562185984	-3.08055861866018	3.12400562185984	-3.9753803709402735	-5.177852021745386	-4.33368057931522	-6.377057654344043	-3.940080781417147	-4.33368057931522	1.3322170250920602	-6.124570865836322	-2.149190494896046	-6.0867638372568935	-3.424768763803711	3	missed	0.0
166.816666000057	5.6841492999810725	nogo_reward	1.0	166.84143649996258	168.21806809992995	170.7499683999922	1.376631599967368	167.84033319994342	169.7264327999435	171.75975839991588	0.3777348999865353	1.0235356000487172	0.7658274000277743	n/a	1.0	n/a	2	0	26	2	nogo_reward	1	0	1	0	0	1	0	n/a	n/a	1	1.0	1.0	1269.2943146000616	1436.1357511000242	1437.134647800005	1437.5123826999916	1439.0207474000051	1440.0442830000538	n/a	n/a	1441.0540729999775	1441.8199004000053	2019-12-11 16:37:05.879843	18.2135967967805	0.0	15.1277821341201	15.1277821341201	-3.08581466266041	15.1277821341201	-18.2135967967805	15.1277821341201	0.0	15.1277821341201	-3.08581466266041	4.793469230291802	14.281663429039886	-0.9965996558942452	13.91810717666472	12.183052252204476	-3.9453368254173773	13.91810717666472	3.001680633524022	12.127216890143618	-2.154446538896276	12.165023918723046	0.7564836020474288	3	missed	0.0
172.52602069999557	6.059574700077064	nogo_punish	1.0	172.55079119990114	174.050338299945	176.5903454999209	1.4995471000438556	173.55104079993907	175.55754529999126	177.5957462999504	0.4992975000059232	1.0328001999296248	1.0146196000277996	n/a	1.0	n/a	2	0	27	4	nogo_punish	1	-1	0	0	0	1	1	n/a	n/a	0	1.0	1.0	1269.2943146000616	1441.8451057999628	1442.8453554000007	1443.3446529000066	1444.851859900053	1445.8846600999825	n/a	n/a	1446.890060900012	1447.9046805000398	2019-12-11 16:37:05.879843	1.46637078739513	-4.18125236585114	-1.90362812710398	-2.11755125278096	-3.36999891449911	-1.90362812710398	-1.46637078739513	-1.90362812710398	-4.18125236585114	-1.90362812710398	-3.36999891449911	1.90362812710398	-2.4655625803454835	-5.177852021745386	-3.11330308455936	-5.062281134696583	-4.229521077256077	-3.11330308455936	0.11183953033620031	-4.904193371080462	-2.438630790734976	-4.866386342501034	-3.424768763803711	3	missed	0.0
178.608260900015	6.888905300060287	nogo_punish	1.0	178.63303139992058	180.6220345000038	183.1637659999542	1.9890031000832096	179.64552189991787	182.13793249998707	184.17712859995686	0.9765126000859254	1.0258334999671206	1.3448081000240109	n/a	1.0	n/a	2	0	28	4	nogo_punish	1	-1	0	0	0	1	0	n/a	n/a	0	1.0	1.0	1269.2943146000616	1447.9273459999822	1448.9398364999795	1449.9163491000654	1451.4322471000487	1452.4580806000158	n/a	n/a	1453.4714432000185	1454.8162513000425	2019-12-11 16:37:05.879843	2.34581541656948	-4.18125236585114	-1.19634358843257	-1.34689267289831	-3.54215900500205	-1.19634358843257	-2.34581541656948	-1.19634358843257	-4.18125236585114	-1.19634358843257	-3.54215900500205	1.19634358843257	-1.5861179511711336	-5.177852021745386	-2.40601854588795	-4.291622554813934	-4.401681167759017	-2.40601854588795	-0.5954450083352099	-4.1969088324090515	-2.610790881237916	-4.159101803829623	-3.424768763803711	3	missed	0.0
185.52602900005877	6.465051900013123	go_reward	0.2088087999727577	185.55079949996434	187.1186409998918	189.65395929990336	1.5678414999274537	186.5569598999573	188.6484988000011	190.66318399994634	0.5616810999345034	1.0054604999022558	1.3526674000311232	n/a	1.0	n/a	2	0	29	1	go_reward	1	1	0	1	1	1	0	n/a	n/a	1	0.2088087999727577	1.0	1269.2943146000616	1454.845114100026	1455.851274500019	1456.4129555999534	1457.9428134000627	1458.948273899965	n/a	n/a	1459.957498600008	1461.310166000039	2019-12-11 16:37:05.879843	6.46671691853978	7.90517958545183	0.0	7.90517958545183	6.46671691853978	0.0	-6.46671691853978	7.90517958545183	0.0	6.46671691853978	0.0	12.016071778960072	2.5347835507991667	6.908579929557584	-1.20967495745538	4.960449703536206	5.607194755782813	-1.20967495745538	10.224283182192291	3.4661516745632985	0.931368123764134	4.942421370054776	0.7564836020474288	3	missed	0.0
192.03618819999974	6.847397300065495	go_punish	0.1643880000337958	192.0609586999053	193.89902439992875	196.43640000000596	1.838065700023435	193.06646189989988	195.4154533999972	197.4399782998953	0.832562500028871	1.020946600008756	1.4683777000755072	n/a	1.0	n/a	2	0	30	3	go_punish	1	0	-1	1	1	1	0	n/a	n/a	0	0.1643880000337958	1.0	1269.2943146000616	1461.355273299967	1462.3607764999615	1463.1933389999904	1464.7097680000588	1465.7307146000676	n/a	n/a	1466.734292899957	1468.2026706000324	2019-12-11 16:37:05.879843	3.98335087706927	0.0	-3.40180256861784	-1.09859214791655	0.581548308451439	-3.40180256861784	-3.98335087706927	0.0	-3.40180256861784	0.581548308451439	-3.40180256861784	0.0	0.05141750932865641	-0.9965996558942452	-4.6114775260732195	-4.043322029832173	-0.2779738543055281	-4.6114775260732195	-1.7917885967677798	-2.4190169355250424	-2.470434444853706	-2.9627582153970535	-2.645318966570411	3	missed	0.0
198.90935690002516	6.540846000076272	go_reward	0.2729141999734565	198.93412739993073	200.5984755998943	203.13956049992726	1.6643481999635696	199.9432243999329	202.11476799997035	204.15362209989667	0.6552511999614126	1.0247924999569022	1.3213513001103365	n/a	1.0	n/a	2	0	31	1	go_reward	1	1	0	1	1	1	1	n/a	n/a	1	0.2729141999734565	1.0	1269.2943146000616	1468.2284419999924	1469.2375389999945	1469.892790199956	1471.409082600032	1472.4338750999889	n/a	n/a	1473.4479366999583	1474.7692880000686	2019-12-11 16:37:05.879843	9.96817696377441	12.4357023453986	0.0	12.4357023453986	9.96817696377441	0.0	-9.96817696377441	12.4357023453986	0.0	9.96817696377441	0.0	7.485549019013302	6.0362435960337955	11.439102689504354	-1.20967495745538	9.490972463482976	9.108654801017442	-1.20967495745538	5.693760422245522	6.967611719797928	0.931368123764134	9.472944130001546	0.7564836020474288	3	missed	0.0
205.4936954000732	6.99336909991689	nogo_reward	1.0	205.51846589997876	207.48621059989068	210.02344719995745	1.9677446999119184	206.52649749990087	208.99205669993535	211.03410209994763	0.9597130999898127	1.0313905000220984	1.4777328999480233	n/a	1.0	n/a	2	0	32	2	nogo_reward	1	0	1	0	0	1	0	n/a	n/a	1	1.0	1.0	1269.2943146000616	1474.8127805000404	1475.8208120999625	1476.7805251999523	1478.286371299997	1479.317761800019	n/a	n/a	1480.3284167000093	1481.8061495999573	2019-12-11 16:37:05.879843	20.2457099858216	0.0	16.7777403715043	16.7777403715043	-3.46796961431732	16.7777403715043	-20.2457099858216	16.7777403715043	0.0	16.7777403715043	-3.46796961431732	3.1435109929076006	16.313776618080986	-0.9965996558942452	15.56806541404892	13.833010489588677	-4.327491777074288	15.56806541404892	1.3517223961398208	13.77717512752782	-2.536601490553186	13.814982156107247	0.7564836020474288	3	missed	0.0
212.51250720000849	7.76034939999181	nogo_punish	1.0	212.53727769991406	215.30675619991962	217.82694179995428	2.7694785000055617	213.53773219999857	216.81331199989654	218.8360246999655	1.7690239999210462	1.0136298000577426	1.461602399940375	n/a	1.0	n/a	2	0	33	4	nogo_punish	0	0	-1	0	0	1	0	n/a	n/a	-1	1.0	1.0	1269.2943146000616	1481.8315922999757	1482.8320468000602	1484.6010707999812	1486.1076265999582	1487.121256400016	n/a	n/a	1488.1303393000271	1489.5919416999675	2019-12-11 16:37:05.879843	2.8758287077373	-4.18125236585114	-0.771989929630339	-0.879307540975876	-3.64781863736764	-0.771989929630339	-2.8758287077373	-0.771989929630339	-4.18125236585114	-0.771989929630339	-3.64781863736764	-4.9221269860714205	-1.0561046600033133	-5.177852021745386	-1.981664887085719	-3.8240374228914993	-4.507340800124608	-1.981664887085719	-6.7139155828392	-3.7725551736068206	-2.716450513603506	-3.7347481450273925	-3.424768763803711	3	missed	0.0
220.2972644000547	6.276296900003217	go_reward	0.1383128000888973	220.32203489996027	221.66009629995096	224.20346999994945	1.3380613999906927	221.33315749990288	223.19090990000404	225.21457269997336	0.32693880004808307	1.0125600999454036	1.3837590999901295	n/a	1.0	n/a	2	0	34	1	go_reward	1	1	0	1	1	1	0	n/a	n/a	1	0.1383128000888973	1.0	1269.2943146000616	1489.616349500022	1490.6274720999645	1490.9544109000126	1492.4852245000657	1493.497784600011	n/a	n/a	1494.508887300035	1495.8926464000251	2019-12-11 16:37:05.879843	12.0419674714597	15.1277821341201	0.0	15.1277821341201	12.0419674714597	0.0	-12.0419674714597	15.1277821341201	0.0	12.0419674714597	0.0	4.793469230291802	8.110034103719086	14.131182478225854	-1.20967495745538	12.183052252204476	11.182445308702732	-1.20967495745538	3.001680633524022	9.041402227483218	0.931368123764134	12.165023918723046	0.7564836020474288	3	missed	0.0
226.61774730007164	6.291665599914268	nogo_reward	1.0	226.6425177999772	227.99797039991245	230.52508459996898	1.3554525999352336	227.63987670000643	229.50187449995428	231.53468779998366	0.35809369990602136	1.023210100014694	1.399495599907823	n/a	1.0	n/a	2	0	35	2	nogo_reward	1	0	1	0	0	1	0	n/a	n/a	1	1.0	1.0	1269.2943146000616	1495.9368324000388	1496.934191300068	1497.292284999974	1498.796189100016	1499.8193992000306	n/a	n/a	1500.8290024000453	1502.228497999953	2019-12-11 16:37:05.879843	21.5265376412887	0.0	17.8164662657959	17.8164662657959	-3.71007137549282	17.8164662657959	-21.5265376412887	17.8164662657959	0.0	17.8164662657959	-3.71007137549282	2.104785098616002	17.59460427354809	-0.9965996558942452	16.60679130834052	14.871736383880275	-4.569593538249787	16.60679130834052	0.31299650184822236	14.815901021819418	-2.778703251728686	14.853708050398845	0.7564836020474288	3	missed	0.0
232.94929320004303	5.995544799952768	nogo_reward	1.0	232.9740636999486	234.67412919993512	237.21385139995255	1.700065499986522	233.97564699989744	236.1903140998911	238.2295915998984	0.698482200037688	1.0235373000614345	0.7400169000029564	n/a	1.0	n/a	2	0	36	2	nogo_reward	1	0	1	0	0	1	0	n/a	n/a	1	1.0	1.0	1269.2943146000616	1502.2683783000102	1503.269961599959	1503.9684437999967	1505.4846286999527	1506.5081660000142	n/a	n/a	1507.52390619996	1508.263923099963	2019-12-11 16:37:05.879843	22.3527147320204	0.0	18.4859050389112	18.4859050389112	-3.86680969310921	18.4859050389112	-22.3527147320204	18.4859050389112	0.0	18.4859050389112	-3.86680969310921	1.4353463255007028	18.420781364279787	-0.9965996558942452	17.276230081455818	15.541175156995575	-4.726331855866177	17.276230081455818	-0.35644227126707695	15.485339794934717	-2.935441569345076	15.523146823514145	0.7564836020474288	3	missed	0.0
238.9734138000058	6.302422699984163	go_reward	0.0348405999829992	238.99818429991137	240.34565799997654	242.89334609999787	1.3474737000651658	240.0021628999384	241.87017119990196	243.89526769996155	0.3434951000381261	1.0231749000959098	1.4053392999339849	n/a	1.0	n/a	2	0	37	1	go_reward	1	1	0	1	1	1	0	n/a	n/a	1	0.0348405999829992	1.0	1269.2943146000616	1508.292498899973	1509.2964775	1509.6399726000382	1511.1644857999636	1512.1876607000595	n/a	n/a	1513.1895823000232	1514.5949215999572	2019-12-11 16:37:05.879843	13.309770757187	16.7777403715043	0.0	16.7777403715043	13.309770757187	0.0	-13.309770757187	16.7777403715043	0.0	13.309770757187	0.0	3.1435109929076006	9.377837389446386	15.781140715610055	-1.20967495745538	13.833010489588677	12.450248594430033	-1.20967495745538	1.3517223961398208	10.309205513210518	0.931368123764134	13.814982156107247	0.7564836020474288	3	missed	0.0
245.3022500000659	7.151988000027131	nogo_punish	0.1482330999569967	245.32702049997147	248.09127380000427	250.63271059992258	2.764253300032806	246.3356303999899	249.6084328999275	251.6423969999887	1.7556434000143781	1.024277699995082	0.8366115000098944	n/a	1.0	n/a	2	0	38	4	nogo_punish	1	-1	0	0	1	0	0	n/a	n/a	-1	0.1482330999569967	1.0	1269.2943146000616	1514.621335100033	1515.6299450000515	1517.385588400066	1518.9027474999891	1519.9270251999842	n/a	n/a	1520.9367116000503	1521.7733231000602	2019-12-11 16:37:05.879843	-0.599053972342364	-4.18125236585114	-2.64303715013386	-2.72043412697073	-3.24209112247622	-2.64303715013386	0.599053972342364	-4.18125236585114	-2.64303715013386	-3.24209112247622	-2.64303715013386	-1.5128645498506197	-4.530987340082977	-5.177852021745386	-3.85271210758924	-5.665164008886354	-4.101613285233187	-3.85271210758924	-3.3046531466183993	-6.242656366452701	-1.711669026369726	-7.144010581248194	-1.8865535480864313	3	missed	0.0
252.49459310004022	6.811341300024651	nogo_reward	1.0	252.5193635999458	254.3012593999738	256.8296987999927	1.7818958000279963	253.52092099993047	255.8064656999195	257.8312467999058	0.7803384000433198	1.0232331000731847	1.4994581000646576	n/a	1.0	n/a	2	0	39	2	nogo_reward	1	0	1	0	0	1	0	n/a	n/a	1	1.0	1.0	1269.2943146000616	1521.8136782000074	1522.815235599992	1523.5955740000354	1525.1007802999811	1526.1240134000543	n/a	n/a	1527.1255613999674	1528.625019500032	2019-12-11 16:37:05.879843	22.8966164450724	0.0	18.9263620622799	18.9263620622799	-3.97025438279251	18.9263620622799	-22.8966164450724	18.9263620622799	0.0	18.9263620622799	-3.97025438279251	0.9948893021320018	18.964683077331788	-0.9965996558942452	17.71668710482452	15.981632180364276	-4.8297765455494766	17.71668710482452	-0.796899294635778	15.925796818303418	-3.038886259028376	15.963603846882846	0.7564836020474288	3	missed	0.0
259.32991640002	6.1783446000192725	nogo_punish	0.0453538999427109	259.3546868999256	260.7863160999259	263.3262315999018	1.431629200000316	260.36578399990685	262.3113660999809	264.3370015999535	0.4205321000190452	1.0148654999209157	1.1960298999913448	n/a	1.0	n/a	2	0	40	4	nogo_punish	1	-1	0	0	1	0	1	n/a	n/a	-1	0.0453538999427109	1.0	1269.2943146000616	1528.6490014999872	1529.6600985999685	1530.0806306999875	1531.6056807000425	1532.6205461999634	n/a	n/a	1533.6313162000151	1534.8273461000065	2019-12-11 16:37:05.879843	-0.850070178874523	-4.67392850337714	-2.64303715013386	-3.80157024871132	-3.49310732900838	-2.64303715013386	0.850070178874523	-4.67392850337714	-2.64303715013386	-3.49310732900838	-2.64303715013386	-1.0201884123246199	-4.782003546615137	-5.670528159271385	-3.85271210758924	-6.746300130626944	-4.352629491765347	-3.85271210758924	-2.8119770090923994	-6.4936725729848614	-1.711669026369726	-7.636686718774193	-1.8865535480864313	3	missed	0.0
265.5524348000763	6.426133399945684	go_punish	0.7357410999247804	265.57720529998187	267.4338174998993	269.98400229995605	1.8566121999174356	266.5839173999848	268.97211769991554	271.0031105999367	0.849900099914521	1.0118846000405028	1.0002280999908635	n/a	1.0	n/a	2	0	41	3	go_punish	1	0	-1	1	1	1	0	n/a	n/a	0	0.7357410999247804	1.0	1269.2943146000616	1534.8715199000435	1535.8782320000464	1536.728132099961	1538.2664322999772	1539.2783169000177	n/a	n/a	1540.2974251999983	1541.2976532999892	2019-12-11 16:37:05.879843	3.89459950321695	0.0	-3.40180256861784	-0.703900301345222	0.492796934599116	-3.40180256861784	-3.89459950321695	0.0	-3.40180256861784	0.492796934599116	-3.40180256861784	0.0	-0.03733386452366361	-0.9965996558942452	-4.6114775260732195	-3.6486301832608454	-0.36672522815785114	-4.6114775260732195	-1.7917885967677798	-2.5077683093773655	-2.470434444853706	-2.9627582153970535	-2.645318966570411	3	missed	0.0
272.0044125000711	6.866491699940752	go_reward	0.010180199984461	272.0291829999767	273.9567807998974	276.50164639996365	1.9275977999207043	273.0294927000068	275.48192719998747	277.5048248999519	0.9272880998905748	1.0197191999761799	1.3908497999655083	n/a	1.0	n/a	2	0	42	1	go_reward	0	0	1	1	1	1	0	n/a	n/a	0	0.010180199984461	1.0	1269.2943146000616	1541.3234976000383	1542.3238073000684	1543.251095399959	1544.776241800049	1545.7959610000253	n/a	n/a	1546.7991395000136	1548.189989299979	2019-12-11 16:37:05.879843	14.1063948903031	17.8164662657959	0.0	17.8164662657959	14.1063948903031	0.0	-14.1063948903031	17.8164662657959	0.0	14.1063948903031	0.0	-17.8164662657959	10.174461522562487	16.819866609901656	-1.20967495745538	14.871736383880275	13.246872727546133	-1.20967495745538	-19.60825486256368	11.105829646326619	0.931368123764134	14.853708050398845	0.7564836020474288	3	missed	0.0
278.91333250002936	7.8530414999695495	go_punish	0.1135444999672472	278.9381029999349	281.906822299934	284.43357729993295	2.9687192999990657	279.94683959998656	283.41267039999366	285.4468621999258	1.9599826999474317	1.0209068999392912	1.3442822999786586	n/a	1.0	n/a	2	0	43	3	go_punish	1	0	-1	1	1	1	1	n/a	n/a	0	0.1135444999672472	1.0	1269.2943146000616	1548.2324175999966	1549.2411542000482	1551.2011368999956	1552.7069850000553	1553.7278918999946	n/a	n/a	1554.7411767999874	1556.085459099966	2019-12-11 16:37:05.879843	3.83958485820566	0.0	-3.40180256861784	-0.4616234324507	0.437782289587827	-3.40180256861784	-3.83958485820566	0.0	-3.40180256861784	0.437782289587827	-3.40180256861784	0.0	-0.09234850953495322	-0.9965996558942452	-4.6114775260732195	-3.4063533143663234	-0.42173987316914013	-4.6114775260732195	-1.7917885967677798	-2.5627829543886547	-2.470434444853706	-2.9627582153970535	-2.645318966570411	3	missed	0.0
286.8097827000313	6.340246999985311	go_punish	0.0201163000892847	286.83455319993686	288.67450069996994	291.2147950999206	1.8399475000330767	287.84090079995804	290.19481969997287	292.2289566999534	0.8335999000119045	1.0199753999477252	0.9458434999687597	n/a	1.0	n/a	2	0	44	3	go_punish	1	0	-1	1	1	1	0	n/a	n/a	0	0.0201163000892847	1.0	1269.2943146000616	1556.1288677999985	1557.1352154000197	1557.9688153000316	1559.4891343000345	1560.5091096999822	n/a	n/a	1561.523271300015	1562.4691147999838	2019-12-11 16:37:05.879843	3.80465848908077	0.0	-3.40180256861784	-0.308975604335243	0.402855920462933	-3.40180256861784	-3.80465848908077	0.0	-3.40180256861784	0.402855920462933	-3.40180256861784	0.0	-0.12727487865984344	-0.9965996558942452	-4.6114775260732195	-3.2537054862508663	-0.45666624229403413	-4.6114775260732195	-1.7917885967677798	-2.5977093235135484	-2.470434444853706	-2.9627582153970535	-2.645318966570411	3	missed	0.0
293.1758516000118	5.833272000076249	go_reward	0.0263266001129522	293.2006220999174	294.5662388999481	297.11341459990945	1.3656168000306934	294.2155970999738	296.0981060999911	298.1139235999435	0.35064179997425526	1.0153084999183193	0.9199705000501126	n/a	1.0	n/a	2	0	45	1	go_reward	1	1	0	1	1	1	0	n/a	n/a	1	0.0263266001129522	1.0	1269.2943146000616	1562.494936699979	1563.5099117000354	1563.8605535000097	1565.3924207000528	1566.407729199971	n/a	n/a	1567.4082382000051	1568.3282087000553	2019-12-11 16:37:05.879843	8.48382984816618	10.5807254534594	0.0	10.5807254534594	8.48382984816618	0.0	-8.48382984816618	10.5807254534594	0.0	8.48382984816618	0.0	9.3405259109525	4.551896480425565	9.584125797565155	-1.20967495745538	7.635995571543777	7.624307685409212	-1.20967495745538	7.548737314184721	5.4832646041896975	0.931368123764134	7.617967238062347	0.7564836020474288	3	missed	0.0
299.0332634000806	7.114364999928512	nogo_punish	0.1780305000720545	299.0580338999862	301.38939819997177	303.9165048999712	2.33136429998558	300.0609840999823	302.90549099992495	304.93561169994086	1.328414099989459	1.0110139000462368	1.2367871999738327	n/a	1.0	n/a	2	0	46	4	nogo_punish	0	0	-1	0	1	0	0	n/a	n/a	0	0.1780305000720545	1.0	1269.2943146000616	1568.3523485000478	1569.355298700044	1570.6837128000334	1572.1998055999866	1573.2108195000328	n/a	n/a	1574.2299263000025	1575.4667134999763	2019-12-11 16:37:05.879843	-1.02079424646045	-4.99307085406038	-2.64303715013386	-4.45820395412127	-3.6638313965943	-2.64303715013386	1.02079424646045	-4.99307085406038	-2.64303715013386	-3.6638313965943	-2.64303715013386	4.99307085406038	-4.952727614201064	-5.9896705099546255	-3.85271210758924	-7.402933836036894	-4.523353559351268	-3.85271210758924	3.2012822572926005	-6.664396640570782	-1.711669026369726	-7.955829069457433	-1.8865535480864313	3	missed	0.0
306.1917460000841	6.505515599972796	nogo_reward	1.0	306.21651649998967	307.9866442999337	310.5187126999954	1.7701277999440208	307.2137220998993	309.49912279995647	311.5324274000013	0.7729222000343725	1.019589900038909	1.1896046999611372	n/a	1.0	n/a	2	0	47	2	nogo_reward	0	1	0	0	0	1	0	n/a	n/a	0	1.0	1.0	1269.2943146000616	1575.5108311000513	1576.508036699961	1577.2809588999953	1578.793437400018	1579.813027300057	n/a	n/a	1580.826742000063	1582.016346700024	2019-12-11 16:37:05.879843	23.2612506124301	0.0	19.2215399806675	19.2215399806675	-4.03971063176266	19.2215399806675	-23.2612506124301	19.2215399806675	0.0	19.2215399806675	-4.03971063176266	-19.2215399806675	19.329317244689488	-0.9965996558942452	18.01186502321212	16.276810098751877	-4.8992327945196275	18.01186502321212	-21.01332857743528	16.22097473669102	-3.1083425079985263	16.25878176527045	0.7564836020474288	3	missed	0.0
312.73879390000366	5.8296995999992305	nogo_reward	1.0	312.7635643999092	314.24700179998763	316.7867953999669	1.483437400078401	313.7726327999262	315.7633448999841	317.7871810999932	0.47436900006141514	1.0234504999828005	0.8060828999152818	n/a	1.0	n/a	2	0	48	2	nogo_reward	1	0	1	0	0	1	0	n/a	n/a	1	1.0	1.0	1269.2943146000616	1582.0578789999709	1583.0669473999878	1583.5413164000493	1585.0576595000457	1586.0811100000285	n/a	n/a	1587.0814957000548	1587.88757859997	2019-12-11 16:37:05.879843	13.8346221995318	0.0	11.517462857439	11.517462857439	-2.31715934209282	11.517462857439	-13.8346221995318	11.517462857439	0.0	11.517462857439	-2.31715934209282	8.403788506972901	9.902688831791187	-0.9965996558942452	10.30778789998362	8.572732975523376	-3.176681504849787	10.30778789998362	6.611999910205122	8.516897613462518	-1.385791218328686	8.554704642041946	0.7564836020474288	3	missed	0.0
318.61088330007624	6.705552699975669	go_punish	0.2848762000212446	318.6356537999818	320.79860079998616	323.3445788999088	2.162947000004351	319.63415259995963	322.3237765999511	324.34775109996554	1.164448200026527	1.0208022999577224	0.9934553999919444	n/a	1.0	n/a	2	0	49	3	go_punish	1	0	-1	1	1	1	0	n/a	n/a	0	0.2848762000212446	1.0	1269.2943146000616	1587.9299684000434	1588.9284672000213	1590.0929154000478	1591.6180912000127	1592.6388934999704	n/a	n/a	1593.6420657000272	1594.635521100019	2019-12-11 16:37:05.879843	3.78201308664881	0.0	-3.40180256861784	-0.210570710052571	0.38021051803097	-3.40180256861784	-3.78201308664881	0.0	-3.40180256861784	0.38021051803097	-3.40180256861784	0.0	-0.14992028109180344	-0.9965996558942452	-4.6114775260732195	-3.1553005919681945	-0.47931164472599713	-4.6114775260732195	-1.7917885967677798	-2.6203547259455116	-2.470434444853706	-2.9627582153970535	-2.645318966570411	3	missed	0.0
325.3625749000348	6.525378199992701	nogo_reward	1.0	325.3873453999404	327.1564969999015	329.67952439992246	1.7691515999611056	326.39161599997897	328.6624868999934	330.68473300000187	0.764880999922525	1.0170374999290743	1.2279905999312177	n/a	1.0	n/a	2	0	50	2	nogo_reward	0	1	0	0	0	1	1	n/a	n/a	0	1.0	1.0	1269.2943146000616	1594.681660000002	1595.6859306000406	1596.4508115999631	1597.956801500055	1598.973838999984	n/a	n/a	1599.9790476000635	1601.2070381999947	2019-12-11 16:37:05.879843	18.1219416977309	0.0	15.0311781627334	15.0311781627334	-3.09076353499745	15.0311781627334	-18.1219416977309	15.0311781627334	0.0	15.0311781627334	-3.09076353499745	-15.0311781627334	14.190008329990286	-0.9965996558942452	13.82150320527802	12.086448280817777	-3.950285697754417	13.82150320527802	-16.82296675950118	12.030612918756919	-2.159395411233316	12.068419947336347	0.7564836020474288	3	missed	0.0
331.9139311000472	7.2020209999755025	go_reward	0.1777293999912217	331.93870159995276	334.390748100006	336.9170746000018	2.4520465000532568	332.94743419997394	335.9065919999266	337.9297028000001	1.4433139000320807	1.0104826000751927	1.2110197999281809	n/a	1.0	n/a	2	0	51	1	go_reward	0	0	1	1	1	1	0	n/a	n/a	0	0.1777293999912217	1.0	1269.2943146000616	1601.2330162000144	1602.2417488000356	1603.6850627000676	1605.2009065999882	1606.2113892000634	n/a	n/a	1607.2240174000617	1608.43503719999	2019-12-11 16:37:05.879843	11.4546476342528	14.3958393023331	0.0	14.3958393023331	11.4546476342528	0.0	-11.4546476342528	14.3958393023331	0.0	11.4546476342528	0.0	-14.3958393023331	7.522714266512185	13.399239646438854	-1.20967495745538	11.451109420417476	10.595125471495832	-1.20967495745538	-16.187627899100878	8.454082390276318	0.931368123764134	11.433081086936046	0.7564836020474288	3	missed	0.0
339.1597793000983	6.741944499895908	go_punish	0.3995449000503868	339.1845498000039	341.4010086999042	343.9488117999863	2.216458899900317	340.18376439996086	342.9329991999548	344.9642475999426	1.2172442999433315	1.015812600031495	0.962246699957177	n/a	1.0	n/a	2	0	52	3	go_punish	0	-1	0	1	1	1	0	n/a	n/a	-1	0.3995449000503868	1.0	1269.2943146000616	1608.4788644000655	1609.4780790000225	1610.6953232999658	1612.2273138000164	1613.243126400048	n/a	n/a	1614.2585622000042	1615.2208088999614	2019-12-11 16:37:05.879843	3.76705231738426	0.0	-3.40180256861784	-0.145833497391867	0.365249748766425	-3.40180256861784	-3.76705231738426	0.0	-3.40180256861784	0.365249748766425	-3.40180256861784	-5.69411691570176	-0.1648810503563536	-0.9965996558942452	-4.6114775260732195	-3.0905633793074903	-0.4942724139905421	-4.6114775260732195	-7.4859055124695395	-2.6353154952100564	-2.470434444853706	-2.9627582153970535	-2.645318966570411	3	missed	0.0
345.94543890003115	7.3168727000013405	nogo_reward	1.0	345.9702093999367	348.81075529998634	351.3400107999332	2.8405459000496194	346.97698929999046	350.3165089999093	352.34985359990947	1.833765999995876	1.0235018000239506	0.9372285000285956	n/a	1.0	n/a	2	0	53	2	nogo_reward	1	0	1	0	0	1	0	n/a	n/a	1	1.0	1.0	1269.2943146000616	1615.2645239999983	1616.271303900052	1618.105069900048	1619.610823599971	1620.6343253999949	n/a	n/a	1621.644168199971	1622.5813966999997	2019-12-11 16:37:05.879843	10.8164631562683	0.0	9.0619001478944	9.0619001478944	-1.75456300837387	9.0619001478944	-10.8164631562683	9.0619001478944	0.0	9.0619001478944	-1.75456300837387	10.859351216517501	6.884529788527686	-0.9965996558942452	7.85222519043902	6.1171702659787766	-2.614085171130837	7.85222519043902	9.06756261974972	6.061334903917919	-0.8231948846097359	6.099141932497346	0.7564836020474288	3	missed	0.0
353.30609540001024	6.7255082000044695	go_punish	0.0486916999798268	353.3308658999158	355.7458723000018	358.28872989991214	2.4150064000859857	354.32876469998155	357.2776401999872	359.29022279998753	1.4171076000202447	1.0110896999249235	0.7661512999327442	n/a	1.0	n/a	2	0	54	3	go_punish	1	0	-1	1	1	1	1	n/a	n/a	0	0.0486916999798268	1.0	1269.2943146000616	1622.6251804999774	1623.6230793000432	1625.0401869000634	1626.5719548000488	1627.5830444999738	n/a	n/a	1628.5845374000492	1629.350688699982	2019-12-11 16:37:05.879843	2.09601000665437	-2.13333166080731	-3.40180256861784	-2.2357986883972	-1.30579256196347	-3.40180256861784	-2.09601000665437	-2.13333166080731	-3.40180256861784	-1.30579256196347	-3.40180256861784	2.13333166080731	-1.8359233610862433	-3.1299313167015548	-4.6114775260732195	-5.180528570312823	-2.165314724720437	-4.6114775260732195	0.34154306403953005	-4.306357805939951	-2.470434444853706	-5.096089876204363	-2.645318966570411	3	missed	0.0
360.05932760005817	6.191919200005941	go_reward	0.0652734000468626	360.08409809996374	361.60229379998054	364.1396262999624	1.518195700016804	361.10298229998443	363.12619639991317	365.14084029989317	0.4993114999961108	1.013429900049232	1.13517700007651	n/a	1.0	n/a	2	0	55	1	go_reward	1	1	0	1	1	1	0	n/a	n/a	1	0.0652734000468626	1.0	1269.2943146000616	1629.3784127000254	1630.397296900046	1630.8966084000422	1632.4205109999748	1633.433940900024	n/a	n/a	1634.4351548999548	1635.5703319000313	2019-12-11 16:37:05.879843	6.97277334358371	8.62428060649417	0.0	8.62428060649417	6.97277334358371	0.0	-6.97277334358371	8.62428060649417	0.0	6.97277334358371	0.0	11.296970757917732	3.0408399758430966	7.627680950599924	-1.20967495745538	5.6795507245785455	6.113251180826743	-1.20967495745538	9.505182161149952	3.9722080996072284	0.931368123764134	5.661522391097115	0.7564836020474288	3	missed	0.0
366.2989029000746	6.465741100022569	go_punish	0.3534324000356719	366.3236733999802	367.78510340000526	370.32539549993817	1.461430000025075	367.3266537999734	369.3146269998979	371.3431994999992	0.4584496000318268	1.0107685000402853	1.4462150000035763	n/a	1.0	n/a	2	0	56	3	go_punish	1	0	-1	1	1	1	1	n/a	n/a	0	0.3534324000356719	1.0	1269.2943146000616	1635.6179880000418	1636.620968400035	1637.0794180000669	1638.6089415999595	1639.6197100999998	n/a	n/a	1640.6375141000608	1642.0837291000644	2019-12-11 16:37:05.879843	2.76632276937494	-1.26847090781053	-3.40180256861784	-1.34141111985129	-0.635479799242894	-3.40180256861784	-2.76632276937494	-1.26847090781053	-3.40180256861784	-0.635479799242894	-3.40180256861784	1.26847090781053	-1.1656105983656735	-2.265070563704775	-4.6114775260732195	-4.2861410017669135	-1.4950019619998611	-4.6114775260732195	-0.5233176889572497	-3.636045043219376	-2.470434444853706	-4.231229123207584	-2.645318966570411	3	missed	0.0
372.8083050000714	7.2850029999390244	nogo_reward	1.0	372.833075499977	375.3071729999501	377.82467729994096	2.4740974999731407	373.83995689998847	376.8144651999464	378.8382952999091	1.4672160999616608	1.0102120999945328	1.279783200006932	n/a	1.0	n/a	2	0	57	2	nogo_reward	0	1	0	0	0	1	0	n/a	n/a	0	1.0	1.0	1269.2943146000616	1642.1273901000386	1643.13427150005	1644.6014876000118	1646.108779800008	1647.1189919000026	n/a	n/a	1648.1326098999707	1649.4123930999776	2019-12-11 16:37:05.879843	16.2956283787095	0.0	13.5478241444297	13.5478241444297	-2.74780423427978	13.5478241444297	-16.2956283787095	13.5478241444297	0.0	13.5478241444297	-2.74780423427978	-13.5478241444297	12.363695010968888	-0.9965996558942452	12.33814918697432	10.603094262514077	-3.607326397036747	12.33814918697432	-15.339612741197481	10.547258900453219	-1.816436110515646	10.585065929032647	0.7564836020474288	3	missed	0.0
380.1326952000379	7.064441800001305	nogo_reward	1.0	380.1574656999435	382.2143867999548	384.7359782999847	2.056921100011323	381.16863649990387	383.7214334999444	385.7454015999099	1.0457503000509405	1.0145448000403121	1.4765059000349083	n/a	1.0	n/a	2	0	58	2	nogo_reward	1	0	1	0	0	1	0	n/a	n/a	1	1.0	1.0	1269.2943146000616	1649.451780300005	1650.4629510999655	1651.5087014000164	1653.015748100006	1654.0302929000463	n/a	n/a	1655.0397161999715	1656.5162221000064	2019-12-11 16:37:05.879843	9.68229014776447	0.0	8.14193089810979	8.14193089810979	-1.54035924965469	8.14193089810979	-9.68229014776447	8.14193089810979	0.0	8.14193089810979	-1.54035924965469	11.779320466302112	5.750356780023855	-0.9965996558942452	6.932255940654409	5.197201016194166	-2.3998814124116574	6.932255940654409	9.987531869534331	5.141365654133308	-0.608991125890556	5.179172682712736	0.7564836020474288	3	missed	0.0
387.22279070003424	7.375236400053836	nogo_punish	1.0	387.2475611999398	389.7229935999494	392.2506552999839	2.475432400009595	388.2490926999599	391.23087169998325	393.2640842999099	1.4739008999895304	1.0197836000006646	1.358713300083764	n/a	1.0	n/a	2	0	59	4	nogo_punish	1	-1	0	0	0	1	0	n/a	n/a	0	1.0	1.0	1269.2943146000616	1656.5418758000014	1657.5434073000215	1659.017308200011	1660.5251863000449	1661.5449699000455	n/a	n/a	1662.5583988999715	1663.9171122000553	2019-12-11 16:37:05.879843	-0.522568961109528	-3.0709633570723	-2.64303715013386	-2.73542803643616	-2.12046818902433	-2.64303715013386	0.522568961109528	-2.64303715013386	-3.0709633570723	-2.64303715013386	-2.12046818902433	2.64303715013386	-4.4545023288501415	-4.067563012966545	-3.85271210758924	-5.680157918351783	-2.9799903517812973	-3.85271210758924	0.8512485533660803	-5.643602394110342	-1.1891000652601962	-5.605795365530914	-2.3144797550248715	3	missed	0.0
394.63982959999703	7.100594800082263	nogo_reward	1.0	394.6646000999026	397.2816952998983	399.8017157999566	2.617095199995674	395.6736301999772	398.787496099947	400.8114288999932	1.6080650999210775	1.014219700009562	0.9537659999916741	n/a	1.0	n/a	2	0	60	2	nogo_reward	1	0	1	0	0	1	1	n/a	n/a	1	1.0	1.0	1269.2943146000616	1663.9589146999642	1664.9679448000388	1666.57600989996	1668.0818107000086	1669.0960304000182	n/a	n/a	1670.1057435000548	1671.0595095000465	2019-12-11 16:37:05.879843	15.5750893862671	0.0	12.9639600610463	12.9639600610463	-2.61112932522083	12.9639600610463	-15.5750893862671	12.9639600610463	0.0	12.9639600610463	-2.61112932522083	6.957291303365601	11.643156018526486	-0.9965996558942452	11.75428510359092	10.019230179130677	-3.470651487977797	11.75428510359092	5.165502706597821	9.963394817069819	-1.6797612014566958	10.001201845649247	0.7564836020474288	3	missed	0.0
