onset	duration	trial_type	response_time	cueOnset	targetOnset	fbOnset	cueRT	firstfixOnset	secondfixOnset	waitOnset	firstfixdur	secondfixdur	waitdur	nback_fbOnset	nback_response_time	nback_targetOnset	block	wm	trial	cue	cond	is_common	outcome_go	outcome_nogo	key_correct	key_pressed	is_correct	key_correct_nback	key_pressed_nback	is_correct_nback	outcome	rt	rt_nback	time_scan	time_onset	time_isi1	time_circle	time_isi2	time_feedback	time_same	time_correct	time_iti	time_done	timestamp_scan	DV	Qgo	Qnogo	SV	Wgo	Wnogo	mDV	Qchosen	Qunchosen	Wchosen	Wunchosen	PE	DVC	QgoC	QnogoC	SVC	WgoC	WnogoC	PEC	WchosenC	WunchosenC	QchosenC	QunchosenC	run	outcome_nback	nback_targetResp
0.0	9.567113399971277	go_reward	0.9497576999710872	0.02378269995097071	2.506570199970156	5.057903899927624	2.4827875000191852	1.0319537000032142	4.03726629994344	8.113132199971005	1.4746164999669418	1.020637599984184	1.477763899951242	7.103143999935128	0.7267232000594959	6.071602399926633	1	1	61	1	go_reward	0	0	1	1	1	1	1	0.0	0.0	0	0.9497576999710872	0.7267232000594959	679.444829700049	679.4686124	680.4767834000522	681.9513999000192	683.4820959999925	684.5027335999766	685.5164320999756	686.5479736999841	687.55796190002	689.0357257999713	2019-12-11 16:27:16.034050	1.74199781588867	0.835792284232431	0.0	0.835792284232431	1.74199781588867	0.0	-1.74199781588867	0.835792284232431	0.0	1.74199781588867	0.0	-0.835792284232431	-2.1899355518519434	-0.16080737166181414	-1.20967495745538	-2.1089375976831923	0.8824756531317028	-1.20967495745538	-2.6275808810002106	-1.2585674280878116	0.931368123764134	-2.1269659311646225	0.7564836020474288	2	wrong	1.0
9.60776469996199	8.815248800092377	go_punish	0.9220070000737906	9.63154739991296	12.074267499963753	14.624765499960631	2.442720100050792	10.6398020000197	13.605125400004908	17.681917699985206	1.4344654999440536	1.0196400999557227	0.7648785000201315	16.67049029993359	0.5159876000834629	15.63341429992579	1	1	62	3	go_punish	1	0	-1	1	1	1	0	0.0	1.0	0	0.9220070000737906	0.5159876000834629	679.444829700049	689.076377099962	690.0846317000687	691.5190972000128	693.0499551000539	694.0695952000096	695.0782439999748	696.1153199999826	697.1267474000342	697.8916259000544	2019-12-11 16:27:16.034050	0.518256017129134	0.0	-0.496445097999945	-0.462997278891798	0.0218109191291893	-0.496445097999945	-0.518256017129134	0.0	-0.496445097999945	0.0218109191291893	-0.496445097999945	0.0	-3.4136773506114793	-0.9965996558942452	-1.706120055455325	-3.407727160807421	-0.8377112436277778	-1.706120055455325	-1.7917885967677798	-2.9787543248472925	0.434923025764189	-2.9627582153970535	0.2600385040474838	2	correct	1.0
18.45654080004897	8.340369199984707	go_reward	1.0	18.48032349999994	19.848417399916798	22.370737799908966	1.3680938999168575	19.48321999993641	21.34549189999234	25.422269199974835	0.3651973999803886	1.0252458999166265	1.3984235000098124	24.405233999947086	0.6610018000937998	23.39317019993905	1	1	63	1	go_reward	0	0	1	1	0	0	1	0.0	0.0	1	1.0	0.6610018000937998	679.444829700049	697.925153200049	698.9280496999854	699.2932470999658	700.7903216000414	701.815567499958	702.8379998999881	703.8500636999961	704.8670989000238	706.2655224000337	2019-12-11 16:27:16.034050	-1.70143188495704	0.812215921807023	0.0	0.812215921807023	1.70143188495704	0.0	1.70143188495704	0.0	0.812215921807023	0.0	1.70143188495704	19.9212513644119	-5.633365252697653	-0.1843837340872222	-1.20967495745538	-2.1325139601086005	0.8419097222000729	-1.20967495745538	18.12946276764412	-3.0005652439764816	2.632800008721174	-2.9627582153970535	1.5686995238544519	2	wrong	1.0
26.830718499957584	8.409301200066693	go_reward	0.85316140006762	26.854501199908555	28.316245800000615	30.871075099916197	1.4617446000920609	27.85727899998892	29.847947099944577	33.91890129994135	0.45896680001169443	1.0231279999716207	1.3449011000338942	32.90643089998048	0.7916410999605432	31.877756399917416	1	1	64	1	go_reward	1	1	0	1	1	1	0	0.0	1.0	1	0.85316140006762	0.7916410999605432	679.444829700049	706.2993308999576	707.3021087000379	707.7610755000496	709.2927767999936	710.3159047999652	711.3225860999664	712.3512606000295	713.3637309999904	714.7086321000243	2019-12-11 16:27:16.034050	1.61662652535748	0.812215921807023	0.228024844518241	1.02057014096178	1.84465136987573	0.228024844518241	-1.61662652535748	0.812215921807023	0.228024844518241	1.84465136987573	0.228024844518241	19.109035442604878	-2.3153068423831336	-0.1843837340872222	-0.981650112937139	-1.9241597409538433	0.985129207118763	-0.981650112937139	17.317246845837097	-1.1559138741007515	1.1593929682823751	-2.1505422935900307	0.9845084465656698	2	correct	1.0
35.274624999961816	9.05848100001458	nogo_punish	1.0	35.29840769991279	37.26542939990759	39.80463059991598	1.9670216999948025	36.296126000001095	38.78118509997148	42.86526559991762	0.9693033999064937	1.0234454999445006	1.4916231000097468	41.84974139998667	0.7910654000006616	40.81836309994105	1	1	65	4	nogo_punish	0	0	-1	0	0	1	0	0.0	1.0	-1	1.0	0.7910654000006616	679.444829700049	714.7432373999618	715.7409557000501	716.7102590999566	718.2260148000205	719.249460299965	720.2631927999901	721.2945711000357	722.3100952999666	723.8017183999764	2019-12-11 16:27:16.034050	0.187084044494428	-0.32244562897074	0.0	-0.293031898116743	-0.187084044494428	0.0	-0.187084044494428	0.0	-0.32244562897074	0.0	-0.187084044494428	-5.69411691570176	-3.7448493232461852	-1.3190452848649852	-1.20967495745538	-3.2377617800323666	-1.046606207251395	-1.20967495745538	-7.4859055124695395	-3.0005652439764816	0.7442840792697061	-2.9627582153970535	0.43403797307668884	2	correct	1.0
44.36549920006655	8.625047499896027	go_reward	0.2044258000096306	44.38928190001752	46.322852900018916	48.87205319991335	1.9335710000013933	45.4062971000094	47.85551639995538	51.91138860001229	0.9165558000095189	1.0165367999579757	1.102940799901262	50.908023299998604	0.6880546999163926	49.880291900015436	1	1	66	1	go_reward	1	1	0	1	1	1	1	1.0	1.0	1	0.2044258000096306	0.6880546999163926	679.444829700049	723.8341116000665	724.8511268000584	725.7676826000679	727.3003461000044	728.3168828999624	729.3251216000644	730.3528530000476	731.3562183000613	732.4591590999626	2019-12-11 16:27:16.034050	1.96329522856509	1.02057014096178	0.228024844518241	1.22200891349977	2.19132007308334	0.228024844518241	-1.96329522856509	1.02057014096178	0.228024844518241	2.19132007308334	0.228024844518241	18.90068122345012	-1.9686381391755234	0.023970485067534852	-0.981650112937139	-1.7227209684158533	1.3317979103263728	-0.981650112937139	17.10889262668234	-0.8092451708931416	1.1593929682823751	-1.9421880744352735	0.9845084465656698	2	correct	1.0
53.02551710000262	8.019841499975882	nogo_punish	1.0	53.04929979995359	54.556731799966656	57.07410859991796	1.5074320000130683	54.06491029995959	56.062876499956474	60.11469479999505	0.49182150000706315	1.0112320999614894	0.95444649993442	59.10004009993281	1.0	58.09155289991759	1	1	67	4	nogo_punish	1	-1	0	0	0	1	1	n/a	0.0	0	1.0	1.0	679.444829700049	732.4941295000026	733.5097400000086	734.0015615000157	735.5077062000055	736.518938299967	737.5363825999666	738.5448697999818	739.5595245000441	740.5139709999785	2019-12-11 16:27:16.034050	0.159867450256782	-0.32244562897074	-0.069079226255899	-0.355251998901195	-0.228946676512681	-0.069079226255899	-0.159867450256782	-0.069079226255899	-0.32244562897074	-0.069079226255899	-0.228946676512681	0.069079226255899	-3.7720659174838316	-1.3190452848649852	-1.278754183711279	-3.2999818808168184	-1.0884688392696482	-1.278754183711279	-1.7227093705118808	-3.0696444702323804	0.7024214472514531	-3.0318374416529523	0.43403797307668884	2	missed	0.0
61.08105949999299	8.18603930005338	nogo_reward	0.4860007000388577	61.10484219994396	62.66238589992281	65.21456009999383	1.5575436999788508	62.11070049996488	64.1939542000182	68.2663788999198	0.5516853999579325	1.0206058999756351	1.0245026000775397	67.25252809992526	0.3068722001044079	66.23453339992557	1	1	68	2	nogo_reward	1	0	1	0	1	0	0	0.0	1.0	0	0.4860007000388577	0.3068722001044079	679.444829700049	740.549671899993	741.5555302000139	742.1072155999718	743.6387839000672	744.6593898000428	745.6793630999746	746.6973577999743	747.7112085999688	748.7357112000464	2019-12-11 16:27:16.034050	0.36951901247358	0.400708378271655	1.63367017852322	1.8579244528218	2.0031891909968	1.63367017852322	-0.36951901247358	0.400708378271655	1.63367017852322	2.0031891909968	1.63367017852322	-0.400708378271655	-3.5624143552670335	-0.5958912776225902	0.42399522106783993	-1.0868054290938234	1.143667028239833	0.42399522106783993	-2.1924969750394347	-0.9973760529796816	2.5650383022873537	-2.5620498371253984	2.3901537805706488	2	correct	1.0
69.29981740005314	8.859547199914232	go_reward	0.2927012000000104	69.32360010000411	71.16871379991062	73.7288433999056	1.8451136999065056	70.32577150000725	72.70579299994279	76.76764109998476	0.8429422999033704	1.0230503999628127	1.4155061999335885	75.76164919999428	0.0815403000451624	74.7449480999494	1	1	69	1	go_reward	1	1	0	1	1	1	0	0.0	1.0	1	0.2927012000000104	0.0815403000451624	679.444829700049	748.7684298000531	749.7706012000563	750.6135434999596	752.1506226999918	753.1736730999546	754.1897777999984	755.2064789000433	756.2124708000338	757.6279769999674	2019-12-11 16:27:16.034050	2.29910885789858	1.22200891349977	0.228024844518241	1.4179518713561	2.52713370241682	0.228024844518241	-2.29910885789858	1.22200891349977	0.228024844518241	2.52713370241682	0.228024844518241	18.69924245091213	-1.6328245098420333	0.22540925760552488	-0.981650112937139	-1.5267780105595234	1.6676115396598528	-0.981650112937139	16.90745385414435	-0.4734315415596617	1.1593929682823751	-1.7407493018972835	0.9845084465656698	2	correct	1.0
78.19491670001298	8.068798299995251	nogo_reward	0.3209208999760449	78.21869939996395	79.77156369993463	82.31420299992897	1.552864299970679	79.22537040000316	81.30290729994886	85.37290570000187	0.546193299931474	1.01129569998011	0.914591999957338	84.36023789993487	0.0268696000566706	83.33152519993018	1	1	70	2	nogo_reward	1	0	1	0	1	0	1	1.0	1.0	0	0.3209208999760449	0.0268696000566706	679.444829700049	757.663529100013	758.6702001000522	759.2163933999836	760.7477369999979	761.759032699978	762.7763548999792	763.8050675999839	764.8177354000509	765.7323274000082	2019-12-11 16:27:16.034050	0.332873222291674	0.390435472516244	1.63367017852322	1.82104369483735	1.96654340081489	1.63367017852322	-0.332873222291674	0.390435472516244	1.63367017852322	1.96654340081489	1.63367017852322	-0.390435472516244	-3.5990601454489393	-0.6061641833780012	0.42399522106783993	-1.1236861870782733	1.107021238057923	0.42399522106783993	-2.1822240692840236	-1.0340218431615915	2.5650383022873537	-2.5723227428808095	2.3901537805706488	2	correct	1.0
86.29705220006872	9.049602399929427	go_reward	0.7342252000235021	86.32083490001969	88.30822030000854	90.86142259999178	1.9873853999888524	87.32892180001363	89.83840709994547	93.90831069997512	0.9792984999949113	1.0230155000463128	1.462126599973999	92.89434759994037	0.2364698000019416	91.86789809993934	1	1	71	1	go_reward	1	1	0	1	1	1	1	0.0	0.0	1	0.7342252000235021	0.2364698000019416	679.444829700049	765.7656646000687	766.7737515000626	767.7530500000576	769.2832367999945	770.3062523000408	771.3127277999884	772.3391772999894	773.3531404000241	774.8152669999981	2019-12-11 16:27:16.034050	2.6261219856526	1.4179518713561	0.228024844518241	1.60930303943063	2.85414683017084	0.228024844518241	-2.6261219856526	1.4179518713561	0.228024844518241	2.85414683017084	0.228024844518241	18.503299493055803	-1.3058113820880135	0.42135221546185475	-0.981650112937139	-1.3354268424849933	1.994624667413873	-0.981650112937139	16.711510896288022	-0.14641841380564147	1.1593929682823751	-1.5448063440409536	0.9845084465656698	2	wrong	1.0
95.38833750004414	9.53378589998465	go_punish	1.0	95.41212019999512	97.9644835999934	100.50421299994923	2.552363399998285	96.41754379996564	99.4802668999182	103.53446989995427	1.5469398000277579	1.0239461000310257	1.4114362000254914	102.52096519991755	0.5714818000560626	101.50684139993973	1	1	72	3	go_punish	1	0	-1	1	0	0	0	1.0	0.0	-1	1.0	0.5714818000560626	679.444829700049	774.8569499000441	775.8623735000147	777.4093133000424	778.9250965999672	779.9490426999982	780.9516710999887	781.9657948999666	782.9792996000033	784.3907358000288	2019-12-11 16:27:16.034050	-0.525310219059632	0.0	-0.496445097999945	-0.453080217411766	0.0288651210596874	-0.496445097999945	0.525310219059632	-0.496445097999945	0.0	-0.496445097999945	0.0288651210596874	-5.197671817701815	-4.457243586800246	-0.9965996558942452	-1.706120055455325	-3.397810099327389	-0.8306570416972797	-1.706120055455325	-6.989460414469595	-3.4970103419764267	0.9602332448238214	-3.4592033133969986	0.7564836020474288	2	wrong	1.0
104.96119619999081	9.807434599963017	go_punish	0.1289101999718696	104.98497889994178	107.81547009991482	110.35216539993417	2.8304911999730393	105.9958023999352	109.33878869994078	113.40849319996778	1.8196676999796182	1.0133766999933869	1.3839202999370173	112.39519199996721	0.0477416000794619	111.37067999993451	1	1	73	3	go_punish	1	0	-1	1	1	1	0	0.0	1.0	0	0.1289101999718696	0.0477416000794619	679.444829700049	784.4298085999908	785.4406320999842	787.2602997999638	788.7836183999898	789.7969950999832	790.8155096999835	791.8400217000162	792.8533229000168	794.2372431999538	2019-12-11 16:27:16.034050	0.541126373899997	0.0	-0.552696126013116	-0.5132899551544	-0.0115697521131189	-0.552696126013116	-0.541126373899997	0.0	-0.552696126013116	-0.0115697521131189	-0.552696126013116	0.0	-3.3908069938406165	-0.9965996558942452	-1.762371083468496	-3.4580198370700233	-0.8710919148700861	-1.762371083468496	-1.7917885967677798	-3.0121349960896007	0.378671997751018	-2.9627582153970535	0.2037874760343128	2	correct	1.0
114.80270969995763	8.41148270003032	go_reward	0.2985232999781146	114.8264923999086	116.40790669992566	118.95889369992074	1.5814143000170588	115.84525959996972	117.94498509995174	122.0104290000163	0.5626470999559388	1.0139085999689996	1.2275460999226198	121.00648729992099	0.0927386999828741	119.97755579999648	1	1	74	1	go_reward	0	0	1	1	1	1	0	0.0	1.0	0	0.2985232999781146	0.0927386999828741	679.444829700049	794.2713220999576	795.2900893000187	795.8527363999747	797.3898148000007	798.4037233999697	799.4223855000455	800.45131699997	801.4552587000653	802.6828047999879	2019-12-11 16:27:16.034050	2.94566863359903	1.60930303943063	0.228024844518241	1.79665830567867	3.17369347811727	0.228024844518241	-2.94566863359903	1.60930303943063	0.228024844518241	3.17369347811727	0.228024844518241	-1.60930303943063	-0.9862647341415833	0.6127033835363849	-0.981650112937139	-1.1480715762369533	2.3141713153603027	-0.981650112937139	-3.4010916361984096	0.17312823414078826	1.1593929682823751	-1.3534551759664235	0.9845084465656698	2	correct	1.0
123.2483729000669	9.028826199937612	nogo_punish	0.2326498000184074	123.27215560001787	125.33375799993519	127.88580479996745	2.0616023999173194	124.28842019999865	126.86240240000188	130.9421062999172	1.045337799936533	1.023402399965562	1.3588755000382662	129.92907499999274	0.1071701999753713	128.9007487000199	1	1	75	4	nogo_punish	1	-1	0	0	1	0	0	0.0	1.0	-1	0.2326498000184074	0.1071701999753713	679.444829700049	802.7169853000669	803.7332499000477	804.7785876999842	806.3072321000509	807.3306345000165	808.3455784000689	809.3739047000417	810.3869359999662	811.7458115000045	2019-12-11 16:27:16.034050	-0.156460936791032	-0.32244562897074	-0.0662281054473166	-0.346441501870108	-0.222689042238348	-0.0662281054473166	0.156460936791032	-0.32244562897074	-0.0662281054473166	-0.222689042238348	-0.0662281054473166	-5.37167128673102	-4.088394304531645	-1.3190452848649852	-1.2759030629026966	-3.2911713837857315	-1.0822112049953152	-1.2759030629026966	-7.1634598834988	-3.2232542862148295	0.8651400183168174	-3.2852038443677936	0.6902554966001122	2	correct	1.0
132.31222970003728	8.996169799938798	go_reward	0.264739100006409	132.33601239998825	134.86656220001169	137.39433469995856	2.5305498000234365	133.35177159996238	136.38251709996257	140.44350119994488	1.5147906000493094	1.011817599995993	0.8886809999821708	139.43634959997144	0.1357791998889297	138.40851919993293	1	1	76	1	go_reward	1	1	0	1	1	1	1	0.0	0.0	1	0.264739100006409	0.1357791998889297	679.444829700049	811.7808421000373	812.7966013000114	814.3113919000607	815.8273468000116	816.8391644000076	817.8533488999819	818.8811793000204	819.8883308999939	820.7770118999761	2019-12-11 16:27:16.034050	2.87317847782282	1.56863346116043	0.228024844518241	1.75240045576551	3.10120332234106	0.228024844518241	-2.87317847782282	1.56863346116043	0.228024844518241	3.10120332234106	0.228024844518241	18.35261790325147	-1.0587548899177932	0.5720338052661849	-0.981650112937139	-1.1923294261501134	2.241681159584093	-0.981650112937139	16.56082930648369	0.10063807836457839	1.1593929682823751	-1.3941247542366235	0.9845084465656698	2	wrong	1.0
141.3429191999603	8.58239630004391	nogo_punish	0.2345343999331817	141.36670189991128	143.2859067999525	145.84533369995188	1.9192049000412226	142.37655239994638	144.8247418999672	148.90201819990762	0.9093544000061229	1.020591799984686	1.047080000047572	147.88784380001016	0.0588394000660628	146.86062259995379	1	1	77	4	nogo_punish	0	0	-1	0	1	0	1	0.0	0.0	0	0.2345343999331817	0.0588394000660628	679.444829700049	820.8115315999603	821.8213820999954	822.7307365000015	824.2695716000162	825.2901634000009	826.3054523000028	827.3326735000592	828.3468478999566	829.3939279000042	2019-12-11 16:27:16.034050	-0.257311702585734	-0.381937597912734	-0.0662281054473166	-0.407980183112011	-0.323539808033051	-0.0662281054473166	0.257311702585734	-0.381937597912734	-0.0662281054473166	-0.323539808033051	-0.0662281054473166	0.381937597912734	-4.189245070326347	-1.3785372538069791	-1.2759030629026966	-3.3527100650276345	-1.183061970790018	-1.2759030629026966	-1.4098509988550458	-3.3241050520095325	0.8651400183168174	-3.3446958133097877	0.6902554966001122	2	wrong	1.0
149.95943220006302	8.345275499974377	nogo_punish	0.3633966000052169	149.983214900014	151.7719487999566	154.3118911999045	1.7887338999425992	150.98530890000984	153.28855820000172	157.35978459997568	0.7866398999467492	1.0233329999027774	0.9687058000126854	156.33958649996202	0.4151605000952258	155.32224459992722	1	1	78	4	nogo_punish	1	-1	0	0	1	0	0	1.0	0.0	-1	0.3633966000052169	0.4151605000952258	679.444829700049	829.428044600063	830.4301386000589	831.2167785000056	832.7333879000507	833.7567208999535	834.7670742999762	835.784416200011	836.8046143000247	837.7733201000374	2019-12-11 16:27:16.034050	-0.239754617671228	-0.371168440667201	-0.0662281054473166	-0.3984239813534	-0.305982723118545	-0.0662281054473166	0.239754617671228	-0.371168440667201	-0.0662281054473166	-0.305982723118545	-0.0662281054473166	-5.322948475034559	-4.171687985411841	-1.3677680965614463	-1.2759030629026966	-3.3431538632690234	-1.1655048858755122	-1.2759030629026966	-7.114737071802338	-3.3065479670950264	0.8651400183168174	-3.3339266560642544	0.6902554966001122	2	wrong	1.0
158.34326920006424	8.489530099905096	go_punish	0.5049252000171691	158.3670519000152	159.7835707999766	162.31262300000526	1.4165188999613747	159.36997589992825	161.29890269995667	165.36566569993738	0.4135949000483379	1.0137203000485897	1.4909162999829277	164.3519083999563	0.5180903000291437	163.32835029996932	1	1	79	3	go_punish	0	-1	0	1	1	1	0	0.0	1.0	-1	0.5049252000171691	0.5180903000291437	679.444829700049	837.8118816000642	838.8148055999773	839.2284005000256	840.7437324000057	841.7574527000543	842.7731800000183	843.7967381000053	844.8104953999864	846.3014116999693	2019-12-11 16:27:16.034050	0.548900847709638	0.0	-0.552696126013116	-0.502297149346624	-0.003795278303478	-0.552696126013116	-0.548900847709638	0.0	-0.552696126013116	-0.003795278303478	-0.552696126013116	-5.69411691570176	-3.3830325200309757	-0.9965996558942452	-1.762371083468496	-3.4470270312622473	-0.8633174410604452	-1.762371083468496	-7.4859055124695395	-3.0043605222799594	0.378671997751018	-2.9627582153970535	0.2037874760343128	2	correct	1.0
166.86936400004197	8.678337499964982	nogo_reward	0.2932514999993145	166.89314669999294	168.6721824000124	171.21714239998255	1.779035700019449	167.90735180000775	170.1963248999091	174.2560365999816	0.7648306000046432	1.0208175000734627	1.3154475999763235	173.25346759997774	0.5417354000965133	172.22464619996026	1	1	80	2	nogo_reward	1	0	1	0	1	0	0	0.0	1.0	0	0.2932514999993145	0.5417354000965133	679.444829700049	846.337976400042	847.3521815000568	848.1170121000614	849.6411545999581	850.6619721000316	851.6694759000093	852.6982973000268	853.7008663000306	855.0163139000069	2019-12-11 16:27:16.034050	0.300282763754948	0.381698812004012	1.63367017852322	1.7876187397787	1.93395294227816	1.63367017852322	-0.300282763754948	0.381698812004012	1.63367017852322	1.93395294227816	1.63367017852322	-0.381698812004012	-3.6316506039856655	-0.6149008438902331	0.42399522106783993	-1.1571111421369233	1.074430779521193	0.42399522106783993	-2.1734874087717917	-1.0666123016983216	2.5650383022873537	-2.5810594033930414	2.3901537805706488	2	correct	1.0
175.58167930005584	8.923012799932621	nogo_reward	0.267231100006029	175.6054620000068	177.89335279993247	180.43981209991034	2.2878907999256626	176.61872449994553	179.4190827999264	183.48808759998064	1.2746282999869436	1.020729299983941	1.0403871999587864	182.47553529997822	0.3061913999263197	181.45822819997557	1	1	81	2	nogo_reward	1	0	1	0	1	0	0	0.0	1.0	0	0.267231100006029	0.3061913999263197	679.444829700049	855.0502917000558	856.0635541999945	857.3381824999815	858.8639124999754	859.8846417999594	860.9030579000246	861.9203650000272	862.9329173000297	863.9733044999884	2019-12-11 16:27:16.034050	0.270550061285142	0.373991246138696	1.63367017852322	1.75665870679372	1.90422023980836	1.63367017852322	-0.270550061285142	0.373991246138696	1.63367017852322	1.90422023980836	1.63367017852322	-0.373991246138696	-3.6613833064554715	-0.6226084097555491	0.42399522106783993	-1.1880711751219033	1.044698077051393	0.42399522106783993	-2.165779842906476	-1.0963450041681215	2.5650383022873537	-2.5887669692583577	2.3901537805706488	2	correct	1.0
184.54406920005567	9.414572599926032	go_punish	0.3567782999016344	184.56785190000664	187.54478969995398	190.0894260999048	2.9769377999473363	185.578885099967	189.0688237999566	193.14509219990578	1.9659045999869704	1.020602299948223	0.8373323000269011	192.13070609990973	0.2458268000045791	191.09671750001144	1	1	82	3	go_punish	1	0	-1	1	1	1	0	1.0	0.0	0	0.3567782999016344	0.2458268000045791	679.444829700049	864.0126816000557	865.023714800016	866.989619400003	868.5136535000056	869.5342557999538	870.5415472000604	871.5755357999587	872.5899218999548	873.4272541999817	2019-12-11 16:27:16.034050	0.440012540618282	-0.069079226255899	-0.552696126013116	-0.561584910070137	-0.112683585394833	-0.552696126013116	-0.440012540618282	-0.069079226255899	-0.552696126013116	-0.112683585394833	-0.552696126013116	0.069079226255899	-3.4919208271223314	-1.0656788821501442	-1.762371083468496	-3.5063147919857602	-0.9722057481518002	-1.762371083468496	-1.7227093705118808	-3.1132488293713148	0.378671997751018	-3.0318374416529523	0.2037874760343128	2	wrong	1.0
193.99150720005855	8.858897999976762	go_reward	0.117168299970217	194.01528990000952	196.02028529997915	198.57896650000475	2.00499539996963	195.0174691999564	197.55939159996342	201.62958559999242	1.0028161000227556	1.0195749000413343	1.2446022999938577	200.62519699998666	0.3904633999336511	199.5960342999315	1	1	83	1	go_reward	0	0	1	1	1	1	0	0.0	1.0	0	0.117168299970217	0.3904633999336511	679.444829700049	873.4601196000585	874.4622989000054	875.4651150000282	877.0042213000124	878.0237962000538	879.0408639999805	880.0700267000357	881.0744153000414	882.3190176000353	2019-12-11 16:27:16.034050	3.19650784730074	1.76190853637335	0.228024844518241	1.94237719946618	3.42453269181898	0.228024844518241	-3.19650784730074	1.76190853637335	0.228024844518241	3.42453269181898	0.228024844518241	-1.76190853637335	-0.7354255204398736	0.7653088804791048	-0.981650112937139	-1.0023526824494433	2.565010529062013	-0.981650112937139	-3.55369713314113	0.4239674478424984	1.1593929682823751	-1.2008496790237035	0.9845084465656698	2	correct	1.0
202.8918040000135	8.965946599957533	go_punish	0.257610599976033	202.91558669996448	205.34980839991476	207.88311840000097	2.4342216999502853	203.92893840000033	206.87752300000284	210.9435316999443	1.42086999991443	1.0055953999981284	0.9380015999777243	209.92962339997757	0.2685795999132097	208.9009627000196	1	1	84	3	go_punish	1	0	-1	1	1	1	1	0.0	0.0	0	0.257610599976033	0.2685795999132097	679.444829700049	882.3604164000135	883.3737681000493	884.7946380999638	886.3223527000519	887.32794810005	888.3457924000686	889.3744531000266	890.3883613999933	891.326362999971	2019-12-11 16:27:16.034050	0.451203471694412	-0.0662281054473166	-0.552696126013116	-0.549763935776917	-0.101492654318704	-0.552696126013116	-0.451203471694412	-0.0662281054473166	-0.552696126013116	-0.101492654318704	-0.552696126013116	0.0662281054473166	-3.4807298960462014	-1.0628277613415618	-1.762371083468496	-3.49449381769254	-0.9610148170756712	-1.762371083468496	-1.7255604913204632	-3.1020578982951856	0.378671997751018	-3.02898632084437	0.2037874760343128	2	wrong	1.0
211.8921419000253	9.65813090000313	nogo_punish	0.2762949999887496	211.91592459997628	214.69219939992763	217.22798149997834	2.776274799951352	212.9351142999949	216.21280769992154	220.28403779992368	1.7570850999327376	1.0151738000568002	1.2900177000557278	219.27045710000675	0.7832983999978751	218.24297649995424	1	1	85	4	nogo_punish	1	-1	0	0	1	0	0	0.0	1.0	-1	0.2762949999887496	0.7832983999978751	679.444829700049	891.3607543000253	892.3799440000439	894.1370290999766	895.6576373999706	896.6728112000274	897.6878062000033	898.7152868000558	899.7288674999727	901.0188852000284	2019-12-11 16:27:16.034050	-0.340646943732582	-0.431238988802856	-0.0662281054473166	-0.459193741383281	-0.406875049179899	-0.0662281054473166	0.340646943732582	-0.431238988802856	-0.0662281054473166	-0.406875049179899	-0.0662281054473166	-5.262877926898904	-4.272580311473195	-1.4278386446971012	-1.2759030629026966	-3.4039236232989043	-1.266397211936866	-1.2759030629026966	-7.0546665236666835	-3.4074402931563808	0.8651400183168174	-3.3939972041999096	0.6902554966001122	2	correct	1.0
221.58432889997482	9.13049260003038	go_reward	0.0027997998986393	221.6081115999258	224.22494909993839	226.77462549996562	2.6168375000125934	222.6151486999588	225.75761410000257	229.83890580001741	1.6098003999795765	1.017011399963053	0.8996983999387567	228.83381889993336	0.7199423999991268	227.7925678999162	1	1	86	1	go_reward	0	0	1	1	1	1	0	0.0	1.0	0	0.0027997998986393	0.7199423999991268	679.444829700049	901.0529412999748	902.0599784000078	903.6697787999874	905.2024438000516	906.2194552000146	907.2373975999652	908.2786485999824	909.2837355000664	910.1834339000052	2019-12-11 16:27:16.034050	3.12512342057584	1.72163288302191	0.228024844518241	1.8990178072772	3.35314826509408	0.228024844518241	-3.12512342057584	1.72163288302191	0.228024844518241	3.35314826509408	0.228024844518241	-1.72163288302191	-0.8068099471647736	0.7250332271276649	-0.981650112937139	-1.0457120746384234	2.493626102337113	-0.981650112937139	-3.51342147978969	0.3525830211175984	1.1593929682823751	-1.2411253323751434	0.9845084465656698	2	correct	1.0
230.75512440002058	9.322713100002261	go_punish	0.5005612999666482	230.77890709997155	233.2558884000174	235.81169579993002	2.47698130004585	231.77853499993216	234.78658229997382	238.867294900003	1.477353400085235	1.0251134999562055	1.2343252999708056	237.86064719990816	0.1532485999632626	236.8242559999926	1	1	87	3	go_punish	1	0	-1	1	1	1	0	0.0	1.0	0	0.5005612999666482	0.1532485999632626	679.444829700049	910.2237368000206	911.2233646999812	912.7007181000664	914.2314120000228	915.256525499979	916.2690857000416	917.3054768999572	918.312124600052	919.5464499000228	2019-12-11 16:27:16.034050	0.460817148977693	-0.0640490829629574	-0.552696126013116	-0.539204781673807	-0.0918789770354228	-0.552696126013116	-0.460817148977693	-0.0640490829629574	-0.552696126013116	-0.0918789770354228	-0.552696126013116	0.0640490829629574	-3.4711162187629205	-1.0606487388572026	-1.762371083468496	-3.48393466358943	-0.9514011397923899	-1.762371083468496	-1.7277395138048224	-3.0924442210119043	0.378671997751018	-3.0268072983600107	0.2037874760343128	2	correct	1.0
240.11290529998962	8.379938099998753	nogo_reward	1.0	240.1366879999406	241.97696269990422	244.51571750000574	1.8402746999636292	241.1429615999806	243.49263679992862	247.55489879997901	0.8340010999236256	1.0230807000771165	0.9617272999603301	246.54407519998495	0.8067095999140292	245.5207373999292	1	1	88	2	nogo_reward	1	0	1	0	0	1	0	0.0	1.0	1	1.0	0.8067095999140292	679.444829700049	919.5815176999896	920.5877913000296	921.4217923999532	922.9374664999776	923.9605472000547	924.9655670999782	925.988904900034	926.999728500028	927.9614557999884	2019-12-11 16:27:16.034050	-0.24291036407527	0.366999692140476	1.63367017852322	1.72753397890523	1.87658054259849	1.63367017852322	0.24291036407527	1.63367017852322	0.366999692140476	1.63367017852322	1.87658054259849	18.28758118588868	-4.1748437318158835	-0.6295999637537691	0.42399522106783993	-1.2171959030103934	1.017058379841523	0.42399522106783993	16.4957925891209	-1.3668950654532617	2.8079486663626243	-1.3290880368738336	1.123483294187905	2	correct	1.0
248.52783829998225	8.282617000048162	nogo_punish	0.8102650999790058	248.55162099993322	250.03520699997898	252.5776395999128	1.4835860000457615	249.56712799996603	251.56672669993702	255.6369592999108	0.4680790000129491	1.0109128999757786	1.1972787000705694	254.62382809992414	0.1860905999783426	253.59640359994955	1	1	89	4	nogo_punish	0	0	-1	0	1	0	0	0.0	1.0	0	0.8102650999790058	0.1860905999783426	679.444829700049	927.9964506999822	929.011957700015	929.480036700028	931.011556399986	932.0224692999618	933.0412332999986	934.0686577999732	935.0817889999598	936.2790677000304	2019-12-11 16:27:16.034050	-0.438420831608164	-0.489615442364059	-0.0662281054473166	-0.51794535505995	-0.50464893705548	-0.0662281054473166	0.438420831608164	-0.489615442364059	-0.0662281054473166	-0.50464893705548	-0.0662281054473166	0.489615442364059	-4.370354199348777	-1.4862150982583042	-1.2759030629026966	-3.4626752369755733	-1.364171099812447	-1.2759030629026966	-1.3021731544037207	-3.5052141810319615	0.8651400183168174	-3.4523736577611124	0.6902554966001122	2	correct	1.0
256.84750629996404	8.802114500082212	nogo_reward	0.3119877999415621	256.871288999915	259.103615699918	261.662689599907	2.232326700003	257.88513489998877	260.6429368999088	264.71228739991784	1.2184807999292389	1.0197526999982074	0.96111610007938	263.69489479996264	1.0	262.686264100019	1	1	90	2	nogo_reward	1	0	1	0	1	0	1	n/a	0.0	1	0.3119877999415621	1.0	679.444829700049	936.316118699964	937.3299646000378	938.548445399967	940.0877665999578	941.107519299956	942.131093800068	943.1397245000117	944.1571170999669	945.1182332000462	2019-12-11 16:27:16.034050	0.195022595200543	0.366999692140476	1.81942660665661	1.92785866299553	2.01444920185715	1.81942660665661	-0.195022595200543	0.366999692140476	1.81942660665661	2.01444920185715	1.81942660665661	-0.366999692140476	-3.7369107725400705	-0.6295999637537691	0.60975164920123	-1.0168712189200932	1.154927039100183	0.60975164920123	-2.158788288908256	-0.9861160421193316	2.7507947304207443	-2.5957585232565776	2.575910208704039	2	missed	0.0
265.6841034999816	7.729462300078012	go_reward	0.8153384999604896	265.70788619993255	267.0641597999494	269.61906419997104	1.3562736000168343	266.715072699939	268.59571909997624	272.662850099965	0.34908710001036525	1.023345099994799	0.7744984000455588	271.65248819999397	0.1967305999714881	270.63684299995657	1	1	91	1	go_reward	1	1	0	1	1	1	0	0.0	1.0	1	0.8153384999604896	0.1967305999714881	679.444829700049	945.1527158999816	946.159902399988	946.5089894999984	948.0405488000252	949.06389390002	950.0816727000056	951.097317900043	952.107679800014	952.8821782000596	2019-12-11 16:27:16.034050	3.06247254440431	1.68636871859346	0.228024844518241	1.86083505688526	3.29049738892255	0.228024844518241	-3.06247254440431	1.68636871859346	0.228024844518241	3.29049738892255	0.228024844518241	18.23488264581844	-0.8694608233363033	0.6897690626992148	-0.981650112937139	-1.0838948250303633	2.430975226165583	-0.981650112937139	16.44309404905066	0.28993214494606834	1.1593929682823751	-1.2763894968035936	0.9845084465656698	2	correct	1.0
273.4481611000374	8.410474799922667	go_reward	1.0	273.47194379998837	274.84589369990863	277.3642536000116	1.3739498999202624	274.4879872999154	276.35318179999024	280.4151529999218	0.35790639999322593	1.011071800021341	1.4672655999892186	279.4009965999286	0.0769317999947816	278.3826646999222	1	1	92	1	go_reward	1	1	0	1	0	0	0	0.0	1.0	0	1.0	0.0769317999947816	679.444829700049	952.9167735000374	953.9328169999644	954.2907233999576	955.7980115000393	956.8090833000606	957.8274943999712	958.8458262999776	959.8599826999708	961.32724829996	2019-12-11 16:27:16.034050	-3.3913502596413	1.88256719698982	0.228024844518241	2.05424683132171	3.61937510415954	0.228024844518241	3.3913502596413	0.228024844518241	1.88256719698982	0.228024844518241	3.61937510415954	-0.228024844518241	-7.3232836273819135	0.8859675410955747	-0.981650112937139	-0.8904830505939132	2.7598529414025728	-0.981650112937139	-2.0198134412860207	-2.7725403994582405	4.5507432279236735	-2.7347333708788124	2.639050799037249	2	correct	1.0
281.8922045000364	8.788569099968186	nogo_punish	0.5767556999344379	281.9159871999874	283.95674890000373	286.511235199985	2.0407617000163327	282.9184586999472	285.4949319999432	289.5466165000106	1.0382902000565082	1.0163032000417616	1.1579397999449839	288.53230550000455	0.4687303999671712	287.51479799998936	1	1	93	4	nogo_punish	1	-1	0	0	1	0	0	0.0	1.0	-1	0.5767556999344379	0.4687303999671712	679.444829700049	961.3608169000364	962.3632883999962	963.4015786000527	964.9397616999922	965.956064900034	966.9596277000384	967.9771352000536	968.9914462000596	970.1493860000046	2019-12-11 16:27:16.034050	-0.417870497572786	-0.477525100613042	-0.0662281054473166	-0.506021154903694	-0.484098603020102	-0.0662281054473166	0.417870497572786	-0.477525100613042	-0.0662281054473166	-0.484098603020102	-0.0662281054473166	-5.216591815088718	-4.349803865313399	-1.4741247565072872	-1.2759030629026966	-3.4507510368193173	-1.3436207657770691	-1.2759030629026966	-7.008380411856497	-3.4846638469965834	0.8651400183168174	-3.4402833160100954	0.6902554966001122	2	correct	1.0
290.714435199974	8.495827900013069	nogo_reward	1.0	290.73821789992496	292.24456269992515	294.7809634999138	1.5063448000001927	291.75507299997855	293.76119320001453	297.8401010999222	0.48948969994660274	1.0197702998992781	1.3939447000158225	296.8265209000092	0.1061049000127241	295.79944219999015	1	1	94	2	nogo_reward	0	1	0	0	0	1	0	0.0	1.0	0	1.0	0.1061049000127241	679.444829700049	970.183047599974	971.1999027000276	971.6893923999742	973.2060229000635	974.2257931999628	975.2442719000392	976.2713506000582	977.2849307999712	978.678875499987	2019-12-11 16:27:16.034050	-0.548520830187735	0.588551131368303	1.81942660665661	2.11982449755848	2.36794743684434	1.81942660665661	0.548520830187735	1.81942660665661	0.588551131368303	1.81942660665661	2.36794743684434	-1.81942660665661	-4.480454197928348	-0.4080485245259422	0.60975164920123	-0.8249053843571432	1.5084252740873727	0.60975164920123	-3.61121520342439	-1.1811386373198716	3.299315560608474	-1.1433316087404435	1.3450347334157318	2	correct	1.0
299.24377729999844	8.31598069996096	go_reward	0.6668782999040559	299.2675599999494	301.0026078999508	303.5529814999318	1.7350479000014047	300.26912229997095	302.5394037999214	306.5996932999698	0.733485599979872	1.0135777000103872	0.9838473999406006	305.594854399911	0.5300896000117064	304.5694943999406	1	1	95	1	go_reward	0	0	1	1	1	1	0	0.0	1.0	0	0.6668782999040559	0.5300896000117064	679.444829700049	978.7123896999984	979.71395200002	980.4474375999998	981.9842334999704	982.9978111999808	984.0143240999896	985.03968409996	986.0445230000188	987.0283703999594	2019-12-11 16:27:16.034050	3.37122126974461	1.88256719698982	0.218516763910399	2.01269088117684	3.58973803365501	0.218516763910399	-3.37122126974461	1.88256719698982	0.218516763910399	3.58973803365501	0.218516763910399	-1.88256719698982	-0.5607120979960034	0.8859675410955747	-0.991158193544981	-0.9320390007387833	2.730215870898043	-0.991158193544981	-3.6743557937575995	0.5891727896785284	1.1498848876745331	-1.0801910184072336	0.9750003659578278	2	correct	1.0
307.5932993000606	7.692675399943255	nogo_punish	0.562338599935174	307.6170820000116	308.90111699991394	311.45682309998654	1.2840349999023601	308.621077699936	310.43353119993117	314.50352339993697	0.2800392999779433	1.0232919000553693	0.8062340000178665	313.49035229999583	0.4947660999605432	312.46287940000184	1	1	96	4	nogo_punish	1	-1	0	0	1	0	0	0.0	1.0	-1	0.562338599935174	0.4947660999605432	679.444829700049	987.0619117000606	988.065907399985	988.345946699963	989.8783608999802	990.9016528000355	991.9077091000509	992.9351820000448	993.948353099986	994.7545871000038	2019-12-11 16:27:16.034050	-0.515858517758524	-0.536169424217991	-0.0662281054473166	-0.564693972534995	-0.582086623205841	-0.0662281054473166	0.515858517758524	-0.536169424217991	-0.0662281054473166	-0.582086623205841	-0.0662281054473166	-5.157947491483769	-4.447791885499138	-1.532769080112236	-1.2759030629026966	-3.509423854450618	-1.4416087859628082	-1.2759030629026966	-6.949736088251549	-3.5826518671823226	0.8651400183168174	-3.4989276396150446	0.6902554966001122	2	correct	1.0
315.31901460001245	9.104369399952816	go_reward	0.1264083000132814	315.3427972999634	318.0910124999938	320.6357041000156	2.7482152000303586	316.33412499993574	319.61449249996804	323.6722432000098	1.756887500058042	1.0212116000475362	0.7749234999064356	322.6662155999802	0.1773033000063151	321.643327299971	1	1	97	1	go_reward	0	0	1	1	1	1	1	1.0	1.0	0	0.1264083000132814	0.1773033000063151	679.444829700049	994.7876270000124	995.7789546999848	997.5358422000428	999.059322200017	1000.0805338000646	1001.08815700002	1002.1110453000292	1003.1170729000588	1003.8919963999653	2019-12-11 16:27:16.034050	3.30568129636903	1.84368904460038	0.218516763910399	1.97528373395047	3.52419806027943	0.218516763910399	-3.30568129636903	1.84368904460038	0.218516763910399	3.52419806027943	0.218516763910399	-1.84368904460038	-0.6262520713715833	0.8470893887061348	-0.991158193544981	-0.9694461479651533	2.664675897522463	-0.991158193544981	-3.6354776413681598	0.5236328163029484	1.1498848876745331	-1.1190691707966736	0.9750003659578278	2	correct	1.0
324.4582851000596	7.940640199929476	go_reward	0.7893082000082359	324.48206780001055	325.8162899999878	328.36653299990576	1.3342221999772619	325.48874579998653	327.3430984999286	331.4069425999186	0.3275442000012845	1.0234344999771565	1.0157654000214507	330.394195599947	0.4448624999495223	329.3817697999766	1	1	98	1	go_reward	1	1	0	1	1	1	0	0.0	1.0	1	0.7893082000082359	0.4448624999495223	679.444829700049	1003.9268975000596	1004.9335755000355	1005.2611197000368	1006.7879281999776	1007.8113626999548	1008.8265995000256	1009.839025299996	1010.8517722999676	1011.867537699989	2019-12-11 16:27:16.034050	3.24633077819721	1.80886707601047	0.218516763910399	1.94078694389157	3.46484754210761	0.218516763910399	-3.24633077819721	1.80886707601047	0.218516763910399	3.46484754210761	0.218516763910399	18.112384288401433	-0.6856025895434033	0.8122674201162248	-0.991158193544981	-1.0039429380240534	2.605325379350643	-0.991158193544981	16.320595691633653	0.46428229813112853	1.1498848876745331	-1.1538911393865836	0.9750003659578278	2	correct	1.0
332.43361099995684	9.031154800090007	nogo_reward	0.7706864000065252	332.4573936999078	334.643917499925	337.16385070001695	2.1865238000171985	333.47325869998895	336.1624789999332	340.2146620999556	1.1706587999360636	1.0013717000837232	1.2738864000422154	339.2006200000178	0.3105069000739604	338.172151900013	1	1	99	2	nogo_reward	1	0	1	0	1	0	0	0.0	1.0	0	0.7706864000065252	0.3105069000739604	679.444829700049	1011.9022233999568	1012.918088400038	1014.088747199974	1015.6073086999822	1016.608680400066	1017.616981600062	1018.6454497000668	1019.6594918000046	1020.9333782000468	2019-12-11 16:27:16.034050	0.563984417449271	0.588551131368303	1.77392764669552	2.07744440670479	2.33791206414479	1.77392764669552	-0.563984417449271	0.588551131368303	1.77392764669552	2.33791206414479	1.77392764669552	-0.588551131368303	-3.3679489502913427	-0.4080485245259422	0.56425268924014	-0.8672854752108332	1.478389901387823	0.56425268924014	-2.3803397281360827	-0.6626531798316915	2.705295770459654	-2.3742070840287504	2.530411248742949	2	correct	1.0
341.4985590999712	7.901710300007949	go_reward	0.3186405999585986	341.5223417999222	343.07997369999055	345.6268214000156	1.5576319000683725	342.51814099994954	344.6035652999999	348.665490699932	0.561832700041009	1.0232561000157148	0.7585613999981433	347.6541437999115	0.970297700027004	346.63431270001456	1	1	100	1	go_reward	1	1	0	1	1	1	1	0.0	0.0	1	0.3186405999585986	0.970297700027004	679.444829700049	1020.9671714999712	1021.9629706999986	1022.5248034000396	1024.048395000049	1025.0716511000646	1026.0791424000636	1027.0989734999605	1028.110320399981	1028.8688817999791	2019-12-11 16:27:16.034050	3.57686525750067	2.00489954232344	0.218516763910399	2.13645023167036	3.79538202141107	0.218516763910399	-3.57686525750067	2.00489954232344	0.218516763910399	3.79538202141107	0.218516763910399	17.916351822088462	-0.35506811023994356	1.0082998864291948	-0.991158193544981	-0.8082796502452632	2.9358598586541027	-0.991158193544981	16.12456322532068	0.7948167774345882	1.1498848876745331	-0.9578586730736136	0.9750003659578278	2	wrong	1.0
349.4349665000336	8.035704599926476	nogo_punish	0.981881800107658	349.4587491999846	351.03673329995945	353.5966217999812	1.5779840999748558	350.4745528999481	352.5730406999353	356.634905599989	0.562180400011357	1.0235811000459307	0.8595481999220738	355.630808899994	0.4550112000433728	354.6015856999438	1	1	101	4	nogo_punish	1	-1	0	0	1	0	0	0.0	1.0	-1	0.981881800107658	0.4550112000433728	679.444829700049	1028.9035789000336	1029.919382599997	1030.4815630000085	1032.0178703999843	1033.0414515000302	1034.0464153999928	1035.075638600043	1036.079735300038	1036.93928349996	2019-12-11 16:27:16.034050	-0.610815001105696	-0.593071474955331	-0.0662281054473166	-0.621532158663076	-0.677043106553013	-0.0662281054473166	0.610815001105696	-0.593071474955331	-0.0662281054473166	-0.677043106553013	-0.0662281054473166	-5.101045440746429	-4.5427483688463095	-1.5896711308495761	-1.2759030629026966	-3.5662620405786996	-1.53656526930998	-1.2759030629026966	-6.892834037514208	-3.6776083505294945	0.8651400183168174	-3.5558296903523843	0.6902554966001122	2	correct	1.0
357.5115493000485	8.802097799954936	go_punish	0.9696220000041648	357.53533199999947	359.37896999996156	361.9256810999941	1.843637999962084	358.5449959000107	360.9105582999764	364.99477210000623	0.8339740999508649	1.015122800017707	1.3426576999481767	363.98066989996005	0.3715272999834269	362.94599439995363	1	1	102	3	go_punish	0	-1	0	1	1	1	0	0.0	1.0	-1	0.9696220000041648	0.3715272999834269	679.444829700049	1036.9801617000485	1037.9898256000597	1038.8237997000106	1040.3553880000254	1041.3705108000431	1042.3908241000026	1043.425499600009	1044.4396018000552	1045.7822595000034	2019-12-11 16:27:16.034050	0.469375307820053	-0.0622892302210187	-0.552696126013116	-0.529508770376704	-0.0833208181930625	-0.552696126013116	-0.469375307820053	-0.0622892302210187	-0.552696126013116	-0.0833208181930625	-0.552696126013116	-5.631827685480741	-3.4625580599205605	-1.0588888861152639	-1.762371083468496	-3.4742386522923274	-0.9428429809500296	-1.762371083468496	-7.4236162822485205	-3.0838860621695443	0.378671997751018	-3.025047445618072	0.2037874760343128	2	correct	1.0
366.3504482000137	8.50340479996521	nogo_reward	1.0	366.3742308999647	368.05822000000626	370.5888266999973	1.6839891000415719	367.3719405999873	369.5743050000167	373.6340046999976	0.6862794000189751	1.0145216999806053	1.243630999932293	372.6215136999963	0.6058908000122756	371.6026237999322	1	1	103	2	nogo_reward	1	0	1	0	0	1	0	0.0	1.0	1	1.0	0.6058908000122756	679.444829700049	1045.8190606000137	1046.8167703000363	1047.5030497000553	1049.0191347000657	1050.0336564000463	1051.0474534999812	1052.0663434000453	1053.0788344000466	1054.322465399979	2019-12-11 16:27:16.034050	-0.521502217872825	0.572959679653274	1.77392764669552	2.03952961047931	2.29542986456835	1.77392764669552	0.521502217872825	1.77392764669552	0.572959679653274	1.77392764669552	2.29542986456835	18.147323717716382	-4.453435585613438	-0.42363997624097116	0.56425268924014	-0.9052002714363132	1.435907701811383	0.56425268924014	16.355535120948602	-1.2266375972809616	3.226797988332484	-1.1888305687015335	1.3294432817007027	2	correct	1.0
374.89416979998373	9.314083100063499	go_punish	1.0	374.9179524999347	377.50240160000976	380.0513061999809	2.5844491000750622	375.9252563000191	379.0184885999188	383.0977894999087	1.5771452999906614	1.032817600062117	1.1342461000895128	382.089261099929	0.8325749000068754	381.0670170999365	1	1	104	3	go_punish	1	0	-1	1	0	0	1	1.0	1.0	-1	1.0	0.8325749000068754	679.444829700049	1054.3627821999837	1055.370086000068	1056.9472313000588	1058.4633182999678	1059.49613590003	1060.5118467999855	1061.534090799978	1062.5426191999577	1063.6768653000472	2019-12-11 16:27:16.034050	-0.361398806701718	-0.129879210339447	-0.552696126013116	-0.589512179581589	-0.191297319311398	-0.552696126013116	0.361398806701718	-0.552696126013116	-0.129879210339447	-0.552696126013116	-0.191297319311398	-5.1414207896886435	-4.293332174442331	-1.1264788662336922	-1.762371083468496	-3.5342420614972125	-1.0508194820683652	-1.762371083468496	-6.933209386456423	-3.5532613699895976	0.740070804452736	-3.5154543414101695	0.6266043917079818	2	correct	1.0
384.2467532999581	8.40489390003495	go_punish	0.5634066000347957	384.27053599990904	386.09424319991376	388.6384430999169	1.8237072000047192	385.2826209999621	387.613930099993	391.6860298999818	0.8116221999516711	1.0245129999238998	0.9893999999621883	390.67278369993437	0.2018606000347063	389.64257829997223	1	1	105	3	go_punish	0	-1	0	1	1	1	0	0.0	1.0	-1	0.5634066000347957	0.2018606000347063	679.444829700049	1063.715365699958	1064.727450700011	1065.5390728999628	1067.058759800042	1068.083272799966	1069.0874080000212	1070.1176133999834	1071.1308596000308	1072.120259599993	2019-12-11 16:27:16.034050	0.377967087748386	-0.129879210339447	-0.607968481985912	-0.647132264092967	-0.230001394237527	-0.607968481985912	-0.377967087748386	-0.129879210339447	-0.607968481985912	-0.230001394237527	-0.607968481985912	-5.564237705362313	-3.5539662799922276	-1.1264788662336922	-1.8176434394412921	-3.5918621460085904	-1.089523556994494	-1.8176434394412921	-7.3560263021300925	-3.230566638214009	0.323399641778222	-3.0926374257365006	0.1485151200615168	2	correct	1.0
392.6909656999633	8.208071400062181	go_punish	1.0	392.71474839991424	394.1628531999886	396.6848013999406	1.4481048000743613	393.72611649998	395.6787880999036	399.726090000011	0.4367367000086233	1.0060133000370115	1.1967297999653965	398.71253129991237	0.6302616000175476	397.6913995000068	1	1	106	3	go_punish	1	0	-1	1	0	0	1	0.0	0.0	-1	1.0	0.6302616000175476	679.444829700049	1072.1595780999633	1073.170946200029	1073.6076829000376	1075.1236177999526	1076.1296310999896	1077.1362292000558	1078.1573609999614	1079.17091970006	1080.3676495000254	2019-12-11 16:27:16.034050	-0.275638217764316	-0.19479930064521	-0.607968481985912	-0.702942600564663	-0.332330264221596	-0.607968481985912	0.275638217764316	-0.607968481985912	-0.19479930064521	-0.607968481985912	-0.332330264221596	-5.086148433715848	-4.20757158550493	-1.1913989565394552	-1.8176434394412921	-3.6476724824802864	-1.191852426978563	-1.8176434394412921	-6.877937030483627	-3.6085337259623937	0.5990378595425381	-3.5707266973829657	0.5616843014022188	2	wrong	1.0
400.9367414000444	9.486765299923718	go_punish	1.0	400.9605240999954	403.6717231000073	406.19409140001517	2.711199000011902	401.9732454000041	405.1794908000156	409.2353459999431	1.6984777000031954	1.0146005999995396	1.2119433999760076	408.2224208000116	0.6537934000371024	407.2038279999979	1	1	107	3	go_punish	1	0	-1	1	0	0	1	1.0	1.0	-1	1.0	0.6537934000371024	679.444829700049	1080.4053538000444	1081.418075100053	1083.1165528000563	1084.6243205000646	1085.6389211000642	1086.648657700047	1087.6672505000606	1088.680175699992	1089.892119099968	2019-12-11 16:27:16.034050	-0.293616689119416	-0.19479930064521	-0.662308570201387	-0.75729666354445	-0.368691881081972	-0.662308570201387	0.293616689119416	-0.662308570201387	-0.19479930064521	-0.662308570201387	-0.368691881081972	-5.031808345500373	-4.22555005686003	-1.1913989565394552	-1.871983527656767	-3.7020265454600736	-1.228214043838939	-1.871983527656767	-6.823596942268153	-3.6628738141778685	0.5626762426821621	-3.6250667855984404	0.5616843014022188	2	correct	1.0
410.4627358999569	8.742761700064875	nogo_punish	1.0	410.48651859990787	412.1601889999581	414.68701939994935	1.6736704000502414	411.50464009994175	413.6663474999368	417.75102829991374	0.6555489000163561	1.0206719000125304	1.4782520000590011	416.7386139999144	0.135608300101012	415.7050456999568	1	1	108	4	nogo_punish	1	-1	0	0	0	1	0	1.0	0.0	0	1.0	0.135608300101012	679.444829700049	1089.9313482999569	1090.9494697999908	1091.6050187000071	1093.1111771999858	1094.1318490999984	1095.1498754000058	1096.1834436999634	1097.1958579999628	1098.6741100000218	2019-12-11 16:27:16.034050	0.703327680355536	-0.64857026417052	-0.0662281054473166	-0.676904097355659	-0.769555785802853	-0.0662281054473166	-0.703327680355536	-0.0662281054473166	-0.64857026417052	-0.0662281054473166	-0.769555785802853	0.0662281054473166	-3.2286056873850777	-1.6451699200647651	-1.2759030629026966	-3.6216339792712824	-1.6290779485598201	-1.2759030629026966	-1.7255604913204632	-3.066793349423798	0.16181233796128103	-3.02898632084437	0.10791333787690882	2	wrong	1.0
419.2422022999965	8.291688599972758	nogo_punish	1.0	419.2659849999475	421.0715677000119	423.5959251999159	1.8055827000644058	420.282661599922	422.5760714999633	426.6519788999576	0.7889061000898892	1.0198536999525913	0.9056946999626234	425.6481659999117	0.1984524000436067	424.62022969999816	1	1	109	4	nogo_punish	1	-1	0	0	0	1	0	0.0	1.0	0	1.0	0.1984524000436067	679.444829700049	1098.7108146999965	1099.727491299971	1100.516397400061	1102.0209012000123	1103.040754899965	1104.0650594000472	1105.0929956999607	1106.0968086000066	1107.0025032999692	2019-12-11 16:27:16.034050	0.694922559037688	-0.64857026417052	-0.0640490829629574	-0.661960600540685	-0.758971642000645	-0.0640490829629574	-0.694922559037688	-0.0640490829629574	-0.64857026417052	-0.0640490829629574	-0.758971642000645	0.0640490829629574	-3.2370108087029257	-1.6451699200647651	-1.2737240404183374	-3.606690482456308	-1.618493804757612	-1.2737240404183374	-1.7277395138048224	-3.064614326939439	0.17239648176348898	-3.0268072983600107	0.10791333787690882	2	correct	1.0
427.5690908000106	9.830712200026028	go_reward	0.1663973999675363	427.59287349996157	430.3376750999596	432.87865530001	2.744801599998027	428.61237689992413	431.86310879990947	435.9323314999931	1.7252982000354677	1.0155465001005268	1.4912541999945006	434.9275052999146	0.2330656000413	433.89939649996813	1	1	110	1	go_reward	1	1	0	1	1	1	0	0.0	1.0	1	0.1663973999675363	0.2330656000413	679.444829700049	1107.0377032000106	1108.0572065999731	1109.7825048000086	1111.3079384999585	1112.323485000059	1113.3442262000171	1114.3723349999636	1115.377161200042	1116.8684154000366	2019-12-11 16:27:16.034050	3.89439326709055	2.19348724617869	0.218516763910399	2.32424226709589	4.11291003100095	0.218516763910399	-3.89439326709055	2.19348724617869	0.218516763910399	4.11291003100095	0.218516763910399	17.72776411823321	-0.0375401006500633	1.196887590284445	-0.991158193544981	-0.6204876148197331	3.2533878682439825	-0.991158193544981	15.93597552146543	1.112344787024468	1.1498848876745331	-0.7692709692183635	0.9750003659578278	2	correct	1.0
437.4378865000326	8.361741599976085	go_punish	1.0	437.4616691999836	438.8644888999406	441.39552639995236	1.4028196999570355	438.474604499992	440.37216009991243	444.4242891999893	0.38988439994864166	1.0233663000399247	1.3991215999703854	443.4099055000113	0.3016074999468401	442.3980284999127	1	1	111	3	go_punish	1	0	-1	1	0	0	0	1.0	0.0	-1	1.0	0.3016074999468401	679.444829700049	1116.9064989000326	1117.919434200041	1118.3093185999896	1119.8169897999614	1120.8403561000014	1121.8428581999617	1122.8547352000603	1123.8691189000383	1125.2682405000087	2019-12-11 16:27:16.034050	-0.311584574531322	-0.19479930064521	-0.715754550290478	-0.810419853241167	-0.404169975759156	-0.715754550290478	0.311584574531322	-0.715754550290478	-0.19479930064521	-0.715754550290478	-0.404169975759156	-4.978362365411282	-4.243517942271936	-1.1913989565394552	-1.925429507745858	-3.7551497351567904	-1.263692138516123	-1.925429507745858	-6.770150962179062	-3.7163197942669597	0.5271981480049781	-3.6785127656875316	0.5616843014022188	2	wrong	1.0
445.8365711000515	8.838846099912189	nogo_reward	0.2373959000688046	445.8603538000025	447.73027479997836	450.28512319992296	1.869920999975875	446.86546939995605	449.2620128999697	453.3467514999211	0.8648054000223055	1.0231102999532595	1.352448399993591	452.3326288999524	0.6262304000556469	451.3004579999249	1	1	112	2	nogo_reward	0	1	0	0	1	0	0	0.0	1.0	1	0.2373959000688046	0.6262304000556469	679.444829700049	1125.3051835000515	1126.310299100005	1127.1751045000274	1128.7068426000187	1129.729952899972	1130.745287699974	1131.7774586000014	1132.79158119997	1134.1440295999637	2019-12-11 16:27:16.034050	0.465286155388345	0.572959679653274	1.96290732528299	2.23270341360577	2.42819348067134	1.96290732528299	-0.465286155388345	0.572959679653274	1.96290732528299	2.42819348067134	1.96290732528299	19.348291684758628	-3.4666472123522682	-0.42363997624097116	0.75323236782761	-0.7120264683098534	1.5686713179143728	0.75323236782761	17.556503087990848	-0.5723717633051417	2.8942754490471243	-2.3897985357437794	2.719390927330419	2	correct	1.0
454.70995469996706	8.884916700073518	go_reward	0.1208576000062748	454.733737399918	457.07971209997777	459.6409860999556	2.3459747000597417	455.7534018999429	458.6175463999389	462.68772159994114	1.326310200034868	1.0234397000167519	0.9309325000504032	461.6838921000017	0.4684930999064818	460.65515339991543	1	1	113	1	go_reward	1	1	0	1	1	1	0	0.0	1.0	1	0.1208576000062748	0.4684930999064818	679.444829700049	1134.178567099967	1135.198231599992	1136.5245418000268	1138.062376099988	1139.0858158000046	1140.0999830999644	1141.1287218000507	1142.1325512999902	1143.0634838000406	2019-12-11 16:27:16.034050	4.20193305969548	2.37636611468231	0.218516763910399	2.50606101024584	4.42044982360588	0.218516763910399	-4.20193305969548	2.37636611468231	0.218516763910399	4.42044982360588	0.218516763910399	17.544885249729592	0.2699996919548666	1.3797664587880647	-0.991158193544981	-0.4386688716697833	3.560927660848913	-0.991158193544981	15.753096652961812	1.4198845796293984	1.1498848876745331	-0.5863921007147437	0.9750003659578278	2	correct	1.0
463.6347268000245	8.42581559997052	go_punish	1.0	463.6585094999755	465.30784359993413	467.8248427999206	1.6493340999586508	464.664755399921	466.81447450001747	470.8684560999973	0.6430882000131533	1.0103682999031207	1.215868999948725	469.85332529991865	0.015247100032866	468.8345018000109	1	1	114	3	go_punish	0	-1	0	1	0	0	0	1.0	0.0	0	1.0	0.015247100032866	679.444829700049	1143.1033392000245	1144.10958509997	1144.7526732999831	1146.2593042000665	1147.2696724999696	1148.27933150006	1149.2981549999677	1150.3132858000463	1151.529154799995	2019-12-11 16:27:16.034050	-0.329462972359875	-0.19479930064521	-0.768338751797791	-0.862461294380428	-0.438875779437916	-0.768338751797791	0.329462972359875	-0.768338751797791	-0.19479930064521	-0.768338751797791	-0.438875779437916	0.768338751797791	-4.261396340100489	-1.1913989565394552	-1.978013709253171	-3.807191176296051	-1.298397942194883	-1.978013709253171	-1.023449844969989	-3.7689039957742727	0.492492344326218	-3.7310969671948446	0.5616843014022188	2	wrong	1.0
472.0953337000685	8.118811799911555	nogo_punish	1.0	472.1191164000195	473.45392120000906	475.98185149999335	1.3348047999895698	473.12625049997587	474.9621213999344	479.0259519999381	0.3276707000331953	1.0197301000589505	1.2119761999929324	478.0196184999079	0.0722814999753609	476.9903245000171	1	1	115	4	nogo_punish	1	-1	0	0	0	1	0	0.0	1.0	0	1.0	0.0722814999753609	679.444829700049	1151.5639461000685	1152.5710802000249	1152.898750900058	1154.4069510999834	1155.4266812000424	1156.435154200066	1157.464448199957	1158.4707816999871	1159.68275789998	2019-12-11 16:27:16.034050	0.687365080890995	-0.64857026417052	-0.0622892302210187	-0.648781442708188	-0.749654311112014	-0.0622892302210187	-0.687365080890995	-0.0622892302210187	-0.64857026417052	-0.0622892302210187	-0.749654311112014	0.0622892302210187	-3.2445682868496184	-1.6451699200647651	-1.2719641876763987	-3.5935113246238113	-1.609176473868981	-1.2719641876763987	-1.729499366546761	-3.0628544741975	0.18171381265212005	-3.025047445618072	0.10791333787690882	2	correct	1.0
480.2474984000437	8.137328199925832	go_reward	1.0	480.27128109999467	481.6083968000021	484.13342319999356	1.3371157000074163	481.26399979996495	483.1135769999819	487.1745596999533	0.3443970000371337	1.0198462000116706	1.234049599967193	486.16988840000704	0.7849005999742076	485.1428108999969	1	1	116	1	go_reward	1	1	0	1	0	0	0	1.0	0.0	0	1.0	0.7849005999742076	679.444829700049	1159.7161108000437	1160.708829500014	1161.053226500051	1162.558406700031	1163.5782529000426	1164.587640600046	1165.614718100056	1166.6193894000023	1167.8534389999695	2019-12-11 16:27:16.034050	-4.50140258144713	2.55462472818226	0.218516763910399	2.68309496950693	4.71991934535753	0.218516763910399	4.50140258144713	0.218516763910399	2.55462472818226	0.218516763910399	4.71991934535753	-0.218516763910399	-8.433335949187743	1.5580250722880147	-0.991158193544981	-0.2616349124086934	3.860397182600563	-0.991158193544981	-2.0103053606781787	-2.7820484800660825	5.651287469121664	-2.7442414514866544	3.311108330229689	2	wrong	1.0
488.4190627000062	9.363711299956776	nogo_punish	0.7371073999674991	488.44284539995715	490.81775149994064	493.36587169999257	2.374906099983491	489.4588826999534	492.33831369993277	496.42554099997506	1.358868799987249	1.0275580000597984	1.381015699938871	495.41211209993344	0.266840900061652	494.38387959997635	1	1	117	4	nogo_punish	1	-1	0	0	1	0	1	0.0	0.0	-1	0.7371073999674991	0.266840900061652	679.444829700049	1167.8876751000062	1168.9037124000024	1170.2625811999897	1171.7831433999818	1172.8107014000416	1173.8287093000254	1174.8569417999825	1175.870370700024	1177.251386399963	2019-12-11 16:27:16.034050	-0.680418178716506	-0.64857026417052	-0.0607999840835481	-0.636795817236318	-0.741218162800054	-0.0607999840835481	0.680418178716506	-0.64857026417052	-0.0607999840835481	-0.741218162800054	-0.0607999840835481	-5.0455466515312395	-4.61235154645712	-1.6451699200647651	-1.270474941538928	-3.5815256991519413	-1.6007403255570212	-1.270474941538928	-6.837335248299019	-3.741783406776536	0.8705681396805859	-3.6113284795675735	0.6956836179638807	2	wrong	1.0
497.81887019996066	8.933385500102304	nogo_punish	1.0	497.8426528999116	500.2893427999227	502.8077611000044	2.4466899000110516	498.8571470999159	501.795872699935	505.86957849992905	1.4321957000067869	1.011888400069438	0.906459900084883	504.8566176999593	0.6103766999440268	503.8253325999249	1	1	118	4	nogo_punish	1	-1	0	0	0	1	0	0.0	1.0	0	1.0	0.6103766999440268	679.444829700049	1177.2874825999606	1178.301976799965	1179.7341724999717	1181.240702399984	1182.2525908000534	1183.270162299974	1184.3014474000083	1185.314408199978	1186.220868100063	2019-12-11 16:27:16.034050	0.773644142047882	-0.702876376928793	-0.0607999840835481	-0.694735576696199	-0.83444412613143	-0.0607999840835481	-0.773644142047882	-0.0607999840835481	-0.702876376928793	-0.0607999840835481	-0.83444412613143	0.0607999840835481	-3.1582892256927315	-1.6994760328230383	-1.270474941538928	-3.6394654586118222	-1.6939662888883973	-1.270474941538928	-1.7309886126842318	-3.06136522806003	0.09692399763270398	-3.023558199480602	0.053607225118635804	2	correct	1.0
506.7867678999901	8.704753000056371	nogo_punish	1.0	506.81055059994105	508.4818805999821	511.01074429997243	1.6713300000410527	507.8176136999389	509.9977666999912	514.0692024999298	0.6642669000432306	1.012977599981241	1.446101100067608	513.0547154999804	0.0173921000678092	512.0283513999309	1	1	119	4	nogo_punish	1	-1	0	0	0	1	1	1.0	1.0	0	1.0	0.0173921000678092	679.444829700049	1186.25538029999	1187.262443399988	1187.9267103000311	1189.4425964000402	1190.4555740000214	1191.47318109998	1192.4995452000294	1193.5140321999788	1194.9601333000464	2019-12-11 16:27:16.034050	0.7655942445256	-0.702876376928793	-0.0594919689419944	-0.681373772259499	-0.825086213467595	-0.0594919689419944	-0.7655942445256	-0.0594919689419944	-0.702876376928793	-0.0594919689419944	-0.825086213467595	0.0594919689419944	-3.1663391232150135	-1.6994760328230383	-1.2691669263973744	-3.6261036541751226	-1.684608376224562	-1.2691669263973744	-1.7322966278257854	-3.060057212918476	0.106281910296539	-3.022250184339048	0.053607225118635804	2	correct	1.0
515.5287132000085	9.373686600010615	nogo_reward	0.0198119999840855	515.5524958999595	518.3249784999061	520.8787564999657	2.7724825999466702	516.5613489999671	519.8552952000173	523.924909299938	1.763629499939043	1.0234612999483943	1.0012732000320739	522.9120653999271	0.4339438999304548	521.8937462000176	1	1	120	2	nogo_reward	0	1	0	0	1	0	0	0.0	1.0	1	0.0198119999840855	0.4339438999304548	679.444829700049	1194.9973256000085	1196.006178700016	1197.7698081999552	1199.3001249000663	1200.3235862000147	1201.3385759000666	1202.356895099976	1203.369738999987	1204.371012200019	2019-12-11 16:27:16.034050	0.807844744109671	0.787925610313405	1.96290732528299	2.41857113599238	2.77075206939266	1.96290732528299	-0.807844744109671	0.787925610313405	1.96290732528299	2.77075206939266	1.96290732528299	19.133325754098497	-3.1240886236309424	-0.20867404558084013	0.75323236782761	-0.5261587459232433	1.9112299066356928	0.75323236782761	17.341537157330716	-0.22981317458382167	2.8942754490471243	-2.1748326050836484	2.719390927330419	2	correct	1.0
