onset	duration	trial_type	response_time	cueOnset	targetOnset	fbOnset	cueRT	firstfixOnset	secondfixOnset	waitOnset	firstfixdur	secondfixdur	waitdur	nback_fbOnset	nback_response_time	nback_targetOnset	block	wm	trial	cue	cond	is_common	outcome_go	outcome_nogo	key_correct	key_pressed	is_correct	key_correct_nback	key_pressed_nback	is_correct_nback	outcome	rt	rt_nback	time_scan	time_onset	time_isi1	time_circle	time_isi2	time_feedback	time_same	time_correct	time_iti	time_done	timestamp_scan	DV	Qgo	Qnogo	SV	Wgo	Wnogo	mDV	Qchosen	Qunchosen	Wchosen	Wunchosen	PE	DVC	QgoC	QnogoC	SVC	WgoC	WnogoC	PEC	WchosenC	WunchosenC	QchosenC	QunchosenC	run	outcome_nback	nback_targetResp
0.0	7.275199500028975	nogo_punish	1.0	0.025602499954402447	2.7831220999360085	5.295573299983516	2.757519599981606	1.0272141000023112	4.284417699906044	6.309842699905857	1.7559079999336973	1.0111556000774726	0.9909593000775203	n/a	1.0	n/a	1	0	61	2	nogo_punish	1	-1	0	0	0	1	1	n/a	n/a	0	1.0	1.0	537.279419700033	537.3050221999874	538.3066338000353	540.062541799969	541.5638373999391	542.5749930000165	n/a	n/a	543.5892623999389	544.5802217000164	2020-03-31 17:54:54.967922	4.74376426557595	-8.0720948014402	-0.0712844656662844	-0.0897476027487093	-4.81504873124223	-0.0712844656662844	-4.74376426557595	-0.0712844656662844	-8.0720948014402	-0.0712844656662844	-4.81504873124223	0.0712844656662844	0.07208877157869154	-4.393920046026687	2.5663264086921678	2.0296066220150455	-3.411296261345042	2.5663264086921678	0.4673861941301008	-0.3864405405370929	-0.45852931211577896	1.7115761035484678	-3.5391697408829836	2	missed	0.0
7.317132700001821	7.232825899962336	go_reward	0.368852800107561	7.342735199956223	9.817531499895267	12.37278479989618	2.474796299939044	8.352651699911803	11.349080999963917	13.38934289989993	1.4648797999834642	1.0237037999322638	1.1862182000186294	n/a	1.0	n/a	1	0	62	3	go_reward	1	1	0	1	1	1	0	n/a	n/a	1	0.368852800107561	1.0	537.279419700033	544.6221548999893	545.6320713999448	547.0969511999283	548.628500699997	549.6522044999292	n/a	n/a	550.668762599933	551.8549807999516	2020-03-31 17:54:54.967922	5.34798510958703	1.29142569434988	0.0	1.29142569434988	5.34798510958703	0.0	-5.34798510958703	1.29142569434988	0.0	5.34798510958703	0.0	1.1959737516189999	0.676309615589771	4.9696004497633925	2.6376108743584523	3.4107799191136348	6.751737579484217	2.6376108743584523	1.5920754800828163	5.0328290347162215	4.356519419126451	3.074286263564632	4.532925060557216	2	missed	0.0
14.583194599952549	7.790370700065978	nogo_reward	0.318573199911043	14.608797099906951	17.37777489994187	19.912204599939287	2.768977800034918	15.612162499921396	18.89896309992764	20.91383209999185	1.7656124000204727	1.0132415000116453	1.4853356999810785	n/a	1.0	n/a	1	0	63	4	nogo_reward	1	0	1	0	1	0	0	n/a	n/a	0	0.318573199911043	1.0	537.279419700033	551.88821679994	552.8915821999544	554.6571945999749	556.1783827999607	557.1916242999723	n/a	n/a	558.1932518000249	559.678587500006	2020-03-31 17:54:54.967922	3.48545063566615	0.113194962044833	0.0	0.113194962044833	3.48545063566615	0.0	-3.48545063566615	0.113194962044833	0.0	3.48545063566615	0.0	-0.113194962044833	-1.1862248583311086	3.7913697174583456	2.6376108743584523	2.232549186808588	4.889203105563338	2.6376108743584523	0.28290676641898344	3.1702945607953414	4.356519419126451	1.896055531259585	4.532925060557216	2	missed	0.0
22.408910400001332	7.068357200012542	nogo_punish	1.0	22.434512899955735	24.947867599898018	27.4587360000005	2.5133546999422833	23.434747699997388	26.453098599915393	28.472053100005724	1.5131198999006301	1.0056374000851065	1.0308169999625534	n/a	1.0	n/a	1	0	64	2	nogo_punish	1	-1	0	0	0	1	0	n/a	n/a	0	1.0	1.0	537.279419700033	559.7139325999888	560.7141674000304	562.227287299931	563.7325182999484	564.7381557000335	n/a	n/a	565.7514728000388	566.7822898000013	2020-03-31 17:54:54.967922	4.75051322138222	-8.0720948014402	-0.0499707843651534	-0.0634862692719275	-4.80048400574737	-0.0499707843651534	-4.75051322138222	-0.0499707843651534	-8.0720948014402	-0.0499707843651534	-4.80048400574737	0.0499707843651534	0.0788377273849612	-4.393920046026687	2.587640089993299	2.055867955491827	-3.3967315358501815	2.587640089993299	0.4460725128289698	-0.36512685923596194	-0.4439645866209183	1.7328897848495988	-3.5391697408829836	2	missed	0.0
29.515352500020526	6.584664299967699	nogo_punish	1.0	29.54095499997493	31.316104999976233	33.84122989990283	1.7751500000013039	30.54880799993407	32.821249099913985	34.844439299893565	0.7672970000421628	1.0199807999888435	1.281180000049062	n/a	1.0	n/a	1	0	65	2	nogo_punish	1	-1	0	0	0	1	0	n/a	n/a	0	1.0	1.0	537.279419700033	566.820374700008	567.8282276999671	568.5955247000093	570.100668799947	571.1206495999359	n/a	n/a	572.1238589999266	573.4050389999757	2020-03-31 17:54:54.967922	4.75505031796262	-8.0720948014402	-0.0354678316104976	-0.0454467187098297	-4.79051814957312	-0.0354678316104976	-4.75505031796262	-0.0354678316104976	-8.0720948014402	-0.0354678316104976	-4.79051814957312	0.0354678316104976	0.08337482396536089	-4.393920046026687	2.602143042747955	2.073907506053925	-3.3867656796759316	2.602143042747955	0.431569560074314	-0.35062390648130615	-0.43399873044666837	1.7473927376042546	-3.5391697408829836	2	missed	0.0
36.1345126000233	6.227098400006071	nogo_reward	0.3841988000785932	36.1601150999777	37.54813909996301	40.094556999974884	1.3880239999853075	37.16708329995163	39.079059499897994	41.10843099991325	0.3810558000113815	1.01549750007689	1.2787825000705197	n/a	1.0	n/a	1	0	66	4	nogo_reward	1	0	1	0	1	0	0	n/a	n/a	0	0.3841988000785932	1.0	537.279419700033	573.4395348000107	574.4465029999847	574.827558799996	576.358479199931	577.3739767000079	n/a	n/a	578.3878506999463	579.6666332000168	2020-03-31 17:54:54.967922	3.41391687825991	0.0680382821852979	0.0	0.0680382821852979	3.41391687825991	0.0	-3.41391687825991	0.0680382821852979	0.0	3.41391687825991	0.0	-0.0680382821852979	-1.2577586157373486	3.7462130375988103	2.6376108743584523	2.1873925069490525	4.817669348157098	2.6376108743584523	0.3280634462785185	3.0987608033891014	4.356519419126451	1.85089885140005	4.532925060557216	2	missed	0.0
42.39626930002123	6.533069400000386	nogo_punish	1.0	42.421871799975634	44.07191969989799	46.598221899941564	1.650047899922356	43.41782499989495	45.5830549999373	47.60289159999229	0.6540947000030428	1.0151669000042602	1.3520495999837294	n/a	1.0	n/a	1	0	67	2	nogo_punish	1	-1	0	0	0	1	1	n/a	n/a	0	1.0	1.0	537.279419700033	579.7012915000087	580.697244699928	581.351339399931	582.8624746999703	583.8776415999746	n/a	n/a	584.8823113000253	586.234360900009	2020-03-31 17:54:54.967922	4.75814658723946	-8.0720948014402	-0.0254591840452671	-0.0328851753457513	-4.78360577128473	-0.0254591840452671	-4.75814658723946	-0.0254591840452671	-8.0720948014402	-0.0254591840452671	-4.78360577128473	0.0254591840452671	0.08647109324220104	-4.393920046026687	2.612151690313185	2.0864690494180036	-3.379853301387542	2.612151690313185	0.4215609125090835	-0.34061525891607564	-0.4270863521582786	1.757401385169485	-3.5391697408829836	2	missed	0.0
48.96618300001137	6.625420199939981	nogo_reward	0.2777731999522075	48.99178549996577	50.854456699918956	53.38792009989265	1.8626711999531835	50.00391799991485	52.37422519992106	54.40254979999736	0.8505387000041083	1.013694899971597	1.2146558999083936	n/a	1.0	n/a	1	0	68	4	nogo_reward	1	0	1	0	1	0	1	n/a	n/a	0	0.2777731999522075	1.0	537.279419700033	586.2712051999988	587.2833376999479	588.133876399952	589.6536448999541	590.6673397999257	n/a	n/a	591.6819695000304	592.8966253999388	2020-03-31 17:54:54.967922	3.37276467001719	0.0420574437393679	0.0	0.0420574437393679	3.37276467001719	0.0	-3.37276467001719	0.0420574437393679	0.0	3.37276467001719	0.0	-0.0420574437393679	-1.2989108239800689	3.72023219915288	2.6376108743584523	2.1614116685031224	4.776517139914378	2.6376108743584523	0.3540442847244485	3.057608595146381	4.356519419126451	1.82491801295412	4.532925060557216	2	missed	0.0
55.6343192999484	6.772245000000112	go_reward	0.4527172000380233	55.659921799902804	57.43966529995669	59.981214099912904	1.7797435000538826	56.65861699997913	58.97072669991758	60.98569999996107	0.7810482999775559	1.010487399995327	1.4464667999418452	n/a	1.0	n/a	1	0	69	3	go_reward	0	0	1	1	1	1	0	n/a	n/a	0	0.4527172000380233	1.0	537.279419700033	592.9393414999358	593.9380367000122	594.7190849999897	596.2501463999506	597.2606337999459	n/a	n/a	598.2651196999941	599.711586499936	2020-03-31 17:54:54.967922	6.28164299505599	1.88643667648996	0.0	1.88643667648996	6.28164299505599	0.0	-6.28164299505599	1.88643667648996	0.0	6.28164299505599	0.0	-1.88643667648996	1.6099675010587315	5.564611431903472	2.6376108743584523	4.0057909012537145	7.685395464953178	2.6376108743584523	-1.4903349480261436	5.966486920185182	4.356519419126451	3.669297245704712	4.532925060557216	2	missed	0.0
62.44188339996617	6.258675400051288	nogo_punish	1.0	62.467485899920575	63.83121609990485	66.36808849999215	1.3637301999842748	63.470469999942	65.34491919993889	67.36739299993496	0.3607460999628529	1.0231693000532687	1.3587683000368997	n/a	1.0	n/a	1	0	70	2	nogo_punish	0	0	-1	0	0	1	0	n/a	n/a	-1	1.0	1.0	537.279419700033	599.7469055999536	600.749889699975	601.1106357999379	602.6243388999719	603.6475082000252	n/a	n/a	604.646812699968	606.0055810000049	2020-03-31 17:54:54.967922	4.76028854123947	-8.0720948014402	-0.0184631370824249	-0.0240295944954442	-4.7787516783219	-0.0184631370824249	-4.76028854123947	-0.0184631370824249	-8.0720948014402	-0.0184631370824249	-4.7787516783219	-18.653617924056174	0.08861304724221153	-4.393920046026687	2.6191477372760272	2.0953246302683106	-3.3749992084247116	2.6191477372760272	-18.25751619559236	-0.33361921195323346	-0.4222322591954484	1.7643974321323272	-3.5391697408829836	2	missed	0.0
68.7446687000338	7.088176199933514	go_reward	0.3470709000248462	68.7702711999882	71.33526500000153	73.89614269998856	2.564993800013326	69.77373569994234	72.87230519996956	74.89639699994586	1.5615293000591919	1.023837500018999	0.9620503999758512	n/a	1.0	n/a	1	0	71	3	go_reward	1	1	0	1	1	1	1	n/a	n/a	1	0.3470709000248462	1.0	537.279419700033	606.0496909000212	607.0531553999754	608.6146847000346	610.1517249000026	611.1755624000216	n/a	n/a	612.1758166999789	613.1378670999547	2020-03-31 17:54:54.967922	4.88341976166043	0.997835425610007	0.0	0.997835425610007	4.88341976166043	0.0	-4.88341976166043	0.997835425610007	0.0	4.88341976166043	0.0	1.489564020358873	0.21174426766317112	4.6760101810235195	2.6376108743584523	3.1171896503737617	6.2871722315576175	2.6376108743584523	1.8856657488226893	4.568263686789622	4.356519419126451	2.780695994824759	4.532925060557216	2	missed	0.0
75.86639600002673	7.379341899999417	go_punish	0.3353478000499308	75.89199849998113	78.3361775999656	80.87055229989346	2.444179099984467	76.89238370000385	79.8559708999237	81.87979619996622	1.4437938999617472	1.0145813999697566	1.391544200014323	n/a	1.0	n/a	1	0	72	1	go_punish	0	-1	0	1	1	1	0	n/a	n/a	-1	0.3353478000499308	1.0	537.279419700033	613.1714182000142	614.1718034000369	615.6155972999986	617.1353905999567	618.1499719999265	n/a	n/a	619.1592158999993	620.5507601000136	2020-03-31 17:54:54.967922	-1.63730250442722	-12.7141745258207	-17.8172481413984	-17.974278783411	-19.4545506458257	-17.8172481413984	1.63730250442722	-12.7141745258207	-17.8172481413984	-19.4545506458257	-17.8172481413984	-5.957906535317898	-6.308977998424479	-9.035999770407187	-15.179637267039949	-15.854924558647244	-18.050798175928513	-15.179637267039949	-5.561804806854082	-19.76970672069651	-13.46072872227195	-10.931313956605948	-13.284323080841187	2	missed	0.0
83.28776259999722	6.531398999970406	go_reward	0.3534932999173179	83.31336509995162	85.36588599998504	87.92722909990698	2.0525209000334144	84.3249260999728	86.90752829995472	88.93997609999496	1.0409599000122398	1.0197007999522611	0.9047879999270663	n/a	1.0	n/a	1	0	73	3	go_reward	0	0	1	1	1	1	1	n/a	n/a	0	0.3534932999173179	1.0	537.279419700033	620.5927847999847	621.6043458000058	622.6453057000181	624.1869479999878	625.20664879994	n/a	n/a	626.219395800028	627.1241837999551	2020-03-31 17:54:54.967922	6.02710067787575	1.7257151104899	0.0	1.7257151104899	6.02710067787575	0.0	-6.02710067787575	1.7257151104899	0.0	6.02710067787575	0.0	-1.7257151104899	1.3554251838784914	5.4038898659034125	2.6376108743584523	3.8450693352536547	7.430853147772938	2.6376108743584523	-1.3296133820260836	5.711944603004942	4.356519419126451	3.508575679704652	4.532925060557216	2	missed	0.0
89.86037100001704	5.855718599981628	nogo_punish	1.0	89.88597349997144	91.43814409989864	93.96327349997591	1.5521705999271944	90.89143809990492	92.94365519995335	94.96683859999757	0.5467059999937192	1.0196183000225574	0.7748534999554977	n/a	1.0	n/a	1	0	74	2	nogo_punish	1	-1	0	0	0	1	0	n/a	n/a	0	1.0	1.0	537.279419700033	627.1653932000045	628.170857799938	628.7175637999317	630.2230748999864	631.242693200009	n/a	n/a	632.2462583000306	633.0211117999861	2020-03-31 17:54:54.967922	1.1767762095616	-8.0720948014402	-8.08561028634697	-8.08981091289906	-9.26238649590857	-8.08561028634697	-1.1767762095616	-8.08561028634697	-8.0720948014402	-8.08561028634697	-9.26238649590857	8.08561028634697	-3.494899284435659	-4.393920046026687	-5.447999411988517	-5.970456688135305	-7.858634026011382	-5.447999411988517	8.481712014810787	-8.400766361217778	-4.905867076782119	-6.302749717132218	-3.5391697408829836	2	missed	0.0
95.7581146999728	7.005060499999672	go_reward	0.2871844000183046	95.7837171999272	98.40119059989229	100.94714469998144	2.6174733999650925	96.79265580000356	99.92324119992554	101.94632909994107	1.60853479988873	1.0239035000558943	0.8424485999858007	n/a	1.0	n/a	1	0	75	3	go_reward	1	1	0	1	1	1	1	n/a	n/a	1	0.2871844000183046	1.0	537.279419700033	633.0631368999602	634.0720755000366	635.6806102999253	637.2026608999586	638.2265644000145	n/a	n/a	639.2257487999741	640.0681973999599	2020-03-31 17:54:54.967922	4.7386396109626	0.906430177669745	0.0	0.906430177669745	4.7386396109626	0.0	-4.7386396109626	0.906430177669745	0.0	4.7386396109626	0.0	1.580969268299135	0.06696411696534099	4.5846049330832574	2.6376108743584523	3.0257844024334997	6.142392080859787	2.6376108743584523	1.9770709967629514	4.4234835360917915	4.356519419126451	2.689290746884497	4.532925060557216	2	missed	0.0
102.80083820002619	6.588867399957962	nogo_punish	1.0	102.8264406999806	104.56613349996042	107.08087869989686	1.7396927999798208	103.83177729998715	106.07060889992863	108.0941403999459	0.7343561999732628	1.0102697999682277	1.3211676999926567	n/a	1.0	n/a	1	0	76	2	nogo_punish	1	-1	0	0	0	1	1	n/a	n/a	0	1.0	1.0	537.279419700033	640.1058604000136	641.1111970000202	641.8455531999934	643.3500285999617	644.3602983999299	n/a	n/a	645.3735600999789	646.6947277999716	2020-03-31 17:54:54.967922	2.87440004820801	-8.0720948014402	-4.30732232954179	-4.31051198136671	-7.18172237774981	-4.30732232954179	-2.87440004820801	-4.30732232954179	-8.0720948014402	-4.30732232954179	-7.18172237774981	4.30732232954179	-1.7972754457892486	-4.393920046026687	-1.669711455183338	-2.191157756602955	-5.777969907852622	-1.669711455183338	4.703424058005607	-4.622478404412599	-2.8252029586233585	-2.5244617603270383	-3.5391697408829836	2	missed	0.0
109.42932100000326	6.835429099970497	nogo_punish	1.0	109.45492349995766	111.27925659995526	113.79199429997243	1.8243330999976024	110.46656309999526	112.77445129991975	114.79556799994316	0.8126934999600053	1.017543000052683	1.494784599984996	n/a	1.0	n/a	1	0	77	2	nogo_punish	1	-1	0	0	0	1	0	n/a	n/a	0	1.0	1.0	537.279419700033	646.7343431999907	647.7459828000283	648.5586762999883	650.0538709999528	651.0714140000055	n/a	n/a	652.0749876999762	653.5697722999612	2020-03-31 17:54:54.967922	3.708714187191	-8.0720948014402	-2.41984193160929	-2.42227789913904	-6.1285561188003	-2.41984193160929	-3.708714187191	-2.41984193160929	-8.0720948014402	-2.41984193160929	-6.1285561188003	2.41984193160929	-0.9629613068062586	-4.393920046026687	0.21776894274916225	-0.3029236743752852	-4.724803648903112	0.21776894274916225	2.8159436600731063	-2.7349980064800987	-1.7720366996738486	-0.636981362394538	-3.5391697408829836	2	missed	0.0
116.30112369998824	6.323453700053506	nogo_reward	0.424423599964939	116.32672619994264	118.0341228999896	120.58120959997177	1.7073967000469565	117.34053950000089	119.57109659991693	121.59453509992454	0.6935833999887109	1.0101130000548437	1.0556448000716045	n/a	1.0	n/a	1	0	78	4	nogo_reward	1	0	1	0	1	0	0	n/a	n/a	0	0.424423599964939	1.0	537.279419700033	653.6061458999757	654.6199592000339	655.3135426000226	656.85051629995	657.8606293000048	n/a	n/a	658.8739547999576	659.9295996000292	2020-03-31 17:54:54.967922	3.34836064109352	0.0266415982588681	0.0	0.0266415982588681	3.34836064109352	0.0	-3.34836064109352	0.0266415982588681	0.0	3.34836064109352	0.0	-0.0266415982588681	-1.3233148529037386	3.7048163536723804	2.6376108743584523	2.1459958230226226	4.752113110990708	2.6376108743584523	0.36946013020494833	3.0332045662227114	4.356519419126451	1.8095021674736202	4.532925060557216	2	missed	0.0
122.65936669998337	6.0853506999555975	go_punish	1.0	122.68496919993777	124.25503000000026	126.78365040000062	1.5700608000624925	123.6923026998993	125.76003419992048	127.79253299999982	0.5627273001009598	1.0236162000801414	0.9777868998935446	n/a	1.0	n/a	1	0	79	1	go_punish	1	0	-1	1	0	0	0	n/a	n/a	-1	1.0	1.0	537.279419700033	659.9643888999708	660.9717223999323	661.5344497000333	663.0394538999535	664.0630701000337	n/a	n/a	665.0719527000329	666.0497395999264	2020-03-31 17:54:54.967922	4.05610266579241	-15.0081141337843	-17.8172481413984	-18.197406047188	-21.8733508071908	-17.8172481413984	-4.05610266579241	-17.8172481413984	-15.0081141337843	-17.8172481413984	-21.8733508071908	-0.8548329197401969	-0.6155728282048489	-11.329939378370788	-15.179637267039949	-16.078051822424246	-20.46959833729361	-15.179637267039949	-0.4587311912763805	-18.13240421626921	-17.516831388064347	-16.03438757218365	-10.475189073227085	2	missed	0.0
128.78847549995407	6.635524700046517	go_reward	0.4339702000143006	128.81407799990848	130.668506899965	133.21553259994835	1.8544289000565186	129.81066529999953	132.20034689991735	134.21397039992735	0.857841599965468	1.0151857000309974	1.2356323000276461	n/a	1.0	n/a	1	0	80	3	go_reward	1	1	0	1	1	1	0	n/a	n/a	1	0.4339702000143006	1.0	537.279419700033	666.0934976999415	667.0900850000326	667.947926599998	669.4797665999504	670.4949522999814	n/a	n/a	671.4933900999604	672.729022399988	2020-03-31 17:54:54.967922	5.94205375697233	1.67199967695061	0.0	1.67199967695061	5.94205375697233	0.0	-5.94205375697233	1.67199967695061	0.0	5.94205375697233	0.0	0.8153997690182699	1.270378262975071	5.350174432364122	2.6376108743584523	3.7913539017143645	7.345806226869518	2.6376108743584523	1.2115014974820864	5.6268976821015215	4.356519419126451	3.454860246165362	4.532925060557216	2	missed	0.0
135.4606382000493	7.558607299928553	go_punish	1.0	135.4862407000037	138.2562440999318	140.78499899990857	2.7700033999281004	136.4912272999063	139.77126059995499	141.79427049995866	1.765016800025478	1.0137383999535814	1.2505774999735877	n/a	1.0	n/a	1	0	81	1	go_punish	1	0	-1	1	0	0	1	n/a	n/a	-1	1.0	1.0	537.279419700033	672.7656604000367	673.7706469999393	675.5356637999648	677.050680299988	678.0644186999416	n/a	n/a	679.0736901999917	680.3242676999653	2020-03-31 17:54:54.967922	3.86766176112069	-15.0081141337843	-18.0871469125697	-18.343496905203	-21.9548086736904	-18.0871469125697	-3.86766176112069	-18.0871469125697	-15.0081141337843	-18.0871469125697	-21.9548086736904	-0.5849341485688981	-0.8040137328765686	-11.329939378370788	-15.449536038211248	-16.224142680439247	-20.551056203793213	-15.449536038211248	-0.18883242010508172	-18.40230298744051	-17.59828925456395	-16.30428634335495	-10.475189073227085	2	missed	0.0
143.0535323000513	6.253914899891242	go_punish	1.0	143.0791348000057	144.58703229995444	147.11506819992792	1.50789749994874	144.0843884999631	146.09078619990032	148.11904689995572	0.5026437999913469	1.024282000027597	1.2140027999412268	n/a	1.0	n/a	1	0	82	1	go_punish	1	0	-1	1	0	0	0	n/a	n/a	-1	1.0	1.0	537.279419700033	680.3585545000387	681.3638081999961	681.8664519999875	683.3702058999334	684.394487899961	n/a	n/a	685.3984665999888	686.61246939993	2020-03-31 17:54:54.967922	3.74393395630819	-15.0081141337843	-18.2650840966561	-18.4411006356466	-22.0090180529643	-18.2650840966561	-3.74393395630819	-18.2650840966561	-15.0081141337843	-18.2650840966561	-22.0090180529643	-0.40699696448249867	-0.9277415376890685	-11.329939378370788	-15.627473222297647	-16.321746410882845	-20.605265583067112	-15.627473222297647	-0.010895236018682253	-18.58024017152691	-17.65249863383785	-16.48222352744135	-10.475189073227085	2	missed	0.0
149.3462691999739	7.325120500056073	nogo_reward	0.2832954000914469	149.3718716999283	151.90015349991154	154.4473188999109	2.528281799983233	150.37420109997038	153.42374939995352	155.45360199990682	1.5259523999411613	1.0235694999573752	1.243390200077556	n/a	1.0	n/a	1	0	83	4	nogo_reward	0	1	0	0	1	0	0	n/a	n/a	1	0.2832954000914469	1.0	537.279419700033	686.6512913999613	687.6536208000034	689.1795731999446	690.7031690999866	691.7267385999439	n/a	n/a	692.7330216999399	693.9764119000174	2020-03-31 17:54:54.967922	3.33349722721668	0.0172441964620804	0.0	0.0172441964620804	3.33349722721668	0.0	-3.33349722721668	0.0172441964620804	0.0	3.33349722721668	0.0	2.4701552495067998	-1.3381782667805786	3.6954189518755927	2.6376108743584523	2.136598421225835	4.737249697113868	2.6376108743584523	2.8662569779706164	3.0183411523458714	4.356519419126451	1.8001047656768325	4.532925060557216	2	missed	0.0
156.7117772999918	5.7727355000097305	nogo_reward	0.3929648000048473	156.7373797999462	158.20758119993843	160.7486876999028	1.47020139999222	157.7386493999511	159.73778619989753	161.75116829993203	0.46893179998733103	1.010901500005275	0.7589470000239089	n/a	1.0	n/a	1	0	84	4	nogo_reward	1	0	1	0	1	0	0	n/a	n/a	0	0.3929648000048473	1.0	537.279419700033	694.0167994999792	695.0180690999841	695.4870008999715	697.0172058999306	698.0281073999358	n/a	n/a	699.0305879999651	699.789534999989	2020-03-31 17:54:54.967922	5.1668357219002	1.18190568877933	0.0	1.18190568877933	5.1668357219002	0.0	-5.1668357219002	1.18190568877933	0.0	5.1668357219002	0.0	-1.18190568877933	0.49516022790294123	4.8600804441928425	2.6376108743584523	3.3012599135430847	6.570588191797388	2.6376108743584523	-0.7858039603155136	4.851679647029392	4.356519419126451	2.964766257994082	4.532925060557216	2	missed	0.0
162.52018999995198	6.307019100058824	nogo_punish	1.0	162.54579249990638	164.19609139999375	166.7306484999135	1.650298900087364	163.55129279999528	165.711328699952	167.75017549993936	0.6447985999984667	1.0193197999615222	1.1026361000258476	n/a	1.0	n/a	1	0	85	2	nogo_punish	1	-1	0	0	0	1	0	n/a	n/a	0	1.0	1.0	537.279419700033	699.8252121999394	700.8307125000283	701.4755111000268	702.990748399985	704.0100681999465	n/a	n/a	705.0295951999724	706.1322312999982	2020-03-31 17:54:54.967922	4.14668837973905	-8.0720948014402	-1.41925450322914	-1.42112485317993	-5.5659428829682	-1.41925450322914	-4.14668837973905	-1.41925450322914	-8.0720948014402	-1.41925450322914	-5.5659428829682	1.41925450322914	-0.5249871142582085	-4.393920046026687	1.2183563711293124	0.6982293715838246	-4.162190413071011	1.2183563711293124	1.8153562316929563	-1.7344105780999484	-1.2094234638417483	0.3636060659856122	-3.5391697408829836	2	missed	0.0
168.86636210000142	6.45011129998602	go_punish	0.3828456000192091	168.89196459995583	170.3847099998966	172.92174889997113	1.492745399940759	169.89933249994647	171.90611369989347	173.9358151999768	0.48537749995011836	1.0156352000776678	1.4062606999650598	n/a	1.0	n/a	1	0	86	1	go_punish	1	0	-1	1	1	1	0	n/a	n/a	0	0.3828456000192091	1.0	537.279419700033	706.1713842999889	707.1787521999795	707.6641296999296	709.1855333999265	710.2011686000042	n/a	n/a	711.2152349000098	712.6214955999749	2020-03-31 17:54:54.967922	-3.66104459446026	-15.0081141337843	-18.3846913278289	-18.507481848405	-22.0457359222891	-18.3846913278289	3.66104459446026	-15.0081141337843	-18.3846913278289	-22.0457359222891	-18.3846913278289	15.0081141337843	-8.332720088457519	-11.329939378370788	-15.747080453470447	-16.388127623641246	-20.641983452391912	-15.747080453470447	15.404215862248117	-22.36089199715991	-14.028171908702449	-13.225253564569549	-13.851766267271685	2	missed	0.0
175.35184440005105	6.130481799948029	go_punish	0.4286213000304997	175.37744690000545	176.94491079996806	179.49572639993858	1.567463899962604	176.3823808999732	178.4754796999041	180.4991505999351	0.5625298999948427	1.0202467000344768	1.0087781000183895	n/a	1.0	n/a	1	0	87	1	go_punish	1	0	-1	1	1	1	0	n/a	n/a	0	0.4286213000304997	1.0	537.279419700033	712.6568666000385	713.6618006000062	714.2243305000011	715.7548993999371	716.7751460999716	n/a	n/a	717.7785702999681	718.7873483999865	2020-03-31 17:54:54.967922	7.53401653874209	-8.2748698673935	-18.3846913278289	-10.4812537862538	-10.8506747890868	-18.3846913278289	-7.53401653874209	-8.2748698673935	-18.3846913278289	-10.8506747890868	-18.3846913278289	8.2748698673935	2.8623410447448316	-4.5966951119799875	-15.747080453470447	-8.361899561490045	-9.44692231918961	-15.747080453470447	8.670971595857317	-11.165830863957607	-14.028171908702449	-6.492009298178748	-13.851766267271685	2	missed	0.0
181.5282471999526	6.869942700024694	go_reward	0.3176365999970585	181.553849699907	183.8998363999417	186.44998189993203	2.3459867000347003	182.55921579990536	185.43671169993468	187.46184139989782	1.3406206000363454	1.0132701999973506	0.9619510000338778	n/a	1.0	n/a	1	0	88	3	go_reward	1	1	0	1	1	1	0	n/a	n/a	1	0.3176365999970585	1.0	537.279419700033	718.83326939994	719.8386354999384	721.1792560999747	722.7161313999677	723.7294015999651	n/a	n/a	724.7412610999309	725.7032120999647	2020-03-31 17:54:54.967922	6.52986472015146	2.04448017464006	0.0	2.04448017464006	6.52986472015146	0.0	-6.52986472015146	2.04448017464006	0.0	6.52986472015146	0.0	0.44291927132882014	1.8581892261542015	5.722654930053572	2.6376108743584523	4.1638343994038145	7.933617190048649	2.6376108743584523	0.8390209997926366	6.214708645280652	4.356519419126451	3.827340743854812	4.532925060557216	2	missed	0.0
188.4378371000057	7.633726499974728	nogo_reward	1.0	188.4634395999601	191.18769960000645	193.71030059992336	2.7242600000463426	189.4749386999756	192.70500369998626	194.72117469995283	1.712760900030844	1.0052968999370933	1.3759913999820128	n/a	1.0	n/a	1	0	89	4	nogo_reward	1	0	1	0	0	1	0	n/a	n/a	1	1.0	1.0	537.279419700033	725.7428592999931	726.7543584000086	728.4671193000395	729.9844234000193	730.9897202999564	n/a	n/a	732.0005943999859	733.3765857999679	2020-03-31 17:54:54.967922	-4.24129844953323	0.592025430594629	0.0	0.592025430594629	4.24129844953323	0.0	4.24129844953323	0.0	0.592025430594629	0.0	4.24129844953323	2.48739944596888	-8.912973943530488	4.270200186008141	2.6376108743584523	2.7113796553583835	5.6450509194304175	2.6376108743584523	2.8835011744326966	-0.31515607487080854	8.597817868659682	1.7828605692147521	5.124950491151845	2	missed	0.0
196.1059271999402	6.35825420008041	nogo_reward	0.2943602000596002	196.1315296998946	198.06006299995352	200.59269499999937	1.9285333000589162	197.14764959993772	199.5806154999882	201.60533379996195	0.9124134000157937	1.0120795000111684	0.8844501000130549	n/a	1.0	n/a	1	0	90	4	nogo_reward	1	0	1	0	1	0	0	n/a	n/a	0	0.2943602000596002	1.0	537.279419700033	733.4109493999276	734.4270692999708	735.3394826999865	736.8600352000212	737.8721147000324	n/a	n/a	738.884753499995	739.769203600008	2020-03-31 17:54:54.967922	3.58220962182965	0.592025430594629	1.17052836511201	1.48375450356409	4.75273798694167	1.17052836511201	-3.58220962182965	0.592025430594629	1.17052836511201	4.75273798694167	1.17052836511201	-0.592025430594629	-1.0894658721676085	4.270200186008141	3.8081392394704623	3.603108728327845	6.156490456838858	3.8081392394704623	-0.19592370213081256	4.437581912070862	5.527047784238461	2.374885999809381	5.703453425669226	2	missed	0.0
202.50310269999318	5.8540181999560446	nogo_reward	0.4373702999437228	202.52870519994758	203.88114719989244	206.44251379999332	1.3524419999448583	203.53733929991722	205.4179920000024	207.45164379989728	0.3438078999752179	1.0245217999909073	0.9310796000063419	n/a	1.0	n/a	1	0	91	4	nogo_reward	0	1	0	0	1	0	1	n/a	n/a	1	0.4373702999437228	1.0	537.279419700033	739.8081248999806	740.8167589999503	741.1605668999255	742.6974117000354	743.7219335000264	n/a	n/a	744.7310634999303	745.6621430999367	2020-03-31 17:54:54.967922	2.88874091820652	0.313226138452078	1.17052836511201	0.7578293373132	4.05926928331853	1.17052836511201	-2.88874091820652	0.313226138452078	1.17052836511201	4.05926928331853	1.17052836511201	2.174173307516802	-1.7829345757907387	3.9914008938655905	3.8081392394704623	2.877183562076955	5.463021753215719	3.8081392394704623	2.570275035980618	3.7441132084477213	5.527047784238461	2.09608670766683	5.703453425669226	2	missed	0.0
208.39817289996427	6.179771900060587	nogo_reward	0.3606785000301897	208.42377539991867	209.90884389996063	212.46665909991134	1.4850685000419617	209.44067369995173	211.4461245998973	213.46966079995036	0.468170200008899	1.020534500014037	1.1338865000288934	n/a	1.0	n/a	1	0	92	4	nogo_reward	1	0	1	0	1	0	1	n/a	n/a	0	0.3606785000301897	1.0	537.279419700033	745.7031950999517	746.7200933999848	747.1882635999937	748.7255442999303	749.7460787999444	n/a	n/a	750.7490804999834	751.8829670000123	2020-03-31 17:54:54.967922	4.389379628264	1.34396830735202	1.17052836511201	1.57836322358635	5.55990799337601	1.17052836511201	-4.389379628264	1.34396830735202	1.17052836511201	5.55990799337601	1.17052836511201	-1.34396830735202	-0.2822958657332588	5.022143062765533	3.8081392394704623	3.6977174483501045	6.963660463273198	3.8081392394704623	-0.9478665788882037	5.244751918505202	5.527047784238461	3.126828876566772	5.703453425669226	2	missed	0.0
214.61477600003127	7.31035589997191	nogo_punish	1.0	214.64037849998567	217.063118299935	219.6019818999339	2.4227397999493405	215.6512342999922	218.57888939999975	220.60257969994564	1.411883999942802	1.0230924999341369	1.3481547000119463	n/a	1.0	n/a	1	0	93	2	nogo_punish	0	0	-1	0	0	1	0	n/a	n/a	-1	1.0	1.0	537.279419700033	751.9197982000187	752.9306540000252	754.342537999968	755.8583091000328	756.8814015999669	n/a	n/a	757.8819993999787	759.2301540999906	2020-03-31 17:54:54.967922	4.38912257421496	-8.0720948014402	-0.862590376503611	-0.864033616553769	-5.25171295071857	-0.862590376503611	-4.38912257421496	-0.862590376503611	-8.0720948014402	-0.862590376503611	-5.25171295071857	-17.809490684634987	-0.28255291978229824	-4.393920046026687	1.7750204978548414	1.2553206082099857	-3.847960480821382	1.7750204978548414	-17.413388956171172	-1.1777464513744196	-0.8951935315921187	0.9202701927111411	-3.5391697408829836	2	missed	0.0
221.96651830000337	7.016558500006795	go_reward	0.3662368999794125	221.99212079995777	224.03934949997347	226.6002240999369	2.047228700015694	222.991064599948	225.57631169992965	227.60897719999775	1.0482849000254646	1.023912400007248	1.3997020999668166	n/a	1.0	n/a	1	0	94	3	go_reward	1	1	0	1	1	1	0	n/a	n/a	1	0.3662368999794125	1.0	537.279419700033	759.2715404999908	760.270484299981	761.3187692000065	762.8557313999627	763.8796437999699	n/a	n/a	764.8883969000308	766.2880989999976	2020-03-31 17:54:54.967922	6.83320665357175	2.2362545954759	0.0	2.2362545954759	6.83320665357175	0.0	-6.83320665357175	2.2362545954759	0.0	6.83320665357175	0.0	0.2511448504929801	2.1615311595744915	5.914429350889412	2.6376108743584523	4.355608820239654	8.236959123468939	2.6376108743584523	0.6472465789567965	6.518050578700942	4.356519419126451	4.0191151646906516	4.532925060557216	2	missed	0.0
229.02260509994812	6.349853100022301	go_punish	0.3696683999150991	229.04820759990253	230.36176469991915	232.91924239997752	1.3135571000166237	230.04798139992636	231.8997207999928	233.92949929996394	0.3137832999927923	1.0195215999847278	1.4685613999608904	n/a	1.0	n/a	1	0	95	1	go_punish	0	-1	0	1	1	1	0	n/a	n/a	-1	0.3696683999150991	1.0	537.279419700033	766.3276272999356	767.3274010999594	767.6411843999522	769.1791405000258	770.1986621000106	n/a	n/a	771.208918999997	772.6774803999579	2020-03-31 17:54:54.967922	13.4125520143951	-4.78759340939608	-18.3846913278289	-6.21605431982097	-4.97213931343377	-18.3846913278289	-13.4125520143951	-4.78759340939608	-18.3846913278289	-4.97213931343377	-18.3846913278289	-13.884487651742518	8.74087652039784	-1.1094186539825674	-15.747080453470447	-4.096700095057216	-3.5683868435365818	-15.747080453470447	-13.4883859232787	-5.287295388304578	-14.028171908702449	-3.004732840181328	-13.851766267271685	2	missed	0.0
235.41552879998926	6.295967499958351	go_reward	0.404301100061275	235.44113129994366	236.73015119996853	239.284869599971	1.2890199000248685	236.44874769996386	238.26081659994088	240.28394859994296	0.2814035000046715	1.0240530000301078	1.4531501999590546	n/a	1.0	n/a	1	0	96	3	go_reward	1	1	0	1	1	1	1	n/a	n/a	1	0.404301100061275	1.0	537.279419700033	772.7205509999767	773.7281673999969	774.0095709000016	775.5402362999739	776.564289300004	n/a	n/a	777.563368299976	779.016518499935	2020-03-31 17:54:54.967922	6.99708767637422	2.33974081116351	0.0	2.33974081116351	6.99708767637422	0.0	-6.99708767637422	2.33974081116351	0.0	6.99708767637422	0.0	0.1476586348053699	2.3254121823769616	6.017915566577022	2.6376108743584523	4.459095035927264	8.400840146271408	2.6376108743584523	0.5437603632691863	6.681931601503412	4.356519419126451	4.122601380378262	4.532925060557216	2	missed	0.0
241.74744209996425	6.370499000069685	go_punish	0.3083194999489933	241.77304459991865	243.12621009990107	245.66842649993487	1.353165499982424	242.77718330000062	244.65830359992106	246.68138919991907	0.34902679990045726	1.0101229000138119	1.4621544000692666	n/a	1.0	n/a	1	0	97	1	go_punish	1	0	-1	1	1	1	1	n/a	n/a	0	0.3083194999489933	1.0	537.279419700033	779.0524642999517	780.0566030000336	780.4056297999341	781.9377232999541	782.9478461999679	n/a	n/a	783.9608088999521	785.4229633000214	2020-03-31 17:54:54.967922	4.10560318584121	-10.9525132747206	-18.3846913278289	-11.8985488526365	-14.2790881419877	-18.3846913278289	-4.10560318584121	-10.9525132747206	-18.3846913278289	-14.2790881419877	-18.3846913278289	10.9525132747206	-0.5660723081560484	-7.274338519307087	-15.747080453470447	-9.779194627872744	-12.875335672090511	-15.747080453470447	11.348615003184417	-14.594244216858508	-14.028171908702449	-9.169652705505847	-13.851766267271685	2	missed	0.0
248.15741119999439	7.28705279994756	nogo_punish	1.0	248.1830136999488	250.4634143000003	252.98759579996113	2.2804006000515074	249.1849126999732	251.97889009991195	254.00190819997806	1.2785016000270844	1.0087057000491768	1.4681582999182865	n/a	1.0	n/a	1	0	98	2	nogo_punish	1	-1	0	0	0	1	0	n/a	n/a	0	1.0	1.0	537.279419700033	785.4624333999818	786.4643324000062	787.7428340000333	789.258309799945	790.2670154999942	n/a	n/a	791.2813279000111	792.7494861999294	2020-03-31 17:54:54.967922	0.94425250190843	-8.0720948014402	-8.61234066511159	-8.61345952292987	-9.55659316702002	-8.61234066511159	-0.94425250190843	-8.61234066511159	-8.0720948014402	-8.61234066511159	-9.55659316702002	8.61234066511159	-3.7274229920888287	-4.393920046026687	-5.974729790753138	-6.494105298166116	-8.152840697122832	-5.974729790753138	9.008442393575407	-8.927496739982399	-5.200073747893569	-6.829480095896838	-3.5391697408829836	2	missed	0.0
255.48371870000847	6.627175300032832	nogo_punish	1.0	255.50932119996287	257.36488489992917	259.9000647999346	1.8555636999662966	256.5214635999873	258.88017879996914	260.9183096999768	0.8434212999418378	1.0198859999654815	1.2181868000188842	n/a	1.0	n/a	1	0	99	2	nogo_punish	1	-1	0	0	0	1	0	n/a	n/a	0	1.0	1.0	537.279419700033	792.7887408999959	793.8008833000204	794.6443045999622	796.1595985000022	797.1794844999677	n/a	n/a	798.1977294000098	799.4159162000287	2020-03-31 17:54:54.967922	2.72479873373471	-8.0720948014402	-4.64451569191024	-4.64538685945105	-7.36931442564495	-4.64451569191024	-2.72479873373471	-4.64451569191024	-8.0720948014402	-4.64451569191024	-7.36931442564495	4.64451569191024	-1.9468767602625485	-4.393920046026687	-2.006904817551788	-2.5260326346872954	-5.965561955747761	-2.006904817551788	5.040617420374057	-4.959671766781049	-3.0127950065184983	-2.8616551226954883	-3.5391697408829836	2	missed	0.0
262.1554947999539	6.3516241000033915	go_reward	0.3368912999285385	262.1810972999083	264.01654709992	266.57315599999856	1.8354498000117019	263.1783552999841	265.55325739993714	267.58633679989725	0.8381917999358848	1.019898600061424	0.9463846000144258	n/a	1.0	n/a	1	0	100	3	go_reward	0	0	1	1	1	1	0	n/a	n/a	0	0.3368912999285385	1.0	537.279419700033	799.4605169999413	800.4577750000171	801.295966799953	802.8326770999702	803.8525757000316	n/a	n/a	804.8657564999303	805.8121410999447	2020-03-31 17:54:54.967922	7.08913845648012	2.39784899173002	0.0	2.39784899173002	7.08913845648012	0.0	-7.08913845648012	2.39784899173002	0.0	7.08913845648012	0.0	-2.39784899173002	2.417462962482861	6.076023747143532	2.6376108743584523	4.517203216493774	8.492890926377308	2.6376108743584523	-2.0017472632662034	6.773982381609311	4.356519419126451	4.180709560944772	4.532925060557216	2	missed	0.0
268.5464428999694	6.738342800061218	go_punish	0.2549226999981329	268.5720453999238	270.53373679996	273.08158169989474	1.9616914000362158	269.57451279996894	272.064853399992	274.0917771999957	0.9592239999910817	1.016728299902752	1.2186109999893233	n/a	1.0	n/a	1	0	101	1	go_punish	0	-1	0	1	1	1	0	n/a	n/a	-1	0.2549226999981329	1.0	537.279419700033	805.8514650999568	806.853932500002	807.813156499993	809.344273100025	810.3610013999278	n/a	n/a	811.3711969000287	812.5898079000181	2020-03-31 17:54:54.967922	11.8361106914291	-6.08749647054364	-18.3846913278289	-6.72649149158725	-6.54858063639973	-18.3846913278289	-11.8361106914291	-6.08749647054364	-18.3846913278289	-6.54858063639973	-18.3846913278289	-12.584584590594957	7.164435197431842	-2.409321715130128	-15.747080453470447	-4.607137266823496	-5.144828166502542	-15.747080453470447	-12.18848286213114	-6.863736711270538	-14.028171908702449	-4.304635901328888	-13.851766267271685	2	missed	0.0
275.32818620000035	6.213895499939099	go_reward	0.4119275000412017	275.35378869995475	276.67964079999365	279.22447929996997	1.325852100038901	276.35168889991473	278.2104774999898	280.2230698999483	0.32795190007891506	1.0140017999801785	1.3446142999455333	n/a	1.0	n/a	1	0	102	3	go_reward	1	1	0	1	1	1	1	n/a	n/a	1	0.4119275000412017	1.0	537.279419700033	812.6332083999878	813.6311085999478	813.9590605000267	815.4898972000228	816.503899000003	n/a	n/a	817.5024895999813	818.8471038999269	2020-03-31 17:54:54.967922	5.29999831579934	1.26108128285862	0.0	1.26108128285862	5.29999831579934	0.0	-5.29999831579934	1.26108128285862	0.0	5.29999831579934	0.0	1.22631816311026	0.6283228218020813	4.939256038272132	2.6376108743584523	3.3804355076223747	6.703750785696528	2.6376108743584523	1.6224198915740764	4.984842240928532	4.356519419126451	3.043941852073372	4.532925060557216	2	missed	0.0
281.578252300038	5.888857299927622	nogo_reward	0.8243685000343248	281.6038547999924	283.02510509989224	285.5731141999131	1.4212502998998389	282.6088641999522	284.5579791999189	286.5873624999076	0.41624089994002134	1.0151349999941885	0.9053496000124142	n/a	1.0	n/a	1	0	103	4	nogo_reward	1	0	1	0	1	0	0	n/a	n/a	0	0.8243685000343248	1.0	537.279419700033	818.8832745000254	819.8882838999853	820.3045247999253	821.837398899952	822.8525338999461	n/a	n/a	823.8667821999406	824.7721317999531	2020-03-31 17:54:54.967922	3.29223704723059	0.68420257939511	1.17052836511201	0.813608174477367	4.4627654123426	1.17052836511201	-3.29223704723059	0.68420257939511	1.17052836511201	4.4627654123426	1.17052836511201	-0.68420257939511	-1.3794384467666685	4.362377334808622	3.8081392394704623	2.932962399241122	5.866517882239789	3.8081392394704623	-0.28810085093129356	4.147609337471792	5.527047784238461	2.467063148609862	5.703453425669226	2	missed	0.0
287.5063402999658	6.235571200028062	nogo_punish	1.0	287.5319427999202	289.31774649990257	291.84850029996596	1.7858036999823526	288.5345341999782	290.82921589992475	292.86157249996904	0.7832122999243438	1.0192844000412151	0.9059414999792352	n/a	1.0	n/a	1	0	104	2	nogo_punish	1	-1	0	0	0	1	0	n/a	n/a	0	1.0	1.0	537.279419700033	824.8113624999532	825.8139539000113	826.5971661999356	828.1086355999578	829.127919999999	n/a	n/a	830.1409922000021	831.0469336999813	2020-03-31 17:54:54.967922	3.6102395473232	-8.0720948014402	-2.64054623985246	-2.64122732410037	-6.25078578717566	-2.64054623985246	-3.6102395473232	-2.64054623985246	-8.0720948014402	-2.64054623985246	-6.25078578717566	2.64054623985246	-1.0614359466740586	-4.393920046026687	-0.0029353654940078577	-0.5218730993366152	-4.847033317278472	-0.0029353654940078577	3.0366479683162764	-2.955702314723269	-1.894266368049209	-0.8576856706377081	-3.5391697408829836	2	missed	0.0
293.7777584999567	6.957205799990334	go_punish	0.3037435999140143	293.8033609999111	295.72088409995195	298.2634865998989	1.917523100040853	294.8094451999059	297.25349159992766	299.27605019998737	0.9114389000460505	1.0099949999712408	1.484516599914059	n/a	1.0	n/a	1	0	105	1	go_punish	1	0	-1	1	1	1	0	n/a	n/a	0	0.3037435999140143	1.0	537.279419700033	831.0827806999441	832.0888648999389	833.000303799985	834.5329112999607	835.5429062999319	n/a	n/a	836.5554699000204	838.0399864999345	2020-03-31 17:54:54.967922	3.3363749892093	-11.6280310167369	-18.3846913278289	-12.067155252134	-15.0483163386196	-18.3846913278289	-3.3363749892093	-11.6280310167369	-18.3846913278289	-15.0483163386196	-18.3846913278289	11.6280310167369	-1.3353005047879587	-7.949856261323387	-15.747080453470447	-9.947801027370247	-13.644563868722411	-15.747080453470447	12.024132745200717	-15.363472413490408	-14.028171908702449	-9.845170447522147	-13.851766267271685	2	missed	0.0
300.7768481000094	6.81673810002394	go_reward	0.2929998999461531	300.8024505999638	303.0258172999602	305.5595237999223	2.2233666999964043	301.80065949994605	304.547184899915	306.570720699965	1.2251578000141308	1.0123389000073075	1.0484680000226945	n/a	1.0	n/a	1	0	106	3	go_reward	0	0	1	1	1	1	0	n/a	n/a	0	0.2929998999461531	1.0	537.279419700033	838.0818702999968	839.0800791999791	840.3052369999932	841.826604599948	842.8389434999553	n/a	n/a	843.850140399998	844.8986084000207	2020-03-31 17:54:54.967922	6.25160960794729	1.86742515212391	0.0	1.86742515212391	6.25160960794729	0.0	-6.25160960794729	1.86742515212391	0.0	6.25160960794729	0.0	-1.86742515212391	1.5799341139500314	5.545599907537422	2.6376108743584523	3.9867793768876645	7.655362077844478	2.6376108743584523	-1.4713234236600936	5.936453533076482	4.356519419126451	3.650285721338662	4.532925060557216	2	missed	0.0
307.6360735000344	7.048799899988808	go_reward	0.2944151000119746	307.6616759999888	310.38501749990974	312.9399462000001	2.7233414999209344	308.6593533999985	311.9165867998963	313.94551339989994	1.7256640999112278	1.0233594001038	0.7649625000776723	n/a	1.0	n/a	1	0	107	3	go_reward	1	1	0	1	1	1	0	n/a	n/a	1	0.2944151000119746	1.0	537.279419700033	844.9410957000218	845.9387731000315	847.6644371999428	849.1960064999294	850.2193659000332	n/a	n/a	851.224933099933	851.9898956000106	2020-03-31 17:54:54.967922	4.86423240606094	0.985675162164065	0.0	0.985675162164065	4.86423240606094	0.0	-4.86423240606094	0.985675162164065	0.0	4.86423240606094	0.0	1.501724283804815	0.1925569120636812	4.663849917577577	2.6376108743584523	3.1050293869278196	6.267984875958128	2.6376108743584523	1.8978260122686315	4.549076331190132	4.356519419126451	2.768535731378817	4.532925060557216	2	missed	0.0
314.72167500003707	6.327656599925831	nogo_reward	0.337611399940215	314.74727749999147	316.7578613999067	319.3125817999244	2.0105838999152184	315.7581531999167	318.28888849995565	320.3145637999987	0.999708199989982	1.023693299968727	0.7603702999185771	n/a	1.0	n/a	1	0	108	4	nogo_reward	0	1	0	0	1	0	0	n/a	n/a	1	0.337611399940215	1.0	537.279419700033	852.0266972000245	853.0375728999497	854.0372810999397	855.5683081999887	856.5920014999574	n/a	n/a	857.5939835000318	858.3543537999503	2020-03-31 17:54:54.967922	2.76041071726678	0.3673973548121	1.17052836511201	0.441668685333362	3.93093908237879	1.17052836511201	-2.76041071726678	0.3673973548121	1.17052836511201	3.93093908237879	1.17052836511201	2.12000209115678	-1.9112647767304787	4.045572110225613	3.8081392394704623	2.5610229100971167	5.334691552275978	3.8081392394704623	2.5161038196205965	3.6157830075079813	5.527047784238461	2.1502579240268522	5.703453425669226	2	missed	0.0
321.0917091999436	7.268784700077958	go_reward	0.2407505000010132	321.117311699898	323.9529058999615	326.5045486999443	2.835594200063497	322.12564539990854	325.4847024999326	327.517364099971	1.8272605000529438	1.0198462000116706	0.8687323000049219	n/a	1.0	n/a	1	0	109	3	go_reward	0	0	1	1	1	1	1	n/a	n/a	0	0.2407505000010132	1.0	537.279419700033	858.396731399931	859.4050650999416	861.2323255999945	862.7641221999656	863.7839683999773	n/a	n/a	864.796783800004	865.665516100009	2020-03-31 17:54:54.967922	6.0146167952199	1.71779320989501	0.0	1.71779320989501	6.0146167952199	0.0	-6.0146167952199	1.71779320989501	0.0	6.0146167952199	0.0	-1.71779320989501	1.3429413012226412	5.395967965308523	2.6376108743584523	3.837147434658765	7.418369265117088	2.6376108743584523	-1.3216914814311935	5.699460720349092	4.356519419126451	3.5006537791097623	4.532925060557216	2	missed	0.0
328.40398549998645	7.442966300062835	nogo_punish	1.0	328.42958799994085	330.91164409997873	333.4369279999519	2.4820561000378802	329.437102099997	332.42679139995016	334.4505030999426	1.4745419999817386	1.0101366000017151	1.4220512000611052	n/a	1.0	n/a	1	0	110	2	nogo_punish	1	-1	0	0	0	1	0	n/a	n/a	0	1.0	1.0	537.279419700033	865.7090076999739	866.71652180003	868.1910638000118	869.7062110999832	870.7163476999849	n/a	n/a	871.7299227999756	873.1519740000367	2020-03-31 17:54:54.967922	4.08056870405014	-8.0720948014402	-1.56655372469239	-1.56708824606173	-5.64712242874253	-1.56655372469239	-4.08056870405014	-1.56655372469239	-8.0720948014402	-1.56655372469239	-5.64712242874253	1.56655372469239	-0.5911067899471183	-4.393920046026687	1.0710571496660624	0.5522659787020248	-4.243369958845342	1.0710571496660624	1.9626554531562064	-1.8817097995631986	-1.2906030096160785	0.21630684452236215	-3.5391697408829836	2	missed	0.0
335.8822205000324	6.832664999994449	go_punish	0.3090780999045819	335.9078229999868	338.35649159993045	340.9217649999773	2.4486685999436304	336.926943999948	339.9096110999817	341.93452889996115	1.4295475999824703	1.0121538999956101	0.8059591000201181	n/a	1.0	n/a	1	0	111	1	go_punish	1	0	-1	1	1	1	0	n/a	n/a	0	0.3090780999045819	1.0	537.279419700033	873.1872427000199	874.206363699981	875.6359112999635	877.1890308000147	878.2011847000103	n/a	n/a	879.2139485999942	880.0199077000143	2020-03-31 17:54:54.967922	11.4417527984883	-6.45890934266086	-18.3846913278289	-6.76532654523327	-6.94293852934056	-18.3846913278289	-11.4417527984883	-6.45890934266086	-18.3846913278289	-6.94293852934056	-18.3846913278289	6.45890934266086	6.770077304491042	-2.7807345872473475	-15.747080453470447	-4.645972320469515	-5.539186059443372	-15.747080453470447	6.855011071124676	-7.258094604211368	-14.028171908702449	-4.676048773446108	-13.851766267271685	2	missed	0.0
342.75033049995545	6.235001699998975	go_punish	0.3853190999943763	342.77593299990986	344.20533259992953	346.75311749998946	1.4293996000196785	343.7942988999421	345.7441661999328	347.76740589994006	0.4110336999874562	1.0089513000566512	1.2435287999687716	n/a	1.0	n/a	1	0	112	1	go_punish	1	0	-1	1	1	1	0	n/a	n/a	0	0.3853190999943763	1.0	537.279419700033	880.0553526999429	881.0737185999751	881.4847522999626	883.0235858999658	884.0325372000225	n/a	n/a	885.0468255999731	886.2903543999419	2020-03-31 17:54:54.967922	15.6846997220522	-3.77005088908135	-18.3846913278289	-3.98679804360356	-2.69999160577664	-18.3846913278289	-15.6846997220522	-3.77005088908135	-18.3846913278289	-2.69999160577664	-18.3846913278289	3.77005088908135	11.013024228054942	-0.09187613366783776	-15.747080453470447	-1.8674438188398055	-1.296239135879452	-15.747080453470447	4.166152617545166	-3.015147680647449	-14.028171908702449	-1.987190319866598	-13.851766267271685	2	missed	0.0
349.02188809996005	6.6965739000588655	go_punish	0.2795233000069856	349.04749059991445	351.2291421999689	353.77823129994795	2.1816516000544652	350.0618218999589	352.766445599962	354.7911748999031	1.167320300010033	1.0117856999859214	0.9528896000701934	n/a	1.0	n/a	1	0	113	1	go_punish	1	0	-1	1	1	1	1	n/a	n/a	0	0.2795233000069856	1.0	537.279419700033	886.3269102999475	887.3412415999919	888.508561900002	890.0458652999951	891.057650999981	n/a	n/a	892.0705945999362	893.0234842000064	2020-03-31 17:54:54.967922	18.031063343065	-2.29006632038139	-18.3846913278289	-2.44526867203259	-0.353627984763828	-18.3846913278289	-18.031063343065	-2.29006632038139	-18.3846913278289	-0.353627984763828	-18.3846913278289	2.29006632038139	13.35938784906774	1.3881084350321227	-15.747080453470447	-0.32591444726883534	1.0501244851333602	-15.747080453470447	2.6861680488452064	-0.6687840596346366	-14.028171908702449	-0.5072057511666377	-13.851766267271685	2	missed	0.0
355.7550483000232	6.943876200006343	nogo_reward	0.4323639000067487	355.7806507999776	357.76029019989073	360.3150352999801	1.9796393999131396	356.78572299994994	359.28450049995445	361.32482609990984	0.9745671999407932	1.0305348000256345	1.3997009000740945	n/a	1.0	n/a	1	0	114	4	nogo_reward	0	1	0	0	1	0	0	n/a	n/a	1	0.4323639000067487	1.0	537.279419700033	893.0600705000106	894.065142699983	895.0397098999238	896.5639201999875	897.5944550000131	n/a	n/a	898.6042457999429	900.003946700017	2020-03-31 17:54:54.967922	4.33045582450853	1.37672267247518	1.17052836511201	1.42078810961288	5.50098418962055	1.17052836511201	-4.33045582450853	1.37672267247518	1.17052836511201	5.50098418962055	1.17052836511201	1.1106767734937	-0.34121966948872906	5.054897427888692	3.8081392394704623	3.5401423343766347	6.904736659517738	3.8081392394704623	1.5067785019575164	5.185828114749742	5.527047784238461	3.159583241689932	5.703453425669226	2	missed	0.0
362.7352182000177	6.34109320002608	go_punish	0.3068221000721678	362.7608206999721	364.3346613999456	366.8935980999378	1.5738406999735162	363.7731349999086	365.87284419999935	367.9051156999776	0.5615264000369962	1.020753899938427	1.1967982000205666	n/a	1.0	n/a	1	0	115	1	go_punish	1	0	-1	1	1	1	1	n/a	n/a	0	0.3068221000721678	1.0	537.279419700033	900.0402404000051	901.0525546999417	901.6140810999786	903.1522639000324	904.1730177999708	n/a	n/a	905.1845354000106	906.3813336000312	2020-03-31 17:54:54.967922	19.387670553337	-1.43745984233995	-18.3846913278289	-1.54982361938426	1.00297922550814	-18.3846913278289	-19.387670553337	-1.43745984233995	-18.3846913278289	1.00297922550814	-18.3846913278289	1.43745984233995	14.71599505933974	2.240714913073562	-15.747080453470447	0.5695306053794946	2.406731695405328	-15.747080453470447	1.8335615708037665	0.6878231506373315	-14.028171908702449	0.34540072687480206	-13.851766267271685	2	missed	0.0
369.118745499989	6.166479000006802	nogo_reward	0.4234297000803053	369.1443479999434	370.80911829997774	373.3356962999096	1.66477030003432	370.14399529993534	372.3319356999127	374.34844519989576	0.6651230000423993	1.0037605999968946	0.9623818000544588	n/a	1.0	n/a	1	0	116	4	nogo_reward	1	0	1	0	1	0	1	n/a	n/a	0	0.4234297000803053	1.0	537.279419700033	906.4237676999765	907.4234149999684	908.0885380000108	909.6113553999458	910.6151159999426	n/a	n/a	911.6278648999288	912.5902466999833	2020-03-31 17:54:54.967922	5.10710170178144	1.87503680401326	1.17052836511201	1.90194202514428	6.27763006689345	1.17052836511201	-5.10710170178144	1.87503680401326	1.17052836511201	6.27763006689345	1.17052836511201	-1.87503680401326	0.4354262077841815	5.553211559426773	3.8081392394704623	4.021296249908035	7.681382536790638	3.8081392394704623	-1.4789350755494435	5.962473992022642	5.527047784238461	3.6578973732280122	5.703453425669226	2	missed	0.0
375.31965339998715	7.0751071999548	go_punish	0.3673847999889403	375.34525589994155	377.6791201999878	380.23613400000613	2.33386430004623	376.3516066999873	379.2129709000002	381.2549604999366	1.3275135000004639	1.0231631000059451	1.165402599959748	n/a	1.0	n/a	1	0	117	1	go_punish	1	0	-1	1	1	1	1	n/a	n/a	0	0.3673847999889403	1.0	537.279419700033	912.6246755999746	913.6310264000203	914.9585399000208	916.4923906000332	917.5155537000392	n/a	n/a	918.5343801999696	919.6997827999294	2020-03-31 17:54:54.967922	20.2014897853447	-0.927465234381761	-18.3846913278289	-1.00963031754878	1.81679845751586	-18.3846913278289	-20.2014897853447	-0.927465234381761	-18.3846913278289	1.81679845751586	-18.3846913278289	0.927465234381761	15.529814291347442	2.7507095210317516	-15.747080453470447	1.1097239072149747	3.220550927413048	-15.747080453470447	1.3235669628455775	1.5016423826450516	-14.028171908702449	0.8553953348329911	-13.851766267271685	2	missed	0.0
382.4308981000214	6.309562599984702	nogo_reward	0.6217245000880212	382.4565005999758	383.81893099995796	386.36071449995495	1.362430399982145	383.4686340999324	385.3490990999853	387.373835699982	0.3502969000255689	1.011615399969628	1.3922274999785031	n/a	1.0	n/a	1	0	118	4	nogo_reward	1	0	1	0	1	0	1	n/a	n/a	0	0.6217245000880212	1.0	537.279419700033	919.7359203000088	920.7480537999654	921.098350699991	922.6285188000184	923.640134199988	n/a	n/a	924.653255400015	926.0454828999935	2020-03-31 17:54:54.967922	3.67014325146994	0.964656917724348	1.17052836511201	0.981501616285434	4.84067161658195	1.17052836511201	-3.67014325146994	0.964656917724348	1.17052836511201	4.84067161658195	1.17052836511201	-0.964656917724348	-1.0015322425273188	4.64283167313786	3.8081392394704623	3.1008558410491887	6.244424086479139	3.8081392394704623	-0.5685551892605316	4.525515541711142	5.527047784238461	2.7475174869391	5.703453425669226	2	missed	0.0
388.779560499941	7.5158118000254035	nogo_punish	1.0	388.8051629998954	391.77591259998735	394.30204729991976	2.970749600091949	389.81704829994135	393.2812524999026	395.315046899952	1.9588643000460024	1.0207948000171427	1.0059278999688104	n/a	1.0	n/a	1	0	119	2	nogo_punish	1	-1	0	0	0	1	0	n/a	n/a	0	1.0	1.0	537.279419700033	926.0845826999284	927.0964679999744	929.0553323000204	930.5606721999357	931.5814669999528	n/a	n/a	932.594466599985	933.6003944999538	2020-03-31 17:54:54.967922	4.34394706762634	-8.0720948014402	-0.96260828108943	-0.963029295329728	-5.30655534871577	-0.96260828108943	-4.34394706762634	-0.96260828108943	-8.0720948014402	-0.96260828108943	-5.30655534871577	0.96260828108943	-0.3277284263709186	-4.393920046026687	1.6750025932690225	1.1563249294340268	-3.9028028788185822	1.6750025932690225	1.3587100095532465	-1.2777643559602385	-0.950035929589319	0.8202522881253221	-3.5391697408829836	2	missed	0.0
396.3370091000106	6.027886199997738	go_reward	0.5017546999733895	396.362611599965	397.93576409993693	400.4803470999468	1.5731524999719113	397.3733787999954	399.4668356999754	401.49097699997935	0.5623852999415249	1.013511399971435	0.8995207999834065	n/a	1.0	n/a	1	0	120	3	go_reward	1	1	0	1	1	1	0	n/a	n/a	1	0.5017546999733895	1.0	537.279419700033	933.642031299998	934.6527985000284	935.21518379997	936.7462554000084	937.7597667999798	n/a	n/a	938.7703967000124	939.6699174999958	2020-03-31 17:54:54.967922	4.73038365010047	0.9011842795951	0.0	0.9011842795951	4.73038365010047	0.0	-4.73038365010047	0.9011842795951	0.0	4.73038365010047	0.0	1.58621516637378	0.05870815610321145	4.579359035008612	2.6376108743584523	3.0205385043588544	6.134136119997658	2.6376108743584523	1.9823168948375964	4.415227575229662	4.356519419126451	2.684044848809852	4.532925060557216	2	missed	0.0
