onset	duration	trial_type	response_time	cueOnset	targetOnset	fbOnset	cueRT	firstfixOnset	secondfixOnset	waitOnset	firstfixdur	secondfixdur	waitdur	nback_fbOnset	nback_response_time	nback_targetOnset	block	wm	trial	cue	cond	is_common	outcome_go	outcome_nogo	key_correct	key_pressed	is_correct	key_correct_nback	key_pressed_nback	is_correct_nback	outcome	rt	rt_nback	time_scan	time_onset	time_isi1	time_circle	time_isi2	time_feedback	time_same	time_correct	time_iti	time_done	timestamp_scan	DV	Qgo	Qnogo	SV	Wgo	Wnogo	mDV	Qchosen	Qunchosen	Wchosen	Wunchosen	PE	DVC	QgoC	QnogoC	SVC	WgoC	WnogoC	PEC	WchosenC	WunchosenC	QchosenC	QunchosenC	run	outcome_nback	nback_targetResp
0.0	9.23534169991035	nogo_reward	0.5368787000188604	0.009240000043064356	2.840523899998516	5.376569099957123	2.8312838999554515	1.0117535999743268	4.366833499982022	8.432110599940643	1.828770300024189	1.0097355999751016	0.8124711000127718	7.422172399936244	0.5834461000049487	6.398030100041069	2	1	61	4	nogo_reward	1	0	1	0	1	0	1	0.0	0.0	0	0.5368787000188604	0.5834461000049487	1598.5252255999949	1598.534465600038	1599.5369791999692	1601.3657494999934	1602.892059099977	1603.901794699952	1604.923255700036	1605.9473979999311	1606.9573361999355	1607.7698072999483	2020-03-31 18:12:36.213731	3.30668376947131	0.000212369885678	0.0	0.000212369885678	3.30668376947131	0.0	-3.30668376947131	0.000212369885678	0.0	3.30668376947131	0.0	-0.000212369885678	-1.3649917245259489	3.6783871252991904	2.6376108743584523	2.1195665946494326	4.710436239368498	2.6376108743584523	0.3958893585781384	2.991527694600501	4.356519419126451	1.78307293910043	4.532925060557216	4	wrong	1.0
9.280520299915224	8.402171000023145	nogo_punish	1.0	9.289760299958289	11.075879300013185	13.603064000024233	1.7861190000548959	10.295347700011916	12.59129250003025	16.6671856000321	0.7805316000012681	1.0117714999939835	1.0247456999493352	15.65551620000042	0.5634395000524819	14.624955300008878	2	1	62	2	nogo_punish	0	0	-1	0	0	1	0	0.0	1.0	-1	1.0	0.5634395000524819	1598.5252255999949	1607.8149858999532	1608.8205733000068	1609.601104900008	1611.1165181000251	1612.1282896000191	1613.1501809000038	1614.1807417999953	1615.192411200027	1616.2171568999763	2020-03-31 18:12:36.213731	14.8881360828792	-18.1962951274657	-0.005229476761111	-0.0058300607016116	-14.8933655596403	-0.005229476761111	-14.8881360828792	-0.005229476761111	-18.1962951274657	-0.005229476761111	-14.8933655596403	-18.666851584377486	10.21646058888194	-14.518120372052188	2.6323813975973414	2.113524164062143	-13.489613089743111	2.6323813975973414	-18.27074985591367	-0.32038555163191956	-10.536846140513848	1.7776310924536411	-13.663370066908485	4	correct	1.0
17.70716609992087	8.490924200043082	nogo_reward	0.6401182999834418	17.716406099963933	19.216323300031945	21.76789379992988	1.4999172000680119	18.72691840003222	20.748586399946362	24.823310300009325	0.4894048999997267	1.0193073999835178	1.3840199999976903	23.808804200030636	0.6180809999350458	22.78635189996544	2	1	63	4	nogo_reward	1	0	1	0	1	0	1	1.0	1.0	0	0.6401182999834418	0.6180809999350458	1598.5252255999949	1616.2416316999588	1617.252144000027	1617.7415489000268	1619.2738119999412	1620.2931193999248	1621.3115774999603	1622.3340298000255	1623.3485359000042	1624.732555900002	2020-03-31 18:12:36.213731	3.30652959186433	0.0001189808358564	0.0	0.0001189808358564	3.30652959186433	0.0	-3.30652959186433	0.0001189808358564	0.0	3.30652959186433	0.0	-0.0001189808358564	-1.3651459021329289	3.678293736249369	2.6376108743584523	2.1194732055996113	4.710282061761518	2.6376108743584523	0.39598274762796004	2.991373516993521	4.356519419126451	1.7829795500506085	4.532925060557216	4	correct	1.0
26.24288399994839	8.168554999982007	go_reward	0.9611918999580666	26.252123999991454	27.601112499949522	30.142167099984363	1.3489884999580681	27.258152800030075	29.12863199994922	33.20671069994569	0.3429596999194473	1.013535100035142	1.2139683000277728	32.18873840000015	0.3756335000507533	31.159679200034816	2	1	64	3	go_reward	0	0	1	1	1	1	0	0.0	1.0	0	0.9611918999580666	0.3756335000507533	1598.5252255999949	1624.7773495999863	1625.783378400025	1626.1263380999444	1627.653857599944	1628.6673926999792	1629.6849048000297	1630.713963999995	1631.7319362999406	1632.9459045999683	2020-03-31 18:12:36.213731	6.84339653749427	2.46114638262961	0.0	2.46114638262961	6.84339653749427	0.0	-6.84339653749427	2.46114638262961	0.0	6.84339653749427	0.0	-2.46114638262961	2.171721043497011	6.1393211380431225	2.6376108743584523	4.580500607393365	8.247149007391458	2.6376108743584523	-2.065044654165794	6.528240462623462	4.356519419126451	4.244006951844362	4.532925060557216	4	correct	1.0
34.43910189997405	8.442029099911451	go_punish	0.5380868999054655	34.44834190001711	35.923255900037475	38.44703869998921	1.4749140000203624	35.456118599977344	37.4354280999396	41.48173280002061	0.46713730006013066	1.0116106000496075	1.408638199907955	40.46871139993891	0.4889517000410706	39.45751520001795	2	1	65	1	go_punish	1	0	-1	1	1	1	0	0.0	1.0	0	0.5380868999054655	0.4889517000410706	1598.5252255999949	1632.973567500012	1633.9813441999722	1634.4484815000324	1635.9606536999345	1636.972264299984	1637.9827408000128	1638.9939369999338	1640.0069584000155	1641.4155965999234	2020-03-31 18:12:36.213731	3.26816147917432	-0.0251588417720522	0.0	-0.0251588417720522	3.26816147917432	0.0	-3.26816147917432	-0.0251588417720522	0.0	3.26816147917432	0.0	0.0251588417720522	-1.4035140148229388	3.65301591364146	2.6376108743584523	2.0941953829917024	4.671913949071508	2.6376108743584523	0.4212605702358686	2.953005404303511	4.356519419126451	1.7577017274426998	4.532925060557216	4	correct	1.0
42.908249699976295	8.12372529995605	go_punish	0.8929462999803945	42.91748970001936	44.48443029995542	47.028961100033484	1.5669405999360606	43.92146360001061	46.015917200013064	50.07930810004473	0.5629666999448091	1.0130439000204206	0.9619068999306819	49.06606079998892	0.483259700005874	48.04618619999383	2	1	66	1	go_punish	1	0	-1	1	1	1	0	0.0	1.0	0	0.8929462999803945	0.483259700005874	1598.5252255999949	1641.4427153000142	1642.4466892000055	1643.0096558999503	1644.541142800008	1645.5541867000284	1646.5714117999887	1647.5912863999838	1648.6045337000396	1649.5664405999703	2020-03-31 18:12:36.213731	3.29251239798875	-0.0089233178606404	0.0	-0.0089233178606404	3.29251239798875	0.0	-3.29251239798875	-0.0089233178606404	0.0	3.29251239798875	0.0	0.0089233178606404	-1.3791630960085088	3.669251437552872	2.6376108743584523	2.1104309069031144	4.696264867885938	2.6376108743584523	0.4050250463244568	2.977356323117941	4.356519419126451	1.7739372513541116	4.532925060557216	4	correct	1.0
51.076718600001186	8.117638199939165	nogo_punish	1.0	51.08595860004425	52.37323709996417	54.883071799995605	1.2872784999199212	52.09217029996216	53.86780709994491	57.9221816000063	0.2810668000020087	1.0152647000506931	1.2814151999771184	56.910377799999196	0.5670261000050232	55.90025319997221	2	1	67	2	nogo_punish	0	0	-1	0	0	1	0	0.0	1.0	-1	1.0	0.5670261000050232	1598.5252255999949	1649.6111842000391	1650.617395899957	1650.898462699959	1652.3930326999398	1653.4082973999905	1654.425478799967	1655.435603399994	1656.4474072000012	1657.7288223999783	2020-03-31 18:12:36.213731	5.17029159746001	-18.1962951274657	-16.2076923750535	-16.2079996236842	-21.3779839725136	-16.2076923750535	-5.17029159746001	-16.2076923750535	-18.1962951274657	-16.2076923750535	-21.3779839725136	-2.4643886860850976	0.4986161034627514	-14.518120372052188	-13.570081500695048	-14.088645398920445	-19.974231502616412	-13.570081500695048	-2.0682869576212815	-16.52284844992431	-17.021464553387148	-14.42483180583875	-13.663370066908485	4	correct	1.0
59.21778439998161	8.471696899970993	nogo_reward	0.33206769998651	59.227024400024675	61.238274800009094	63.76547240000218	2.0112503999844193	60.23886819998734	62.753901900025085	66.83040159998927	0.9994066000217572	1.011570499977097	0.8683197000063956	65.81210849992931	0.8795446999138221	64.78795559995342	2	1	68	4	nogo_reward	1	0	1	0	1	0	0	0.0	1.0	0	0.33206769998651	0.8795446999138221	1598.5252255999949	1657.7522500000196	1658.7640937999822	1659.763500400004	1661.27912750002	1662.290697999997	1663.3131811999483	1664.3373340999242	1665.3556271999842	1666.2239468999906	2020-03-31 18:12:36.213731	3.30644546888478	6.83141294067368e-05	0.0	6.83141294067368e-05	3.30644546888478	0.0	-3.30644546888478	6.83141294067368e-05	0.0	3.30644546888478	0.0	-6.83141294067368e-05	-1.3652300251124787	3.678243069542919	2.6376108743584523	2.1194225388931613	4.710197938781969	2.6376108743584523	0.3960334143344097	2.9912893940139713	4.356519419126451	1.7829288833441588	4.532925060557216	4	correct	1.0
67.71344009996415	8.065117000019882	nogo_reward	0.6500331000424922	67.72268010000721	69.19235959998332	71.73258549999423	1.4696794999761096	68.73343829996861	70.7219634000212	74.78489330003504	0.4589213000147083	1.010622099973034	1.0029037999920547	73.77013830002397	0.2628816999495029	72.74162869993597	2	1	69	4	nogo_reward	1	0	1	0	1	0	0	0.0	1.0	0	0.6500331000424922	0.2628816999495029	1598.5252255999949	1666.247905700002	1667.2586638999635	1667.7175851999782	1669.247189000016	1670.257811099989	1671.2668542999309	1672.2953639000189	1673.31011890003	1674.313022700022	2020-03-31 18:12:36.213731	3.30639828665053	4.00272861363635e-05	0.0	4.00272861363635e-05	3.30639828665053	0.0	-3.30639828665053	4.00272861363635e-05	0.0	3.30639828665053	0.0	-4.00272861363635e-05	-1.3652772073467285	3.6782147826996487	2.6376108743584523	2.119394252049891	4.710150756547718	2.6376108743584523	0.39606170117768	2.9912422117797215	4.356519419126451	1.7829005965008884	4.532925060557216	4	correct	1.0
75.80453079997096	8.296239399933256	go_punish	0.3270435000304132	75.81377080001403	77.59835620003287	80.14373949996661	1.784585400018841	76.82275809999555	79.1203203999903	83.1838891999796	0.775598100037314	1.0234190999763086	0.9261209999676794	82.1706572000403	0.4599742999998852	81.1575024999911	2	1	70	1	go_punish	0	-1	0	1	1	1	0	0.0	1.0	-1	0.3270435000304132	0.4599742999998852	1598.5252255999949	1674.338996400009	1675.3479836999904	1676.1235818000278	1677.6455459999852	1678.6689650999615	1679.682728099986	1680.6958828000352	1681.7091147999745	1682.6352357999422	2020-03-31 18:12:36.213731	3.30062052141683	-0.0036256790878926	0.0	-0.0036256790878926	3.30062052141683	0.0	-3.30062052141683	-0.0036256790878926	0.0	3.30062052141683	0.0	-18.668455382050706	-1.3710549725804286	3.67454907632562	2.6376108743584523	2.115728545675862	4.704372991314019	2.6376108743584523	-18.27235365358689	2.9854644465460214	4.356519419126451	1.7792348901268595	4.532925060557216	4	correct	1.0
84.12676789995749	9.42610199993942	go_punish	0.5059987000422552	84.13600790000055	86.91163600003347	89.44338249997236	2.775628100032918	85.14689989993349	88.43255399994064	92.5134706000099	1.7647361000999808	1.010828500031721	1.0486392999300733	91.49394439999014	0.430365499923937	90.46215449995361	2	1	71	1	go_punish	1	0	-1	1	1	1	0	1.0	0.0	0	0.5059987000422552	0.430365499923937	1598.5252255999949	1682.6612334999954	1683.6721254999284	1685.4368616000284	1686.9577795999355	1687.9686080999672	1688.9873800999485	1690.019169999985	1691.0386962000048	1692.0873354999349	2020-03-31 18:12:36.213731	-19.3879594555859	-16.2069282439549	0.0	-16.2069282439549	-19.3879594555859	0.0	19.3879594555859	-16.2069282439549	0.0	-19.3879594555859	0.0	16.2069282439549	-24.05963494958316	-12.528753488541387	2.6376108743584523	-14.087574019191145	-17.98420698568871	2.6376108743584523	16.603029972418714	-19.70311553045671	4.356519419126451	-14.424067674740147	4.532925060557216	4	wrong	1.0
93.5974582999479	9.5038421000354	nogo_punish	1.0	93.60669829999097	96.2124626999721	98.75171690003481	2.605764399981126	94.60380319994874	97.72777060000226	101.78897650004342	1.6086595000233501	1.0239463000325486	1.321563899982948	100.78421229997184	0.6007211999967694	99.77073230000678	2	1	72	2	nogo_punish	0	0	-1	0	0	1	0	0.0	1.0	-1	1.0	0.6007211999967694	1598.5252255999949	1692.1319238999858	1693.1290287999436	1694.737688299967	1696.2529961999971	1697.2769425000297	1698.2959579000017	1699.3094378999667	1700.3142021000383	1701.6357660000212	2020-03-31 18:12:36.213731	4.00547723719109	-18.1962951274657	-18.1974703766212	-18.1976346836871	-22.2029476138123	-18.1974703766212	-4.00547723719109	-18.1974703766212	-18.1962951274657	-18.1974703766212	-22.2029476138123	-0.47461068451739763	-0.6661982568061688	-14.518120372052188	-15.559859502262748	-16.078280458923345	-20.79919514391511	-15.559859502262748	-0.07850895605358121	-18.51262645149201	-17.84642819468585	-16.41460980740645	-13.663370066908485	4	correct	1.0
103.13025849999394	9.624430399970151	go_punish	0.2719907999271527	103.139498500037	105.70753919996787	108.26118439994752	2.5680406999308616	104.14400410000235	107.23890859994572	111.28597510000691	1.5635350999655202	1.0222758000018075	1.4779538000002503	110.28293470002222	0.7535086999414489	109.26904939999804	2	1	73	1	go_punish	1	0	-1	1	1	1	1	1.0	1.0	0	0.2719907999271527	0.7535086999414489	1598.5252255999949	1701.664724100032	1702.6692296999972	1704.2327647999628	1705.7641341999406	1706.7864099999424	1707.794274999993	1708.808160300017	1709.8112007000018	1711.289154500002	2020-03-31 18:12:36.213731	0.488294922384379	-1.99178711540054	0.0	-1.99178711540054	0.488294922384379	0.0	-0.488294922384379	-1.99178711540054	0.0	0.488294922384379	0.0	1.99178711540054	-4.183380571612879	1.6863876400129725	2.6376108743584523	0.1275671093632147	1.892047392281567	2.6376108743584523	2.3878888438643564	0.17313884751357045	4.356519419126451	-0.20892654618578788	4.532925060557216	4	correct	1.0
112.77957099990454	8.348957500071037	nogo_reward	0.3643467000219971	112.7888109999476	114.34316399996169	116.89406279998343	1.554353000014089	113.79019970004447	115.87398249993544	119.94855309999548	0.5529642999172211	1.0200803000479937	1.1892154000231585	118.94000319996849	0.3881514000240713	117.9112557999324	2	1	74	4	nogo_reward	1	0	1	0	1	0	0	0.0	1.0	0	0.3643467000219971	0.3881514000240713	1598.5252255999949	1711.3140365999425	1712.3154253000394	1712.8683895999566	1714.3992080999303	1715.4192883999783	1716.4364813999273	1717.4652287999634	1718.4737786999904	1719.6629941000135	2020-03-31 18:12:36.213731	3.30637122148382	2.38629113484433e-05	0.0	2.38629113484433e-05	3.30637122148382	0.0	-3.30637122148382	2.38629113484433e-05	0.0	3.30637122148382	0.0	-2.38629113484433e-05	-1.3653042725134386	3.6781986183248607	2.6376108743584523	2.119378087675103	4.710123691381009	2.6376108743584523	0.396077865552468	2.9912151466130115	4.356519419126451	1.7828844321261006	4.532925060557216	4	correct	1.0
121.15351429989096	8.635114900069311	nogo_reward	0.4843867999734357	121.16275429993402	122.98514450003881	125.53237989998888	1.8223902001047918	122.1725671000313	124.51256129995454	128.59198969998397	0.8125774000075126	1.0198186000343412	1.205879500019364	127.57969059993047	0.4307651000563055	126.55081749998521	2	1	75	4	nogo_reward	1	0	1	0	1	0	0	0.0	1.0	0	0.4843867999734357	0.4307651000563055	1598.5252255999949	1719.687979899929	1720.6977927000262	1721.5103701000337	1723.0377868999494	1724.0576054999838	1725.07604309998	1726.1049161999254	1727.1172152999789	1728.3230947999982	2020-03-31 18:12:36.213731	3.30635539945477	1.44437785991583e-05	0.0	1.44437785991583e-05	3.30635539945477	0.0	-3.30635539945477	1.44437785991583e-05	0.0	3.30635539945477	0.0	-1.44437785991583e-05	-1.3653200945424886	3.6781891991921114	2.6376108743584523	2.1193686685423536	4.710107869351958	2.6376108743584523	0.39608728468521726	2.9911993245839614	4.356519419126451	1.7828750129933513	4.532925060557216	4	correct	1.0
129.83360029989854	9.199763900018297	nogo_punish	1.0	129.8428402999416	132.1249515999807	134.65020599996205	2.282111300039105	130.8485246000348	133.63956739997957	137.70064359996468	1.2764269999458975	1.0106385999824852	1.3419605999952182	136.68720499996562	0.3431169999530539	135.6674298000289	2	1	76	2	nogo_punish	1	-1	0	0	0	1	0	0.0	1.0	0	1.0	0.3431169999530539	1598.5252255999949	1728.3680658999365	1729.3737502000297	1730.6501771999756	1732.1647929999745	1733.175431599957	1734.1926554000238	1735.2124305999605	1736.2258691999596	1737.5678297999548	2020-03-31 18:12:36.213731	3.809160983921	-18.1962951274657	-18.5506787153219	-18.5507696906086	-22.3598396992429	-18.5506787153219	-3.809160983921	-18.5506787153219	-18.1962951274657	-18.5506787153219	-22.3598396992429	18.5506787153219	-0.8625145100762586	-14.518120372052188	-15.913067840963448	-16.431415465844847	-20.956087229345712	-15.913067840963448	18.946780443785716	-18.86583479019271	-18.003320280116448	-16.76781814610715	-13.663370066908485	4	correct	1.0
139.0582643999951	8.753113399958238	nogo_reward	1.0	139.06750440003816	141.12501489999704	143.65538050001487	2.0575104999588802	140.07895170000847	142.6406619999325	146.68682069994975	1.0460631999885663	1.014718500082381	1.1337971000466496	145.68179269996472	0.94738920009695	144.66126199997962	2	1	77	4	nogo_reward	1	0	1	0	0	1	1	0.0	0.0	1	1.0	0.94738920009695	1598.5252255999949	1737.592730000033	1738.6041773000034	1739.650240499992	1741.1658875999274	1742.1806061000098	1743.1864875999745	1744.2070182999596	1745.2120462999446	1746.3458433999913	2020-03-31 18:12:36.213731	-3.3063459974065	8.86204900189325e-06	0.0	8.86204900189325e-06	3.3063459974065	0.0	3.3063459974065	0.0	8.86204900189325e-06	0.0	3.3063459974065	2.48739944596888	-7.978021491403759	3.678183617462514	2.6376108743584523	2.1193630868127564	4.710098467303688	2.6376108743584523	2.8835011744326966	-0.31515607487080854	7.662865416532951	1.7828605692147521	4.532933922606218	4	wrong	1.0
147.83824620000087	8.917074400000274	go_punish	0.3744594999589026	147.84748620004393	149.67488489998505	152.22620709997136	1.8273986999411136	148.8554878999712	151.2048893999306	155.27110549993813	0.8193970000138506	1.021317700040754	1.4934551001060754	154.25804959994275	0.4026318000396713	153.2328309000004	2	1	78	1	go_punish	1	0	-1	1	1	1	0	0.0	1.0	0	0.3744594999589026	0.4026318000396713	1598.5252255999949	1746.3727118000388	1747.380713499966	1748.20011049998	1749.7301149999255	1750.7514326999662	1751.7580564999953	1752.7832751999376	1753.796331099933	1755.289786200039	2020-03-31 18:12:36.213731	2.79461602060793	-0.354180800976288	0.0	-0.354180800976288	2.79461602060793	0.0	-2.79461602060793	-0.354180800976288	0.0	2.79461602060793	0.0	0.354180800976288	-1.8770594733893287	3.3239939544372246	2.6376108743584523	1.7651734237874668	4.198368490505118	2.6376108743584523	0.7502825294401044	2.4794599457371214	4.356519419126451	1.4286797682384642	4.532925060557216	4	correct	1.0
156.78071709990036	8.695052199997008	go_punish	0.3565029000164941	156.78995709994342	158.84895669994876	161.40331029996742	2.058999600005336	157.79982700000983	160.38341130001936	164.44454099994618	1.0491296999389306	1.0198989999480546	1.0404682999942452	163.4342284000013	0.4595442999852821	162.42214010003954	2	1	79	1	go_punish	1	0	-1	1	1	1	0	0.0	1.0	0	0.3565029000164941	0.4595442999852821	1598.5252255999949	1755.3151826999383	1756.3250526000047	1757.3741822999436	1758.9086369000142	1759.9285358999623	1760.9473657000344	1761.9594539999962	1762.969766599941	1764.0102348999353	2020-03-31 18:12:36.213731	3.18331823388411	-0.083131802017911	0.0	-0.083131802017911	3.18331823388411	0.0	-3.18331823388411	-0.083131802017911	0.0	3.18331823388411	0.0	0.083131802017911	-1.4883572601131485	3.5950429533956014	2.6376108743584523	2.0362224227458436	4.587070703781299	2.6376108743584523	0.4792335304817274	2.8681621590133015	4.356519419126451	1.699728767196841	4.532925060557216	4	correct	1.0
165.5196504999185	9.003778500016779	nogo_punish	1.0	165.52889049996156	167.9740768999327	170.49806090001948	2.445186399971135	166.53588730003662	169.47823110001627	173.53165330004413	1.4381895998960772	1.0198298000032082	1.0010156999342144	172.5286524000112	0.5671542000491172	171.51550540002063	2	1	80	2	nogo_punish	1	-1	0	0	0	1	0	0.0	1.0	0	1.0	0.5671542000491172	1598.5252255999949	1764.0541160999564	1765.0611129000315	1766.4993024999276	1768.0034567000112	1769.0232865000144	1770.0407310000155	1771.053878000006	1772.056878900039	1773.0578945999732	2020-03-31 18:12:36.213731	13.484979050845	-18.1962951274657	-2.42801501089246	-2.42806681847948	-15.9129940617374	-2.42801501089246	-13.484979050845	-2.42801501089246	-18.1962951274657	-2.42801501089246	-15.9129940617374	2.42801501089246	8.813303556847742	-14.518120372052188	0.20959586346599224	-0.30871259371572535	-14.509241591840212	0.20959586346599224	2.8241167393562767	-2.7431710857632687	-11.556474642610949	-0.645154441677708	-13.663370066908485	4	correct	1.0
174.5693737999536	8.38290860003326	go_reward	0.3613341000163927	174.57861379999667	176.4303526999429	178.982204700005	1.8517388999462128	175.58554669993464	177.96152030001394	182.04557529999875	0.8448060000082478	1.0206843999910689	0.9159471000311896	181.03296240000054	0.4312840000493452	180.00619340001163	2	1	81	3	go_reward	0	0	1	1	1	1	0	0.0	1.0	0	0.3613341000163927	0.4312840000493452	1598.5252255999949	1773.1038393999916	1774.1107722999295	1774.9555782999378	1776.4867459000088	1777.5074303	1778.5314190000065	1779.5581879999954	1780.5708008999936	1781.4867480000248	2020-03-31 18:12:36.213731	3.90095016581845	0.405787300200453	0.0	0.405787300200453	3.90095016581845	0.0	-3.90095016581845	0.405787300200453	0.0	3.90095016581845	0.0	-0.405787300200453	-0.7707253281788087	4.0839620556139655	2.6376108743584523	2.5251415249642077	5.304702635715638	2.6376108743584523	-0.009685571736636589	3.5857940909476413	4.356519419126451	2.188647869415205	4.532925060557216	4	correct	1.0
182.99544049997348	9.406630699988682	nogo_punish	1.0	183.00468050001655	185.4660443000032	187.9937201000282	2.461363799986657	184.00324250000995	186.9738296000287	191.05864009994548	1.462801799993258	1.0198904999995193	1.3526711000597516	190.0454890000401	0.4541380000300705	189.01145079999696	2	1	82	2	nogo_punish	1	-1	0	0	0	1	1	1.0	1.0	0	1.0	0.4541380000300705	1598.5252255999949	1781.5299061000114	1782.5284681000048	1783.991269899998	1785.4990552000236	1786.518945700023	1787.5366763999918	1788.570714600035	1789.5838656999404	1790.9365368	2020-03-31 18:12:36.213731	14.6384514023307	-18.1962951274657	-0.46112982218815	-0.461160022292682	-15.0995812245189	-0.46112982218815	-14.6384514023307	-0.46112982218815	-18.1962951274657	-0.46112982218815	-15.0995812245189	0.46112982218815	9.966775908333442	-14.518120372052188	2.176481052170302	1.6581942024710727	-13.695828754621711	2.176481052170302	0.8572315506519664	-0.7762858970589586	-10.743061805392449	1.321730747026602	-13.663370066908485	4	correct	1.0
192.4493928999873	9.031764699961059	go_reward	0.2714205998927355	192.45863290003035	194.8939366999548	197.46624969993718	2.4353037999244407	193.46487939998042	196.44174709997606	200.5123728000326	1.4290572999743745	1.0245025999611244	0.9780247999588028	199.50032440002542	0.5219989999895915	198.4815350000281	2	1	83	3	go_reward	1	1	0	1	1	1	1	1.0	1.0	1	0.2714205998927355	0.5219989999895915	1598.5252255999949	1790.9838585000252	1791.9901049999753	1793.4191622999497	1794.966972699971	1795.991475299932	1797.006760600023	1798.0255500000203	1799.0375984000275	1800.0156231999863	2020-03-31 18:12:36.213731	3.44754667856561	0.0939389124621847	0.0	0.0939389124621847	3.44754667856561	0.0	-3.44754667856561	0.0939389124621847	0.0	3.44754667856561	0.0	2.3934605335066954	-1.2241288154316488	3.772113667875697	2.6376108743584523	2.2132931372259392	4.8512991484627985	2.6376108743584523	2.789562261970512	3.1323906036948013	4.356519419126451	1.8767994816769369	4.532925060557216	4	correct	1.0
201.52622879995056	8.414747899980284	go_reward	0.3288363999454304	201.53546879999362	203.11371269996744	205.68183959997282	1.5782438999738133	202.54726759996265	204.65860790002603	208.7159530000058	0.5664451000047848	1.0232316999467912	1.2342636999680963	207.71074420004152	0.5701381000690162	206.69847309996862	2	1	84	3	go_reward	1	1	0	1	1	1	0	1.0	0.0	1	0.3288363999454304	0.5701381000690162	1598.5252255999949	1800.0606943999885	1801.0724931999575	1801.6389382999623	1803.183833500021	1804.2070651999677	1805.2236986999635	1806.2359698000364	1807.2411786000007	1808.4754422999688	2020-03-31 18:12:36.213731	6.31769478392736	2.10030508514224	0.0	2.10030508514224	6.31769478392736	0.0	-6.31769478392736	2.10030508514224	0.0	6.31769478392736	0.0	0.38709436082663995	1.6460192899301012	5.778479840555752	2.6376108743584523	4.219659309905994	7.721447253824548	2.6376108743584523	0.7831960892904564	6.002538709056552	4.356519419126451	3.883165654356992	4.532925060557216	4	wrong	1.0
209.96747789997607	8.192428999929916	go_punish	0.3280522000277415	209.97671790001914	211.34439340000995	213.88668160000816	1.3676754999908098	210.9853001999436	212.8757320999864	216.9210691000335	0.35909320006635426	1.010949500021752	1.2480777999155634	215.90848680003546	0.5819059000350535	214.89583529997617	2	1	85	1	go_punish	1	0	-1	1	1	1	0	0.0	1.0	0	0.3280522000277415	0.5819059000350535	1598.5252255999949	1808.501943500014	1809.5105257999385	1809.8696190000048	1811.4009576999813	1812.411907200003	1813.421060899971	1814.4337124000303	1815.4462947000284	1816.694372499944	2020-03-31 18:12:36.213731	3.26941906241874	-0.0243773391690013	0.0	-0.0243773391690013	3.26941906241874	0.0	-3.26941906241874	-0.0243773391690013	0.0	3.26941906241874	0.0	0.0243773391690013	-1.4022564315785186	3.6537974162445113	2.6376108743584523	2.0949768855947535	4.673171532315928	2.6376108743584523	0.4204790676328177	2.9542629875479314	4.356519419126451	1.758483230045751	4.532925060557216	4	correct	1.0
218.18375249998644	8.917920399923105	nogo_reward	0.3451920000370592	218.1929925000295	220.1083246000344	222.66278829996008	1.915332100004889	219.19811180001102	221.63955700001702	225.6959122000262	0.9102128000233733	1.0232312999430633	1.415000699926395	224.69384229998104	0.4973672999767586	223.6732996000212	2	1	86	4	nogo_reward	0	1	0	0	1	0	0	0.0	1.0	1	0.3451920000370592	0.4973672999767586	1598.5252255999949	1816.7182181000244	1817.723337400006	1818.6335502000293	1820.164782600012	1821.188013899955	1822.198525200016	1823.219067899976	1824.221137800021	1825.6361384999475	2020-03-31 18:12:36.213731	2.12996773023674	8.86204900189325e-06	2.07222538519454	2.07223089005867	4.20219311543129	2.07222538519454	-2.12996773023674	8.86204900189325e-06	2.07222538519454	4.20219311543129	2.07222538519454	2.487390583919878	-2.5417077637605185	3.678183617462514	4.709836259552992	4.191585114822425	5.605945585328477	4.709836259552992	2.8834923123836944	3.887037040560481	6.428744804320991	1.782869431263754	6.605150445751756	4	correct	1.0
227.14547239989042	8.404035600018688	go_reward	0.4160709999268874	227.1547123999335	228.70139810000546	231.26242839998986	1.5466857000719756	228.1553648000115	230.23892609996233	234.3140352999328	0.546033299993951	1.0235023000275305	1.2447127000193632	233.30484779994003	0.7008932000026107	232.2777500000086	2	1	87	3	go_reward	1	1	0	1	1	1	0	0.0	1.0	1	0.4160709999268874	0.7008932000026107	1598.5252255999949	1825.6799379999284	1826.6805904000064	1827.2266237000003	1828.7641516999572	1829.7876539999847	1830.8029756000035	1831.830073399935	1832.8392608999277	1834.083973599947	2020-03-31 18:12:36.213731	6.75242538051376	2.39977882098941	0.0	2.39977882098941	6.75242538051376	0.0	-6.75242538051376	2.39977882098941	0.0	6.75242538051376	0.0	0.08762062497946976	2.080749886516501	6.077953576402923	2.6376108743584523	4.519133045753165	8.156177850410948	2.6376108743584523	0.4837223534432862	6.4372693056429515	4.356519419126451	4.182639390204162	4.532925060557216	4	correct	1.0
235.59298839990515	8.863056300091785	go_reward	0.3094011000357568	235.60222839994822	237.96512649999954	240.5198334000304	2.362898100051325	236.61549600004219	239.49633600004017	243.56180959998142	1.3496304999573567	1.0234973999902195	0.9034751000585857	242.54699149995554	0.445302200037986	241.5332613999492	2	1	88	3	go_reward	1	1	0	1	1	1	0	0.0	1.0	1	0.3094011000357568	0.445302200037986	1598.5252255999949	1834.127453999943	1835.140721600037	1836.4903520999944	1838.021561600035	1839.0450590000253	1840.058486999944	1841.0722170999504	1842.0870351999763	1842.9905103000349	2020-03-31 18:12:36.213731	6.84445459698727	2.46181268958009	0.0	2.46181268958009	6.84445459698727	0.0	-6.84445459698727	2.46181268958009	0.0	6.84445459698727	0.0	0.025586756388789933	2.1727791029900114	6.1399874449936025	2.6376108743584523	4.581166914343845	8.248207066884458	2.6376108743584523	0.42168848485260635	6.529298522116462	4.356519419126451	4.244673258794842	4.532925060557216	4	correct	1.0
244.49838649993808	8.44475969998075	nogo_punish	1.0	244.50762649998114	246.146896500024	248.6543874000199	1.6392700000428704	245.50508379994426	247.6411615000104	251.70976869994752	0.641812700079754	1.0132259000095019	1.2426175000143758	250.69057259999704	0.390235299943015	249.66243240004405	2	1	89	2	nogo_punish	1	-1	0	0	0	1	0	0.0	1.0	0	1.0	0.390235299943015	1598.5252255999949	1843.032852099976	1844.0303093999391	1844.672122100019	1846.1663871000053	1847.1796130000148	1848.187658000039	1849.215798199992	1850.2349942999424	1851.4776117999568	2020-03-31 18:12:36.213731	14.831111720684	-18.1962951274657	-0.11573591168204	-0.115753870401057	-14.946847632366	-0.11573591168204	-14.831111720684	-0.11573591168204	-18.1962951274657	-0.11573591168204	-14.946847632366	0.11573591168204	10.15943622668674	-14.518120372052188	2.5218749626764123	2.003600354362698	-13.543095162468811	2.5218749626764123	0.5118376401458564	-0.43089198655284855	-10.590328213239548	1.667124657532712	-13.663370066908485	4	correct	1.0
252.98755899991397	8.233824700000469	go_reward	0.5405075999442488	252.99679899995704	254.42026189994112	256.9760843999686	1.423462899984088	253.99435980001	255.9525351999332	260.0130397999892	0.42590209993113604	1.0235492000354043	1.2175838999683037	259.0083425999619	0.5976375000318512	257.9900805000216	2	1	90	3	go_reward	1	1	0	1	1	1	1	0.0	0.0	1	0.5405075999442488	0.5976375000318512	1598.5252255999949	1851.522024599952	1852.5195854000049	1852.945487499936	1854.477760799928	1855.5013099999635	1856.5153061000165	1857.5335681999568	1858.538265399984	1859.7558492999524	2020-03-31 18:12:36.213731	6.8694953768528	2.47830543436197	0.0	2.47830543436197	6.8694953768528	0.0	-6.8694953768528	2.47830543436197	0.0	6.8694953768528	0.0	0.009094011606909813	2.1978198828555415	6.156480189775483	2.6376108743584523	4.597659659125725	8.273247846749989	2.6376108743584523	0.40519574007072623	6.554339301981992	4.356519419126451	4.261166003576722	4.532925060557216	4	wrong	1.0
261.26493119995575	8.573401700006798	nogo_punish	1.0	261.2741711999988	263.01634840003703	265.5364299999778	1.7421772000382134	262.2828281000254	264.5113269999856	268.5819198000247	0.7335203000116053	1.0251029999922139	1.2656530999809092	267.5695712999441	0.663396600051783	266.55115409998666	2	1	91	2	nogo_punish	0	0	-1	0	0	1	1	1.0	1.0	-1	1.0	0.663396600051783	1598.5252255999949	1859.7993967999937	1860.8080537000203	1861.541574000032	1863.0365525999805	1864.0616555999727	1865.0763796999815	1866.094796899939	1867.1071454000196	1868.3727985000005	2020-03-31 18:12:36.213731	14.8728435593798	-18.1962951274657	-0.0361550835392539	-0.0361659498109615	-14.9089986429191	-0.0361550835392539	-14.8728435593798	-0.0361550835392539	-18.1962951274657	-0.0361550835392539	-14.9089986429191	-18.635925977599346	10.201168065382543	-14.518120372052188	2.601455790819198	2.0831882749527932	-13.505246173021911	2.601455790819198	-18.23982424913553	-0.35131115841006244	-10.552479223792648	1.7467054856754982	-13.663370066908485	4	correct	1.0
269.86288249993254	8.794449600041617	nogo_reward	0.5603015999076888	269.8721224999756	271.86925979994703	274.41452450002544	1.9971372999714276	270.8829073000236	273.3978048999561	277.4702381000386	0.9863524999234414	1.0167196000693366	1.1963339999786058	276.4566958999494	0.494238100014627	275.4323044000196	2	1	92	4	nogo_reward	1	0	1	0	1	0	0	0.0	1.0	0	0.5603015999076888	0.494238100014627	1598.5252255999949	1868.3973480999705	1869.4081329000185	1870.394485399942	1871.923030499951	1872.9397501000203	1873.9575300000145	1874.9819214999443	1875.9954637000335	1877.191797700012	2020-03-31 18:12:36.213731	4.34678730981596	2.07223089005867	2.07222538519454	2.38958560908806	6.41901269501051	2.07222538519454	-4.34678730981596	2.07223089005867	2.07222538519454	6.41901269501051	2.07222538519454	-2.07223089005867	-0.3248881841812983	5.750405645472183	4.709836259552992	4.508939833851814	7.822765164907699	4.709836259552992	-1.6761291615948537	6.103856620139702	6.428744804320991	3.8550914592734222	6.605150445751756	4	correct	1.0
278.70211089996155	8.016933499952074	nogo_punish	1.0	278.7113509000046	280.3799516999861	282.9062195000008	1.6686007999815047	279.70857679995265	281.8952974999554	285.9540318000363	0.6713749000334701	1.0109220000454116	0.7742525999203735	284.93879579997156	0.3159800000721589	283.916782299988	2	1	93	2	nogo_punish	1	-1	0	0	0	1	1	1.0	1.0	0	1.0	0.3159800000721589	1598.5252255999949	1877.2365764999995	1878.2338023999475	1878.905177299981	1880.4205230999503	1881.4314450999957	1882.4420078999829	1883.4640213999664	1884.4792574000312	1885.2535099999516	2020-03-31 18:12:36.213731	5.16513206885166	-18.1962951274657	-16.2186640243828	-16.2186707011587	-21.3837960932345	-16.2186640243828	-5.16513206885166	-16.2186640243828	-18.1962951274657	-16.2186640243828	-21.3837960932345	16.2186640243828	0.49345657485440153	-14.518120372052188	-13.581053150024347	-14.099316476394947	-19.980043623337313	-13.581053150024347	16.614765752846615	-16.53382009925361	-17.02727667410805	-14.435803455168049	-13.663370066908485	4	correct	1.0
286.7451507999792	8.388530399999809	go_punish	0.8008260000497103	286.7543908000223	288.0907440999292	290.63258460001066	1.336353299906932	287.763657200034	289.61260400002357	293.68864710000344	0.327086899895221	1.0199805999870932	1.4542741000186652	292.6701965000252	0.350207099923864	291.656454300042	2	1	94	1	go_punish	1	0	-1	1	1	1	0	0.0	1.0	0	0.8008260000497103	0.350207099923864	1598.5252255999949	1885.2796164000172	1886.288882800029	1886.615969699924	1888.1378296000184	1889.1578102000055	1890.181679900037	1891.19542210002	1892.2138726999983	1893.668146800017	2020-03-31 18:12:36.213731	3.29315344674127	-0.00852834080998	0.0	-0.00852834080998	3.29315344674127	0.0	-3.29315344674127	-0.00852834080998	0.0	3.29315344674127	0.0	0.00852834080998	-1.3785220472559887	3.6696464146035326	2.6376108743584523	2.110825883953775	4.696905916638459	2.6376108743584523	0.4046300692737964	2.9779973718704613	4.356519419126451	1.774332228404772	4.532925060557216	4	correct	1.0
295.1791334999725	9.452201299951184	nogo_punish	1.0	295.1883735000156	297.615085499943	300.144911600044	2.42671199992742	296.19364960002713	299.12534919998143	303.1963343999814	1.4214358999158776	1.0195624000625685	1.4442403999853468	302.1837933999486	0.5164015999762341	301.16027620004024	2	1	95	2	nogo_punish	0	0	-1	0	0	1	1	1.0	1.0	-1	1.0	0.5164015999762341	1598.5252255999949	1893.7135991000105	1894.718875200022	1896.140311099938	1897.6505747999763	1898.6701372000389	1899.6855018000351	1900.7090189999435	1901.7215599999763	1903.1658003999617	2020-03-31 18:12:36.213731	13.7223878270534	-18.1962951274657	-1.99660060954788	-1.99660476913264	-15.7189884366013	-1.99660060954788	-13.7223878270534	-1.99660060954788	-18.1962951274657	-1.99660060954788	-15.7189884366013	-16.67548045159072	9.05071233305614	-14.518120372052188	0.6410102648105722	0.12274945563111461	-14.315235966704112	0.6410102648105722	-16.279378723126904	-2.3117566844186888	-11.362469017474849	-0.213740040333128	-13.663370066908485	4	correct	1.0
304.6773143999744	9.758204199955571	go_reward	0.2594642000040039	304.6865544000175	307.4622504999861	310.00703879992943	2.775696099968627	305.691380299977	308.993641500012	313.0545093000401	1.7708702000090852	1.0133972999174148	1.3902492999329752	312.0412104999416	0.5596662000752985	311.011159299989	2	1	96	3	go_reward	1	1	0	1	1	1	0	0.0	1.0	1	0.2594642000040039	0.5596662000752985	1598.5252255999949	1903.2117800000124	1904.216605899972	1905.987476099981	1907.518867100007	1908.5322643999243	1909.536384899984	1910.5664360999365	1911.579734900035	1912.969984199968	2020-03-31 18:12:36.213731	6.87780040415659	2.48365863731557	0.0	2.48365863731557	6.87780040415659	0.0	-6.87780040415659	2.48365863731557	0.0	6.87780040415659	0.0	0.003740808653310168	2.206124910159331	6.161833392729083	2.6376108743584523	4.603012862079325	8.281552874053778	2.6376108743584523	0.3998425371171266	6.5626443292857815	4.356519419126451	4.266519206530322	4.532925060557216	4	correct	1.0
314.4623197999317	8.854373899987195	go_punish	0.3400218000169843	314.4715597999748	316.3235599999316	318.8760156999342	1.8520001999568194	315.4759487999836	317.856252599973	321.92682039993815	0.8476111999480054	1.0197630999612102	1.3991133000238278	320.91310529992916	0.2809045000467449	319.8857145999791	2	1	97	1	go_punish	1	0	-1	1	1	1	0	0.0	1.0	0	0.3400218000169843	0.2809045000467449	1598.5252255999949	1912.9967853999697	1914.0011743999785	1914.8487855999265	1916.381478199968	1917.401241299929	1918.410940199974	1919.438330899924	1920.452045999933	1921.8511592999569	2020-03-31 18:12:36.213731	3.30096120711948	-0.0034172395602347	0.0	-0.0034172395602347	3.30096120711948	0.0	-3.30096120711948	-0.0034172395602347	0.0	3.30096120711948	0.0	0.0034172395602347	-1.3707142868777789	3.674757515853278	2.6376108743584523	2.11593698520352	4.704713677016668	2.6376108743584523	0.3995189680240511	2.985805132248671	4.356519419126451	1.7794433296545173	4.532925060557216	4	correct	1.0
323.34132349991705	9.176300600054674	nogo_reward	0.5319244000129402	323.3505634999601	325.6806860000361	328.23195839999266	2.3301225000759587	324.3630506999327	327.2117809000192	331.2838525000261	1.3176353001033476	1.0201774999734425	1.2430115999886766	330.27432740002405	0.4084293000632897	329.249385299976	2	1	98	4	nogo_reward	1	0	1	0	1	0	0	0.0	1.0	0	0.5319244000129402	0.4084293000632897	1598.5252255999949	1921.875789099955	1922.8882762999276	1924.205911600031	1925.737006500014	1926.7571839999875	1927.7746108999709	1928.799553000019	1929.809078100021	1931.0520897000097	2020-03-31 18:12:36.213731	1.7293549335261	0.317360223893512	2.07222538519454	0.385318814500983	3.80158031872065	2.07222538519454	-1.7293549335261	0.317360223893512	2.07222538519454	3.80158031872065	2.07222538519454	-0.317360223893512	-2.942320560471159	3.9955349793070245	4.709836259552992	2.5046730392647376	5.205332788617838	4.709836259552992	0.07874150457030443	3.486424243849841	6.428744804320991	2.100220793108264	6.605150445751756	4	correct	1.0
332.56182539998576	8.981107699917402	nogo_punish	1.0	332.57106540002883	334.49442919995636	337.02309429994784	1.9233637999275288	333.58305709995307	335.99980650004	340.0746185999594	0.911372100003291	1.0232877999078482	1.4775544999868089	339.0712490000294	0.6520050999242812	338.03775569994514	2	1	99	2	nogo_punish	0	0	-1	0	0	1	0	0.0	1.0	-1	1.0	0.6520050999242812	1598.5252255999949	1931.0962910000237	1932.108282699948	1933.0196547999512	1934.5250321000349	1935.5483198999427	1936.56298129994	1937.5964746000243	1938.5998441999543	1940.077398699941	2020-03-31 18:12:36.213731	4.97353433750592	-18.1962951274657	-16.5616511544771	-16.5616537784736	-21.535185491983	-16.5616511544771	-4.97353433750592	-16.5616511544771	-18.1962951274657	-16.5616511544771	-21.535185491983	-2.1104299066614978	0.3018588435086613	-14.518120372052188	-13.924040280118648	-14.442299553709848	-20.13143302208581	-13.924040280118648	-1.7143281781976814	-16.87680722934791	-17.17866607285655	-14.77879058526235	-13.663370066908485	4	correct	1.0
341.56809479999356	8.120930599980511	nogo_reward	0.9915252999635412	341.5773348000366	343.1502118000062	345.6970282000259	1.5728769999695942	342.58815289998915	344.67622689995915	348.7560686999932	0.5620589000170639	1.0208013000667506	0.942196700023942	347.7434624999296	0.3405552000040188	346.71421440003905	2	1	100	4	nogo_reward	1	0	1	0	1	0	1	1.0	1.0	0	0.9915252999635412	0.3405552000040188	1598.5252255999949	1940.1025604000315	1941.113378499984	1941.675437400001	1943.201452499954	1944.2222538000208	1945.239440000034	1946.2686880999245	1947.281294299988	1948.223491000012	2020-03-31 18:12:36.213731	1.34524385221451	0.0679620490871368	2.07222538519454	0.0867445180566081	3.41746923740905	2.07222538519454	-1.34524385221451	0.0679620490871368	2.07222538519454	3.41746923740905	2.07222538519454	-0.0679620490871368	-3.3264316417827486	3.746136804500649	4.709836259552992	2.206098742820363	4.821221707306238	4.709836259552992	0.32813967937667965	3.102313162538241	6.428744804320991	1.850822618301889	6.605150445751756	4	correct	1.0
349.7132559999591	7.704602399957366	nogo_reward	0.7275668999645859	349.72249600000214	351.08411289996	353.6279476999771	1.3616168999578804	350.7254510000348	352.6082314000232	356.66817870002706	0.3586618999252096	1.0197162999538705	0.7589196999324486	355.6551431999542	0.2898217000765726	354.641678999993	2	1	101	4	nogo_reward	1	0	1	0	1	0	0	0.0	1.0	0	0.7275668999645859	0.2898217000765726	1598.5252255999949	1948.247721599997	1949.2506766000297	1949.609338499955	1951.133457000018	1952.153173299972	1953.166904599988	1954.180368799949	1955.193404300022	1955.9523239999544	2020-03-31 18:12:36.213731	1.26633299134993	0.0187846647286512	2.07222538519454	0.0251306344236439	3.33855837654447	2.07222538519454	-1.26633299134993	0.0187846647286512	2.07222538519454	3.33855837654447	2.07222538519454	-0.0187846647286512	-3.4053425026473287	3.696959420142164	4.709836259552992	2.1444848591873984	4.742310846441658	4.709836259552992	0.3773170637351652	3.0234023016736615	6.428744804320991	1.8016452339434033	6.605150445751756	4	correct	1.0
357.44444329990074	9.151429600082338	go_punish	0.3536581000080332	357.4536832999438	359.98412959999405	362.5339506999587	2.5304463000502437	358.4622881000396	361.51438760000747	365.5805238999892	1.521841499954462	1.019563099951256	1.02458900003694	364.5750596999419	0.0462104000616818	363.5515131000427	2	1	102	1	go_punish	1	0	-1	1	1	1	0	0.0	1.0	0	0.3536581000080332	0.0462104000616818	1598.5252255999949	1955.9789088999387	1956.9875137000345	1958.509355199989	1960.0396132000023	1961.0591762999536	1962.0767387000376	1963.1002852999368	1964.105749499984	1965.130338500021	2020-03-31 18:12:36.213731	3.30391563686586	-0.0015163108281782	0.0	-0.0015163108281782	3.30391563686586	0.0	-3.30391563686586	-0.0015163108281782	0.0	3.30391563686586	0.0	0.0015163108281782	-1.3677598571313987	3.676658444585334	2.6376108743584523	2.1178379139355763	4.707668106763048	2.6376108743584523	0.39761803929199463	2.9887595619950513	4.356519419126451	1.781344258386574	4.532925060557216	4	correct	1.0
366.6408394998871	8.704510800075013	go_reward	0.3805779999820515	366.65007949993014	368.8270099000076	371.388512799982	2.176930400077481	367.6559913000092	370.36454959993716	374.4489506999962	1.1710185999984333	1.0239632000448182	0.9056396000089535	373.43260960001476	0.4019864000147208	372.40384439996	2	1	103	3	go_reward	1	1	0	1	1	1	0	0.0	1.0	1	0.3805779999820515	0.4019864000147208	1598.5252255999949	1965.175305099925	1966.181216900004	1967.3522355000025	1968.889775199932	1969.9137383999769	1970.929069999955	1971.9578352000096	1972.974176299991	1973.8798159	2020-03-31 18:12:36.213731	6.88101023449491	2.48568976630464	0.0	2.48568976630464	6.88101023449491	0.0	-6.88101023449491	2.48568976630464	0.0	6.88101023449491	0.0	0.0017096796642399603	2.209334740497651	6.1638645217181525	2.6376108743584523	4.605043991068395	8.284762704392097	2.6376108743584523	0.3978114081280564	6.565854159624101	4.356519419126451	4.268550335519392	4.532925060557216	4	correct	1.0
375.38935439998727	9.017300699954376	nogo_punish	1.0	375.39859440003033	377.37339530000463	379.892253299942	1.9748008999742979	376.40538829995785	378.8888362	382.9409849999938	0.9680070000467822	1.0034170999419985	1.4749100999908933	381.93245309998747	0.9554829000262544	380.9093125000363	2	1	104	2	nogo_punish	1	-1	0	0	0	1	0	0.0	1.0	0	1.0	0.9554829000262544	1598.5252255999949	1973.9238200000252	1974.9306138999527	1975.8986208999995	1977.414061799995	1978.417478899937	1979.4345381000312	1980.4576786999824	1981.4662105999887	1982.9411206999796	2020-03-31 18:12:36.213731	3.96216569172127	-18.1962951274657	-18.2804796328688	-18.2804813071159	-22.2426453245901	-18.2804796328688	-3.96216569172127	-18.2804796328688	-18.1962951274657	-18.2804796328688	-22.2426453245901	18.2804796328688	-0.7095098022759885	-14.518120372052188	-15.642868758510348	-16.161127082352145	-20.83889285469291	-15.642868758510348	18.676581361332616	-18.59563570773961	-17.88612590546365	-16.49761906365405	-13.663370066908485	4	correct	1.0
384.4318006999092	9.775454299990088	nogo_reward	0.3996561000822112	384.4410406999523	387.20310439995956	389.7492488999851	2.7620637000072747	385.44734730001073	388.7400354000274	392.80977399996505	1.7557570999488235	1.0092134999576956	1.406720999977324	391.79567050002515	0.470739199896343	390.7689781000372	2	1	105	4	nogo_reward	1	0	1	0	1	0	0	1.0	0.0	0	0.3996561000822112	0.470739199896343	1598.5252255999949	1982.9662662999472	1983.9725729000056	1985.7283299999544	1987.2652610000223	1988.27447449998	1989.294203700032	1990.32089610002	1991.33499959996	1992.7417205999373	2020-03-31 18:12:36.213731	1.24548105811943	0.0063473774369782	2.07222538519454	0.0088468519638163	3.31770644331397	2.07222538519454	-1.24548105811943	0.0063473774369782	2.07222538519454	3.31770644331397	2.07222538519454	-0.0063473774369782	-3.4261944358778287	3.6845221328504905	4.709836259552992	2.128201076727571	4.721458913211158	4.709836259552992	0.3897543510268382	3.002550368443161	6.428744804320991	1.7892079466517303	6.605150445751756	4	wrong	1.0
394.25087809993397	8.315819200012129	nogo_punish	1.0	394.26011809997703	395.6487568999876	398.1732930999715	1.3886388000105399	395.2583351000212	397.16411270003323	401.223417500034	0.3904217999663615	1.0091803999382591	1.3525197999551892	400.2100347999947	0.4909088000422343	399.1919135999635	2	1	106	2	nogo_punish	1	-1	0	0	0	1	1	1.0	1.0	0	1.0	0.4909088000422343	1598.5252255999949	1992.785343699972	1993.783560700016	1994.1739824999825	1995.689338300028	1996.6985186999664	1997.7171391999584	1998.7352603999896	1999.7486431000289	2001.101162899984	2020-03-31 18:12:36.213731	13.516192112739	-18.1962951274657	-2.36968844119999	-2.36968952061142	-15.8858805539389	-2.36968844119999	-13.516192112739	-2.36968844119999	-18.1962951274657	-2.36968844119999	-15.8858805539389	2.36968844119999	8.844516618741743	-14.518120372052188	0.2679224331584624	-0.25033529584766523	-14.482128084041712	0.2679224331584624	2.7657901696638065	-2.6848445160707985	-11.529361134812449	-0.5868278719852378	-13.663370066908485	4	correct	1.0
402.59227979998104	8.95310859999131	nogo_reward	0.3704602000070736	402.6015198000241	404.4764289000302	407.0328670999736	1.874909100006107	403.6115567999659	406.0130576000083	410.0766723999984	0.8648721000643036	1.0198094999652767	1.4779560000170022	409.0730395000428	0.4235023999353871	408.0453714999603	2	1	107	4	nogo_reward	1	0	1	0	1	0	1	1.0	1.0	0	0.3704602000070736	0.4235023999353871	1598.5252255999949	2001.126745400019	2002.1367823999608	2003.001654500025	2004.5382832000032	2005.5580926999685	2006.5705970999552	2007.5982651000377	2008.6018979999933	2010.0798540000103	2020-03-31 18:12:36.213731	1.2387531221571	0.0025003852903128	2.07222538519454	0.0036026789618448	3.31097850735165	2.07222538519454	-1.2387531221571	0.0025003852903128	2.07222538519454	3.31097850735165	2.07222538519454	-0.0025003852903128	-3.4329223718401587	3.6806751407038254	4.709836259552992	2.1229569037255995	4.714730977248838	4.709836259552992	0.3936013431735036	2.9958224324808413	6.428744804320991	1.7853609545050648	6.605150445751756	4	correct	1.0
411.57366799993906	8.171974100056104	go_punish	0.4011250999756157	411.5829079999821	413.2766558999426	415.8221291999798	1.6937478999604991	412.589918300044	414.8108950000019	418.8658376999663	0.6867375998986063	1.0112341999779346	0.8890444000719526	417.852812099969	0.4889048000331968	416.8398823000023	2	1	108	1	go_punish	1	0	-1	1	1	1	0	0.0	1.0	0	0.4011250999756157	0.4889048000331968	1598.5252255999949	2010.108133599977	2011.115143900039	2011.8018814999375	2013.3361205999968	2014.3473547999747	2015.3651078999972	2016.378037699964	2017.3910632999612	2018.280107700033	2020-03-31 18:12:36.213731	3.3051615721739	-0.0007261638510299	0.0	-0.0007261638510299	3.3051615721739	0.0	-3.3051615721739	-0.0007261638510299	0.0	3.3051615721739	0.0	0.0007261638510299	-1.3665139218233588	3.6774485915624826	2.6376108743584523	2.118628060912725	4.708914042071088	2.6376108743584523	0.39682789231484633	2.990005497303091	4.356519419126451	1.7821344053637223	4.532925060557216	4	correct	1.0
419.77064059989084	9.715828800108056	nogo_reward	0.301047999993898	419.7798805999339	422.7536439000396	425.28654639993306	2.973763300105702	420.7911963999504	424.27592109993543	428.3301546999719	1.9624475000891834	1.0106252999976277	1.1655547000700608	427.31616579997353	0.3794986000284552	426.30526099994313	2	1	109	4	nogo_reward	1	0	1	0	1	0	1	0.0	0.0	0	0.301047999993898	0.3794986000284552	1598.5252255999949	2018.3051061999288	2019.3164219999453	2021.2788695000345	2022.8011466999303	2023.811771999928	2024.830486599938	2025.8413913999684	2026.8553802999668	2028.0209350000368	2020-03-31 18:12:36.213731	1.23621583833582	0.0011028879018926	2.07222538519454	0.0016305514470817	3.30844122353036	2.07222538519454	-1.23621583833582	0.0011028879018926	2.07222538519454	3.30844122353036	2.07222538519454	-0.0011028879018926	-3.4354596556614387	3.679277643315405	4.709836259552992	2.1209847762108365	4.712193693427548	4.709836259552992	0.3949988405619238	2.9932851486595515	6.428744804320991	1.7839634571166447	6.605150445751756	4	wrong	1.0
429.5297038999852	8.049415199900977	nogo_punish	1.0	429.53894390002824	431.0411433000115	433.5771009000018	1.502199399983283	430.55180260003544	432.5574149999302	436.62316940003075	0.48934069997608276	1.0196859000716358	0.9651896998984739	435.60598039999604	0.4237408000044524	434.5899173000362	2	1	110	2	nogo_punish	1	-1	0	0	0	1	0	0.0	1.0	0	1.0	0.4237408000044524	1598.5252255999949	2028.0641695000231	2029.0770282000303	2029.5663689000064	2031.082640599925	2032.1023264999967	2033.115142900031	2034.131205999991	2035.1483950000256	2036.113584699924	2020-03-31 18:12:36.213731	14.64631296265	-18.1962951274657	-0.445505983874811	-0.445506686418249	-15.0918189465248	-0.445505983874811	-14.64631296265	-0.445505983874811	-18.1962951274657	-0.445505983874811	-15.0918189465248	0.445505983874811	9.974637468652741	-14.518120372052188	2.192104890483641	1.6738475383455058	-13.688066476627611	2.192104890483641	0.8416077123386274	-0.7606620587456195	-10.735299527398348	1.3373545853399411	-13.663370066908485	4	correct	1.0
437.60669709998206	8.612986999912891	go_punish	0.5531082999659702	437.6159371000251	439.2795535000041	441.82030310004507	1.6636163999789915	438.6235906999791	440.80016330000944	444.8751020999623	0.6559628000250086	1.020139800035622	1.3538219999757075	443.8663491000186	0.4868901000590995	442.8389190000016	2	1	111	1	go_punish	1	0	-1	1	1	1	0	0.0	1.0	0	0.5531082999659702	0.4868901000590995	1598.5252255999949	2036.14116270002	2037.148816299974	2037.804779099999	2039.3253889000043	2040.34552870004	2041.3641445999965	2042.3915747000135	2043.4003276999572	2044.754149699933	2020-03-31 18:12:36.213731	3.30573246516432	-0.0003683962637378	0.0	-0.0003683962637378	3.30573246516432	0.0	-3.30573246516432	-0.0003683962637378	0.0	3.30573246516432	0.0	0.0003683962637378	-1.3659430288329388	3.6778063591497747	2.6376108743584523	2.118985828500017	4.709484935061508	2.6376108743584523	0.3964701247275542	2.990576390293511	4.356519419126451	1.7824921729510144	4.532925060557216	4	correct	1.0
446.264270799933	7.8582598000066355	nogo_punish	1.0	446.27351079997607	447.62922470003787	450.14523919997737	1.3557139000618008	447.2687827999471	449.13450559997	453.19532169995364	0.360441900090791	1.0107336000073701	0.9364489000290632	452.1912375999382	0.3588810000801459	451.1627002999885	2	1	112	2	nogo_punish	1	-1	0	0	0	1	1	0.0	0.0	0	1.0	0.3588810000801459	1598.5252255999949	2044.798736399971	2045.794008399942	2046.1544503000327	2047.6597311999649	2048.6704647999723	2049.6879258999834	2050.716463199933	2051.7205472999485	2052.6569961999776	2020-03-31 18:12:36.213731	14.8334707001999	-18.1962951274657	-0.110747528183104	-0.110747989410849	-14.944218228383	-0.110747528183104	-14.8334707001999	-0.110747528183104	-18.1962951274657	-0.110747528183104	-14.944218228383	0.110747528183104	10.16179520620264	-14.518120372052188	2.5268633461753485	2.0086062353529055	-13.540465758485812	2.5268633461753485	0.5068492566469204	-0.42590360305391256	-10.58769880925655	1.672113041031648	-13.663370066908485	4	wrong	1.0
454.1677483998942	8.247680300031334	go_reward	0.261043700040318	454.1769883999373	455.94077340001286	458.49462999997195	1.7637850000755861	455.1746847999748	457.4718339999672	461.54068430000916	0.7660886000380742	1.022796000004746	0.883984399959445	460.52740739996125	0.511947900056839	459.5098737999797	2	1	113	3	go_reward	1	1	0	1	1	1	0	0.0	1.0	1	0.261043700040318	0.511947900056839	1598.5252255999949	2052.702213999932	2053.6999103999697	2054.4659990000077	2055.997059599962	2057.019855599967	2058.0350993999746	2059.052632999956	2060.065909900004	2060.9498942999635	2020-03-31 18:12:36.213731	6.88240134272913	2.48655697219669	0.0	2.48655697219669	6.88240134272913	0.0	-6.88240134272913	2.48655697219669	0.0	6.88240134272913	0.0	0.0008424737721899334	2.2107258487318715	6.164731727610203	2.6376108743584523	4.605911196960445	8.286153812626319	2.6376108743584523	0.39694420223600635	6.567245267858322	4.356519419126451	4.269417541411443	4.532925060557216	4	correct	1.0
462.4578009999818	7.883237699978508	nogo_punish	1.0	462.4670410000249	463.7973263999452	466.3299409999745	1.3302853999202853	463.4645338000264	465.3097404999421	469.3817679999629	0.3327925999187755	1.020200500032388	0.9685107000404969	468.3714475999582	0.9910664000781252	467.3476445999695	2	1	114	2	nogo_punish	1	-1	0	0	0	1	1	1.0	1.0	0	1.0	0.9910664000781252	1598.5252255999949	2060.99226660002	2061.9897594000213	2062.32255199994	2063.834966099937	2064.8551665999694	2065.8728701999644	2066.896673199953	2067.906993599958	2068.8755042999983	2020-03-31 18:12:36.213731	14.8736599053509	-18.1962951274657	-0.0343229832049597	-0.034323288398574	-14.9079828885558	-0.0343229832049597	-14.8736599053509	-0.0343229832049597	-18.1962951274657	-0.0343229832049597	-14.9079828885558	0.0343229832049597	10.201984411353642	-14.518120372052188	2.6032878911534927	2.0850309363651807	-13.504230418658612	2.6032878911534927	0.4304247116687761	-0.34947905807576823	-10.551463469429349	1.7485375860097925	-13.663370066908485	4	correct	1.0
470.36739569995507	8.583733799984202	go_punish	0.2806212999857962	470.37663569999813	472.60319799999706	475.1383408999536	2.226562299998932	471.37941629998386	474.1250674999319	478.18098399997734	1.2237817000132054	1.013273400021717	0.7793855000049916	477.17088530003093	0.426693300018087	476.15617740002926	2	1	115	1	go_punish	1	0	-1	1	1	1	0	0.0	1.0	0	0.2806212999857962	0.426693300018087	1598.5252255999949	2068.901861299993	2069.9046418999787	2071.128423599992	2072.650293099927	2073.6635664999485	2074.681403000024	2075.696110900026	2076.706209599972	2077.485595099977	2020-03-31 18:12:36.213731	3.30601124093813	-0.0001953874285189	0.0	-0.0001953874285189	3.30601124093813	0.0	-3.30601124093813	-0.0001953874285189	0.0	3.30601124093813	0.0	0.0001953874285189	-1.3656642530591285	3.6779793679849937	2.6376108743584523	2.119158837335236	4.709763710835318	2.6376108743584523	0.3962971158923353	2.9908551660673215	4.356519419126451	1.7826651817862331	4.532925060557216	4	correct	1.0
478.9768229998881	8.412305200006813	nogo_reward	0.5507534999633208	478.98606299993116	480.42304280004464	482.9747931000311	1.4369798001134768	479.9851016999455	481.94445329997734	486.0063385999533	0.437941100099124	1.0303398000537527	1.392029599984653	484.99162350001325	0.4671545000746846	483.98399330000393	2	1	116	4	nogo_reward	0	1	0	0	1	0	0	0.0	1.0	1	0.5507534999633208	0.4671545000746846	1598.5252255999949	2077.511288599926	2078.5103272999404	2078.9482684000395	2080.469678899972	2081.500018700026	2082.509218899999	2083.516849100008	2084.531564199948	2085.923593799933	2020-03-31 18:12:36.213731	1.23513903084859	0.0005280543002568	2.07222538519454	0.0007962074546	3.30736441604313	2.07222538519454	-1.23513903084859	0.0005280543002568	2.07222538519454	3.30736441604313	2.07222538519454	2.486871391668623	-3.436536463148669	3.6787028097137693	4.709836259552992	2.1201504322183546	4.711116885940318	4.709836259552992	2.88297312013244	2.9922083411723213	6.428744804320991	1.783388623515009	6.605150445751756	4	correct	1.0
487.4322137999111	9.542621399974905	nogo_punish	1.0	487.44145379995416	489.92160190001596	492.4623423999874	2.480148100061797	488.4497088999492	491.439128399943	495.5100266999798	1.471893000066757	1.0232140000443906	1.4740484999492764	494.50734709994913	0.7198488999856636	493.47696520003956	2	1	117	2	nogo_punish	0	0	-1	0	0	1	0	0.0	1.0	-1	1.0	0.7198488999856636	1598.5252255999949	2085.966679399949	2086.974934499944	2088.446827500011	2089.964353999938	2090.9875679999823	2092.0021908000344	2093.032572699944	2094.0352522999747	2095.509300799924	2020-03-31 18:12:36.213731	14.8843568254235	-18.1962951274657	-0.0126153165754456	-0.0126155199686452	-14.8969721419989	-0.0126153165754456	-14.8843568254235	-0.0126153165754456	-18.1962951274657	-0.0126153165754456	-14.8969721419989	-18.659465744563153	10.212681331426243	-14.518120372052188	2.6249955577830066	2.1067387047951094	-13.493219672101711	2.6249955577830066	-18.263364016099338	-0.32777139144625417	-10.540452722872448	1.7702452526393064	-13.663370066908485	4	correct	1.0
496.9992941999808	9.115805699955672	nogo_reward	0.7581712999381125	497.00853420002386	499.7166971999686	502.2551741999341	2.7081629999447614	498.0113158000172	501.2378669999307	505.28127629996743	1.7053813999514205	1.0173072000034153	0.8430636000121012	504.2765814999584	1.0	503.26754150004126	2	1	118	4	nogo_reward	1	0	1	0	1	0	1	n/a	0.0	1	0.7581712999381125	1.0	1598.5252255999949	2095.5337598000187	2096.536541400012	2098.2419227999635	2099.7630925999256	2100.780399799929	2101.792767100036	2102.8018070999533	2103.8065018999623	2104.6495654999744	2020-03-31 18:12:36.213731	4.2027150445222	2.07249379716859	2.07222538519454	2.0726362729558	6.27494042971674	2.07222538519454	-4.2027150445222	2.07249379716859	2.07222538519454	6.27494042971674	2.07222538519454	-2.07249379716859	-0.468960449475059	5.750668552582102	4.709836259552992	4.191990497719555	7.678692899613928	4.709836259552992	-1.6763920687047735	5.959784354845932	6.428744804320991	3.855354366383342	6.605150445751756	4	missed	0.0
506.162196499994	8.877626199973747	go_reward	0.3061653000768274	506.1714365000371	508.69951850001235	511.23152090003714	2.5280819999752566	507.1639142000349	510.2322039999999	514.2881360999309	1.5356042999774218	0.9993169000372291	0.7609266000799835	513.2692400999372	0.4794436999363825	512.2474239999428	2	1	119	3	go_reward	1	1	0	1	1	1	0	0.0	1.0	1	0.3061653000768274	0.4794436999363825	1598.5252255999949	2104.696662100032	2105.68913980003	2107.2247441000072	2108.757429599995	2109.756746500032	2110.7726495999377	2111.794465699932	2112.8133616999257	2113.5742883000057	2020-03-31 18:12:36.213731	6.88305718270651	2.4869610294495	0.0	2.4869610294495	6.88305718270651	0.0	-6.88305718270651	2.4869610294495	0.0	6.88305718270651	0.0	0.00043841651937981396	2.2113816887092517	6.165135784863013	2.6376108743584523	4.606315254213255	8.286809652603699	2.6376108743584523	0.39654014498319623	6.567901107835702	4.356519419126451	4.269821598664253	4.532925060557216	4	correct	1.0
515.0827452999074	9.446766800014757	go_reward	0.259318699943833	515.0919852999505	517.8335440999363	520.3720675000222	2.741558799985796	516.1017076999415	519.3466217999812	523.4287412000122	1.7318363999947906	1.0254457000410184	1.1100108999530676	522.4177482000086	0.5322903000051156	521.3844880999532	2	1	120	3	go_reward	1	1	0	1	1	1	0	0.0	1.0	1	0.259318699943833	0.5322903000051156	1598.5252255999949	2113.6172108999453	2114.6269332999364	2116.358769699931	2117.871847399976	2118.897293100017	2119.909713699948	2120.9429738000035	2121.953966800007	2123.06397769996	2020-03-31 18:12:36.213731	6.88338613600395	2.48716183593655	0.0	2.48716183593655	6.88338613600395	0.0	-6.88338613600395	2.48716183593655	0.0	6.88338613600395	0.0	0.0002376100323298047	2.2117106420066914	6.165336591350062	2.6376108743584523	4.606516060700304	8.287138605901138	2.6376108743584523	0.3963393384961462	6.568230061133142	4.356519419126451	4.270022405151302	4.532925060557216	4	correct	1.0
