onset	duration	trial_type	response_time	cueOnset	targetOnset	fbOnset	cueRT	firstfixOnset	secondfixOnset	waitOnset	firstfixdur	secondfixdur	waitdur	nback_fbOnset	nback_response_time	nback_targetOnset	block	wm	trial	cue	cond	is_common	outcome_go	outcome_nogo	key_correct	key_pressed	is_correct	key_correct_nback	key_pressed_nback	is_correct_nback	outcome	rt	rt_nback	time_scan	time_onset	time_isi1	time_circle	time_isi2	time_feedback	time_same	time_correct	time_iti	time_done	timestamp_scan	DV	Qgo	Qnogo	SV	Wgo	Wnogo	mDV	Qchosen	Qunchosen	Wchosen	Wunchosen	PE	DVC	QgoC	QnogoC	SVC	WgoC	WnogoC	PEC	WchosenC	WunchosenC	QchosenC	QunchosenC	run	outcome_nback	nback_targetResp
0.0	7.063781099999915	nogo_reward	1.0	0.02748169999995298	2.0877861999999823	4.626806699999861	2.0603045000000293	1.0412602999999763	3.602043399999957	5.629716700000017	1.046525900000006	1.0247632999999041	1.4615460999998504	n/a	1.0	n/a	1	0	61	3	nogo_reward	1	0	1	0	0	1	0	n/a	n/a	1	1.0	1.0	1067.7169833	1067.744465	1068.7582436	1069.8047695	1071.3190267	1072.34379	n/a	n/a	1073.3467	1074.8082461	2020-06-10 13:29:49.714055	-0.557960697253175	1.61593295710751	1.50756645982778	2.10973759456911	2.06552715708096	1.50756645982778	0.557960697253175	1.50756645982778	1.61593295710751	1.50756645982778	2.06552715708096	8.31929181164947	-3.149091187880896	0.7188708139274699	1.2213691686922816	0.5235482463663395	0.4508643665046064	1.2213691686922816	7.896748945418454	-0.7384288263420054	2.4106623615388942	-0.30954290116756855	2.2497828837873213	2	missed	0.0
7.104504399999996	7.212113000000045	go_punish	1.0	7.131986099999949	9.562412499999937	12.09198420000007	2.4304263999999876	8.142455299999938	11.072105899999997	13.100915100000066	1.419957199999999	1.019878300000073	1.2431839999999283	n/a	1.0	n/a	1	0	62	2	go_punish	1	0	-1	1	0	0	1	n/a	n/a	-1	1.0	1.0	1067.7169833	1074.8489694	1075.8594386	1077.2793958	1078.7890892	1079.8089675	n/a	n/a	1080.8178984	1082.0610824	2020-06-10 13:29:49.714055	-1.62189943689341	-0.380113412198002	-1.48929349387367	-0.847586293062388	0.132605943019738	-1.48929349387367	1.62189943689341	-1.48929349387367	-0.380113412198002	-1.48929349387367	0.132605943019738	-6.0683287700356905	-4.213029927521131	-1.2771755553780422	-1.7754907850091683	-2.4337756412651586	-1.4820568475566158	-1.7754907850091683	-6.490871636266705	-3.7352887800434553	0.4777411474776723	-3.3064028548690185	0.25373651448180934	2	missed	0.0
14.357955500000116	7.429045299999871	go_reward	0.3773926000001211	14.38543720000007	17.14783299999999	19.71160090000012	2.762395799999922	15.390938799999958	18.679974799999854	20.71687410000004	1.7568942000000334	1.0316261000002669	1.0976083999998991	n/a	1.0	n/a	1	0	63	4	go_reward	1	1	0	1	1	1	0	n/a	n/a	1	0.3773926000001211	1.0	1067.7169833	1082.1024205	1083.1079221	1084.8648163	1086.3969581	1087.4285842000002	n/a	n/a	1088.4338574	1089.5314658	2020-06-10 13:29:49.714055	4.51776870771473	5.16223450703546	1.03488414335521	5.44518598395312	5.55265285106994	1.03488414335521	-4.51776870771473	5.16223450703546	1.03488414335521	5.55265285106994	1.03488414335521	4.66462376444179	1.9266382170870089	4.265172363855419	0.7486868522197115	3.8589966357503496	3.9379900604935862	0.7486868522197115	4.242080898210775	3.3066575649001546	1.3800193478131444	3.345125146040111	1.6687340700350215	2	missed	0.0
21.822557599999982	6.163630400000102	go_reward	0.3729465999999775	21.850039299999935	23.67526850000013	26.23277229999985	1.8252292000001944	22.864662700000054	25.207746799999995	27.245124999999916	0.8106058000000758	1.025025499999856	0.7685447000001204	n/a	1.0	n/a	1	0	64	4	go_reward	0	0	1	1	1	1	0	n/a	n/a	0	0.3729465999999775	1.0	1067.7169833	1089.5670226	1090.581646	1091.3922518000002	1092.9247301	1093.9497556	n/a	n/a	1094.9621083	1095.730653	2020-06-10 13:29:49.714055	4.96307157343873	5.61502628456833	1.03488414335521	5.86948697915817	5.99795571679393	1.03488414335521	-4.96307157343873	5.61502628456833	1.03488414335521	5.99795571679393	1.03488414335521	-5.61502628456833	2.371941082811009	4.71796414138829	0.7486868522197115	4.283297630955399	4.383292926217576	0.7486868522197115	-6.037569150799345	3.7519604306241447	1.3800193478131444	3.7979169235729815	1.6687340700350215	2	missed	0.0
28.020100200000115	7.211764099999982	nogo_punish	0.3250950999999986	28.04758190000007	30.22119359999988	32.77601359999994	2.1736116999998103	29.05856779999999	31.75627170000007	33.78692639999986	1.162625799999887	1.0197418999998717	1.472419600000194	n/a	1.0	n/a	1	0	65	1	nogo_punish	1	-1	0	0	1	0	0	n/a	n/a	-1	0.3250950999999986	1.0	1067.7169833	1095.7645652	1096.7755511	1097.9381769	1099.473255	1100.4929969	n/a	n/a	1101.5039097	1102.9763293	2020-06-10 13:29:49.714055	-0.678862974188357	-2.41231636354237	-1.17777317559087	-2.46867237065702	-1.85663614977923	-1.17777317559087	0.678862974188357	-2.41231636354237	-1.17777317559087	-1.85663614977923	-1.17777317559087	-5.14530590036699	-3.2699934648160776	-3.3093785067224104	-1.4639704667263684	-4.05486171885979	-3.4712989403555836	-1.4639704667263684	-5.567848766598005	-4.102631435949015	-0.8326379711329357	-4.229425724537719	-0.5439232489110587	2	missed	0.0
35.26769940000008	7.399061399999937	go_punish	0.8924726000000192	35.295181100000036	37.74070310000002	40.296251600000005	2.4455219999999827	36.30480139999986	39.27277079999999	41.30104800000004	1.4359017000001586	1.0234808000000157	1.393194499999936	n/a	1.0	n/a	1	0	66	2	go_punish	0	-1	0	1	1	1	0	n/a	n/a	-1	0.8924726000000192	1.0	1067.7169833	1103.0121644	1104.0217847	1105.4576864	1106.9897541	1108.0132349	n/a	n/a	1109.0180313	1110.4112258	2020-06-10 13:29:49.714055	2.25386227496275	-0.380113412198002	-2.10354811261695	-1.55151018972113	0.1503141623458	-2.10354811261695	-2.25386227496275	-0.380113412198002	-2.10354811261695	0.1503141623458	-2.10354811261695	-7.177508851711359	-0.33726821566497067	-1.2771755553780422	-2.3897454037524484	-3.1376995379239006	-1.4643486282305538	-2.3897454037524484	-7.600051717942374	-2.095681123823985	-1.7584129081590156	-2.1972227731933507	-1.4696981859371387	2	missed	0.0
42.70172980000007	6.924990699999853	go_reward	0.4290834999999333	42.72921150000002	44.71107340000003	47.26116100000013	1.9818619000000126	43.74268649999999	46.23752079999986	48.27053150000006	0.9683869000000414	1.0236402000002727	1.3836706999998114	n/a	1.0	n/a	1	0	67	4	go_reward	1	1	0	1	1	1	0	n/a	n/a	1	0.4290834999999333	1.0	1067.7169833	1110.4461948	1111.4596698	1112.4280567	1113.9545041	1114.9781443000002	n/a	n/a	1115.9875148	1117.3711855	2020-06-10 13:29:49.714055	4.33953387938522	4.98194074481387	1.03488414335521	5.21114417762852	5.37441802274043	1.03488414335521	-4.33953387938522	4.98194074481387	1.03488414335521	5.37441802274043	1.03488414335521	4.844917526663379	1.7484033887574992	4.08487860163383	0.7486868522197115	3.624954829425749	3.7597552321640766	0.7486868522197115	4.422374660432364	3.128422736570645	1.3800193478131444	3.1648313838185214	1.6687340700350215	2	missed	0.0
49.67383689999997	5.711239299999988	nogo_reward	1.0	49.70131859999992	51.026534800000036	53.562394999999924	1.3252162000001135	50.697791800000005	52.5427244	54.57569309999985	0.3287430000000313	1.0196705999999267	0.8368648000000576	n/a	1.0	n/a	1	0	68	3	nogo_reward	0	1	0	0	0	1	0	n/a	n/a	0	1.0	1.0	1067.7169833	1117.4183019	1118.4147751	1118.7435181	1120.2597077	1121.2793783	n/a	n/a	1122.2926764	1123.1295412	2020-06-10 13:29:49.714055	0.315074798721757	1.61593295710751	2.36776072897668	2.91077568202956	2.05268593025492	2.36776072897668	-0.315074798721757	2.36776072897668	1.61593295710751	2.36776072897668	2.05268593025492	-2.36776072897668	-2.276055691905964	0.7188708139274699	2.0815634378411816	1.3245863338267896	0.4380231396785663	2.0815634378411816	-2.790303595207695	0.12176544280689461	2.3978211347128546	0.5506513679813314	2.2497828837873213	2	missed	0.0
55.42101700000012	6.253280699999777	nogo_punish	0.5188088999998399	55.44849870000007	56.925364800000125	59.477261	1.476866100000052	56.458842300000015	58.45842110000012	60.480745999999954	0.4665225000001101	1.0188398999998753	1.2210333999998966	n/a	1.0	n/a	1	0	69	1	nogo_punish	1	-1	0	0	1	0	0	n/a	n/a	-1	0.5188088999998399	1.0	1067.7169833	1123.165482	1124.1758256	1124.6423481000002	1126.1754044000002	1127.1942443	n/a	n/a	1128.1977293	1129.4187627	2020-06-10 13:29:49.714055	-1.17658842451505	-2.92351376058363	-1.17777317559087	-2.9845853180533	-2.35436160010592	-1.17777317559087	1.17658842451505	-2.92351376058363	-1.17777317559087	-2.35436160010592	-1.17777317559087	-4.634108503325731	-3.767718915142771	-3.8205759037636704	-1.4639704667263684	-4.570774666256071	-3.9690243906822738	-1.4639704667263684	-5.056651369556746	-4.600356886275705	-0.8326379711329357	-4.740623121578979	-0.5439232489110587	2	missed	0.0
61.71733990000007	6.1678002999999535	go_punish	0.515478099999882	61.74482160000002	63.110921499999904	65.66348560000006	1.366099899999881	62.75300470000002	64.64315770000007	66.66981009999995	0.35791679999988446	1.0203278999999839	1.2428118000000268	n/a	1.0	n/a	1	0	70	2	go_punish	1	0	-1	1	1	1	0	n/a	n/a	0	0.515478099999882	1.0	1067.7169833	1129.4618049	1130.469988	1130.8279048	1132.360141	1133.3804689	n/a	n/a	1134.3867934	1135.6296052	2020-06-10 13:29:49.714055	1.51845860748468	-1.13148596624948	-2.10354811261695	-2.17013108408596	-0.585089505132275	-2.10354811261695	-1.51845860748468	-1.13148596624948	-2.10354811261695	-0.585089505132275	-2.10354811261695	1.13148596624948	-1.0726718831430408	-2.0285481094295204	-2.3897454037524484	-3.7563204322887307	-2.199752295708629	-2.3897454037524484	0.7089431000184652	-2.8310847913020605	-1.7584129081590156	-2.9485953272448286	-1.4696981859371387	2	missed	0.0
67.93111080000017	6.21025829999985	nogo_reward	1.0	67.95859250000012	69.86753329999988	72.40154940000002	1.9089407999997547	68.96371709999994	71.37708709999993	73.41002449999996	0.9038161999999375	1.0244623000000956	0.7588263000000097	n/a	1.0	n/a	1	0	71	3	nogo_reward	1	0	1	0	0	1	0	n/a	n/a	1	1.0	1.0	1067.7169833	1135.6755758000002	1136.6807004	1137.5845166	1139.0940704	1140.1185327	n/a	n/a	1141.1270078	1141.8858341	2020-06-10 13:29:49.714055	0.03287298056071	1.61593295710751	2.09021477159492	2.5804809097001	2.05734179103421	2.09021477159492	-0.03287298056071	2.09021477159492	1.61593295710751	2.09021477159492	2.05734179103421	7.736643499882329	-2.5582575100670106	0.7188708139274699	1.8040174804594216	0.9942915614973293	0.44267900045785646	1.8040174804594216	7.314100633651314	-0.15578051457486541	2.4024769954921448	0.2731054105995714	2.2497828837873213	2	missed	0.0
74.17929249999997	6.321616400000039	go_reward	0.3550304999998843	74.20677419999993	75.75902980000001	78.30760209999994	1.5522556000000804	75.21235230000002	77.28353719999996	79.3167492	0.546677499999987	1.0240648999999848	1.2116413999999622	n/a	1.0	n/a	1	0	72	4	go_reward	1	1	0	1	1	1	0	n/a	n/a	1	0.3550304999998843	1.0	1067.7169833	1141.9237575	1142.9293356	1143.4760131	1145.0005205	1146.0245854	n/a	n/a	1147.0337325	1148.2453739	2020-06-10 13:29:49.714055	4.81522870284645	5.46530520871912	1.03488414335521	5.67207465617141	5.85011284620166	1.03488414335521	-4.81522870284645	5.46530520871912	1.03488414335521	5.85011284620166	1.03488414335521	4.361553062758129	2.224098212218729	4.56824306553908	0.7486868522197115	4.085885307968639	4.235450055625306	0.7486868522197115	3.9390101965271143	3.6041175600318747	1.3800193478131444	3.6481958477237715	1.6687340700350215	2	missed	0.0
80.54217420000009	7.673519499999884	nogo_reward	0.4352083999999649	80.56965590000004	83.33790909999993	85.87599030000001	2.76825319999989	81.57404799999995	84.86498729999994	86.89055050000002	1.7638610999999855	1.0110030000000734	1.3526248999999098	n/a	1.0	n/a	1	0	73	3	nogo_reward	1	0	1	0	1	0	1	n/a	n/a	0	0.4352083999999649	1.0	1067.7169833	1148.2866392	1149.2910313	1151.0548924	1152.5819706	1153.5929736	n/a	n/a	1154.6075338	1155.9601587	2020-06-10 13:29:49.714055	-0.839536520637317	1.61593295710751	2.88475441732867	3.32793192637804	2.04521789669135	2.88475441732867	0.839536520637317	1.61593295710751	2.88475441732867	2.04521789669135	2.88475441732867	-1.61593295710751	-3.430667011265038	0.7188708139274699	2.5985571261931715	1.7417425781752696	0.43055510611499637	2.5985571261931715	-2.038475823338525	-0.20077738947843526	3.2298896217866044	-0.20117640388783853	3.518604344008481	2	missed	0.0
88.25784070000009	5.950566099999833	go_reward	0.3735774000001584	88.28532240000004	89.71443810000005	92.26736449999999	1.4291157000000112	89.29423440000005	91.25447970000005	93.28110449999986	0.42020370000000185	1.012884799999938	0.9547840000000178	n/a	1.0	n/a	1	0	74	4	go_reward	0	0	1	1	1	1	1	n/a	n/a	0	0.3735774000001584	1.0	1067.7169833	1156.0023057	1157.0112177	1157.4314214	1158.971463	1159.9843478	n/a	n/a	1160.9980878	1161.9528718	2020-06-10 13:29:49.714055	5.23526204704847	5.89235463547446	1.03488414335521	6.07916093720635	6.27014619040368	1.03488414335521	-5.23526204704847	5.89235463547446	1.03488414335521	6.27014619040368	1.03488414335521	-5.89235463547446	2.644131556420749	4.9952924922944195	0.7486868522197115	4.492971589003579	4.655483399827326	0.7486868522197115	-6.314897501705475	4.0241509042338945	1.3800193478131444	4.075245274479111	1.6687340700350215	2	missed	0.0
94.24280440000007	6.014960799999926	nogo_punish	1.0	94.27028610000002	95.84395569999992	98.37241319999998	1.5736695999999029	95.27273009999999	97.35292679999998	99.38611119999996	0.5712255999999343	1.0194864000000052	0.899135699999988	n/a	1.0	n/a	1	0	75	1	nogo_punish	1	-1	0	0	0	1	0	n/a	n/a	0	1.0	1.0	1067.7169833	1161.9872694	1162.9897134	1163.560939	1165.0699101	1166.0893965	n/a	n/a	1167.1030945	1168.0022302	2020-06-10 13:29:49.714055	1.61734927592441	-3.37643456657074	-1.17777317559087	-3.44009156185909	-2.79512245151528	-1.17777317559087	-1.61734927592441	-1.17777317559087	-3.37643456657074	-1.17777317559087	-2.79512245151528	1.17777317559087	-0.9737812147033109	-4.27349670975078	-1.4639704667263684	-5.02628091006186	-4.409785242091633	-1.4639704667263684	0.7552303093598551	-3.4237684617606554	-2.4499872470573454	-2.9948825365862186	-2.7425846398909286	2	missed	0.0
100.29438640000012	7.071876899999779	go_reward	0.3211797999999817	100.32186810000007	102.81288819999986	105.36891730000002	2.491020099999787	101.33017670000004	104.34498780000013	106.37181480000004	1.482711499999823	1.0239294999998947	1.0219301999998152	n/a	1.0	n/a	1	0	76	4	go_reward	1	1	0	1	1	1	1	n/a	n/a	1	0.3211797999999817	1.0	1067.7169833	1168.0388514	1169.04716	1170.5298715	1172.0619711000002	1173.0859006	n/a	n/a	1174.0887981	1175.1107283	2020-06-10 13:29:49.714055	4.58869676902176	5.23581563427407	1.03488414335521	5.40482600102637	5.62358091237696	1.03488414335521	-4.58869676902176	5.23581563427407	1.03488414335521	5.62358091237696	1.03488414335521	4.591042637203179	1.9975662783940389	4.33875349109403	0.7486868522197115	3.8186366528235993	4.0089181218006065	0.7486868522197115	4.168499770972164	3.377585626207175	1.3800193478131444	3.4187062732787217	1.6687340700350215	2	missed	0.0
107.4041314000001	7.647123399999828	go_punish	0.4000513999999384	107.43161310000005	110.16501470000003	112.71996459999991	2.7334015999999792	108.43858320000004	111.70649720000006	113.73225609999986	1.7264314999999897	1.013467399999854	1.3464804000000186	n/a	1.0	n/a	1	0	77	2	go_punish	1	0	-1	1	1	1	0	n/a	n/a	0	0.4000513999999384	1.0	1067.7169833	1175.1485964	1176.1555665	1177.881998	1179.4234805	1180.4369479	n/a	n/a	1181.4492394	1182.7957198	2020-06-10 13:29:49.714055	1.64468716827126	-0.999603400148593	-2.10354811261695	-1.92278932415026	-0.458860944345692	-2.10354811261695	-1.64468716827126	-0.999603400148593	-2.10354811261695	-0.458860944345692	-2.10354811261695	0.999603400148593	-0.9464433223564608	-1.8966655433286332	-2.3897454037524484	-3.5089786723530305	-2.0735237349220457	-2.3897454037524484	0.5770605339175781	-2.7048562305154773	-1.7584129081590156	-2.8167127611439415	-1.4696981859371387	2	missed	0.0
115.0916815999999	6.069637300000068	nogo_reward	0.5472015000000283	115.11916329999985	116.76175799999987	119.31417729999998	1.6425947000000178	116.1214344	118.29455800000005	120.32773780000002	0.6403235999998742	1.0196192999999312	0.8610627999998997	n/a	1.0	n/a	1	0	78	3	nogo_reward	1	0	1	0	1	0	0	n/a	n/a	0	0.5472015000000283	1.0	1067.7169833	1182.8361466	1183.8384177	1184.4787413	1186.0115413	1187.0311606	n/a	n/a	1188.0447211	1188.9057839	2020-06-10 13:29:49.714055	-1.02368648798137	1.42646493894973	2.88475441732867	2.951094677675	1.8610679293473	2.88475441732867	1.02368648798137	1.42646493894973	2.88475441732867	1.8610679293473	2.88475441732867	-1.42646493894973	-3.614816978609091	0.5294027957696897	2.5985571261931715	1.3649053294722295	0.24640513877094627	2.5985571261931715	-1.8490078051807448	-0.38492735682248536	3.2298896217866044	-0.39064442204561867	3.518604344008481	2	missed	0.0
121.20083410000007	7.219615599999997	nogo_reward	1.0	121.22831580000002	123.55990679999991	126.08519539999998	2.3315909999998894	122.23370760000012	125.06858540000007	127.09598749999986	1.3261991999997917	1.0166099999999005	1.3519439000001512	n/a	1.0	n/a	1	0	79	3	nogo_reward	1	0	1	0	0	1	0	n/a	n/a	1	1.0	1.0	1067.7169833	1188.9452991	1189.9506909000002	1191.2768901	1192.7855687	1193.8021787	n/a	n/a	1194.8129708	1196.1649147	2020-06-10 13:29:49.714055	1.18291628000107	1.26237238861522	2.88475441732867	2.62309890886713	1.7018381373276	2.88475441732867	-1.18291628000107	2.88475441732867	1.26237238861522	2.88475441732867	1.7018381373276	6.942103854148579	-1.4082142106266509	0.36531024543517987	2.5985571261931715	1.0369095606643597	0.08717534675124616	2.5985571261931715	6.519560987917564	0.6387591311588845	2.0469733417855345	1.0676450563333213	1.8962223152950313	2	missed	0.0
128.45691669999997	6.985581599999932	nogo_punish	1.0	128.48439839999992	130.96628149999992	133.49485879999997	2.4818831000000046	129.4990871	132.4753872000001	134.5080107000001	1.4671943999999257	1.0194715999998607	0.9619692999997369	n/a	1.0	n/a	1	0	80	1	nogo_punish	1	-1	0	0	0	1	0	n/a	n/a	0	1.0	1.0	1067.7169833	1196.2013817	1197.2160704	1198.6832648	1200.1923705000002	1201.2118421	n/a	n/a	1202.2249940000002	1203.1869633	2020-06-10 13:29:49.714055	1.76280398209014	-3.37643456657074	-1.04139163198748	-3.05078547099706	-2.80419561407763	-1.04139163198748	-1.76280398209014	-1.04139163198748	-3.37643456657074	-1.04139163198748	-2.80419561407763	1.04139163198748	-0.8283265085375808	-4.27349670975078	-1.3275889231229785	-4.63697481919983	-4.418858404653983	-1.3275889231229785	0.6188487657564652	-3.2873869181572655	-2.4590604096196955	-2.8585009929828287	-2.7425846398909286	2	missed	0.0
135.47875109999995	7.344200799999953	go_punish	0.3869703000000299	135.5062327999999	138.05997559999992	140.60424860000012	2.553742800000009	136.51499949999993	139.59255699999994	141.61230869999986	1.5449760999999853	1.0116916000001765	1.2381249000000025	n/a	1.0	n/a	1	0	81	2	go_punish	1	0	-1	1	1	1	0	n/a	n/a	0	0.3869703000000299	1.0	1067.7169833	1203.2232161	1204.2319828	1205.7769589	1207.3095403	1208.3212319000002	n/a	n/a	1209.329292	1210.5674169	2020-06-10 13:29:49.714055	1.75386999259705	-0.885325808433977	-2.10354811261695	-1.70776343728431	-0.3496781200199	-2.10354811261695	-1.75386999259705	-0.885325808433977	-2.10354811261695	-0.3496781200199	-2.10354811261695	0.885325808433977	-0.8372604980306708	-1.7823879516140173	-2.3897454037524484	-3.2939527854870807	-1.9643409105962537	-2.3897454037524484	0.4627829422029621	-2.5956734061896856	-1.7584129081590156	-2.7024351694293256	-1.4696981859371387	2	missed	0.0
142.85819690000017	7.6991356999999425	nogo_punish	1.0	142.88567860000012	145.72264410000002	148.2554172	2.8369654999999057	143.89634780000006	147.23153580000007	149.26438099999996	1.8262962999999672	1.0238813999999365	1.3204333000001043	n/a	1.0	n/a	1	0	82	1	nogo_punish	0	0	-1	0	0	1	1	n/a	n/a	-1	1.0	1.0	1067.7169833	1210.6026619000002	1211.6133311	1213.4396274	1214.9485191	1215.9724005	n/a	n/a	1216.9813643	1218.3017976	2020-06-10 13:29:49.714055	1.88933399394174	-3.37643456657074	-0.923022869668703	-2.71183749377649	-2.81235686361044	-0.923022869668703	-1.88933399394174	-0.923022869668703	-3.37643456657074	-0.923022869668703	-2.81235686361044	-6.634599394240658	-0.7017964966859809	-4.27349670975078	-1.2092201608042015	-4.298026841979261	-4.427019654186793	-1.2092201608042015	-7.0571422604716725	-3.1690181558384882	-2.4672216591525054	-2.7401322306640514	-2.7425846398909286	2	missed	0.0
150.60313859999997	6.540992300000198	nogo_reward	1.0	150.63062029999992	152.12958879999996	154.66436290000001	1.4989685000000463	151.63104629999998	153.64078840000002	155.67323050000005	0.498542499999985	1.0235744999999952	1.4983821000000717	n/a	1.0	n/a	1	0	83	3	nogo_reward	1	0	1	0	0	1	0	n/a	n/a	1	1.0	1.0	1067.7169833	1218.3476036	1219.3480296	1219.8465721	1221.3577717	1222.3813462	n/a	n/a	1223.3902138	1224.8885959000002	2020-06-10 13:29:49.714055	1.89499878471852	1.26237238861522	3.58488660884005	3.37162274686602	1.68988782412153	3.58488660884005	-1.89499878471852	3.58488660884005	1.26237238861522	3.58488660884005	1.68988782412153	6.2419716626372	-0.6961317059092009	0.36531024543517987	3.2986893177045515	1.7854333986632496	0.07522503354517629	3.2986893177045515	5.819428796406185	1.3388913226702646	2.0350230285794644	1.7677772478447014	1.8962223152950313	2	missed	0.0
157.18904390000012	6.027714500000002	nogo_reward	1.0	157.21652560000007	158.7920775	161.32533059999992	1.5755518999999367	158.22963649999997	160.30891700000006	162.33610479999993	0.5624410000000353	1.0164135999998507	0.90813530000014	n/a	1.0	n/a	1	0	84	3	nogo_reward	1	0	1	0	0	1	0	n/a	n/a	1	1.0	1.0	1067.7169833	1224.9335089	1225.9466198	1226.5090608	1228.0259003	1229.0423139	n/a	n/a	1230.0530881	1230.9612234	2020-06-10 13:29:49.714055	2.52451839845006	1.26237238861522	4.20349366814228	4.02984091106504	1.67897526969222	4.20349366814228	-2.52451839845006	4.20349366814228	1.26237238861522	4.20349366814228	1.67897526969222	5.623364603334969	-0.06661209217766073	0.36531024543517987	3.9172963770067817	2.4436515628622697	0.06431247911586624	3.9172963770067817	5.200821737103954	1.9574983819724947	2.024110474150154	2.3863843071469315	1.8962223152950313	2	missed	0.0
163.26099520000002	7.942512599999873	go_reward	0.5292658999999276	163.28847689999998	166.26356060000012	168.8113232999999	2.975083700000141	164.29665840000007	167.7877535	169.8163353	1.9669022000000496	1.0235697999999047	1.414654199999859	n/a	1.0	n/a	1	0	85	4	go_reward	1	1	0	1	1	1	0	n/a	n/a	1	0.5292658999999276	1.0	1067.7169833	1231.0054602	1232.0136417	1233.9805439000002	1235.5047368	1236.5283066	n/a	n/a	1237.5333186	1238.9479728	2020-06-10 13:29:49.714055	5.04341710773233	5.69782057702286	1.03488414335521	5.85093993985741	6.07830125108753	1.03488414335521	-5.04341710773233	5.69782057702286	1.03488414335521	6.07830125108753	1.03488414335521	4.129037694454389	2.4522866171046096	4.8007584338428195	0.7486868522197115	4.264750591654639	4.463638460511176	0.7486868522197115	3.7064948282233745	3.8323059649177447	1.3800193478131444	3.8807112160275112	1.6687340700350215	2	missed	0.0
171.24632370000018	6.319082999999864	go_punish	1.0	171.27380540000013	172.85142450000012	175.37409060000005	1.5776190999999926	172.29033649999997	174.36026059999995	176.37991379999994	0.5610880000001544	1.0138300000000982	1.2129746000000523	n/a	1.0	n/a	1	0	86	2	go_punish	0	-1	0	1	0	0	0	n/a	n/a	0	1.0	1.0	1067.7169833	1238.9907887000002	1240.0073198	1240.5684078000002	1242.0772439	1243.0910739	n/a	n/a	1244.0968971	1245.3098717	2020-06-10 13:29:49.714055	-1.84864168815053	-0.785971537871511	-2.10354811261695	-1.52023085611518	-0.254906424466427	-2.10354811261695	1.84864168815053	-2.10354811261695	-0.785971537871511	-2.10354811261695	-0.254906424466427	2.10354811261695	-4.4397721787782505	-1.6830336810515512	-2.3897454037524484	-3.1064202043179505	-1.8695692150427807	-2.3897454037524484	1.681005246385935	-4.349543398786736	0.09022877999150736	-3.9206574736122985	-0.15212161119169965	2	missed	0.0
177.61156960000017	7.800780299999815	nogo_reward	1.0	177.63905130000012	180.4077924999999	182.93660339999997	2.768741199999795	178.6442156999999	181.91698650000012	183.9499811999999	1.7635768000000098	1.0196168999998463	1.489850400000023	n/a	1.0	n/a	1	0	87	3	nogo_reward	0	1	0	0	0	1	0	n/a	n/a	0	1.0	1.0	1067.7169833	1245.3560346000002	1246.361199	1248.1247758	1249.6339698000002	1250.6535867	n/a	n/a	1251.6669645	1253.1568149	2020-06-10 13:29:49.714055	3.08241786067726	1.26237238861522	4.75144996865364	4.61030394222973	1.66903210797638	4.75144996865364	-3.08241786067726	4.75144996865364	1.26237238861522	4.75144996865364	1.66903210797638	-4.75144996865364	0.49128737004953926	0.36531024543517987	4.465252677518142	3.024114594026959	0.05436931740002615	4.465252677518142	-5.173992834884655	2.5054546824838546	2.0141673124343145	2.9343406076582914	1.8962223152950313	2	missed	0.0
185.45283799999993	5.928885900000068	nogo_reward	1.0	185.48031969999988	186.84240139999997	189.38263890000007	1.3620817000000898	186.48354219999987	188.3591758	190.40055810000013	0.3588592000000972	1.0234631000000718	1.0086474999998245	n/a	1.0	n/a	1	0	88	3	nogo_reward	1	0	1	0	0	1	0	n/a	n/a	1	1.0	1.0	1067.7169833	1253.197303	1254.2005255	1254.5593847	1256.0761591	1257.0996222	n/a	n/a	1258.1175414000002	1259.1261889	2020-06-10 13:29:49.714055	2.5267293579727	1.26237238861522	4.20309358555842	4.08868104074221	1.67636422758572	4.20309358555842	-2.5267293579727	4.20309358555842	1.26237238861522	4.20309358555842	1.67636422758572	5.623764685918829	-0.0644011326550209	0.36531024543517987	3.916896294422922	2.502491692539439	0.061701437009366256	3.916896294422922	5.201221819687814	1.957098299388635	2.0214994320436546	2.385984224563072	1.8962223152950313	2	missed	0.0
191.42039920000002	5.695167800000036	go_punish	0.4326427999999396	191.44788089999997	192.77315180000005	195.32655610000006	1.3252709000000777	192.44596920000004	194.30583810000007	196.3349192999999	0.32718260000001465	1.020717999999988	0.808129400000098	n/a	1.0	n/a	1	0	89	2	go_punish	1	0	-1	1	1	1	0	n/a	n/a	0	0.4326427999999396	1.0	1067.7169833	1259.1648642	1260.1629525	1260.4901351	1262.0228214	1263.0435394	n/a	n/a	1264.0519026	1264.860032	2020-06-10 13:29:49.714055	1.59490345628993	-0.785971537871511	-1.85392749312369	-1.35618869989295	-0.259024036833766	-1.85392749312369	-1.59490345628993	-0.785971537871511	-1.85392749312369	-0.259024036833766	-1.85392749312369	0.785971537871511	-0.9962270343377908	-1.6830336810515512	-2.1401247842591884	-2.9423780480957205	-1.8736868274101197	-2.1401247842591884	0.3634286716404961	-2.5050193230035513	-1.5087922886657557	-2.6030808988668594	-1.2200775664438788	2	missed	0.0
197.15202550000004	5.986884599999939	go_reward	0.4402766000000611	197.1795072	198.57147559999999	201.12312620000012	1.391968399999996	198.18217529999993	200.10291630000006	202.12654399999997	0.389300300000059	1.0202099000000544	1.0398477999999614	n/a	1.0	n/a	1	0	90	4	go_reward	1	1	0	1	1	1	0	n/a	n/a	1	0.4402766000000611	1.0	1067.7169833	1264.8964905	1265.8991586	1266.2884589	1267.8198996	1268.8401095000002	n/a	n/a	1269.8435273	1270.8833751	2020-06-10 13:29:49.714055	5.44435030988911	6.1054206871863	1.03488414335521	6.24432684004837	6.47923445324432	1.03488414335521	-5.44435030988911	6.1054206871863	1.03488414335521	6.47923445324432	1.03488414335521	3.721437584290949	2.853219819261389	5.20835854400626	0.7486868522197115	4.658137491845599	4.8645716626679665	0.7486868522197115	3.298894718059934	4.233239167074535	1.3800193478131444	4.288311326190952	1.6687340700350215	2	missed	0.0
203.18577750000009	6.323323900000105	nogo_reward	1.0	203.21325920000004	204.7156926	207.24336049999988	1.5024333999999726	204.21768120000002	206.22558559999993	208.26242609999986	0.4980113999999958	1.0177748999999494	1.2741570000002866	n/a	1.0	n/a	1	0	91	3	nogo_reward	1	0	1	0	0	1	0	n/a	n/a	1	1.0	1.0	1067.7169833	1270.9302425	1271.9346645	1272.4326759	1273.9425689	1274.9603438	n/a	n/a	1275.9794094	1277.2535664000002	2020-06-10 13:29:49.714055	3.09529217097424	1.26237238861522	4.76198766104116	4.66959867843681	1.66669549006692	4.76198766104116	-3.09529217097424	4.76198766104116	1.26237238861522	4.76198766104116	1.66669549006692	5.064870610436089	0.504161680346519	0.36531024543517987	4.475790369905662	3.0834093302340397	0.052032699490566214	4.475790369905662	4.642327744205074	2.5159923748713746	2.0118306945248543	2.9448783000458114	1.8962223152950313	2	missed	0.0
209.54490020000026	6.214122999999745	nogo_punish	1.0	209.5723819000002	210.85281829999985	213.38384440000004	1.280436399999644	210.5817371999999	212.36338030000002	214.3872561999999	0.2710810999999467	1.0204641000000265	1.3992487000000438	n/a	1.0	n/a	1	0	92	1	nogo_punish	0	0	-1	0	0	1	0	n/a	n/a	-1	1.0	1.0	1067.7169833	1277.2893652000002	1278.2987205	1278.5698016	1280.0803636	1281.1008277	n/a	n/a	1282.1042395	1283.5034882	2020-06-10 13:29:49.714055	1.18714492402134	-3.37643456657074	-1.61249572493064	-3.20836253935265	-2.79964064895198	-1.61249572493064	-1.18714492402134	-1.61249572493064	-3.37643456657074	-1.61249572493064	-2.79964064895198	-5.9451265389787205	-1.4039855666063807	-4.27349670975078	-1.8986930160661384	-4.7945518875554205	-4.414303439528334	-1.8986930160661384	-6.367669405209735	-3.8584910111004254	-2.4545054444940453	-3.4296050859259886	-2.7425846398909286	2	missed	0.0
215.8054712999999	6.589840200000253	nogo_reward	1.0	215.83295299999986	217.82950519999986	220.36992140000007	1.9965521999999964	216.83178010000006	219.34663100000012	221.37979800000016	0.9977250999997977	1.0232903999999508	1.0429951999999503	n/a	1.0	n/a	1	0	93	3	nogo_reward	1	0	1	0	0	1	1	n/a	n/a	1	1.0	1.0	1067.7169833	1283.5499363	1284.5487634	1285.5464885	1287.0636143000002	1288.0869047	n/a	n/a	1289.0967813000002	1290.1397765000002	2020-06-10 13:29:49.714055	3.59857407147943	1.26237238861522	5.25645037736963	5.18222900568001	1.6578763058902	5.25645037736963	-3.59857407147943	5.25645037736963	1.26237238861522	5.25645037736963	1.6578763058902	4.570407894107619	1.0074435808517093	0.36531024543517987	4.970253086234131	3.596039657477239	0.04321351531384621	4.970253086234131	4.1478650278766045	3.0104550911998444	2.0030115103481343	3.4393410163742812	1.8962223152950313	2	missed	0.0
222.4352240999999	5.806488200000331	nogo_punish	0.4856706999999005	222.46270579999987	223.80816500000014	226.36556700000006	1.3454592000002776	223.47539070000016	225.34208220000005	227.36978220000015	0.33277429999998276	1.0234848000000056	0.8994118000000526	n/a	1.0	n/a	1	0	94	1	nogo_punish	1	-1	0	0	1	0	1	n/a	n/a	-1	0.4856706999999005	1.0	1067.7169833	1290.1796891	1291.1923740000002	1291.5251483000002	1293.0590655	1294.0825503	n/a	n/a	1295.0867655000002	1295.9861773000002	2020-06-10 13:29:49.714055	-0.568883903031973	-3.37643456657074	-2.21927049035675	-3.64588777404215	-2.78815439338873	-2.21927049035675	0.568883903031973	-3.37643456657074	-2.21927049035675	-2.78815439338873	-2.21927049035675	-4.18118769733862	-3.1600143936596936	-4.27349670975078	-2.5054677814922486	-5.23207712224492	-4.402817183965084	-2.5054677814922486	-4.603730563569635	-5.0341496795585154	-1.8741352858988158	-5.193543927566088	-1.585420563676939	2	missed	0.0
228.2964234000001	6.360453000000007	go_reward	0.1897972000001573	228.32390510000005	229.89700349999998	232.44749190000016	1.5730983999999353	229.33563260000005	231.42907139999988	233.45714410000005	0.561370899999929	1.0184205000002748	1.2272140000000036	n/a	1.0	n/a	1	0	95	4	go_reward	1	1	0	1	1	1	0	n/a	n/a	1	0.1897972000001573	1.0	1067.7169833	1296.0408884	1297.0526159	1297.6139868	1299.1460547	1300.1644752000002	n/a	n/a	1301.1741274	1302.4013414	2020-06-10 13:29:49.714055	5.79889706713963	6.46605554350436	1.03488414335521	6.59222910127052	6.83378121049484	1.03488414335521	-5.79889706713963	6.46605554350436	1.03488414335521	6.83378121049484	1.03488414335521	3.3608027279728896	3.207766576511909	5.568993400324319	0.7486868522197115	5.006039753067749	5.219118419918487	0.7486868522197115	2.9382598617418747	4.587785924325055	1.3800193478131444	4.648946182509011	1.6687340700350215	2	missed	0.0
234.70272130000012	7.058219599999802	nogo_reward	1.0	234.73020300000007	237.3058282999998	239.84000539999988	2.5756252999997287	235.7352438999999	238.81500440000013	240.8493500000002	1.570584399999916	1.0250009999997474	0.9390725999996903	n/a	1.0	n/a	1	0	96	3	nogo_reward	1	0	1	0	0	1	0	n/a	n/a	1	1.0	1.0	1067.7169833	1302.4471863	1303.4522272	1305.0228115999998	1306.5319877000002	1307.5569887	n/a	n/a	1308.5663333000002	1309.5054059	2020-06-10 13:29:49.714055	4.04519686663221	1.26237238861522	5.69504137792516	5.63582085350577	1.64984451129294	5.69504137792516	-4.04519686663221	5.69504137792516	1.26237238861522	5.69504137792516	1.64984451129294	4.131816893552089	1.4540663760044894	0.36531024543517987	5.408844086789662	4.049631505302999	0.03518172071658632	5.408844086789662	3.709274027321074	3.449046091755375	1.9949797157508744	3.8779320169298117	1.8962223152950313	2	missed	0.0
241.8009044000005	6.797869900000023	nogo_reward	1.0	241.82838610000044	243.88572469999986	246.42607620000013	2.0573385999994116	242.8408379	245.40228520000005	247.4300323	1.0448867999998583	1.0237910000000738	1.1962237000004734	n/a	1.0	n/a	1	0	97	3	nogo_reward	1	0	1	0	0	1	0	n/a	n/a	1	1.0	1.0	1067.7169833	1309.5453694000005	1310.5578212	1311.602708	1313.1192685	1314.1430595000002	n/a	n/a	1315.1470156	1316.3432393000005	2020-06-10 13:29:49.714055	4.44247898913444	1.26237238861522	6.08501567353873	6.03818792383649	1.64253668440429	6.08501567353873	-4.44247898913444	6.08501567353873	1.26237238861522	6.08501567353873	1.64253668440429	3.7418425979385193	1.8513484985067188	0.36531024543517987	5.7988183824032316	4.451998575633719	0.027873893827936147	5.7988183824032316	3.3192997317075044	3.8390203873689446	1.9876718888622242	4.267906312543381	1.8962223152950313	2	missed	0.0
248.6450096000001	7.237551399999802	go_punish	0.295075099999849	248.67249130000005	250.95659460000002	253.5041302000002	2.2841032999999697	249.67736209999998	252.48315019999995	254.51615779999997	1.2792325000000346	1.020980000000236	1.3938848999998754	n/a	1.0	n/a	1	0	98	2	go_punish	1	0	-1	1	1	1	0	n/a	n/a	0	0.295075099999849	1.0	1067.7169833	1316.3894746	1317.3943454	1318.6735779	1320.2001335	1321.2211135000002	n/a	n/a	1322.2331411	1323.627026	2020-06-10 13:29:49.714055	1.67785328176999	-0.699323661804467	-1.85392749312369	-1.21229566638024	-0.176074211353706	-1.85392749312369	-1.67785328176999	-0.699323661804467	-1.85392749312369	-0.176074211353706	-1.85392749312369	0.699323661804467	-0.9132772088577308	-1.5963858049845072	-2.1401247842591884	-2.7984850145830107	-1.7907370019300597	-2.1401247842591884	0.27678079557345214	-2.4220694975234913	-1.5087922886657557	-2.5164330227998155	-1.2200775664438788	2	missed	0.0
255.92585609999992	7.032831299999998	go_punish	0.2985239999998157	255.95333779999987	258.66512500000044	261.21806690000017	2.711787200000572	256.96246859999997	260.19965980000006	262.22738460000005	1.7026564000004782	1.018407100000104	0.7587844999998197	n/a	1.0	n/a	1	0	99	2	go_punish	1	0	-1	1	1	1	0	n/a	n/a	0	0.2985239999998157	1.0	1067.7169833	1323.6703211	1324.6794519	1326.3821083000005	1327.9166431	1328.9350502000002	n/a	n/a	1329.9443679	1330.7031524	2020-06-10 13:29:49.714055	1.75031725452602	-0.623538704417893	-1.85392749312369	-1.08574832645899	-0.103610238597672	-1.85392749312369	-1.75031725452602	-0.623538704417893	-1.85392749312369	-0.103610238597672	-1.85392749312369	0.623538704417893	-0.8408132361017009	-1.5206008475979331	-2.1401247842591884	-2.6719376746617605	-1.7182730291740258	-2.1401247842591884	0.20099583818687816	-2.3496055247674574	-1.5087922886657557	-2.4406480654132414	-1.2200775664438788	2	missed	0.0
263.00296249999997	6.8314540999999736	go_punish	1.0	263.0304441999999	265.39499039999987	267.9221352000002	2.3645461999999497	264.03727119999985	266.8966404999999	268.93159900000046	1.3577192000000196	1.0254947000003085	0.9302992999994331	n/a	1.0	n/a	1	0	100	2	go_punish	1	0	-1	1	0	0	1	n/a	n/a	-1	1.0	1.0	1067.7169833	1330.7474275	1331.7542545	1333.1119737	1334.6136238	1335.6391185000002	n/a	n/a	1336.6485823000005	1337.5788816	2020-06-10 13:29:49.714055	-1.81379738962618	-0.557075555268846	-1.85392749312369	-0.974183456736589	-0.0401301034975106	-1.85392749312369	1.81379738962618	-1.85392749312369	-0.557075555268846	-1.85392749312369	-0.0401301034975106	-5.70369477078567	-4.404927880253901	-1.454137698448886	-2.1401247842591884	-2.5603728049393597	-1.6547928940738643	-2.1401247842591884	-6.126237637016685	-4.099922779293475	0.3050051009604237	-3.6710368541190386	0.07677437141096533	2	missed	0.0
269.8706361000002	6.883591299999807	nogo_punish	1.0	269.89811780000014	271.7652616999999	274.28167140000005	1.8671438999997463	270.9127219999998	273.26872849999995	275.2962301	0.8525397000000794	1.0129429000000982	1.4854789999999412	n/a	1.0	n/a	1	0	101	1	nogo_punish	1	-1	0	0	0	1	0	n/a	n/a	0	1.0	1.0	1067.7169833	1337.6151011000002	1338.6297052999998	1339.482245	1340.9857118	1341.9986547	n/a	n/a	1343.0132134	1344.4986924	2020-06-10 13:29:49.714055	0.960730322362815	-3.77865193065751	-2.21927049035675	-4.03249986583467	-3.18000081271957	-2.21927049035675	-0.960730322362815	-2.21927049035675	-3.77865193065751	-2.21927049035675	-3.18000081271957	2.21927049035675	-1.6304001682649059	-4.67571407383755	-2.5054677814922486	-5.618689214037441	-4.794663603295923	-2.5054677814922486	1.7967276241257353	-4.465265776526536	-2.8348656082616355	-4.036379851352098	-3.144802003977699	2	missed	0.0
276.79787009999995	6.578893299999891	go_punish	0.4298152999999729	276.8253517999999	278.69971280000004	281.26319339999986	1.8743610000001354	277.8423424	280.2436457000001	282.27092360000006	0.8573704000000362	1.0195476999997481	1.133321499999738	n/a	1.0	n/a	1	0	102	2	go_punish	1	0	-1	1	1	1	1	n/a	n/a	0	0.4298152999999729	1.0	1067.7169833	1344.5423351	1345.5593257	1346.4166961	1347.9606290000002	1348.9801767	n/a	n/a	1349.9879069	1351.1212283999998	2020-06-10 13:29:49.714055	2.40794111107281	-0.557075555268846	-2.43070391185911	-1.66813036593944	-0.0227628007862997	-2.43070391185911	-2.40794111107281	-0.557075555268846	-2.43070391185911	-0.0227628007862997	-2.43070391185911	0.557075555268846	-0.18318937955491066	-1.454137698448886	-2.7169012029946082	-3.2543197141422104	-1.6374255913626534	-2.7169012029946082	0.1345326890378311	-2.268758086956085	-2.0855687074011753	-2.374184916264195	-1.7968539851792986	2	missed	0.0
283.41431940000007	6.293087900000046	go_punish	0.3926228000000265	283.4418011	285.1881947999998	287.74294160000045	1.7463936999997713	284.4553698000002	286.7202982000001	288.7573524000002	0.7328249999995933	1.0226434000003337	0.977536599999894	n/a	1.0	n/a	1	0	103	2	go_punish	1	0	-1	1	1	1	0	n/a	n/a	0	0.3926228000000265	1.0	1067.7169833	1351.1587844	1352.1723531000002	1352.9051780999998	1354.4372815000002	1355.4599249000005	n/a	n/a	1356.4743357000002	1357.4518723	2020-06-10 13:29:49.714055	2.46198734027696	-0.498639593135617	-2.43070391185911	-1.48506156172289	0.031283428417849	-2.43070391185911	-2.46198734027696	-0.498639593135617	-2.43070391185911	0.031283428417849	-2.43070391185911	0.498639593135617	-0.12914315035076074	-1.3957017363156572	-2.7169012029946082	-3.07125090992566	-1.5833793621585048	-2.7169012029946082	0.07609672690460212	-2.2147118577519365	-2.0855687074011753	-2.3157489541309655	-1.7968539851792986	2	missed	0.0
289.74950190000004	6.297039699999914	go_reward	0.5372748999998294	289.7769836	291.56028949999995	294.1041304999999	1.7833058999999594	290.78084769999987	293.08459150000044	295.11235950000014	0.779441800000086	1.0195389999994404	0.9616637999997693	n/a	1.0	n/a	1	0	104	4	go_reward	0	0	1	1	1	1	0	n/a	n/a	0	0.5372748999998294	1.0	1067.7169833	1357.4939669	1358.497831	1359.2772728	1360.8015748000005	1361.8211138	n/a	n/a	1362.8293428000002	1363.7910066	2020-06-10 13:29:49.714055	6.11328071367756	6.78599084695275	1.03488414335521	6.9007408572108	7.14816485703276	1.03488414335521	-6.11328071367756	6.78599084695275	1.03488414335521	7.14816485703276	1.03488414335521	-6.78599084695275	3.5221502230498394	5.888928703772709	0.7486868522197115	5.314551509008029	5.533502066456406	0.7486868522197115	-7.208533713183765	4.9021695708629744	1.3800193478131444	4.968881485957401	1.6687340700350215	2	missed	0.0
296.09103260000006	6.802179700000124	go_punish	0.3885430000000269	296.1185143	297.8829610999999	300.43493539999986	1.7644467999998596	297.1179209999998	299.41548149999994	301.44815630000016	0.7650401000000784	1.0194538999999168	1.4725376999999753	n/a	1.0	n/a	1	0	105	2	go_punish	1	0	-1	1	1	1	1	n/a	n/a	0	0.3885430000000269	1.0	1067.7169833	1363.8354976	1364.8349042999998	1365.5999444	1367.1324648	1368.1519187	n/a	n/a	1369.1651396000002	1370.6376773000002	2020-06-10 13:29:49.714055	2.50953045664903	-0.447138390871767	-2.43070391185911	-1.32508068266976	0.0788265447899219	-2.43070391185911	-2.50953045664903	-0.447138390871767	-2.43070391185911	0.0788265447899219	-2.43070391185911	0.447138390871767	-0.08160003397869087	-1.344200534051807	-2.7169012029946082	-2.9112700308725303	-1.5358362457864319	-2.7169012029946082	0.024595524640752098	-2.1671687413798635	-2.0855687074011753	-2.2642477518671154	-1.7968539851792986	2	missed	0.0
302.9357872999999	6.63851980000004	go_reward	0.4005939000003309	302.96326899999985	304.7909588	307.3481946999998	1.8276898000001438	303.9716661	306.33160180000004	308.35881600000016	0.8192927000000054	1.0165928999997504	1.242972799999734	n/a	1.0	n/a	1	0	106	4	go_reward	1	1	0	1	1	1	1	n/a	n/a	1	0.4005939000003309	1.0	1067.7169833	1370.6802523	1371.6886494	1372.5079421	1374.0485851	1375.0651779999998	n/a	n/a	1376.0757993000002	1377.3187721	2020-06-10 13:29:49.714055	5.3742574885261	6.03564658723568	1.03488414335521	6.14013248613601	6.40914163188131	1.03488414335521	-5.3742574885261	6.03564658723568	1.03488414335521	6.40914163188131	1.03488414335521	3.791211684241569	2.783126997898379	5.13858444405564	0.7486868522197115	4.553943137933239	4.794478841304956	0.7486868522197115	3.368668818010554	4.1631463457115245	1.3800193478131444	4.218537226240332	1.6687340700350215	2	missed	0.0
309.6166834999999	6.526684100000011	nogo_punish	1.0	309.64416519999986	311.3388336999999	313.8677670999998	1.6946685000000343	310.65247350000004	312.8482123000001	314.8810768000001	0.6863601999998536	1.0195547999996961	1.289772499999799	n/a	1.0	n/a	1	0	107	1	nogo_punish	1	-1	0	0	0	1	0	n/a	n/a	0	1.0	1.0	1067.7169833	1377.3611485	1378.3694568	1379.055817	1380.5651956000002	1381.5847503999998	n/a	n/a	1382.5980601	1383.8878326	2020-06-10 13:29:49.714055	1.22848231882391	-3.77865193065751	-1.96220263754169	-3.58248171268987	-3.1906849563656	-1.96220263754169	-1.22848231882391	-1.96220263754169	-3.77865193065751	-1.96220263754169	-3.1906849563656	1.96220263754169	-1.3626481718038108	-4.67571407383755	-2.2483999286771885	-5.16867106089264	-4.805347746941954	-2.2483999286771885	1.5396597713106752	-4.2081979237114755	-2.845549751907666	-3.7793119985370387	-3.144802003977699	2	missed	0.0
316.1804133000005	6.354274599999599	nogo_punish	1.0	316.20789500000046	318.05785990000004	320.60281180000015	1.849964899999577	317.21440719999987	319.57465520000005	321.6141547	0.8434527000001708	1.0281566000001021	0.9480149000000893	n/a	1.0	n/a	1	0	108	1	nogo_punish	0	0	-1	0	0	1	0	n/a	n/a	-1	1.0	1.0	1067.7169833	1383.9248783000005	1384.9313905	1385.7748432	1387.2916385	1388.3197951000002	n/a	n/a	1389.331138	1390.2791529	2020-06-10 13:29:49.714055	1.46111468698971	-3.77865193065751	-1.73918204590032	-3.18989898923259	-3.20029673289003	-1.73918204590032	-1.46111468698971	-1.73918204590032	-3.77865193065751	-1.73918204590032	-3.20029673289003	-5.818440218009041	-1.1300158036380108	-4.67571407383755	-2.0253793370358184	-4.77608833743536	-4.814959523466383	-2.0253793370358184	-6.240983084240056	-3.9851773320701054	-2.8551615284320953	-3.5562914068956686	-3.144802003977699	2	missed	0.0
322.57031630000006	7.1960095999997975	go_reward	0.2782954999997855	322.597798	325.02713930000004	327.5771315999998	2.429341300000033	323.60680530000013	326.55950050000047	328.58668510000007	1.4203339999999116	1.0176310999993348	1.2071224999997412	n/a	1.0	n/a	1	0	109	4	go_reward	1	1	0	1	1	1	0	n/a	n/a	1	0.2782954999997855	1.0	1067.7169833	1390.3147813	1391.3237886000002	1392.7441226	1394.2764838000005	1395.2941148999998	n/a	n/a	1396.3036684	1397.5107908999998	2020-06-10 13:29:49.714055	5.74780292554163	6.41524253129342	1.03488414335521	6.51049301426654	6.78268706889684	1.03488414335521	-5.74780292554163	6.41524253129342	1.03488414335521	6.78268706889684	1.03488414335521	3.411615740183829	3.1566724349139093	5.51818038811338	0.7486868522197115	4.92430366606377	5.168024278320487	0.7486868522197115	2.9890728739528143	4.536691782727055	1.3800193478131444	4.5981331702980714	1.6687340700350215	2	missed	0.0
329.80879770000024	6.661215599999878	nogo_punish	1.0	329.8362794000002	331.4994606999999	334.03826290000006	1.6631812999996782	330.84488100000044	333.0186105	335.05126640000003	0.6545796999994309	1.0196524000000409	1.4462286000000404	n/a	1.0	n/a	1	0	110	1	nogo_punish	1	-1	0	0	0	1	1	n/a	n/a	0	1.0	1.0	1067.7169833	1397.5532627000002	1398.5618643000005	1399.216444	1400.7355938	1401.7552462	n/a	n/a	1402.7682497	1404.2144783	2020-06-10 13:29:49.714055	0.851283656802537	-3.77865193065751	-2.33760317947801	-3.63893133364983	-3.18888683628055	-2.33760317947801	-0.851283656802537	-2.33760317947801	-3.77865193065751	-2.33760317947801	-3.18888683628055	2.33760317947801	-1.7398468338251838	-4.67571407383755	-2.6238004706135083	-5.225120681852601	-4.803549626856904	-2.6238004706135083	1.915060313246995	-4.583598465647795	-2.8437516318226157	-4.1547125404733585	-3.144802003977699	2	missed	0.0
336.5084551000002	7.177057099999729	go_reward	0.3436230000002069	336.5359368000002	339.1608884	341.7174815999999	2.624951599999804	337.55308690000015	340.6929648999999	342.7197896	1.6078014999998231	1.0245167000000492	0.9932042999998885	n/a	1.0	n/a	1	0	111	4	go_reward	1	1	0	1	1	1	1	n/a	n/a	1	0.3436230000002069	1.0	1067.7169833	1404.2529201000002	1405.2700702000002	1406.8778717	1408.4099482	1409.4344649	n/a	n/a	1410.4367729	1411.4299772	2020-06-10 13:29:49.714055	6.07725448614254	6.75023401668104	1.03488414335521	6.83716329774956	7.11213862949775	1.03488414335521	-6.07725448614254	6.75023401668104	1.03488414335521	7.11213862949775	1.03488414335521	3.076624254796209	3.4861239955148196	5.853171873501	0.7486868522197115	5.25097394954679	5.497475838921396	0.7486868522197115	2.654081388565194	4.866143343327964	1.3800193478131444	4.933124655685692	1.6687340700350215	2	missed	0.0
343.7241644000005	5.907293299999537	go_punish	0.4723719000003257	343.75164610000047	345.19991519999985	347.73161230000005	1.4482690999993793	344.76421830000004	346.7167539999998	348.74441009999987	0.43569689999981165	1.0148583000002418	0.9145293000001402	n/a	1.0	n/a	1	0	112	2	go_punish	1	0	-1	1	1	1	0	n/a	n/a	0	0.4723719000003257	1.0	1067.7169833	1411.4686294000005	1412.4812016	1412.9168985	1414.4337372999998	1415.4485956	n/a	n/a	1416.4613934	1417.3759227	2020-06-10 13:29:49.714055	2.55145808917667	-0.401646327289358	-2.43070391185911	-1.18485131782642	0.120754177317564	-2.43070391185911	-2.55145808917667	-0.401646327289358	-2.43070391185911	0.120754177317564	-2.43070391185911	0.401646327289358	-0.039672401451051	-1.298708470469398	-2.7169012029946082	-2.77104066602919	-1.4939086132587898	-2.7169012029946082	-0.020896538941656884	-2.1252411088522214	-2.0855687074011753	-2.2187556882847064	-1.7968539851792986	2	missed	0.0
349.6697253	7.507660900000246	go_punish	0.4931418000001031	349.69720699999993	352.2239864999999	354.7766276	2.526779499999975	350.7097348	353.75711620000016	355.7900331000001	1.5142516999999316	1.0195113999998284	1.4148348000001079	n/a	1.0	n/a	1	0	113	2	go_punish	1	0	-1	1	1	1	0	n/a	n/a	0	0.4931418000001031	1.0	1067.7169833	1417.4141903	1418.4267181	1419.9409698	1421.4740995000002	1422.4936109	n/a	n/a	1423.5070164	1424.9218512000002	2020-06-10 13:29:49.714055	2.58852039693303	-0.361376113390725	-2.43070391185911	-1.06158840656666	0.15781648507392	-2.43070391185911	-2.58852039693303	-0.361376113390725	-2.43070391185911	0.15781648507392	-2.43070391185911	0.361376113390725	-0.002610093694690896	-1.2584382565707652	-2.7169012029946082	-2.6477777547694306	-1.4568463055024337	-2.7169012029946082	-0.061166752840289884	-2.0881788010958653	-2.0855687074011753	-2.1784854743860738	-1.7968539851792986	2	missed	0.0
357.2331534000002	6.382354399999713	go_reward	0.498990699999922	357.2606351000002	358.73129540000014	361.28714909999985	1.4706602999999632	358.2636362999999	360.26319979999994	362.29639299999985	0.46765910000021904	1.023949299999913	1.3465965000000324	n/a	1.0	n/a	1	0	114	4	go_reward	1	1	0	1	1	1	0	n/a	n/a	1	0.498990699999922	1.0	1067.7169833	1424.9776184000002	1425.9806196	1426.4482787000002	1427.9801831	1429.0041324	n/a	n/a	1430.0133763	1431.3599728	2020-06-10 13:29:49.714055	6.36868082951808	7.04672137706609	1.03488414335521	7.1261432313202	7.40356497287329	1.03488414335521	-6.36868082951808	7.04672137706609	1.03488414335521	7.40356497287329	1.03488414335521	2.780136894411159	3.7775503388903595	6.14965923388605	0.7486868522197115	5.5399538831174295	5.788902182296936	0.7486868522197115	2.357594028180144	5.157569686703504	1.3800193478131444	5.2296120160707416	1.6687340700350215	2	missed	0.0
363.66124719999993	6.066415300000244	nogo_reward	1.0	363.6887288999999	365.05144110000015	367.5927315000001	1.36271220000026	364.6939957000002	366.5688582999999	368.5956689000002	0.3574453999999605	1.0238732000002528	1.15947529999994	n/a	1.0	n/a	1	0	115	3	nogo_reward	1	0	1	0	0	1	0	n/a	n/a	1	1.0	1.0	1067.7169833	1431.4057122	1432.4109790000002	1432.7684244000002	1434.2858416	1435.3097148000002	n/a	n/a	1436.3126522000002	1437.4721275000002	2020-06-10 13:29:49.714055	4.79666006802365	1.26237238861522	6.43255090013906	6.39596260809303	1.63589083211541	6.43255090013906	-4.79666006802365	6.43255090013906	1.26237238861522	6.43255090013906	1.63589083211541	3.394307371338189	2.205529577395929	0.36531024543517987	6.146353609003562	4.809773259890259	0.02122804153905622	6.146353609003562	2.971764505107174	4.186555613969275	1.9810260365733443	4.615441539143712	1.8962223152950313	2	missed	0.0
369.77351810000005	6.23569950000001	nogo_reward	1.0	369.8009998	371.46964110000044	374.00340299999993	1.668641300000445	370.80613289999997	372.9864008000002	375.01261640000007	0.6635082000004786	1.0170021999997516	1.0240828999999394	n/a	1.0	n/a	1	0	116	3	nogo_reward	1	0	1	0	0	1	0	n/a	n/a	1	1.0	1.0	1067.7169833	1437.5179831	1438.5231162	1439.1866244000005	1440.7033841000002	1441.7203863	n/a	n/a	1442.7295997	1443.7536826	2020-06-10 13:29:49.714055	5.11308163094692	1.26237238861522	6.74292957730273	6.71479896541356	1.62984794635582	6.74292957730273	-5.11308163094692	6.74292957730273	1.26237238861522	6.74292957730273	1.62984794635582	3.083928694174519	2.521951140319199	0.36531024543517987	6.456732286167232	5.128609617210789	0.01518515577946622	6.456732286167232	2.661385827943504	4.496934291132945	1.9749831508137543	4.925820216307382	1.8962223152950313	2	missed	0.0
376.04715710000005	6.124576799999886	go_reward	0.4487967000000026	376.0746388	377.86735610000005	380.4159069	1.7927173000000494	377.08734119999986	379.3920925	381.42492430000016	0.7800149000001966	1.023814399999992	0.7742912999997316	n/a	1.0	n/a	1	0	117	4	go_reward	1	1	0	1	1	1	0	n/a	n/a	1	0.4487967000000026	1.0	1067.7169833	1443.7916221	1444.8043245	1445.5843394	1447.1090758	1448.1328902	n/a	n/a	1449.1419076000002	1449.9161989	2020-06-10 13:29:49.714055	6.62718317182239	7.30984056035946	1.03488414335521	7.38248047934347	7.66206731517759	1.03488414335521	-6.62718317182239	7.30984056035946	1.03488414335521	7.66206731517759	1.03488414335521	2.5170177111177896	4.036052681194668	6.412778417179419	0.7486868522197115	5.796291131140699	6.0474045246012365	0.7486868522197115	2.0944748448867747	5.416072029007805	1.3800193478131444	5.492731199364111	1.6687340700350215	2	missed	0.0
382.2092259000001	6.925509999999804	go_punish	0.3666073000003962	382.23670760000005	384.22662860000014	386.7567391	1.9899210000000949	383.2428459999999	385.74353769999993	387.76899359999993	0.9837826000002678	1.0132014000000709	1.3932239999999183	n/a	1.0	n/a	1	0	118	2	go_punish	1	0	-1	1	1	1	0	n/a	n/a	0	0.3666073000003962	1.0	1067.7169833	1449.9536909	1450.9598293	1451.9436119000002	1453.460521	1454.4737224	n/a	n/a	1455.4859769	1456.8792009	2020-06-10 13:29:49.714055	2.62135426666686	-0.325655732284319	-2.43070391185911	-0.952954337943897	0.19065035480775	-2.43070391185911	-2.62135426666686	-0.325655732284319	-2.43070391185911	0.19065035480775	-2.43070391185911	0.325655732284319	0.03022377603913906	-1.222717875464359	-2.7169012029946082	-2.5391436861466676	-1.4240124357686037	-2.7169012029946082	-0.0968871339466959	-2.0553449313620353	-2.0855687074011753	-2.1427650932796674	-1.7968539851792986	2	missed	0.0
389.1744443	6.668080700000246	go_reward	0.3837494999997943	389.20192599999996	391.43049329999985	393.97724560000006	2.228567299999895	390.21300240000005	392.95859589999986	394.98679990000005	1.2174908999998024	1.0186497000001964	0.8832068000001527	n/a	1.0	n/a	1	0	119	4	go_reward	1	1	0	1	1	1	1	n/a	n/a	1	0.3837494999997943	1.0	1067.7169833	1456.9189093	1457.9299857	1459.1474766	1460.6755792	1461.6942289	n/a	n/a	1462.7037832	1463.5869900000002	2020-06-10 13:29:49.714055	6.85707266748279	7.5439381043718	1.03488414335521	7.61044384084196	7.891956810838	1.03488414335521	-6.85707266748279	7.5439381043718	1.03488414335521	7.891956810838	1.03488414335521	2.2829201671054493	4.26594217685507	6.64687596119176	0.7486868522197115	6.024254492639189	6.277294020261646	0.7486868522197115	1.8603773008744344	5.645961524668214	1.3800193478131444	5.726828743376451	1.6687340700350215	2	missed	0.0
395.88407759999996	6.927979700000151	nogo_reward	1.0	395.9115592999999	397.8417993999999	400.37462349999987	1.9302400999999918	396.9213416	399.35096709999993	401.3839638000002	0.9204577999998946	1.0236563999999362	1.4555751999998847	n/a	1.0	n/a	1	0	120	3	nogo_reward	1	0	1	0	0	1	0	n/a	n/a	1	1.0	1.0	1067.7169833	1463.6285426	1464.6383249	1465.5587827	1467.0679504	1468.0916068	n/a	n/a	1469.1009471000002	1470.5565223	2020-06-10 13:29:49.714055	5.39633357769444	1.26237238861522	7.0206864092305	6.99953629000092	1.62435283153606	7.0206864092305	-5.39633357769444	7.0206864092305	1.26237238861522	7.0206864092305	1.62435283153606	2.8061718622467495	2.8052030870667193	0.36531024543517987	6.734489118095001	5.4133469417981495	0.00969004095970627	6.734489118095001	2.3836289960157346	4.774691123060714	1.9694880359939944	5.203577048235151	1.8962223152950313	2	missed	0.0
