onset	duration	trial_type	response_time	cueOnset	targetOnset	fbOnset	cueRT	firstfixOnset	secondfixOnset	waitOnset	firstfixdur	secondfixdur	waitdur	nback_fbOnset	nback_response_time	nback_targetOnset	block	wm	trial	cue	cond	is_common	outcome_go	outcome_nogo	key_correct	key_pressed	is_correct	key_correct_nback	key_pressed_nback	is_correct_nback	outcome	rt	rt_nback	time_scan	time_onset	time_isi1	time_circle	time_isi2	time_feedback	time_same	time_correct	time_iti	time_done	timestamp_scan	DV	Qgo	Qnogo	SV	Wgo	Wnogo	mDV	Qchosen	Qunchosen	Wchosen	Wunchosen	PE	DVC	QgoC	QnogoC	SVC	WgoC	WnogoC	PEC	WchosenC	WunchosenC	QchosenC	QunchosenC	run	outcome_nback	nback_targetResp
0.0	6.377508200000193	go_punish	0.9194196999999348	0.08858079999981783	1.6558820999998716	4.2101475999998	1.5673013000000537	1.0932005999998182	3.1879297999998926	5.2223998999998	0.5626815000000533	1.0222177999999076	1.2436891000002106	n/a	1.0	n/a	1	0	1	2	go_punish	1	0	-1	1	1	1	0	n/a	n/a	0	0.9194196999999348	1.0	543.5215970000002	543.6101778	544.6147976	545.1774791	546.7095268	547.7317446	n/a	n/a	548.7439969	549.9876860000002	2020-06-10 13:21:05.525577	0.48811592678929	0.0	0.0	0.0	0.48811592678929	0.0	-0.48811592678929	0.0	0.0	0.48811592678929	0.0	0.0	-2.103014563838431	-0.8970621431800402	-0.2861972911354985	-1.5861893482027705	-1.1265468637870637	-0.2861972911354985	-0.4225428662310149	-1.7578793593804953	0.34513520445793433	-1.8171093609953486	0.6338499266798113	1	missed	0.0
6.444812400000046	7.3751351000000795	go_reward	0.3334548000000268	6.533393199999864	8.976797999999917	11.513445899999851	2.443404800000053	7.547299899999871	10.49415759999988	12.52687909999986	1.4294981000000462	1.019288299999971	1.3816492000000835	n/a	1.0	n/a	1	0	2	4	go_reward	0	0	1	1	1	1	0	n/a	n/a	0	0.3334548000000268	1.0	543.5215970000002	550.0549902	551.0688969	552.4983950000001	554.0157546	555.0350429	n/a	n/a	556.0484761	557.4301253000001	2020-06-10 13:21:05.525577	0.48811592678929	0.0	0.0	0.0	0.48811592678929	0.0	-0.48811592678929	0.0	0.0	0.48811592678929	0.0	0.0	-2.103014563838431	-0.8970621431800402	-0.2861972911354985	-1.5861893482027705	-1.1265468637870637	-0.2861972911354985	-0.4225428662310149	-1.7578793593804953	0.34513520445793433	-1.8171093609953486	0.6338499266798113	1	missed	0.0
13.85431490000019	6.849938399999928	go_reward	1.0	13.942895700000008	15.98368359999995	18.5028120999998	2.040787899999941	14.944532499999923	17.495475199999873	19.51746079999998	1.0391511000000264	1.0073368999999275	1.2753732999999556	n/a	1.0	n/a	1	0	3	4	go_reward	1	1	0	1	0	0	0	n/a	n/a	0	1.0	1.0	543.5215970000002	557.4644927000002	558.4661295000001	559.5052806000001	561.0170722	562.0244091	n/a	n/a	563.0390578000001	564.3144311000001	2020-06-10 13:21:05.525577	-0.48811592678929	0.0	0.0	0.0	0.48811592678929	0.0	0.48811592678929	0.0	0.0	0.0	0.48811592678929	0.0	-3.0792464174170107	-0.8970621431800402	-0.2861972911354985	-1.5861893482027705	-1.1265468637870637	-0.2861972911354985	-0.4225428662310149	-2.2459952861697854	0.8332511312472244	-1.8171093609953486	0.6338499266798113	1	missed	0.0
20.76593539999999	6.590274700000009	go_reward	0.4186566999999286	20.854516199999807	22.532600599999796	25.083998500000007	1.6780843999999888	21.86189259999992	24.059596499999998	26.09307179999996	0.6707079999998768	1.0244020000000091	1.3517190999998547	n/a	1.0	n/a	1	0	4	4	go_reward	1	1	0	1	1	1	1	n/a	n/a	1	0.4186566999999286	1.0	543.5215970000002	564.3761132	565.3834896000001	566.0541976	567.5811935000002	568.6055955000002	n/a	n/a	569.6146688000001	570.9663879	2020-06-10 13:21:05.525577	0.48811592678929	0.0	0.0	0.0	0.48811592678929	0.0	-0.48811592678929	0.0	0.0	0.48811592678929	0.0	9.82685827147725	-2.103014563838431	-0.8970621431800402	-0.2861972911354985	-1.5861893482027705	-1.1265468637870637	-0.2861972911354985	9.404315405246233	-1.7578793593804953	0.34513520445793433	-1.8171093609953486	0.6338499266798113	1	missed	0.0
27.43815050000012	6.286710200000016	nogo_punish	0.4482338000000254	27.526731299999938	29.03997759999993	31.58287969999992	1.5132462999999916	28.53267669999991	30.55798949999985	32.591147099999944	0.5073009000000184	1.0248902000000726	1.2222944000000098	n/a	1.0	n/a	1	0	5	1	nogo_punish	1	-1	0	0	1	0	0	n/a	n/a	-1	0.4482338000000254	1.0	543.5215970000002	571.0483283000001	572.0542737000001	572.5615746000001	574.0795865	575.1044767000001	n/a	n/a	576.1127441000001	577.3350385000001	2020-06-10 13:21:05.525577	0.48811592678929	0.0	0.0	0.0	0.48811592678929	0.0	-0.48811592678929	0.0	0.0	0.48811592678929	0.0	-7.55762226390936	-2.103014563838431	-0.8970621431800402	-0.2861972911354985	-1.5861893482027705	-1.1265468637870637	-0.2861972911354985	-7.980165130140375	-1.7578793593804953	0.34513520445793433	-1.8171093609953486	0.6338499266798113	1	missed	0.0
33.760672200000045	5.778747000000067	nogo_punish	1.0	33.84925299999986	35.22207179999987	37.75790119999988	1.3728188000000046	34.86392409999985	36.73880719999988	38.76644590000001	0.3581477000000177	1.0190939999999955	0.8615540999999212	n/a	1.0	n/a	1	0	6	1	nogo_punish	1	-1	0	0	0	1	0	n/a	n/a	0	1.0	1.0	543.5215970000002	577.37085	578.3855211	578.7436688	580.2604042	581.2794982	n/a	n/a	582.2880429000002	583.1495970000001	2020-06-10 13:21:05.525577	0.284366251142842	-0.79253007696396	0.0	-0.79253007696396	-0.284366251142842	0.0	-0.284366251142842	0.0	-0.79253007696396	0.0	-0.284366251142842	0.0	-2.306764239484879	-1.6895922201440001	-0.2861972911354985	-2.3787194251667305	-1.8990290417191957	-0.2861972911354985	-0.4225428662310149	-2.2459952861697854	0.060768953315092356	-1.8171093609953486	-0.15868015028414872	1	missed	0.0
39.60795730000018	6.992696799999976	nogo_reward	0.3232224000000769	39.6965381	42.21200049999993	44.77296359999991	2.515462399999933	40.70164059999979	43.75343809999981	45.78057829999989	1.5103599000001395	1.0195255000000998	0.9086566000000857	n/a	1.0	n/a	1	0	7	3	nogo_reward	1	0	1	0	1	0	0	n/a	n/a	0	0.3232224000000769	1.0	543.5215970000002	583.2181351000002	584.2232376	585.7335975000001	587.2750351	588.2945606000001	n/a	n/a	589.3021753	590.2108319000001	2020-06-10 13:21:05.525577	0.48811592678929	0.0	0.0	0.0	0.48811592678929	0.0	-0.48811592678929	0.0	0.0	0.48811592678929	0.0	0.0	-2.103014563838431	-0.8970621431800402	-0.2861972911354985	-1.5861893482027705	-1.1265468637870637	-0.2861972911354985	-0.4225428662310149	-1.7578793593804953	0.34513520445793433	-1.8171093609953486	0.6338499266798113	1	missed	0.0
46.64033790000008	6.598570000000109	nogo_reward	1.0	46.728918699999895	48.68989229999988	51.21626029999993	1.9609735999999884	47.73322549999989	50.1917277	52.22447279999983	0.9566667999999936	1.0245325999999295	1.1030159000001731	n/a	1.0	n/a	1	0	8	3	nogo_reward	1	0	1	0	0	1	0	n/a	n/a	1	1.0	1.0	543.5215970000002	590.2505157	591.2548225	592.2114893	593.7133247000002	594.7378573000001	n/a	n/a	595.7460698	596.8490857000002	2020-06-10 13:21:05.525577	-0.48811592678929	0.0	0.0	0.0	0.48811592678929	0.0	0.48811592678929	0.0	0.0	0.0	0.48811592678929	9.82685827147725	-3.0792464174170107	-0.8970621431800402	-0.2861972911354985	-1.5861893482027705	-1.1265468637870637	-0.2861972911354985	9.404315405246233	-2.2459952861697854	0.8332511312472244	-1.8171093609953486	0.6338499266798113	1	missed	0.0
53.28014970000004	7.106817800000044	go_reward	0.3869377999999415	53.368730499999856	56.16222159999984	58.7115445999998	2.793491099999983	54.386186399999815	57.69476869999994	59.71705459999998	1.776035200000024	1.0167758999998568	0.7584936999999172	n/a	1.0	n/a	1	0	9	4	go_reward	1	1	0	1	1	1	0	n/a	n/a	1	0.3869377999999415	1.0	543.5215970000002	596.8903275	597.9077834	599.6838186	601.2163657000001	602.2331416	n/a	n/a	603.2386516000001	603.9971453	2020-06-10 13:21:05.525577	1.50662080795626	1.03488414335521	0.0	1.03488414335521	1.50662080795626	0.0	-1.50662080795626	1.03488414335521	0.0	1.50662080795626	0.0	8.791974128122039	-1.0845096826714609	0.13782200017516988	-0.2861972911354985	-0.5513052048475604	-0.10804198262009379	-0.2861972911354985	8.369431261891023	-0.7393744782135254	0.34513520445793433	-0.7822252176401385	0.6338499266798113	1	missed	0.0
60.428545200000144	6.868002700000034	nogo_punish	1.0	60.51712599999996	62.36155239999994	64.89460079999981	1.8444263999999748	61.52655970000001	63.88021529999992	65.90772319999996	0.8349926999999298	1.0143854999998894	1.4774055000000317	n/a	1.0	n/a	1	0	10	1	nogo_punish	1	-1	0	0	0	1	0	n/a	n/a	0	1.0	1.0	543.5215970000002	604.0387230000001	605.0481567000002	605.8831494000001	607.4018123000001	608.4161978	n/a	n/a	609.4293202000001	610.9067257000002	2020-06-10 13:21:05.525577	0.286345728663878	-0.79253007696396	0.0	-0.696763416909709	-0.286345728663878	0.0	-0.286345728663878	0.0	-0.79253007696396	0.0	-0.286345728663878	0.0	-2.304784761963843	-1.6895922201440001	-0.2861972911354985	-2.2829527651124795	-1.9010085192402317	-0.2861972911354985	-0.4225428662310149	-2.2459952861697854	0.058789475794056356	-1.8171093609953486	-0.15868015028414872	1	missed	0.0
67.33075030000009	6.452758200000062	nogo_punish	1.0	67.41933109999991	69.0078067999998	71.54329519999987	1.58847569999989	68.44482119999998	70.5236524999998	72.55660929999999	0.5629855999998199	1.0196427000000767	1.3154799999999796	n/a	1.0	n/a	1	0	11	1	nogo_punish	1	-1	0	0	0	1	0	n/a	n/a	0	1.0	1.0	543.5215970000002	610.9409281000001	611.9664182000001	612.5294038	614.0452495	615.0648922	n/a	n/a	616.0782063000001	617.3936863000001	2020-06-10 13:21:05.525577	0.288135115914681	-0.79253007696396	0.0	-0.614254618743285	-0.288135115914681	0.0	-0.288135115914681	0.0	-0.79253007696396	0.0	-0.288135115914681	0.0	-2.30299537471304	-1.6895922201440001	-0.2861972911354985	-2.2004439669460556	-1.9027979064910348	-0.2861972911354985	-0.4225428662310149	-2.2459952861697854	0.057000088543253336	-1.8171093609953486	-0.15868015028414872	1	missed	0.0
73.82167690000006	7.227604700000029	go_reward	0.2862295000002177	73.91025769999987	76.6588784999999	79.19922569999994	2.748620800000026	74.92637459999992	78.17782589999979	80.20758839999985	1.7325038999999833	1.0213998000001538	0.930274000000054	n/a	1.0	n/a	1	0	12	4	go_reward	1	1	0	1	1	1	0	n/a	n/a	1	0.2862295000002177	1.0	543.5215970000002	617.4318547	618.4479716000001	620.1804755000001	621.6994229	622.7208227000001	n/a	n/a	623.7291854	624.6594594000001	2020-06-10 13:21:05.525577	2.40062921741465	1.94382804721296	0.0	1.94382804721296	2.40062921741465	0.0	-2.40062921741465	1.94382804721296	0.0	2.40062921741465	0.0	7.883030224264289	-0.19050127321307064	1.0467659040329198	-0.2861972911354985	0.35763869901018963	0.7859664268382964	-0.2861972911354985	7.460487358033274	0.1546339312448648	0.34513520445793433	0.1267186862176115	0.6338499266798113	1	missed	0.0
81.08712600000013	7.56865619999985	nogo_punish	1.0	81.17570679999994	83.94711389999998	86.48350809999988	2.771407100000033	82.1891271999998	85.46399899999983	87.4896703999998	1.757986700000174	1.0195091000000502	1.2546925999999985	n/a	1.0	n/a	1	0	13	1	nogo_punish	1	-1	0	0	0	1	1	n/a	n/a	0	1.0	1.0	543.5215970000002	624.6973038000001	625.7107242	627.4687109000001	628.985596	630.0051051	n/a	n/a	631.0112674	632.26596	2020-06-10 13:21:05.525577	0.289746670876488	-0.79253007696396	0.0	-0.542909457470701	-0.289746670876488	0.0	-0.289746670876488	0.0	-0.79253007696396	0.0	-0.289746670876488	0.0	-2.3013838197512326	-1.6895922201440001	-0.2861972911354985	-2.1290988056734714	-1.9044094614528417	-0.2861972911354985	-0.4225428662310149	-2.2459952861697854	0.05538853358144635	-1.8171093609953486	-0.15868015028414872	1	missed	0.0
88.6961772000002	7.380425899999864	go_punish	1.0	88.78475800000001	91.49813339999992	94.03395619999992	2.7133753999999044	89.79667369999993	93.0144816999998	95.03711219999991	1.7014596999999867	1.0194745000001149	1.128071699999964	n/a	1.0	n/a	1	0	14	2	go_punish	1	0	-1	1	0	0	0	n/a	n/a	-1	1.0	1.0	543.5215970000002	632.3063550000002	633.3182707000001	635.0197304000001	636.5360787	637.5555532000001	n/a	n/a	638.5587092000001	639.6867809	2020-06-10 13:21:05.525577	-0.48811592678929	0.0	0.0	0.0	0.48811592678929	0.0	0.48811592678929	0.0	0.0	0.0	0.48811592678929	-7.55762226390936	-3.0792464174170107	-0.8970621431800402	-0.2861972911354985	-1.5861893482027705	-1.1265468637870637	-0.2861972911354985	-7.980165130140375	-2.2459952861697854	0.8332511312472244	-1.8171093609953486	0.6338499266798113	1	missed	0.0
96.1138211	7.427846000000045	nogo_punish	0.2803052999997817	96.20240189999981	98.82664329999989	101.37537459999999	2.6242414000000736	97.20936359999996	100.3543358999998	102.38720969999986	1.6172796999999264	1.0210387000001901	1.2430382000000009	n/a	1.0	n/a	1	0	15	1	nogo_punish	0	0	-1	0	1	0	1	n/a	n/a	0	0.2803052999997817	1.0	543.5215970000002	639.7239989	640.7309606000001	642.3482403	643.8759329	644.8969716000001	n/a	n/a	645.9088067	647.1518449	2020-06-10 13:21:05.525577	-0.291194572602251	-0.79253007696396	0.0	-0.48100975868116	-0.291194572602251	0.0	0.291194572602251	-0.79253007696396	0.0	-0.291194572602251	0.0	0.79253007696396	-2.8823250632299717	-1.6895922201440001	-0.2861972911354985	-2.0671991068839306	-1.9058573631786047	-0.2861972911354985	0.36998721073294516	-2.5371898587720363	0.34513520445793433	-2.6096394379593084	0.6338499266798113	1	missed	0.0
103.58732800000007	6.360864799999945	nogo_reward	0.4278858000000127	103.67590879999989	105.46815889999993	108.00496499999986	1.7922501000000466	104.68831049999994	106.9847585	109.01281409999979	0.7798483999999917	1.0202064999998584	1.0239595000000463	n/a	1.0	n/a	1	0	16	3	nogo_reward	1	0	1	0	1	0	0	n/a	n/a	0	0.4278858000000127	1.0	543.5215970000002	647.1975058	648.2099075000001	648.9897559000001	650.5063555000002	651.526562	n/a	n/a	652.5344110999999	653.5583706	2020-06-10 13:21:05.525577	-0.563147478754152	0.0	1.03488414335521	1.03488414335521	0.471736664601054	1.03488414335521	0.563147478754152	0.0	1.03488414335521	0.471736664601054	1.03488414335521	0.0	-3.154277969381873	-0.8970621431800402	0.7486868522197115	-0.5513052048475604	-1.1429261259752996	0.7486868522197115	-0.4225428662310149	-1.7742586215687313	1.3800193478131444	-1.8171093609953486	1.6687340700350215	1	missed	0.0
109.98494700000015	6.919398699999874	go_punish	0.3791668999999729	110.07352779999997	112.4397962999999	114.97056950000001	2.366268499999933	111.08255719999988	113.94985199999996	115.9844162999998	1.3572391000000152	1.0207175000000461	1.008510200000046	n/a	1.0	n/a	1	0	17	2	go_punish	1	0	-1	1	1	1	0	n/a	n/a	0	0.3791668999999729	1.0	543.5215970000002	653.5951248000001	654.6041542	655.9613933	657.4714490000001	658.4921665000002	n/a	n/a	659.5060133	660.5145235	2020-06-10 13:21:05.525577	1.30069390278508	0.0	-0.79253007696396	-0.79253007696396	0.508163825821118	-0.79253007696396	-1.30069390278508	0.0	-0.79253007696396	0.508163825821118	-0.79253007696396	0.0	-1.290436587842641	-0.8970621431800402	-1.0787273680994587	-2.3787194251667305	-1.106498964755236	-1.0787273680994587	-0.4225428662310149	-1.7378314603486675	-0.4473948725060257	-1.8171093609953486	-0.15868015028414872	1	missed	0.0
116.94499910000013	5.668858	nogo_punish	0.6066224000001057	117.03357989999995	118.38635809999982	120.92987859999994	1.3527781999998751	118.04395039999986	119.91037089999986	121.94333869999991	0.342407699999967	1.0195077000000765	0.7590992000000369	n/a	1.0	n/a	1	0	18	1	nogo_punish	0	0	-1	0	1	0	0	n/a	n/a	0	0.6066224000001057	1.0	543.5215970000002	660.5551769000001	661.5655474	661.9079551	663.4319679	664.4514756000001	n/a	n/a	665.4649357000001	666.2240349000001	2020-06-10 13:21:05.525577	-0.196726854689381	-0.696763416909709	0.0	-0.427137013244199	-0.196726854689381	0.0	0.196726854689381	-0.696763416909709	0.0	-0.196726854689381	0.0	0.696763416909709	-2.787857345317102	-1.593825560089749	-0.2861972911354985	-2.0133263614469694	-1.8113896452657348	-0.2861972911354985	0.2742205506786941	-2.4427221408591664	0.34513520445793433	-2.513872777905058	0.6338499266798113	1	missed	0.0
122.66206220000004	6.860238700000082	nogo_reward	0.4077386000001297	122.75064299999985	125.28334769999992	127.8301313999998	2.5327047000000675	123.74565239999993	126.81594989999985	128.84353779999992	1.5376952999999958	1.0141814999999497	0.7673439000000144	n/a	1.0	n/a	1	0	19	3	nogo_reward	1	0	1	0	1	0	0	n/a	n/a	0	0.4077386000001297	1.0	543.5215970000002	666.27224	667.2672494000001	668.8049447000001	670.3375469	671.3517284	n/a	n/a	672.3651348000001	673.1324787000001	2020-06-10 13:21:05.525577	-0.561703710965278	0.0	1.03488414335521	0.908943903857752	0.473180432389928	1.03488414335521	0.561703710965278	0.0	1.03488414335521	0.473180432389928	1.03488414335521	0.0	-3.1528342015929987	-0.8970621431800402	0.7486868522197115	-0.6772454443450184	-1.1414823581864257	0.7486868522197115	-0.4225428662310149	-1.7728148537798574	1.3800193478131444	-1.8171093609953486	1.6687340700350215	1	missed	0.0
129.5668873000002	5.894718399999874	nogo_punish	1.0	129.6554681	130.95007029999988	133.48643239999979	1.294602199999872	130.67064529999993	132.46710429999985	134.4945768	0.2794249999999465	1.0193280999999388	1.0556096999998772	n/a	1.0	n/a	1	0	20	1	nogo_punish	1	-1	0	0	0	1	1	n/a	n/a	0	1.0	1.0	543.5215970000002	673.1770651000002	674.1922423000001	674.4716673	675.9887013	677.0080293999999	n/a	n/a	678.0161738000002	679.0717835	2020-06-10 13:21:05.525577	0.115382420576891	-0.614254618743285	0.0	-0.380113412198002	-0.115382420576891	0.0	-0.115382420576891	0.0	-0.614254618743285	0.0	-0.115382420576891	0.0	-2.47574807005083	-1.5113167619233252	-0.2861972911354985	-1.9663027604007723	-1.7300452111532447	-0.2861972911354985	-0.4225428662310149	-2.2459952861697854	0.2297527838810433	-1.8171093609953486	0.019595307936526307	1	missed	0.0
135.51843310000004	7.339726599999949	nogo_reward	0.3525469999999586	135.60701389999986	138.03139079999983	140.5810380999999	2.42437689999997	136.61685369999987	139.57338129999994	141.5945279	1.4145370999999614	1.0076567999999497	1.3522125999998025	n/a	1.0	n/a	1	0	21	3	nogo_reward	1	0	1	0	1	0	1	n/a	n/a	0	0.3525469999999586	1.0	543.5215970000002	679.1286109	680.1384507	681.5529878	683.0949783000001	684.1026351	n/a	n/a	685.1161249000002	686.4683375	2020-06-10 13:21:05.525577	-0.560358913055846	0.0	1.03488414335521	0.800577406578021	0.47452523029936	1.03488414335521	0.560358913055846	0.0	1.03488414335521	0.47452523029936	1.03488414335521	0.0	-3.151489403683567	-0.8970621431800402	0.7486868522197115	-0.7856119416247495	-1.1401375602769939	0.7486868522197115	-0.4225428662310149	-1.7714700558704255	1.3800193478131444	-1.8171093609953486	1.6687340700350215	1	missed	0.0
142.9009231	6.344631500000105	go_reward	0.4043338000001313	142.98950389999982	144.3745703999998	146.9307887	1.3850664999999935	143.99257049999983	145.90695059999985	147.94001439999988	0.3819998999999825	1.0238381000001482	1.394121000000041	n/a	1.0	n/a	1	0	22	4	go_reward	1	1	0	1	1	1	0	n/a	n/a	1	0.4043338000001313	1.0	543.5215970000002	686.5111009	687.5141675	687.8961674	689.4285476	690.4523857000001	n/a	n/a	691.4616114	692.8557324000001	2020-06-10 13:21:05.525577	3.18761592750274	2.74440545379098	0.0	2.74440545379098	3.18761592750274	0.0	-3.18761592750274	2.74440545379098	0.0	3.18761592750274	0.0	7.082452817686269	0.5964854368750192	1.8473433106109396	-0.2861972911354985	1.1582161055882094	1.5729531369263863	-0.2861972911354985	6.659909951455254	0.9416206413329546	0.34513520445793433	0.9272960927956313	0.6338499266798113	1	missed	0.0
149.2809483000001	6.673378400000047	go_punish	0.2972889000000123	149.3695290999999	151.07163189999983	153.6207422	1.7021027999999205	150.3852834999998	152.60019439999996	154.62841349999985	0.6863484000000426	1.0205478000000312	1.4144940000001043	n/a	1.0	n/a	1	0	23	2	go_punish	1	0	-1	1	1	1	0	n/a	n/a	0	0.2972889000000123	1.0	543.5215970000002	692.8911261000001	693.9068804999999	694.5932289	696.1217914000001	697.1423392000002	n/a	n/a	698.1500105	699.5645045000001	2020-06-10 13:21:05.525577	1.29871442526404	0.0	-0.79253007696396	-0.696763416909709	0.506184348300082	-0.79253007696396	-1.29871442526404	0.0	-0.79253007696396	0.506184348300082	-0.79253007696396	0.0	-1.292416065363681	-0.8970621431800402	-1.0787273680994587	-2.2829527651124795	-1.108478442276272	-1.0787273680994587	-0.4225428662310149	-1.7398109378697035	-0.4473948725060257	-1.8171093609953486	-0.15868015028414872	1	missed	0.0
155.99535990000004	7.232995100000153	nogo_punish	0.2584435000001122	156.08394069999986	158.5303723999998	161.0918009999998	2.4464316999999483	157.09357179999984	160.06792969999992	162.10507059999986	1.4368005999999696	1.0238712999998825	1.2118652000001475	n/a	1.0	n/a	1	0	24	1	nogo_punish	1	-1	0	0	1	0	0	n/a	n/a	-1	0.2584435000001122	1.0	543.5215970000002	699.6055377	700.6151688	702.0519694	703.5895267000001	704.613398	n/a	n/a	705.6266676	706.8385328000002	2020-06-10 13:21:05.525577	-0.116425815089989	-0.614254618743285	0.0	-0.338955889285521	-0.116425815089989	0.0	0.116425815089989	-0.614254618743285	0.0	-0.116425815089989	0.0	-6.9433676451660755	-2.7075563057177097	-1.5113167619233252	-0.2861972911354985	-1.9251452374882914	-1.7310886056663428	-0.2861972911354985	-7.36591051139709	-2.3624211012597742	0.34513520445793433	-2.4313639797386335	0.6338499266798113	1	missed	0.0
163.27296730000012	6.608757100000048	go_reward	1.0	163.36154809999994	165.02820199999996	167.56785919999993	1.6666539000000284	164.37283179999986	166.5434917	168.5769261999999	0.6553702000001067	1.0243674999999257	1.3933790000000954	n/a	1.0	n/a	1	0	25	4	go_reward	0	0	1	1	0	0	0	n/a	n/a	1	1.0	1.0	543.5215970000002	706.8831451000001	707.8944288	708.5497990000001	710.0650887000002	711.0894562000001	n/a	n/a	712.0985232	713.4919022000001	2020-06-10 13:21:05.525577	-3.88225450057797	3.45139450704074	0.0	3.45139450704074	3.88225450057797	0.0	3.88225450057797	0.0	3.45139450704074	0.0	3.88225450057797	9.82685827147725	-6.473384991205691	2.5543323638607	-0.2861972911354985	1.8652051588379697	2.267591710001616	-0.2861972911354985	9.404315405246233	-2.2459952861697854	4.227389705035904	-1.8171093609953486	4.085244433720551	1	missed	0.0
169.91765640000017	6.081796399999803	nogo_punish	0.6124346000001424	170.0062372	171.75429259999987	174.29998579999983	1.7480553999998847	171.0213205	173.28658259999997	175.31381769999984	0.7329720999998699	1.013403199999857	0.7742158999999447	n/a	1.0	n/a	1	0	26	1	nogo_punish	0	0	-1	0	1	0	1	n/a	n/a	0	0.6124346000001424	1.0	543.5215970000002	713.5278342000001	714.5429175000002	715.2758896	716.8081796000001	717.8215828	n/a	n/a	718.8354147	719.6096306	2020-06-10 13:21:05.525577	-0.81849786039841	-1.33543953443466	0.0	-1.09537006020284	-0.81849786039841	0.0	0.81849786039841	-1.33543953443466	0.0	-0.81849786039841	0.0	1.33543953443466	-3.409628351026131	-2.2325016776147	-0.2861972911354985	-2.6815594084056107	-2.433160650974764	-0.2861972911354985	0.912896668203645	-3.0644931465681955	0.34513520445793433	-3.1525488954300087	0.6338499266798113	1	missed	0.0
176.04626430000008	7.615116299999954	nogo_reward	0.7279547000000548	176.1348450999999	178.98484599999983	181.5402052999998	2.850000899999941	177.14822709999999	180.52080309999997	182.55380019999984	1.8366188999998485	1.0194021999998313	1.196161200000006	n/a	1.0	n/a	1	0	27	3	nogo_reward	1	0	1	0	1	0	0	n/a	n/a	0	0.7279547000000548	1.0	543.5215970000002	719.6564421	720.6698241000001	722.506443	724.0424001000001	725.0618023	n/a	n/a	726.0753972	727.2715584	2020-06-10 13:21:05.525577	-0.559118696740444	0.0	1.03488414335521	0.706989053249762	0.475765446614762	1.03488414335521	0.559118696740444	0.0	1.03488414335521	0.475765446614762	1.03488414335521	0.0	-3.150249187368165	-0.8970621431800402	0.7486868522197115	-0.8792002949530084	-1.1388973439615917	0.7486868522197115	-0.4225428662310149	-1.7702298395550233	1.3800193478131444	-1.8171093609953486	1.6687340700350215	1	missed	0.0
183.70542820000014	6.795412799999895	nogo_reward	0.5660742000000027	183.79400899999996	185.83867209999994	188.3743880999998	2.0446630999999797	184.79558959999986	187.35525329999996	189.37617279999995	1.0430825000000823	1.019134799999847	1.2132489999999052	n/a	1.0	n/a	1	0	28	3	nogo_reward	0	1	0	0	1	0	0	n/a	n/a	1	0.5660742000000027	1.0	543.5215970000002	727.3156060000001	728.3171866	729.3602691000001	730.8768503000001	731.8959851	n/a	n/a	732.8977698000001	734.1110188	2020-06-10 13:21:05.525577	-0.557982800604856	0.0	1.03488414335521	0.62588753237171	0.47690134275035	1.03488414335521	0.557982800604856	0.0	1.03488414335521	0.47690134275035	1.03488414335521	9.82685827147725	-3.149113291232577	-0.8970621431800402	0.7486868522197115	-0.9603018158310604	-1.1377614478260036	0.7486868522197115	9.404315405246233	-1.7690939434194353	1.3800193478131444	-1.8171093609953486	1.6687340700350215	1	missed	0.0
190.54325560000007	7.176048600000058	nogo_punish	1.0	190.63183639999988	192.80506479999985	195.3297482999999	2.173228399999971	191.6404971999998	194.30840409999996	196.33038039999997	1.1645676000000549	1.0213441999999304	1.4775045999999747	n/a	1.0	n/a	1	0	29	1	nogo_punish	1	-1	0	0	0	1	0	n/a	n/a	0	1.0	1.0	543.5215970000002	734.1534334	735.1620942	736.3266618	737.8300011000001	738.8513453	n/a	n/a	739.8519774000001	741.3294820000001	2020-06-10 13:21:05.525577	0.663649149751505	-1.17777317559087	0.0	-0.967834606600401	-0.663649149751505	0.0	-0.663649149751505	0.0	-1.17777317559087	0.0	-0.663649149751505	0.0	-1.927481340876216	-2.0748353187709103	-0.2861972911354985	-2.5540239548031716	-2.2783119403278587	-0.2861972911354985	-0.4225428662310149	-2.2459952861697854	-0.3185139452935707	-1.8171093609953486	-0.5439232489110587	1	missed	0.0
197.76038130000006	6.186040699999921	go_reward	0.4723120999999537	197.84896209999988	199.507386	202.0482043999998	1.6584239000001162	198.8590096999999	201.02466479999998	203.0572940999998	0.648376300000109	1.0235395999998218	0.9777086999999938	n/a	1.0	n/a	1	0	30	4	go_reward	1	1	0	1	1	1	0	n/a	n/a	1	0.4723120999999537	1.0	543.5215970000002	741.3705591	742.3806067	743.0289830000002	744.5462618000001	745.5698014	n/a	n/a	746.5788911	747.5565998	2020-06-10 13:21:05.525577	2.83615577318383	3.45139450704074	1.03488414335521	4.07728203941245	3.87103991653903	1.03488414335521	-2.83615577318383	3.45139450704074	1.03488414335521	3.87103991653903	1.03488414335521	6.375463764436509	0.24502528255610923	2.5543323638607	0.7486868522197115	2.491092691209679	2.2563771259626764	0.7486868522197115	5.952920898205494	1.6250446303692447	1.3800193478131444	1.6342851460453915	1.6687340700350215	1	missed	0.0
203.99123340000006	7.218715799999927	go_punish	1.0	204.07981419999987	206.4070666	208.94209189999992	2.327252400000134	205.08046609999997	207.923135	209.94639989999996	1.3266005000000405	1.018956899999921	1.3521300999998402	n/a	1.0	n/a	1	0	31	2	go_punish	1	0	-1	1	0	0	0	n/a	n/a	-1	1.0	1.0	543.5215970000002	747.6014112	748.6020631000001	749.9286636000002	751.4447320000002	752.4636889000001	n/a	n/a	753.4679969000001	754.820127	2020-06-10 13:21:05.525577	-1.29692503801324	0.0	-0.79253007696396	-0.614254618743285	0.504394961049279	-0.79253007696396	1.29692503801324	-0.79253007696396	0.0	-0.79253007696396	0.504394961049279	-6.765092186945401	-3.888055528640961	-0.8970621431800402	-1.0787273680994587	-2.2004439669460556	-1.110267829527075	-1.0787273680994587	-7.1876350531764155	-3.038525363133745	0.8495301655072133	-2.6096394379593084	0.6338499266798113	1	missed	0.0
211.25137270000005	7.321135099999992	go_reward	0.3226528999998663	211.33995349999987	213.6240057	216.18699789999982	2.284052200000133	212.34470549999992	215.16619659999992	217.1998266999999	1.2793002000000797	1.0208012999999028	1.461261899999954	n/a	1.0	n/a	1	0	32	4	go_reward	0	0	1	1	1	1	1	n/a	n/a	0	0.3226528999998663	1.0	543.5215970000002	754.8615505	755.8663025000001	757.1456027000002	758.6877936000001	759.7085949	n/a	n/a	760.7214237000001	762.1826856	2020-06-10 13:21:05.525577	3.45186406507626	4.07728203941245	1.03488414335521	4.63266537477791	4.48674820843147	1.03488414335521	-3.45186406507626	4.07728203941245	1.03488414335521	4.48674820843147	1.03488414335521	-4.07728203941245	0.8607335744485392	3.1802198962324093	0.7486868522197115	3.0464760265751396	2.872085417855116	0.7486868522197115	-4.4998249056434645	2.2407529222616844	1.3800193478131444	2.260172678417101	1.6687340700350215	1	missed	0.0
218.61567830000013	7.855793899999981	go_punish	0.3486576000000241	218.70425909999994	221.67383099999984	224.21005229999992	2.9695718999998917	219.7070710999999	223.19017299999996	225.21808429999987	1.9667598999999427	1.0198792999999569	1.3419687000000522	n/a	1.0	n/a	1	0	33	2	go_punish	1	0	-1	1	1	1	1	n/a	n/a	0	0.3486576000000241	1.0	543.5215970000002	762.2258561000001	763.2286681	765.195428	766.7117700000001	767.7316493000001	n/a	n/a	768.7396813	770.0816500000001	2020-06-10 13:21:05.525577	2.01212479899297	0.0	-1.48929349387367	-1.33543953443466	0.5228313051193	-1.48929349387367	-2.01212479899297	0.0	-1.48929349387367	0.5228313051193	-1.48929349387367	0.0	-0.5790056916347508	-0.8970621431800402	-1.7754907850091683	-2.9216288826374304	-1.0918314854570537	-1.7754907850091683	-0.4225428662310149	-1.7231639810504853	-1.1441582894157356	-1.8171093609953486	-0.8554435671938586	1	missed	0.0
226.5112137000001	6.4215615000000525	go_reward	0.6376409000001786	226.59979449999992	227.97599019999984	230.51938289999998	1.3761956999999256	227.6179075	229.50190079999993	231.5286673999999	0.35808269999984077	1.017482100000052	1.492688600000065	n/a	1.0	n/a	1	0	34	4	go_reward	1	1	0	1	1	1	1	n/a	n/a	1	0.6376409000001786	1.0	543.5215970000002	770.1213915000001	771.1395045000002	771.4975872	773.0234978000001	774.0409799000001	n/a	n/a	775.0502644000001	776.5429530000001	2020-06-10 13:21:05.525577	2.97950380704437	3.59778123142271	1.03488414335521	4.09169076345269	4.01438795039957	1.03488414335521	-2.97950380704437	3.59778123142271	1.03488414335521	4.01438795039957	1.03488414335521	6.229077040054539	0.38837331641664896	2.7007190882426695	0.7486868522197115	2.5055014152499195	2.399725159823216	0.7486868522197115	5.8065341738235245	1.7683926642297845	1.3800193478131444	1.7806718704273612	1.6687340700350215	1	missed	0.0
232.9682967000001	6.0659725999998955	go_reward	0.5118784000001142	233.05687749999993	234.64168999999993	237.19906969999988	1.5848124999999982	234.07230919999984	236.17525109999997	238.20825679999984	0.56938080000009	1.0238185999999132	0.9145932999999786	n/a	1.0	n/a	1	0	35	4	go_reward	1	1	0	1	1	1	0	n/a	n/a	1	0.5118784000001142	1.0	543.5215970000002	776.5784745000001	777.5939062	778.1632870000001	779.6968481000001	780.7206667	n/a	n/a	781.7298538	782.6444471	2020-06-10 13:21:05.525577	3.58952352949805	4.21763100295014	1.03488414335521	4.65779097929749	4.62440767285326	1.03488414335521	-3.58952352949805	4.21763100295014	1.03488414335521	4.62440767285326	1.03488414335521	5.60922726852711	0.9983930388703293	3.3205688597700993	0.7486868522197115	3.071601631094719	3.009744882276906	0.7486868522197115	5.186684402296095	2.3784123866834745	1.3800193478131444	2.400521641954791	1.6687340700350215	1	missed	0.0
239.07417290000012	5.93615049999994	nogo_punish	1.0	239.16275369999994	240.63569239999993	243.15524849999997	1.472938699999986	240.16860429999997	242.14487639999993	244.16941499999984	0.4670880999999554	1.0103721000000405	0.9294892000000345	n/a	1.0	n/a	1	0	36	1	nogo_punish	1	-1	0	0	0	1	0	n/a	n/a	0	1.0	1.0	543.5215970000002	782.6843507000001	783.6902013000001	784.1572894000001	785.6664734000001	786.6768455000001	n/a	n/a	787.691012	788.6205012	2020-06-10 13:21:05.525577	0.666190255688107	-1.17777317559087	0.0	-0.857316699144095	-0.666190255688107	0.0	-0.666190255688107	0.0	-1.17777317559087	0.0	-0.666190255688107	0.0	-1.9249402349396139	-2.0748353187709103	-0.2861972911354985	-2.4435060473468653	-2.2808530462644607	-0.2861972911354985	-0.4225428662310149	-2.2459952861697854	-0.32105505123017264	-1.8171093609953486	-0.5439232489110587	1	missed	0.0
245.05259210000008	6.392691300000024	nogo_reward	0.4667261000001872	245.1411728999999	246.5018086	249.04824729999996	1.3606357000001026	246.1445408999998	248.0348022999999	250.05583969999998	0.35726770000019314	1.013445000000047	1.4780244999999468	n/a	1.0	n/a	1	0	37	3	nogo_reward	1	0	1	0	1	0	0	n/a	n/a	0	0.4667261000001872	1.0	543.5215970000002	788.6627699000001	789.6661379	790.0234056000002	791.5563993000001	792.5698443000001	n/a	n/a	793.5774367000001	795.0554612000001	2020-06-10 13:21:05.525577	0.461557424121776	1.03488414335521	1.03488414335521	1.59026747872067	1.49644156747698	1.03488414335521	-0.461557424121776	1.03488414335521	1.03488414335521	1.49644156747698	1.03488414335521	-1.03488414335521	-2.129573066505945	0.13782200017516988	0.7486868522197115	0.004078130517899625	-0.11822122309937377	0.7486868522197115	-1.457427009586225	-0.7495537186928054	1.3800193478131444	-0.7822252176401385	1.6687340700350215	1	missed	0.0
251.48425380000003	6.26850300000001	nogo_punish	1.0	251.57283459999985	253.42579709999995	255.9468973999999	1.8529625000001033	252.58437549999985	254.92277719999993	256.9562675999998	0.8414216000001034	1.0241201999999703	0.8850700000000415	n/a	1.0	n/a	1	0	38	1	nogo_punish	0	0	-1	0	0	1	1	n/a	n/a	-1	1.0	1.0	543.5215970000002	795.0944316	796.1059725	796.9473941000001	798.4443742000001	799.4684944	n/a	n/a	800.4778646	801.3629346	2020-06-10 13:21:05.525577	0.668476424286282	-1.17777317559087	0.0	-0.761223360594007	-0.668476424286282	0.0	-0.668476424286282	0.0	-1.17777317559087	0.0	-0.668476424286282	-7.55762226390936	-1.9226540663414389	-2.0748353187709103	-0.2861972911354985	-2.3474127087967775	-2.2831392148626355	-0.2861972911354985	-7.980165130140375	-2.2459952861697854	-0.3233412198283476	-1.8171093609953486	-0.5439232489110587	1	missed	0.0
257.8046732	5.861851000000115	go_punish	0.7652597000001151	257.89325399999984	259.2272455	261.7799206999998	1.3339915000001383	258.9010254	260.76010959999985	262.7933248999998	0.32622010000000046	1.0198110999999699	0.9617801000001691	n/a	1.0	n/a	1	0	39	2	go_punish	1	0	-1	1	1	1	0	n/a	n/a	0	0.7652597000001151	1.0	543.5215970000002	801.414851	802.4226224000001	802.7488425000001	804.2817066	805.3015177	n/a	n/a	806.3149219	807.2767020000001	2020-06-10 13:21:05.525577	2.00869741974617	0.0	-1.48929349387367	-1.17777317559087	0.519403925872501	-1.48929349387367	-2.00869741974617	0.0	-1.48929349387367	0.519403925872501	-1.48929349387367	0.0	-0.5824330708815508	-0.8970621431800402	-1.7754907850091683	-2.7639625237936407	-1.0952588647038528	-1.7754907850091683	-0.4225428662310149	-1.7265913602972844	-1.1441582894157356	-1.8171093609953486	-0.8554435671938586	1	missed	0.0
263.7032151000001	6.861413999999968	go_punish	0.3030860999999731	263.7917958999999	265.6425105999999	268.18302229999995	1.850714700000026	264.79879619999997	267.15926879999984	269.1975098999999	0.8437143999999535	1.0237535000001117	1.455699999999979	n/a	1.0	n/a	1	0	40	2	go_punish	0	-1	0	1	1	1	0	n/a	n/a	-1	0.3030860999999731	1.0	543.5215970000002	807.3133929	808.3203932000001	809.1641076000001	810.6808658	811.7046193000001	n/a	n/a	812.7191069	814.1748069	2020-06-10 13:21:05.525577	2.00560909035399	0.0	-1.48929349387367	-1.04139163198748	0.516315596480317	-1.48929349387367	-2.00560909035399	0.0	-1.48929349387367	0.516315596480317	-1.48929349387367	-7.55762226390936	-0.585521400273731	-0.8970621431800402	-1.7754907850091683	-2.6275809801902508	-1.0983471940960368	-1.7754907850091683	-7.980165130140375	-1.7296796896894684	-1.1441582894157356	-1.8171093609953486	-0.8554435671938586	1	missed	0.0
270.6003668000001	6.483109799999966	go_punish	0.3799418000000969	270.6889475999999	272.67147039999986	275.20322739999983	1.9825227999999697	271.7042971999999	274.19610309999985	276.2093161999999	0.9671731999999338	1.0071242999999868	0.9627411999999822	n/a	1.0	n/a	1	0	41	2	go_punish	1	0	-1	1	1	1	1	n/a	n/a	0	0.3799418000000969	1.0	543.5215970000002	814.2105446	815.2258942000001	816.1930674	817.7177001	818.7248244	n/a	n/a	819.7309132	820.6936544	2020-06-10 13:21:05.525577	1.23035099340611	-0.79253007696396	-1.48929349387367	-1.71555294663266	-0.258942500467556	-1.48929349387367	-1.23035099340611	-0.79253007696396	-1.48929349387367	-0.258942500467556	-1.48929349387367	0.79253007696396	-1.3607794972216107	-1.6895922201440001	-1.7754907850091683	-3.3017422948354307	-1.8736052910439098	-1.7754907850091683	0.36998721073294516	-2.5049377866373415	-1.1441582894157356	-2.6096394379593084	-0.8554435671938586	1	missed	0.0
277.1275121000001	6.461927800000012	nogo_reward	0.7216816000000108	277.2160928999999	279.14295519999996	281.7072787999998	1.9268623000000389	278.22311119999995	280.6832959999999	282.71646409999994	0.9198440000000119	1.0239827999998852	0.9615565999999944	n/a	1.0	n/a	1	0	42	3	nogo_reward	0	1	0	0	1	0	0	n/a	n/a	1	0.7216816000000108	1.0	543.5215970000002	820.7376899000001	821.7447082000001	822.6645522000001	824.2048930000001	825.2288758	n/a	n/a	826.2380611000001	827.1996177000001	2020-06-10 13:21:05.525577	0.338001480662089	0.908943903857752	1.03488414335521	1.40285343588773	1.3728856240173	1.03488414335521	-0.338001480662089	0.908943903857752	1.03488414335521	1.3728856240173	1.03488414335521	8.917914367619497	-2.253129009965632	0.01188176067771185	0.7486868522197115	-0.18333591231504043	-0.2417771665590538	0.7486868522197115	8.495371501388483	-0.8731096621524854	1.3800193478131444	-0.9081654571375966	1.6687340700350215	1	missed	0.0
283.6310576000001	6.772200299999895	nogo_punish	0.6583923000000595	283.7196383999999	285.53309319999994	288.0891669	1.813454800000045	284.7291473999999	287.0651435	289.09841499999993	0.803945800000065	1.0240234000000328	1.3934236999998575	n/a	1.0	n/a	1	0	43	1	nogo_punish	1	-1	0	0	1	0	0	n/a	n/a	-1	0.6583923000000595	1.0	543.5215970000002	827.2412354	828.2507444	829.0546902000001	830.5867405000001	831.6107639000002	n/a	n/a	832.6200120000001	834.0134357	2020-06-10 13:21:05.525577	0.142047784278692	-1.17777317559087	-0.79253007696396	-1.46994152681881	-0.650482292685268	-0.79253007696396	-0.142047784278692	-1.17777317559087	-0.79253007696396	-0.650482292685268	-0.79253007696396	-6.37984908831849	-2.449082706349029	-2.0748353187709103	-1.0787273680994587	-3.0561308750215805	-2.265145083261622	-1.0787273680994587	-6.802391954549505	-2.8964775788550536	-0.4473948725060257	-2.9948825365862186	-0.15868015028414872	1	missed	0.0
290.44191539999997	6.8552113000000645	go_punish	0.2801793000000998	290.5304961999998	292.9963673999998	295.5432473999999	2.465871200000038	291.5358111999999	294.5287997999999	296.55574879999995	1.4605561999999281	1.0144476000000395	0.8299586999999065	n/a	1.0	n/a	1	0	44	2	go_punish	1	0	-1	1	1	1	0	n/a	n/a	0	0.2801793000000998	1.0	543.5215970000002	834.0520932	835.0574082	836.5179644	838.0503968	839.0648444000001	n/a	n/a	840.0773458000001	840.9073045	2020-06-10 13:21:05.525577	1.32164687970047	-0.696763416909709	-1.48929349387367	-1.51672906487639	-0.167646614173202	-1.48929349387367	-1.32164687970047	-0.696763416909709	-1.48929349387367	-0.167646614173202	-1.48929349387367	0.696763416909709	-1.269483610927251	-1.593825560089749	-1.7754907850091683	-3.1029184130791605	-1.7823094047495558	-1.7754907850091683	0.2742205506786941	-2.4136419003429874	-1.1441582894157356	-2.513872777905058	-0.8554435671938586	1	missed	0.0
297.36736670000005	5.912867600000027	nogo_reward	1.0	297.45594749999987	298.9039813999998	301.4448464999998	1.4480338999999276	298.4680358999999	300.4205943999998	302.4538055999999	0.43594549999988885	1.0242521000000124	0.9150094999999965	n/a	1.0	n/a	1	0	45	3	nogo_reward	1	0	1	0	0	1	0	n/a	n/a	1	1.0	1.0	543.5215970000002	840.9775445	841.9896329000001	842.4255784	843.9421914	844.9664435	n/a	n/a	845.9754026	846.8904121	2020-06-10 13:21:05.525577	-1.25033709340427	1.83546154993323	1.03488414335521	2.27562152628057	2.28522123675947	1.03488414335521	1.25033709340427	1.03488414335521	1.83546154993323	1.03488414335521	2.28522123675947	8.791974128122039	-3.8414675840319905	0.9383994067531899	0.7486868522197115	0.6894321780777994	0.6705584461831164	0.7486868522197115	8.369431261891023	-1.2111111428145753	2.6303564412174048	-0.7822252176401385	2.4693114766130413	1	missed	0.0
303.3185333000001	7.2085173000000395	nogo_reward	1.0	303.40711409999994	305.6365851999999	308.1685944999999	2.229471099999955	304.41970749999996	307.1465913999998	309.17535999999996	1.2168776999999409	1.02200310000012	1.4402714000000287	n/a	1.0	n/a	1	0	46	3	nogo_reward	0	1	0	0	0	1	0	n/a	n/a	0	1.0	1.0	543.5215970000002	846.9287111000001	847.9413045000001	849.1581822	850.6681884	851.6901915000001	n/a	n/a	852.6969570000001	854.1372284000001	2020-06-10 13:21:05.525577	-0.328469316220237	1.83546154993323	1.94382804721296	3.04385780609497	2.27229736343319	1.94382804721296	0.328469316220237	1.94382804721296	1.83546154993323	1.94382804721296	2.27229736343319	-1.94382804721296	-2.919599806847958	0.9383994067531899	1.6576307560774617	1.4576684578921995	0.6576345728568365	1.6576307560774617	-2.366370913443975	-0.3021672389568253	2.6174325678911243	0.1267186862176115	2.4693114766130413	1	missed	0.0
310.56376150000006	7.5295401999999285	nogo_punish	1.0	310.6523422999999	313.14931409999986	315.68176489999996	2.496971799999983	311.6662587999999	314.6661205999999	316.69488679999995	1.4830552999999327	1.0156443000000763	1.4869956999998521	n/a	1.0	n/a	1	0	47	1	nogo_punish	1	-1	0	0	0	1	0	n/a	n/a	0	1.0	1.0	543.5215970000002	854.1739393	855.1878558000001	856.6709111	858.1877176	859.2033619000001	n/a	n/a	860.2164838000001	861.7034795	2020-06-10 13:21:05.525577	0.497875836219341	-1.83392170895144	-0.79253007696396	-2.09339265018871	-1.2904059131833	-0.79253007696396	-0.497875836219341	-0.79253007696396	-1.83392170895144	-0.79253007696396	-1.2904059131833	0.79253007696396	-2.09325465440838	-2.73098385213148	-1.0787273680994587	-3.6795819983914804	-2.9050687037596536	-1.0787273680994587	0.36998721073294516	-3.038525363133745	-0.9452707087253656	-2.6096394379593084	-1.2000717822716287	1	missed	0.0
318.12987310000017	7.427490299999818	go_reward	0.3306373000000349	318.2184539	320.7976285999998	323.3481497999999	2.5791746999998395	319.2273447	322.3230199999998	324.36570559999996	1.570283899999822	1.0251298000000588	1.2802385999998478	n/a	1.0	n/a	1	0	48	4	go_reward	1	1	0	1	1	1	0	n/a	n/a	1	0.3306373000000349	1.0	543.5215970000002	861.7400509000001	862.7489417000002	864.3192256	865.844617	866.8697468	n/a	n/a	867.8873026000001	869.1675412	2020-06-10 13:21:05.525577	4.12909032868849	4.76615747657722	1.03488414335521	5.15919818220947	5.1639744720437	1.03488414335521	-4.12909032868849	4.76615747657722	1.03488414335521	5.1639744720437	1.03488414335521	5.060700794900029	1.5379598380607695	3.86909533339718	0.7486868522197115	3.573008834006699	3.549311681467346	0.7486868522197115	4.638157928669014	2.9179791858739144	1.3800193478131444	2.9490481155818715	1.6687340700350215	1	missed	0.0
325.60235980000016	6.593689199999972	nogo_punish	1.0	325.6909406	327.7085083999998	330.2300445999999	2.0175677999998243	326.70990719999986	329.2176146999998	331.2445995999999	0.9986011999999391	1.0124299000001429	1.0400302000000465	n/a	1.0	n/a	1	0	49	1	nogo_punish	1	-1	0	0	0	1	1	n/a	n/a	0	1.0	1.0	543.5215970000002	869.2125376000001	870.2315042	871.2301054	872.7392116999999	873.7516416000001	n/a	n/a	874.7661966000001	875.8062268000001	2020-06-10 13:21:05.525577	0.599065617751513	-1.83392170895144	-0.696763416909709	-1.85081515170109	-1.29582903466122	-0.696763416909709	-0.599065617751513	-0.696763416909709	-1.83392170895144	-0.696763416909709	-1.29582903466122	0.696763416909709	-1.9920648728762078	-2.73098385213148	-0.9829607080452075	-3.4370044999038605	-2.9104918252375738	-0.9829607080452075	0.2742205506786941	-2.9427587030794946	-0.9506938302032857	-2.513872777905058	-1.2000717822716287	1	missed	0.0
332.23543760000007	6.288960300000099	go_punish	0.7994556000001012	332.3240183999999	333.8407981999999	336.3877468999999	1.5167797999999948	333.3423527	335.36827859999994	337.40118069999994	0.49844549999988885	1.0194682999999714	1.2117980000000443	n/a	1.0	n/a	1	0	50	2	go_punish	1	0	-1	1	1	1	0	n/a	n/a	0	0.7994556000001012	1.0	543.5215970000002	875.8456154	876.8639497000001	877.3623952	878.8898756000001	879.9093439000001	n/a	n/a	880.9227777000001	882.1345757000001	2020-06-10 13:21:05.525577	1.40013231982583	-0.614254618743285	-1.48929349387367	-1.34423161522637	-0.089161174047835	-1.48929349387367	-1.40013231982583	-0.614254618743285	-1.48929349387367	-0.089161174047835	-1.48929349387367	0.614254618743285	-1.1909981708018909	-1.5113167619233252	-1.7754907850091683	-2.9304209634291407	-1.7038239646241888	-1.7754907850091683	0.19171175251227013	-2.3351564602176205	-1.1441582894157356	-2.4313639797386335	-0.8554435671938586	1	missed	0.0
338.5667781000002	5.840167599999859	nogo_punish	0.7574671999998372	338.6553589	340.12407489999987	342.6808048999999	1.4687159999998585	339.6640739999998	341.6569958	343.6900917999999	0.4600009000000682	1.0238090999998803	0.805434699999978	n/a	1.0	n/a	1	0	51	1	nogo_punish	1	-1	0	0	1	0	1	n/a	n/a	-1	0.7574671999998372	1.0	543.5215970000002	882.1769559000002	883.185671	883.6456719	885.1785928000002	886.2024019	n/a	n/a	887.2116888	888.0171235	2020-06-10 13:21:05.525577	-0.686459856805208	-1.83392170895144	-0.614254618743285	-1.64041837313239	-1.30071447554849	-0.614254618743285	0.686459856805208	-1.83392170895144	-0.614254618743285	-1.30071447554849	-0.614254618743285	-5.7237005549579205	-3.2775903474329287	-2.73098385213148	-0.9004519098787835	-3.2266077213351605	-2.915377266124844	-0.9004519098787835	-6.146243421188935	-3.5467097617182755	-0.2691194142853507	-3.6510310699467885	0.019595307936526307	1	missed	0.0
344.4419243	6.7208943000000545	go_punish	0.2971251999999822	344.5305050999998	346.4503195	349.0031869999998	1.9198144000001776	345.54587909999987	347.98270679999996	350.0157251999999	0.9044404000001123	1.020480199999838	1.2356741999999485	n/a	1.0	n/a	1	0	52	2	go_punish	1	0	-1	1	1	1	1	n/a	n/a	0	0.2971251999999822	1.0	543.5215970000002	888.0521021	889.0674761	889.9719165000001	891.5043038000001	892.524784	n/a	n/a	893.5373222000001	894.7729964	2020-06-10 13:21:05.525577	1.46786339140683	-0.542909457470701	-1.48929349387367	-1.19409405935939	-0.0214301024668425	-1.48929349387367	-1.46786339140683	-0.542909457470701	-1.48929349387367	-0.0214301024668425	-1.48929349387367	0.542909457470701	-1.1232670992208909	-1.439971600650741	-1.7754907850091683	-2.7802834075621607	-1.6360928930431962	-1.7754907850091683	0.12036659123968607	-2.267425388636628	-1.1441582894157356	-2.3600188184660498	-0.8554435671938586	1	missed	0.0
351.2032336	6.7115614000000505	go_reward	0.601600999999846	351.2918143999998	353.0666488999998	355.59685549999995	1.7748344999999972	352.3025312	354.58277799999996	356.60409649999997	0.7641176999998152	1.0140774999999849	1.3992792999998755	n/a	1.0	n/a	1	0	53	4	go_reward	0	0	1	1	1	1	0	n/a	n/a	0	0.601600999999846	1.0	543.5215970000002	894.8134114	895.8241282000001	896.5882459	898.1043750000001	899.1184525000001	n/a	n/a	900.1256935000001	901.5249728	2020-06-10 13:21:05.525577	4.60756170808346	5.25278653553772	1.03488414335521	5.60441795615291	5.64244585143866	1.03488414335521	-4.60756170808346	5.25278653553772	1.03488414335521	5.64244585143866	1.03488414335521	-5.25278653553772	2.016431217455739	4.35572439235768	0.7486868522197115	4.01822860795014	4.027783060862307	0.7486868522197115	-5.675329401768735	3.396450565268875	1.3800193478131444	3.4356771745423718	1.6687340700350215	1	missed	0.0
357.9591269	5.910195799999997	nogo_punish	1.0	358.0477076999998	359.3918309999998	361.9251033999999	1.3441232999999784	359.06486159999986	360.9007406999998	362.9333151999998	0.326969399999939	1.024362700000097	1.024588300000005	n/a	1.0	n/a	1	0	54	1	nogo_punish	0	0	-1	0	0	1	0	n/a	n/a	-1	1.0	1.0	543.5215970000002	901.5693047	902.5864586	902.913428	904.4223377	905.4467004	n/a	n/a	906.4549122	907.4795005	2020-06-10 13:21:05.525577	1.2491986376843	-2.41231636354237	-0.614254618743285	-2.24986441395337	-1.86345325642758	-0.614254618743285	-1.2491986376843	-0.614254618743285	-2.41231636354237	-0.614254618743285	-1.86345325642758	-6.9433676451660755	-1.3419318529434208	-3.3093785067224104	-0.9004519098787835	-3.8360537621561406	-3.478116047003934	-0.9004519098787835	-7.36591051139709	-2.8602499049130703	-1.5183180519696458	-2.4313639797386335	-1.778466436862559	1	missed	0.0
363.9148411	6.418196700000067	nogo_reward	1.0	364.0034218999998	365.8763668999999	368.40720199999987	1.8729450000000725	365.0093128999998	367.3932863	369.4203097999998	0.8670540000000528	1.0139156999998704	1.0013088000000607	n/a	1.0	n/a	1	0	55	3	nogo_reward	0	1	0	0	0	1	0	n/a	n/a	0	1.0	1.0	543.5215970000002	907.5250189	908.5309099	909.3979639	910.9148833000002	911.928799	n/a	n/a	912.9419068	913.9432156	2020-06-10 13:21:05.525577	-0.567397928108365	1.83546154993323	1.70952131043577	2.68704026342267	2.27691923854414	1.70952131043577	0.567397928108365	1.70952131043577	1.83546154993323	1.70952131043577	2.27691923854414	-1.70952131043577	-3.158528418736086	0.9383994067531899	1.4233240193002716	1.1008509152198995	0.6622564479677862	1.4233240193002716	-2.132064176666785	-0.5364739757340153	2.6220544430020745	-0.10758805055957854	2.4693114766130413	1	missed	0.0
370.37728100000004	6.103311200000007	nogo_reward	0.5477180000000317	370.46586179999986	372.0355271999998	374.59447269999987	1.5696653999999626	371.4737051999998	373.5749490999998	375.6022899999998	0.5618220000000065	1.0195236000000705	0.9668830000000526	n/a	1.0	n/a	1	0	56	3	nogo_reward	1	0	1	0	1	0	0	n/a	n/a	0	0.5477180000000317	1.0	543.5215970000002	913.9874588	914.9953022	915.5571242	917.0965461	918.1160697	n/a	n/a	919.123887	920.09077	2020-06-10 13:21:05.525577	0.773603323552418	1.83546154993323	1.50756645982778	2.37810453204924	2.2811697833802	1.50756645982778	-0.773603323552418	1.83546154993323	1.50756645982778	2.2811697833802	1.50756645982778	-1.83546154993323	-1.8175271670753028	0.9383994067531899	1.2213691686922816	0.7919151838464698	0.6665069928038463	1.2213691686922816	-2.258004416164245	0.03517449721041466	1.8527016642857144	0.018352188937881486	2.1414163865075913	1	missed	0.0
376.5184266	6.511808599999995	go_punish	0.7716969000000518	376.6070073999998	378.1604677999999	380.6905820999998	1.5534604000000627	377.61477879999984	379.67726189999985	381.7041162999999	0.5456890000000385	1.0133201999999528	1.4146996999999146	n/a	1.0	n/a	1	0	57	2	go_punish	1	0	-1	1	1	1	0	n/a	n/a	0	0.7716969000000518	1.0	543.5215970000002	920.1286044	921.1363758	921.6820648	923.1988589	924.2121791	n/a	n/a	925.2257133	926.640413	2020-06-10 13:21:05.525577	1.52652007527171	-0.48100975868116	-1.48929349387367	-1.06302772836749	0.0372265813980373	-1.48929349387367	-1.52652007527171	-0.48100975868116	-1.48929349387367	0.0372265813980373	-1.48929349387367	0.48100975868116	-1.0646104153560108	-1.3780719018612002	-1.7754907850091683	-2.6492170765702605	-1.5774362091783165	-1.7754907850091683	0.058466892450145136	-2.208768704771748	-1.1441582894157356	-2.2981191196765085	-0.8554435671938586	1	missed	0.0
383.0719037	5.874259199999983	go_reward	0.6946288999999979	383.1604844999998	384.5904741999998	387.1392739999999	1.4299896999999646	384.16977469999983	386.11500999999987	388.14306369999986	0.42069949999995515	1.0242640000000165	0.8916799999999512	n/a	1.0	n/a	1	0	58	4	go_reward	1	1	0	1	1	1	0	n/a	n/a	1	0.6946288999999979	1.0	543.5215970000002	926.6820815	927.6913717	928.1120712	929.636607	930.660871	n/a	n/a	931.6646607	932.5563407	2020-06-10 13:21:05.525577	4.01436659607556	4.65063533367576	1.03488414335521	4.96579007053176	5.04925073943077	1.03488414335521	-4.01436659607556	4.65063533367576	1.03488414335521	5.04925073943077	1.03488414335521	5.176222937801489	1.4232361054478395	3.75357319049572	0.7486868522197115	3.3796007223289894	3.434587948854416	0.7486868522197115	4.753680071570474	2.8032554532609844	1.3800193478131444	2.8335259726804116	1.6687340700350215	1	missed	0.0
388.9860932	7.476996299999996	nogo_punish	1.0	389.07467399999985	391.8439578	394.38031639999986	2.769283800000153	390.08672639999986	393.36051339999983	395.3933563999998	1.757231400000137	1.0198030000000244	1.1583139000000529	n/a	1.0	n/a	1	0	59	1	nogo_punish	1	-1	0	0	0	1	0	n/a	n/a	0	1.0	1.0	543.5215970000002	932.596271	933.6083234	935.3655548000002	936.8821104	937.9019134	n/a	n/a	938.9149534	940.0732673	2020-06-10 13:21:05.525577	0.513888927058032	-2.41231636354237	-1.33543953443466	-2.78682548847964	-1.84932846149269	-1.33543953443466	-0.513888927058032	-1.33543953443466	-2.41231636354237	-1.33543953443466	-1.84932846149269	1.33543953443466	-2.0772415635696886	-3.3093785067224104	-1.6216368255701585	-4.373014836682411	-3.463991252069044	-1.6216368255701585	0.912896668203645	-3.5814348206044455	-1.5041932570347556	-3.1525488954300087	-1.778466436862559	1	missed	0.0
396.5092794000001	6.54000469999994	go_punish	0.4073737999999594	396.5978601999999	398.3924739999999	400.9389765999998	1.7946137999999792	397.6132485999998	399.9249126999998	401.95226319999983	0.7792254000000867	1.0140638999999965	1.1856017000000065	n/a	1.0	n/a	1	0	60	2	go_punish	1	0	-1	1	1	1	0	n/a	n/a	0	0.4073737999999594	1.0	543.5215970000002	940.1194572	941.1348456	941.914071	943.4465097	944.4605736	n/a	n/a	945.4738602	946.6594619	2020-06-10 13:21:05.525577	1.57748423628205	-0.427137013244199	-1.48929349387367	-0.94829089960639	0.0881907424083769	-1.48929349387367	-1.57748423628205	-0.427137013244199	-1.48929349387367	0.0881907424083769	-1.48929349387367	0.427137013244199	-1.0136462543456708	-1.3241991564242392	-1.7754907850091683	-2.5344802478091606	-1.5264720481679768	-1.7754907850091683	0.004594147013184113	-2.1578045437614084	-1.1441582894157356	-2.2442463742395478	-0.8554435671938586	1	missed	0.0
