onset	duration	trial_type	response_time	cueOnset	targetOnset	fbOnset	cueRT	firstfixOnset	secondfixOnset	waitOnset	firstfixdur	secondfixdur	waitdur	nback_fbOnset	nback_response_time	nback_targetOnset	block	wm	trial	cue	cond	is_common	outcome_go	outcome_nogo	key_correct	key_pressed	is_correct	key_correct_nback	key_pressed_nback	is_correct_nback	outcome	rt	rt_nback	time_scan	time_onset	time_isi1	time_circle	time_isi2	time_feedback	time_same	time_correct	time_iti	time_done	timestamp_scan	DV	Qgo	Qnogo	SV	Wgo	Wnogo	mDV	Qchosen	Qunchosen	Wchosen	Wunchosen	PE	DVC	QgoC	QnogoC	SVC	WgoC	WnogoC	PEC	WchosenC	WunchosenC	QchosenC	QunchosenC	run	outcome_nback	nback_targetResp
0.0	8.440762200043594	go_reward	0.7357016000896692	0.05108859995380044	1.9805169999599457	4.525034299935214	1.9294284000061452	1.057626299909316	3.5098381999414983	7.569505799910985	0.9228907000506297	1.015196099993716	0.9223450000864091	6.556220299913548	1.0	5.548069400014356	1	1	1	2	go_reward	1	1	0	1	1	1	0	n/a	0.0	0	0.7357016000896692	1.0	425.1126419000793	425.1637305000331	426.17026819998864	427.09315890003927	428.6224801000208	429.63767620001454	430.6607113000937	431.6688621999929	432.6821476999903	433.6044927000767	2019-12-24 16:23:19.625425	0.85242922141325	0.0	0.0	0.0	0.85242922141325	0.0	-0.85242922141325	0.0	0.0	0.85242922141325	0.0	33.4667716302243	-9.033162930194518	-4.5150042432096775	-0.877616421037602	-6.5790956827004266	-5.803394423962641	-0.877616421037602	32.38271824910497	-7.857086887597382	1.1760760425971362	-6.845975453682052	1.453354789434769	1	missed	0.0
8.474527499987744	8.589052699971944	go_punish	0.5786291999975219	8.525616099941544	10.503750999923795	13.047882999991998	1.9781348999822512	9.534733299980871	12.034294600016437	16.074266899959184	0.9690176999429241	1.0135883999755606	1.040401899954304	15.067631999962032	1.0	14.057325199944898	1	1	2	4	go_punish	1	0	-1	1	1	1	0	n/a	0.0	-1	0.5786291999975219	1.0	425.1126419000793	433.63825800002087	434.6473752000602	435.6163929000031	437.14693650009576	438.1605249000713	439.1699671000242	440.18027390004136	441.1869088000385	442.2273106999928	2019-12-24 16:23:19.625425	0.85242922141325	0.0	0.0	0.0	0.85242922141325	0.0	-0.85242922141325	0.0	0.0	0.85242922141325	0.0	0.0	-9.033162930194518	-4.5150042432096775	-0.877616421037602	-6.5790956827004266	-5.803394423962641	-0.877616421037602	-1.08405338111933	-7.857086887597382	1.1760760425971362	-6.845975453682052	1.453354789434769	1	missed	0.0
17.10759789997246	9.064812800032087	nogo_punish	0.5086972999852151	17.15868649992626	19.59961369994562	22.14897259999998	2.4409272000193596	18.15582889993675	21.12942499993369	25.198859700001776	1.4437848000088707	1.0195476000662893	1.024639599956572	24.191889900015667	0.5186659999890253	23.167788799968548	1	1	3	3	nogo_punish	0	0	-1	0	1	0	0	0.0	1.0	0	0.5086972999852151	0.5186659999890253	425.1126419000793	442.2713284000056	443.2684708000161	444.71225560002495	446.242066900013	447.2616145000793	448.2804307000479	449.304531800095	450.3115016000811	451.3361412000377	2019-12-24 16:23:19.625425	0.85242922141325	0.0	0.0	0.0	0.85242922141325	0.0	-0.85242922141325	0.0	0.0	0.85242922141325	0.0	0.0	-9.033162930194518	-4.5150042432096775	-0.877616421037602	-6.5790956827004266	-5.803394423962641	-0.877616421037602	-1.08405338111933	-7.857086887597382	1.1760760425971362	-6.845975453682052	1.453354789434769	1	correct	1.0
26.211041999980807	8.935690200072713	nogo_reward	0.2942320000147447	26.262130599934608	28.62705669994466	31.18452129990328	2.3649261000100523	27.27648689993657	30.16964119998738	34.21981349994894	1.3505698000080884	1.0148800999158993	0.9780073000583798	33.216735899914056	0.5075430000433698	32.20283339999145	1	1	4	1	nogo_reward	1	0	1	0	1	0	0	0.0	1.0	0	0.2942320000147447	0.5075430000433698	425.1126419000793	451.37477250001393	452.3891288000159	453.739698600024	455.2822831000667	456.2971631999826	457.3154753000708	458.3293777999934	459.33245540002827	460.31046270008665	2019-12-24 16:23:19.625425	0.85242922141325	0.0	0.0	0.0	0.85242922141325	0.0	-0.85242922141325	0.0	0.0	0.85242922141325	0.0	0.0	-9.033162930194518	-4.5150042432096775	-0.877616421037602	-6.5790956827004266	-5.803394423962641	-0.877616421037602	-1.08405338111933	-7.857086887597382	1.1760760425971362	-6.845975453682052	1.453354789434769	1	correct	1.0
35.17932810005726	8.14832679997204	go_punish	1.0	35.23041670001106	36.920632599969395	39.43649310001638	1.690215899958332	36.24933239992242	38.4264617000008	42.47916119999718	0.6713002000469714	1.0100314000155777	0.8995822999859229	41.46498109993985	1.0	40.45486329996493	1	1	5	4	go_punish	0	-1	0	1	0	0	0	n/a	0.0	0	1.0	1.0	425.1126419000793	460.3430586000904	461.36197430000175	462.0332745000487	463.5391036000801	464.5491350000957	465.56750520004425	466.5776230000192	467.5918031000765	468.4913854000624	2019-12-24 16:23:19.625425	1.03799476140447	-2.00365639225761	0.0	-2.00365639225761	-1.03799476140447	0.0	-1.03799476140447	0.0	-2.00365639225761	0.0	-1.03799476140447	0.0	-8.847597390203298	-6.518660635467287	-0.877616421037602	-8.582752074958037	-7.693818406780361	-0.877616421037602	-1.08405338111933	-8.709516109010632	0.13808128119266616	-6.845975453682052	-0.5503016028228409	1	missed	0.0
43.35994660004508	8.205984400003217	go_punish	1.0	43.41103519999888	44.80209989997098	47.33355410001235	1.3910646999721052	44.42121800000314	46.31346879992634	50.37374029995408	0.3808818999678465	1.0200853000860093	1.243279300048016	49.361236799973994	0.5265109000029042	48.342892899992876	1	1	6	4	go_punish	0	-1	0	1	0	0	0	0.0	1.0	0	1.0	0.5265109000029042	425.1126419000793	468.5236771000782	469.53385990008246	469.9147418000503	471.42611070000567	472.4461960000917	473.4555348000722	474.4738787000533	475.4863822000334	476.7296615000814	2019-12-24 16:23:19.625425	1.06874092669425	-2.00365639225761	0.0	-1.55580398758268	-1.06874092669425	0.0	-1.06874092669425	0.0	-2.00365639225761	0.0	-1.06874092669425	0.0	-8.816851224913517	-6.518660635467287	-0.877616421037602	-8.134899670283106	-7.7245645720701415	-0.877616421037602	-1.08405338111933	-8.709516109010632	0.10733511590288614	-6.845975453682052	-0.5503016028228409	1	correct	1.0
51.60565459995996	8.824747600010596	nogo_punish	0.28117019997444	51.65674319991376	53.449210899998434	56.007481599925086	1.7924677000846714	52.66750310000498	54.98320739995688	59.06632310000714	0.7817077999934554	1.024274199968204	1.4151676999172196	58.04948529996909	0.79682040004991	57.01158389996277	1	1	7	3	nogo_punish	1	-1	0	0	1	0	0	0.0	1.0	-1	0.28117019997444	0.79682040004991	425.1126419000793	476.7693850999931	477.7801450000843	478.56185280007776	480.0958493000362	481.1201235000044	482.1242258000421	483.1621272000484	484.17896500008646	485.5941327000037	2019-12-24 16:23:19.625425	0.85242922141325	0.0	0.0	0.0	0.85242922141325	0.0	-0.85242922141325	0.0	0.0	0.85242922141325	0.0	-10.5958368397718	-9.033162930194518	-4.5150042432096775	-0.877616421037602	-6.5790956827004266	-5.803394423962641	-0.877616421037602	-11.679890220891131	-7.857086887597382	1.1760760425971362	-6.845975453682052	1.453354789434769	1	correct	1.0
60.467642699950375	9.194662200054154	nogo_punish	1.0	60.518731299904175	63.2409917999758	65.77510480000637	2.722260500071627	61.53249619994318	64.7516027999809	68.80755869997665	1.7084956000326201	1.0235020000254735	0.905834799981676	67.80319299991243	0.4974192000227049	66.78400220000185	1	1	8	3	nogo_punish	0	0	-1	0	0	1	0	0.0	1.0	-1	1.0	0.4974192000227049	425.1126419000793	485.6313731999835	486.6451381000225	488.3536337000551	489.8642447000602	490.8877467000857	491.8966441000812	492.91583489999175	493.920200600056	494.82603540003765	2019-12-24 16:23:19.625425	1.03799476140447	-2.00365639225761	0.0	-2.00365639225761	-1.03799476140447	0.0	-1.03799476140447	0.0	-2.00365639225761	0.0	-1.03799476140447	-10.5958368397718	-8.847597390203298	-6.518660635467287	-0.877616421037602	-8.582752074958037	-7.693818406780361	-0.877616421037602	-11.679890220891131	-8.709516109010632	0.13808128119266616	-6.845975453682052	-0.5503016028228409	1	correct	1.0
69.69552219996694	8.884229200077243	nogo_reward	0.2542278000619262	69.74661079992075	71.5922819999978	74.13485529995523	1.8456712000770494	70.74848469998688	73.12285349995364	77.19301039993297	0.8437973000109196	1.012001800001599	1.4378296000650153	76.18021939997556	0.4511989000020548	75.15213239996228	1	1	9	1	nogo_reward	1	0	1	0	1	0	0	0.0	1.0	0	0.2542278000619262	0.4511989000020548	425.1126419000793	494.85925270000007	495.8611266000662	496.7049239000771	498.23549540003296	499.24749720003456	500.2647743000416	501.2928613000549	502.3056523000123	503.7434819000773	2019-12-24 16:23:19.625425	0.85242922141325	0.0	0.0	0.0	0.85242922141325	0.0	-0.85242922141325	0.0	0.0	0.85242922141325	0.0	0.0	-9.033162930194518	-4.5150042432096775	-0.877616421037602	-6.5790956827004266	-5.803394423962641	-0.877616421037602	-1.08405338111933	-7.857086887597382	1.1760760425971362	-6.845975453682052	1.453354789434769	1	correct	1.0
78.61387370002927	8.843423199956248	go_reward	0.4705362000968307	78.66496229998307	80.62178519996809	83.17603669990785	1.9568228999850135	79.66249169991346	82.15223749994766	86.21790719998535	0.9592935000546277	1.0237991999601945	1.2904782999539748	85.20498939999379	0.5720746000297368	84.18037789990194	1	1	10	2	go_reward	1	1	0	1	1	1	0	0.0	1.0	1	0.4705362000968307	0.5720746000297368	425.1126419000793	503.7776042000624	504.7751335999928	505.7344271000474	507.264879400027	508.2886785999872	509.29301979998127	510.3176313000731	511.3305491000647	512.6210274000186	2019-12-24 16:23:19.625425	0.85242922141325	0.0	0.0	0.0	0.85242922141325	0.0	-0.85242922141325	0.0	0.0	0.85242922141325	0.0	33.4667716302243	-9.033162930194518	-4.5150042432096775	-0.877616421037602	-6.5790956827004266	-5.803394423962641	-0.877616421037602	32.38271824910497	-7.857086887597382	1.1760760425971362	-6.845975453682052	1.453354789434769	1	correct	1.0
87.49422750005033	8.077138399938121	nogo_punish	1.0	87.54531610000413	89.27289469994139	91.80666020000353	1.7275785999372602	88.54975140001625	90.78698739991523	94.84666179993656	0.723143299925141	1.0196728000883013	0.7757927000056952	93.84666389995255	0.5140114999376237	92.82542329991702	1	1	11	3	nogo_punish	1	-1	0	0	0	1	0	1.0	0.0	0	1.0	0.5140114999376237	425.1126419000793	512.6579580000835	513.6623933000956	514.3855366000207	515.8996292999946	516.9193021000829	517.9380651999963	518.9593058000319	519.9593037000159	520.7350964000216	2019-12-24 16:23:19.625425	-1.04814787500325	-2.00365639225761	-2.00365639225761	-3.55946037984029	-0.955508517254358	-2.00365639225761	1.04814787500325	-2.00365639225761	-2.00365639225761	-2.00365639225761	-0.955508517254358	2.00365639225761	-10.933740026611018	-6.518660635467287	-2.8812728132952117	-10.138556062540717	-7.61133216263025	-2.8812728132952117	0.9196030111382798	-10.713172501268243	0.22056752534277813	-8.849631845939662	-0.5503016028228409	1	wrong	1.0
95.60448400001042	8.922039899975061	nogo_reward	1.0	95.65557259996422	98.07932009990327	100.60348920000251	2.4237474999390543	96.64843820000533	99.58980409998912	103.64071690000128	1.4308818998979405	1.0136851000133902	0.9368955999379978	102.6365300999023	0.4679238999960944	101.60738529998343	1	1	12	1	nogo_reward	1	0	1	0	0	1	0	0.0	1.0	1	1.0	0.4679238999960944	425.1126419000793	520.7682145000435	521.7610801000847	523.1919619999826	524.7024460000684	525.7161311000818	526.7200272000628	527.7491719999816	528.7533588000806	529.6902544000186	2019-12-24 16:23:19.625425	-0.85242922141325	0.0	0.0	0.0	0.85242922141325	0.0	0.85242922141325	0.0	0.0	0.0	0.85242922141325	33.4667716302243	-10.738021373021017	-4.5150042432096775	-0.877616421037602	-6.5790956827004266	-5.803394423962641	-0.877616421037602	32.38271824910497	-8.709516109010632	2.028505264010386	-6.845975453682052	1.453354789434769	1	correct	1.0
104.56038170005195	8.630002899910323	go_punish	0.3247123999753967	104.61147030000575	106.17475120001473	108.71514899993781	1.5632809000089765	105.62821979995351	107.70292770001106	111.76366419997066	0.5465314000612125	1.0122212999267504	1.4778089999454096	110.75016709999181	0.3660964999580756	109.73734559991863	1	1	13	4	go_punish	1	0	-1	1	1	1	0	0.0	1.0	0	0.3247123999753967	0.3660964999580756	425.1126419000793	529.7241122000851	530.7408617000328	531.287393100094	532.8155696000904	533.8277909000171	534.849987499998	535.8628090000711	536.87630610005	538.3541150999954	2019-12-24 16:23:19.625425	-1.09037673329355	-2.00365639225761	0.0	-1.22372915847585	-1.09037673329355	0.0	1.09037673329355	-2.00365639225761	0.0	-1.09037673329355	0.0	2.00365639225761	-10.975968884901317	-6.518660635467287	-0.877616421037602	-7.802824841176276	-7.746200378669441	-0.877616421037602	0.9196030111382798	-9.799892842304182	1.1760760425971362	-8.849631845939662	1.453354789434769	1	correct	1.0
113.22465069999453	8.982538299984299	go_punish	1.0	113.27573929994833	115.45545399992261	117.99426259996835	2.1797146999742836	114.28361019992735	116.97056439996231	121.03042640001513	1.1718437999952585	1.023698200006038	1.2278511999174953	120.01684509997722	0.6962201000424102	118.99916779994965	1	1	14	4	go_punish	1	0	-1	1	0	0	0	0.0	1.0	-1	1.0	0.6962201000424102	425.1126419000793	538.3883812000277	539.3962521000067	540.5680959000019	542.0832063000416	543.1069045000477	544.111809700029	545.1294870000565	546.1430683000945	547.370919500012	2019-12-24 16:23:19.625425	0.657998898258026	-1.55580398758268	0.0	-0.973444496306284	-0.657998898258026	0.0	-0.657998898258026	0.0	-1.55580398758268	0.0	-0.657998898258026	-10.5958368397718	-9.227593253349742	-6.070808230792357	-0.877616421037602	-7.55254017900671	-7.3138225436339175	-0.877616421037602	-11.679890220891131	-8.709516109010632	0.5180771443391101	-6.845975453682052	-0.10244919814791098	1	correct	1.0
122.24614800000563	8.349627000046894	nogo_punish	1.0	122.29723659995943	123.87175729998853	126.39746629993897	1.5745207000290975	123.30877919995692	125.3768270999426	129.44938719994389	0.5629781000316143	1.020639199996367	1.1974764000624418	128.43214499996975	0.5003937999717891	127.41403330001049	1	1	15	3	nogo_punish	1	-1	0	0	0	1	0	0.0	1.0	0	1.0	0.5003937999717891	425.1126419000793	547.4098785000388	548.4214211000362	548.9843992000679	550.4894690000219	551.5101082000183	552.5266752000898	553.5447869000491	554.5620291000232	555.7595055000857	2019-12-24 16:23:19.625425	-0.547913498439237	-2.00365639225761	-1.55580398758268	-2.77953314605853	-1.00789048914344	-1.55580398758268	0.547913498439237	-1.55580398758268	-2.00365639225761	-1.55580398758268	-1.00789048914344	1.55580398758268	-10.433505650047005	-6.518660635467287	-2.433420408620282	-9.358628828758956	-7.663714134519331	-2.433420408620282	0.4717506064633499	-10.265320096593312	0.16818555345369623	-8.401779441264733	-0.5503016028228409	1	correct	1.0
130.62894990004133	8.455097800004296	nogo_reward	1.0	130.68003849999513	132.24462239991408	134.76422209991142	1.5645838999189436	131.682244699914	133.7495471999282	137.8155963999452	0.56237770000007	1.0146748999832198	1.3195399000542238	136.7964757999871	0.6375290000578389	135.7669162999373	1	1	16	1	nogo_reward	1	0	1	0	0	1	0	0.0	1.0	1	1.0	0.6375290000578389	425.1126419000793	555.7926804000745	556.7948865999933	557.3572642999934	558.8621891000075	559.8768639999907	560.8795582000166	561.9091177000664	562.9282383000245	564.2477782000788	2019-12-24 16:23:19.625425	6.34513599564212	0.0	7.04908208158338	7.04908208158338	0.703946085941258	7.04908208158338	-6.34513599564212	7.04908208158338	0.0	7.04908208158338	0.703946085941258	26.417689548640922	-3.5404561559656473	-4.5150042432096775	6.1714656605457785	0.4699863988829538	-5.951877559434633	6.1714656605457785	25.333636167521593	-1.660434027427252	1.880022128538394	0.20310662790132827	1.453354789434769	1	correct	1.0
139.11824239999987	7.8132312999805436	go_reward	0.8386966000543907	139.16933099995367	140.46766209998168	143.02178740000818	1.2983311000280082	140.18590059992857	141.99786229990423	146.05142919998616	0.28176150005310774	1.023925100103952	0.931133099948056	145.03820939990692	0.505813300027512	144.02469999995083	1	1	17	2	go_reward	1	1	0	1	1	1	0	0.0	1.0	1	0.8386966000543907	0.505813300027512	425.1126419000793	564.281972900033	565.2985425000079	565.580304000061	567.1105041999836	568.1344293000875	569.1373419000302	570.1508512999862	571.1640711000655	572.0952042000135	2019-12-24 16:23:19.625425	7.75302816752464	7.04908208158338	0.0	7.04908208158338	7.75302816752464	0.0	-7.75302816752464	7.04908208158338	0.0	7.75302816752464	0.0	26.417689548640922	-2.132563984083127	2.534077838373703	-0.877616421037602	0.4699863988829538	1.0972045221487488	-0.877616421037602	25.333636167521593	-0.9564879414859924	1.1760760425971362	0.20310662790132827	1.453354789434769	1	correct	1.0
146.96492169995327	8.384257900062948	nogo_reward	1.0	147.01601029990707	148.44437529996503	150.98026219999883	1.4283650000579655	148.017848999938	149.9561714999145	153.99951519991737	0.4265263000270352	1.0240907000843436	1.4007530000526458	152.99679889995605	0.3815872999839484	151.98394850001205	1	1	18	1	nogo_reward	1	0	1	0	0	1	1	1.0	1.0	1	1.0	0.3815872999839484	425.1126419000793	572.1286521999864	573.1304909000173	573.5570172000444	575.0688133999938	576.0929041000782	577.0965904000914	578.1094408000354	579.1121570999967	580.5129101000493	2019-12-24 16:23:19.625425	11.7393021152896	0.0	12.3549920509081	12.3549920509081	0.615689935618471	12.3549920509081	-11.7393021152896	12.3549920509081	0.0	12.3549920509081	0.615689935618471	21.1117795793162	1.8537099636818333	-4.5150042432096775	11.477375629870497	5.775896368207674	-6.04013370975742	11.477375629870497	20.02772619819687	3.645475941897468	1.791765978215607	5.509016597226048	1.453354789434769	1	correct	1.0
155.3839712999761	8.509654800058343	go_reward	0.8681145999580622	155.4350598999299	156.94925890001468	159.49033409997355	1.5141990000847727	156.4485391000053	158.47397409996483	162.54498919995967	0.5007198000093922	1.0163600000087172	1.3997255000285804	161.5324354999466	0.5181984000373632	160.5032992999768	1	1	19	2	go_reward	1	1	0	1	1	1	1	1.0	1.0	1	0.8681145999580622	0.5181984000373632	425.1126419000793	580.5477018000092	581.5611810000846	582.061900800094	583.5866160000442	584.6029760000529	585.6159412000561	586.6450774000259	587.657631100039	589.0573566000676	2019-12-24 16:23:19.625425	12.9706819865266	12.3549920509081	0.0	12.3549920509081	12.9706819865266	0.0	-12.9706819865266	12.3549920509081	0.0	12.9706819865266	0.0	21.1117795793162	3.0850898349188327	7.839987807698423	-0.877616421037602	5.775896368207674	6.314858341150709	-0.877616421037602	20.02772619819687	4.2611658775159675	1.1760760425971362	5.509016597226048	1.453354789434769	1	correct	1.0
163.93165759998374	8.749381600064225	nogo_punish	0.2975372000364586	163.98274619993754	166.38180159998592	168.92774590000045	2.3990554000483826	164.97429819998797	167.91289209993556	171.9729829999851	1.4075033999979496	1.0148538000648841	0.7591448000166565	170.9693111999659	0.8504279999760911	169.9480356000131	1	1	20	3	nogo_punish	1	-1	0	0	1	0	0	0.0	1.0	-1	0.2975372000364586	0.8504279999760911	425.1126419000793	589.0953881000169	590.0869401000673	591.4944435000652	593.0255340000149	594.0403878000798	595.0606775000924	596.0819531000452	597.0856249000644	597.8447697000811	2019-12-24 16:23:19.625425	0.178728293093697	-2.00365639225761	-1.22372915847585	-2.19717365478213	-1.04500086538215	-1.22372915847585	-0.178728293093697	-2.00365639225761	-1.22372915847585	-1.04500086538215	-1.22372915847585	-8.592180447514192	-9.70686385851407	-6.518660635467287	-2.101345579513452	-8.776269337482557	-7.700824510758041	-2.101345579513452	-9.676233828633523	-9.754516974392782	-0.0476531158787139	-8.849631845939662	0.22962563095891886	1	correct	1.0
172.71488400001545	8.571595399989747	go_punish	0.2367188000353053	172.76597259996925	174.54077640001196	177.07019949995447	1.7748038000427186	173.7677982999012	176.0580560999224	180.1253982000053	0.7729781001107767	1.0121434000320733	1.2121697999536991	179.11113530001603	0.5096038000192493	178.08574579993729	1	1	21	4	go_punish	1	0	-1	1	1	1	0	0.0	1.0	0	0.2367188000353053	0.5096038000192493	425.1126419000793	597.8786145000486	598.8804401999805	599.6534183000913	601.1706980000017	602.1828414000338	603.1983877000166	604.2237772000954	605.2380401000846	606.4502099000383	2019-12-24 16:23:19.625425	1.44766836247212	-1.55580398758268	-2.00365639225761	-2.78577061440959	-0.555988029785488	-2.00365639225761	-1.44766836247212	-1.55580398758268	-2.00365639225761	-0.555988029785488	-2.00365639225761	1.55580398758268	-8.437923789135647	-6.070808230792357	-2.8812728132952117	-9.364866297110016	-7.211811675161379	-2.8812728132952117	0.4717506064633499	-9.265504138796121	-0.8275803496604737	-8.401779441264733	-0.5503016028228409	1	correct	1.0
181.32032509997953	8.525236000074074	nogo_reward	1.0	181.37141369993333	183.23177829990163	185.75100499996915	1.8603645999683067	182.3884777999483	184.72584289999213	188.78712300001644	0.8433004999533296	1.025162099977024	1.1095266999909654	187.7830980999861	0.5610285000875592	186.76549479993992	1	1	22	1	nogo_reward	1	0	1	0	0	1	0	0.0	1.0	1	1.0	0.5610285000875592	425.1126419000793	606.4840556000127	607.5011197000276	608.344420199981	609.8384848000715	610.8636469000485	611.8781367000192	612.8957400000654	613.8997649000958	615.0092916000867	2019-12-24 16:23:19.625425	15.8471209223366	0.0	16.412282402386	16.412282402386	0.565161480049366	16.412282402386	-15.8471209223366	16.412282402386	0.0	16.412282402386	0.565161480049366	17.0544892278383	5.961528770728833	-4.5150042432096775	15.534665981348398	9.833186719685575	-6.090662165326525	15.534665981348398	15.970435846718969	7.702766293375369	1.741237522646502	9.56630694870395	1.453354789434769	1	correct	1.0
189.88140039995778	9.233035800047219	nogo_reward	1.0	189.93248899991158	192.23179529991467	194.75799650000408	2.2993063000030816	190.95036949997302	193.74656030000187	197.81645389995538	1.281425799941644	1.0114362000022084	1.3490709000034258	196.8037040999625	0.7482326999306679	195.7740824999055	1	1	23	1	nogo_reward	0	1	0	0	0	1	0	0.0	1.0	0	1.0	0.7482326999306679	425.1126419000793	615.0451308999909	616.0630114000523	617.344437199994	618.8592022000812	619.8706384000834	620.8867243999848	621.9163460000418	622.9290958000347	624.2781667000381	2019-12-24 16:23:19.625425	19.019316679739	0.0	19.5576849255418	19.5576849255418	0.53836824580279	19.5576849255418	-19.019316679739	19.5576849255418	0.0	19.5576849255418	0.53836824580279	-19.5576849255418	9.133724528131232	-4.5150042432096775	18.6800685045042	12.978589242841373	-6.117455399573101	18.6800685045042	-20.64173830666113	10.848168816531167	1.714444288399926	12.711709471859749	1.453354789434769	1	correct	1.0
199.15364419994876	7.916511500021443	nogo_punish	0.321928400080651	199.20473279990256	200.56653029995505	203.11871820001397	1.3617975000524893	200.20650600001682	202.10243069997523	206.15904539998155	0.3600242999382317	1.016287500038743	0.9621988999424502	205.1464968000073	0.7064898000098765	204.12101279990748	1	1	24	3	nogo_punish	1	-1	0	0	1	0	0	0.0	1.0	-1	0.321928400080651	0.7064898000098765	425.1126419000793	624.3173746999819	625.3191479000961	625.6791722000344	627.2150726000546	628.2313601000933	629.2336546999868	630.2591387000866	631.2716873000609	632.2338862000033	2019-12-24 16:23:19.625425	-1.29053939565585	-3.55946037984029	-1.22372915847585	-3.75921511071587	-2.5142685541317	-1.22372915847585	1.29053939565585	-3.55946037984029	-1.22372915847585	-2.5142685541317	-1.22372915847585	-7.03637645993151	-11.176131547263617	-8.074464623049968	-2.101345579513452	-10.338310793416296	-9.170092199507591	-2.101345579513452	-8.120429841050841	-11.223784663142332	-0.0476531158787139	-10.405435833522342	0.22962563095891886	1	correct	1.0
207.1095305000199	8.66439279995393	nogo_punish	1.0	207.1606190999737	208.86591519997455	211.39074860000983	1.7052961000008509	208.1721124999458	210.37073600001168	214.42531749990303	0.6938027000287548	1.0200125999981537	1.3996944000246003	213.4211401999928	0.4574068000074476	212.40809879999142	1	1	25	3	nogo_punish	1	-1	0	0	0	1	0	0.0	1.0	0	1.0	0.4574068000074476	425.1126419000793	632.273261000053	633.2847544000251	633.9785571000539	635.483377900091	636.5033905000892	637.5207407000707	638.5337821000721	639.5379593999824	640.937653800007	2019-12-24 16:23:19.625425	2.4512385204558	-4.78318953831614	-1.22372915847585	-4.97559658899626	-3.67496767893165	-1.22372915847585	-2.4512385204558	-1.22372915847585	-4.78318953831614	-1.22372915847585	-3.67496767893165	1.22372915847585	-7.434353631151968	-9.298193781525818	-2.101345579513452	-11.554692271696688	-10.33079132430754	-2.101345579513452	0.13967577735652004	-9.933245267486482	-2.498891636334514	-8.069704612157903	-3.329834748881371	1	correct	1.0
215.80869019997772	9.28324620006606	go_punish	0.3817647999385372	215.85977879993152	218.48071029991843	221.03994589997455	2.6209314999869093	216.87585750001017	220.0190921999747	224.0966150999302	1.604852799908258	1.0208536999998614	1.046409900067374	223.08349659992382	0.3878010000335052	222.05771039996762	1	1	26	4	go_punish	1	0	-1	1	1	1	0	0.0	1.0	0	0.3817647999385372	0.3878010000335052	425.1126419000793	640.9724207000108	641.9884994000895	643.5933521999978	645.131734100054	646.1525878000539	647.1703523000469	648.1961385000031	649.2092570000095	650.2556669000769	2019-12-24 16:23:19.625425	1.74076235678231	-1.22372915847585	-2.00365639225761	-2.18982597458667	-0.2628940354753	-2.00365639225761	-1.74076235678231	-1.22372915847585	-2.00365639225761	-0.2628940354753	-2.00365639225761	1.22372915847585	-8.144829794825457	-5.738733401685527	-2.8812728132952117	-8.768921657287096	-6.918717680851191	-2.8812728132952117	0.13967577735652004	-8.972410144485933	-0.8275803496604737	-8.069704612157903	-0.5503016028228409	1	correct	1.0
225.12679719994776	8.750221400056034	go_reward	0.5830961999017745	225.17788579990156	226.95947819994763	229.49176609993447	1.7815924000460654	226.19403499993496	228.47971270000562	232.5417969999835	0.765443200012669	1.0120533999288455	1.3863101999741048	231.52876629994716	0.3384386000689119	230.50011909997556	1	1	27	2	go_reward	0	0	1	1	1	1	0	0.0	1.0	0	0.5830961999017745	0.3384386000689119	425.1126419000793	650.2905276999809	651.3066769000143	652.072120100027	653.592354600085	654.6044080000138	655.6127610000549	656.6414082000265	657.6544389000628	659.0407491000369	2019-12-24 16:23:19.625425	16.9774438824354	16.412282402386	0.0	16.412282402386	16.9774438824354	0.0	-16.9774438824354	16.412282402386	0.0	16.9774438824354	0.0	-16.412282402386	7.091851730827631	11.897278159176324	-0.877616421037602	9.833186719685575	10.321620237059507	-0.877616421037602	-17.49633578350533	8.267927773424766	1.1760760425971362	9.56630694870395	1.453354789434769	1	correct	1.0
233.9168345000362	8.70902389998082	go_punish	0.1698352999519556	233.96792309999	235.96269720001146	238.50246029999107	1.9947741000214592	234.97251439990941	237.4934973999625	241.5416732999729	0.9901828001020476	1.008962900028564	1.1352736999979243	240.5313355999533	0.4016159999882802	239.51183470000979	1	1	28	4	go_punish	1	0	-1	1	1	1	1	1.0	1.0	0	0.1698352999519556	0.4016159999882802	425.1126419000793	659.0805650000693	660.0851562999887	661.0753391000908	662.6061393000418	663.6151022000704	664.6244766000891	665.6439775000326	666.6543152000522	667.7895889000501	2019-12-24 16:23:19.625425	1.96330533569672	-0.973444496306284	-2.00365639225761	-1.74185399531802	-0.0403510565608864	-2.00365639225761	-1.96330533569672	-0.973444496306284	-2.00365639225761	-0.0403510565608864	-2.00365639225761	0.973444496306284	-7.922286815911047	-5.488448739515961	-2.8812728132952117	-8.320949678018447	-6.696174701936777	-2.8812728132952117	-0.11060888481304598	-8.74986716557152	-0.8275803496604737	-7.819419949988336	-0.5503016028228409	1	correct	1.0
242.6586586999474	8.308450800017454	nogo_reward	1.0	242.7097472999012	244.2748829999473	246.80349700001534	1.5651357000460848	243.71280390000902	245.77971199993044	249.82995449996088	0.5620790999382734	1.0237850000848994	1.1882435999577865	248.8273549999576	0.6434849000070244	247.8081269999966	1	1	29	1	nogo_reward	1	0	1	0	0	1	0	0.0	1.0	1	1.0	0.6434849000070244	425.1126419000793	667.8223891999805	668.8254458000883	669.3875249000266	670.8923539000098	671.9161389000947	672.9207689000759	673.9399969000369	674.9425964000402	676.130839999998	2019-12-24 16:23:19.625425	14.3017239271425	0.0	14.9767025159574	14.9767025159574	0.674978588814895	14.9767025159574	-14.3017239271425	14.9767025159574	0.0	14.9767025159574	0.674978588814895	18.490069114266902	4.416131775534733	-4.5150042432096775	14.099086094919798	8.397606833256974	-5.980845056560996	14.099086094919798	17.406015733147573	6.267186406946768	1.851054631412031	8.130727062275348	1.453354789434769	1	correct	1.0
251.0037624000106	9.197275200043805	nogo_reward	1.0	251.0548509999644	253.79263309994712	256.32009239995386	2.7377820999827236	252.05971489998046	255.29948519996833	259.3610258999979	1.7329181999666616	1.020607199985534	0.8911003000102937	258.35028169990983	0.8106356000062078	257.3297484999057	1	1	30	1	nogo_reward	0	1	0	0	0	1	0	0.0	1.0	0	1.0	0.8106356000062078	425.1126419000793	676.1674929000437	677.1723568000598	678.9052750000264	680.4121271000477	681.4327343000332	682.442390399985	683.4629235999892	684.4736678000772	685.3647681000875	2019-12-24 16:23:19.625425	18.0652179112562	0.0	18.6774031766131	18.6774031766131	0.61218526535695	18.6774031766131	-18.0652179112562	18.6774031766131	0.0	18.6774031766131	0.61218526535695	-18.6774031766131	8.179625759648435	-4.5150042432096775	17.7997867555755	12.098307493912674	-6.043638380018941	17.7997867555755	-19.76145655773243	9.967887067602469	1.788261307954086	11.83142772293105	1.453354789434769	1	correct	1.0
260.2344144999515	8.3026229001116	nogo_reward	1.0	260.2855030999053	261.6466850999277	264.1852278999286	1.3611820000223815	261.28726629994344	263.1619602999417	267.23023599991575	0.35941879998426884	1.0232675999868661	1.3578900001011789	266.22611889999826	0.748817800078541	265.1897400999442	1	1	31	1	nogo_reward	1	0	1	0	0	1	1	0.0	0.0	1	1.0	0.748817800078541	425.1126419000793	685.3981449999847	686.3999082000228	686.759327000007	688.274602200021	689.2978698000079	690.3023820000235	691.3387608000776	692.3428778999951	693.7007679000963	2019-12-24 16:23:19.625425	13.7184352380902	0.0	14.4445100065658	14.4445100065658	0.726074768475507	14.4445100065658	-13.7184352380902	14.4445100065658	0.0	14.4445100065658	0.726074768475507	19.0222616236585	3.8328430864824323	-4.5150042432096775	13.566893585528197	7.865414323865373	-5.929748876900384	13.566893585528197	17.938208242539172	5.734993897555167	1.902150811072643	7.598534552883748	1.453354789434769	1	wrong	1.0
268.5699745999882	8.535972199984826	nogo_reward	1.0	268.621063199942	270.68167879991233	273.22054050001316	2.0606155999703333	269.63120459998026	272.1974202999845	276.28829709999263	1.0504741999320686	1.023120200028643	0.8687382999341935	275.2697101999074	0.3868364000227302	274.2354685999453	1	1	32	1	nogo_reward	1	0	1	0	0	1	1	1.0	1.0	1	1.0	0.3868364000227302	425.1126419000793	693.7337051000213	694.7438465000596	695.7943206999917	697.3100622000638	698.3331824000925	699.3481105000246	700.3823520999867	701.400939000072	702.2696773000062	2019-12-24 16:23:19.625425	17.7171825214556	0.0	18.3658002677623	18.3658002677623	0.648617746306768	18.3658002677623	-17.7171825214556	18.3658002677623	0.0	18.3658002677623	0.648617746306768	15.100971362462001	7.831590369847834	-4.5150042432096775	17.4881838467247	11.786704585061873	-6.007205899069123	17.4881838467247	14.01691798134267	9.656284158751667	1.8246937889039043	11.519824814080248	1.453354789434769	1	correct	1.0
277.14172159996815	9.597507300088182	go_reward	0.6285217000404373	277.19281019992195	279.7298066999065	282.2910519000143	2.536996499984525	278.2079617999261	281.2670848999405	285.3126554999035	1.5218448999803513	1.0239670000737533	1.4776620001066476	284.3084986999165	0.4443189998855814	283.29516779992264	1	1	33	2	go_reward	1	1	0	1	1	1	0	0.0	1.0	1	0.6285217000404373	0.4443189998855814	425.1126419000793	702.3054521000013	703.3206037000054	704.8424485999858	706.3797268000199	707.4036938000936	708.407809700002	709.4211405999959	710.4252973999828	711.9029594000895	2019-12-24 16:23:19.625425	13.1954542252332	12.5086028439584	0.0	12.5086028439584	13.1954542252332	0.0	-13.1954542252332	12.5086028439584	0.0	13.1954542252332	0.0	20.9581687862659	3.3098620736254336	7.993598600748722	-0.877616421037602	5.929507161257973	6.5396305798573096	-0.877616421037602	19.874115405146572	4.485938116222568	1.1760760425971362	5.662627390276348	1.453354789434769	1	correct	1.0
286.77408290002495	9.606445399927907	go_reward	0.4601509000640362	286.82517149997875	289.3783294999739	291.92291699990164	2.5531579999951646	287.84076619998086	290.89969529991504	294.95222709991504	1.537563299993053	1.0232216999866068	1.4793897999916226	293.9470103000058	1.0	292.9378502999898	1	1	34	2	go_reward	1	1	0	1	1	1	0	n/a	0.0	0	0.4601509000640362	1.0	425.1126419000793	711.9378134000581	712.9534081000602	714.4909714000532	716.0123371999944	717.035558899981	718.0504922000691	719.0596522000851	720.0648689999944	721.544258799986	2019-12-24 16:23:19.625425	17.3346262318817	16.7198746282161	0.0	16.7198746282161	17.3346262318817	0.0	-17.3346262318817	16.7198746282161	0.0	17.3346262318817	0.0	16.7468970020082	7.4490340802739325	12.204870385006423	-0.877616421037602	10.140778945515674	10.678802586505808	-0.877616421037602	15.66284362088887	8.625110122871067	1.1760760425971362	9.87389917453405	1.453354789434769	1	missed	0.0
296.4143598000519	8.035525999963284	nogo_reward	1.0	296.4654484000057	297.9412519999314	300.45180669997353	1.4758035999257118	297.4730417999672	299.43751640000846	303.50784189999104	0.46821019996423274	1.0142902999650687	0.9931324999779463	302.49491070001386	0.5428621000610292	301.4666231999872	1	1	35	1	nogo_reward	1	0	1	0	0	1	0	0.0	1.0	1	1.0	0.5428621000610292	425.1126419000793	721.578090300085	722.5856837000465	723.0538939000107	724.5501583000878	725.5644486000529	726.5792651000666	727.6075526000932	728.6204838000704	729.6136163000483	2019-12-24 16:23:19.625425	20.7183000918764	0.0	21.3226384555994	21.3226384555994	0.604338363723032	21.3226384555994	-20.7183000918764	21.3226384555994	0.0	21.3226384555994	0.604338363723032	12.144133174624901	10.832707940268634	-4.5150042432096775	20.4450220345618	14.743542772898973	-6.051485281652859	20.4450220345618	11.06007979350557	12.613122346588767	1.7804144063201681	14.476663001917348	1.453354789434769	1	correct	1.0
304.48848599998746	9.449396700016223	nogo_punish	1.0	304.53957459994126	307.3693315999117	309.9037747000111	2.8297569999704137	305.54222890001256	308.88311709999107	312.9714042999549	1.8271026998991147	1.0206576000200585	1.0175670000026003	311.9581765999319	0.4316340999212116	310.9259330999339	1	1	36	3	nogo_punish	1	-1	0	0	0	1	0	0.0	1.0	0	1.0	0.4316340999212116	425.1126419000793	729.6522165000206	730.6548708000919	732.481973499991	733.9957590000704	735.0164166000905	736.0385750000132	737.0708185000112	738.0840462000342	739.1016132000368	2019-12-24 16:23:19.625425	2.76824570067716	-4.78318953831614	-0.973444496306284	-3.93167996990469	-3.74169019698344	-0.973444496306284	-2.76824570067716	-0.973444496306284	-4.78318953831614	-0.973444496306284	-3.74169019698344	0.973444496306284	-7.117346450930607	-9.298193781525818	-1.8510609173438861	-10.510775652605115	-10.39751384235933	-1.8510609173438861	-0.11060888481304598	-9.682960605316916	-2.565614154386304	-7.819419949988336	-3.329834748881371	1	correct	1.0
313.97712689999025	8.133655000012368	nogo_punish	1.0	314.02821549994405	315.37044649990276	317.8805948999943	1.3422309999587014	315.0359698999673	316.8760619999375	320.91875539999455	0.3344765999354422	1.0045329000568017	1.2431150999618694	319.908609499922	0.8646340999985114	318.887877299916	1	1	37	3	nogo_punish	0	0	-1	0	0	1	0	0.0	1.0	-1	1.0	0.8646340999985114	425.1126419000793	739.1408574000234	740.1486118000466	740.4830883999821	741.9887039000168	742.9932368000736	744.0005191999953	745.0212514000013	746.0313973000739	747.2745124000357	2019-12-24 16:23:19.625425	3.00736137032217	-4.78318953831614	-0.782114222151979	-3.14182086872136	-3.78947559247415	-0.782114222151979	-3.00736137032217	-0.782114222151979	-4.78318953831614	-0.782114222151979	-3.78947559247415	-9.813722617619822	-6.8782307812855965	-9.298193781525818	-1.6597306431895809	-9.720916551421787	-10.44529923785004	-1.6597306431895809	-10.897775998739153	-9.491630331162611	-2.613399549877014	-7.6280896758340315	-3.329834748881371	1	correct	1.0
322.14502449997235	9.85125990002416	go_reward	0.5081720999442041	322.19611309992615	324.982406099909	327.53885819995776	2.786292999982834	323.2124684000155	326.51499870000407	330.58056459994987	1.7699376998934895	1.0238594999536872	1.4668084000004455	329.5761578999227	0.6617389000020921	328.5578700999031	1	1	38	2	go_reward	1	1	0	1	1	1	0	0.0	1.0	1	0.5081720999442041	0.6617389000020921	425.1126419000793	747.3087550000055	748.3251103000948	750.0950479999883	751.6276406000834	752.6515001000371	753.6705119999824	754.688799800002	755.6932065000292	757.1600149000296	2019-12-24 16:23:19.625425	13.5998814189518	12.8769407128766	0.0	12.8769407128766	13.5998814189518	0.0	-13.5998814189518	12.8769407128766	0.0	13.5998814189518	0.0	20.5898309173477	3.714289267344032	8.361936469666922	-0.877616421037602	6.297845030176173	6.944057773575908	-0.877616421037602	19.505777536228372	4.890365309941167	1.1760760425971362	6.030965259194548	1.453354789434769	1	correct	1.0
332.0359042000491	8.857406599912792	nogo_punish	1.0	332.0869928000029	334.1365220999578	336.6622849999694	2.0495292999548838	333.0994416999165	335.6412151999539	339.695088999928	1.0370804000413045	1.021069800015539	1.2493103999877349	338.6885891999118	1.0	337.67977689998224	1	1	39	3	nogo_punish	1	-1	0	0	0	1	1	n/a	0.0	0	1.0	1.0	425.1126419000793	757.1996347000822	758.2120835999958	759.2491640000371	760.7538571000332	761.7749269000487	762.7924188000616	763.8012310999911	764.8077309000073	766.057041299995	2019-12-24 16:23:19.625425	1.07327734127364	-4.78318953831614	-2.63767837926161	-4.53920970366553	-3.71095572053524	-2.63767837926161	-1.07327734127364	-2.63767837926161	-4.78318953831614	-2.63767837926161	-3.71095572053524	2.63767837926161	-8.812314810334128	-9.298193781525818	-3.5152948002992117	-11.118305386365957	-10.366779365911132	-3.5152948002992117	1.5536249981422798	-11.347194488272242	-2.534879677938104	-9.483653832943663	-3.329834748881371	1	missed	0.0
340.9307404999854	9.264786600018851	nogo_punish	1.0	340.9818290999392	343.47924139990937	346.00550789991394	2.497412299970165	341.9956567999907	344.9838163999375	349.0371926999651	1.4835845999186859	1.0216914999764413	1.2094229999929667	348.03617450001184	0.3498263999354094	347.02379409992136	1	1	40	3	nogo_punish	1	-1	0	0	0	1	0	0.0	1.0	0	1.0	0.3498263999354094	425.1126419000793	766.0944710000185	767.10829870007	768.5918832999887	770.0964583000168	771.1181497999933	772.1364360000007	773.1488164000912	774.1498346000444	775.3592576000374	2019-12-24 16:23:19.625425	1.69329664817677	-4.78318953831614	-2.07392882442485	-3.620153849358	-3.76722547260162	-2.07392882442485	-1.69329664817677	-2.07392882442485	-4.78318953831614	-2.07392882442485	-3.76722547260162	2.07392882442485	-8.192295503430998	-9.298193781525818	-2.951545245462452	-10.199249532058428	-10.423049117977511	-2.951545245462452	0.9898754433055201	-10.783444933435483	-2.5911494300044837	-8.919904278106902	-3.329834748881371	1	correct	1.0
350.23026710003614	8.881198999937624	go_punish	0.2927948000142351	350.28135569998994	352.19471569999587	354.73643169994466	1.9133600000059232	351.28778169990983	353.72512439999264	357.76901489996817	0.9069340000860393	1.0113072999520227	1.3935397999593988	356.7563102999702	0.5520562001038343	355.74444319994655	1	1	41	4	go_punish	1	0	-1	1	1	1	0	0.0	1.0	0	0.2927948000142351	0.5520562001038343	425.1126419000793	775.3939976000693	776.4004235999892	777.3073576000752	778.837766300072	779.849073600024	780.8570851000259	781.8689522000495	782.8816568000475	784.2751966000069	2019-12-24 16:23:19.625425	2.13459189761547	-0.782114222151979	-2.00365639225761	-1.39996687340334	0.130935505357862	-2.00365639225761	-2.13459189761547	-0.782114222151979	-2.00365639225761	0.130935505357862	-2.00365639225761	0.782114222151979	-7.751000253992297	-5.297118465361656	-2.8812728132952117	-7.9790625561037665	-6.524888140018029	-2.8812728132952117	-0.301939158967351	-8.578580603652771	-0.8275803496604737	-7.6280896758340315	-0.5503016028228409	1	correct	1.0
359.1509447999997	7.934151499997824	nogo_punish	1.0	359.2020333999535	360.6415755999042	363.17962680000346	1.4395421999506652	360.20248500001617	362.15635699999984	366.2311724999454	0.43909059988800436	1.023269800003618	0.9050124000059441	365.21771260001697	0.6358741000294685	364.1945943000028	1	1	42	3	nogo_punish	0	0	-1	0	0	1	1	1.0	1.0	-1	1.0	0.6358741000294685	425.1126419000793	784.3146753000328	785.3151269000955	785.7542174999835	787.2689989000792	788.2922687000828	789.3072362000821	790.3303545000963	791.3438144000247	792.2488268000307	2019-12-24 16:23:19.625425	2.15757507556679	-4.78318953831614	-1.6502515355729	-2.91778775856432	-3.80782661113969	-1.6502515355729	-2.15757507556679	-1.6502515355729	-4.78318953831614	-1.6502515355729	-3.80782661113969	-8.9455853041989	-7.728017076040977	-9.298193781525818	-2.527867956610502	-9.496883441264746	-10.463650256515582	-2.527867956610502	-10.02963868531823	-10.359767644583533	-2.6317505685425537	-8.496226989254952	-3.329834748881371	1	correct	1.0
367.1200487000169	9.975584900006652	go_punish	0.3462323999265209	367.1711372999707	370.1283075999236	372.6817229000153	2.9571702999528497	368.1640796000138	371.6610953999916	375.7313556999434	1.964227999909781	1.0206275000236928	1.415366500033997	374.72723429999314	0.6222969000227749	373.69831899995916	1	1	43	4	go_punish	1	0	-1	1	1	1	1	1.0	1.0	0	0.3462323999265209	0.6222969000227749	425.1126419000793	792.28377920005	793.2767215000931	795.2409495000029	796.7737373000709	797.7943648000946	798.8109609000385	799.8398762000725	800.8439976000227	802.2593641000567	2019-12-24 16:23:19.625425	2.26801530749803	-0.634021987003995	-2.00365639225761	-1.13558643800458	0.264358915240416	-2.00365639225761	-2.26801530749803	-0.634021987003995	-2.00365639225761	0.264358915240416	-2.00365639225761	0.634021987003995	-7.617576844109737	-5.149026230213672	-2.8812728132952117	-7.714682120705007	-6.391464730135475	-2.8812728132952117	-0.450031394115335	-8.445157193770216	-0.8275803496604737	-7.479997440686047	-0.5503016028228409	1	correct	1.0
377.1280333000468	8.271915499935858	nogo_reward	1.0	377.1791219000006	378.54358149995096	381.05012839997653	1.3644595999503508	378.182167599909	380.04680010001175	384.0919130999828	0.36141390004195273	1.0033282999647781	1.3591242999536917	383.075050799991	1.0	382.0666180999251	1	1	44	1	nogo_reward	1	0	1	0	0	1	0	n/a	0.0	1	1.0	1.0	425.1126419000793	802.2917638000799	803.2948094999883	803.6562234000303	805.1594420000911	806.1627703000559	807.1792600000044	808.1876927000703	809.2045550000621	810.5636793000158	2019-12-24 16:23:19.625425	23.0099480652416	0.0	23.5905038912881	23.5905038912881	0.580555826046511	23.5905038912881	-23.0099480652416	23.5905038912881	0.0	23.5905038912881	0.580555826046511	9.8762677389362	13.124355913633831	-4.5150042432096775	22.7128874702505	17.011408208587675	-6.0752678193293805	22.7128874702505	8.792214357816869	14.880987782277469	1.7566318686436473	16.74452843760605	1.453354789434769	1	missed	0.0
385.4341855000239	8.53954479994718	nogo_reward	1.0	385.4852740999777	387.00111239997204	389.5319065999938	1.515838299994357	386.5015219999477	388.5167744999053	392.56298189994413	0.4995904000243172	1.0151321000885218	1.4618369999807328	391.5499476999976	0.7258834999520332	390.53773229999933	1	1	45	1	nogo_reward	1	0	1	0	0	1	0	0.0	1.0	1	1.0	0.7258834999520332	425.1126419000793	810.597916000057	811.614163900027	812.1137543000514	813.6294163999846	814.6445485000731	815.6503742000787	816.6625896000769	817.6756238000235	819.1374608000042	2019-12-24 16:23:19.625425	24.7861957118297	0.0	25.3556574409009	25.3556574409009	0.569461729071169	25.3556574409009	-24.7861957118297	25.3556574409009	0.0	25.3556574409009	0.569461729071169	8.111114189323402	14.900603560221931	-4.5150042432096775	24.478041019863298	18.776561758200472	-6.086361916304722	24.478041019863298	7.027060808204072	16.646141331890266	1.7455377716683051	18.509681987218848	1.453354789434769	1	correct	1.0
394.0066631999798	9.478499700082466	go_punish	0.3453580000204965	394.0577517999336	396.6272573999595	399.1648417999968	2.5695056000258774	395.0598831999814	398.1499986000126	402.18476999993436	1.567374199978076	1.0148431999841705	1.351481500081718	401.17537159996573	1.0	400.16750079998747	1	1	46	4	go_punish	0	-1	0	1	1	1	0	n/a	0.0	0	0.3453580000204965	1.0	425.1126419000793	819.1703937000129	820.1725251000607	821.7398993000388	823.262640500092	824.2774837000761	825.2801427000668	826.288013500045	827.2974119000137	828.6488934000954	2019-12-24 16:23:19.625425	2.37305769614869	-0.518124836842169	-2.00365639225761	-0.928763423770745	0.369401303891077	-2.00365639225761	-2.37305769614869	-0.518124836842169	-2.00365639225761	0.369401303891077	-2.00365639225761	-10.077712002929632	-7.512534455459077	-5.033129080051847	-2.8812728132952117	-7.507859106471171	-6.286422341484815	-2.8812728132952117	-11.161765384048962	-8.340114805119555	-0.8275803496604737	-7.364100290524221	-0.5503016028228409	1	missed	0.0
403.5199017999694	8.754097299999557	go_reward	0.3560001000296324	403.5709903999232	405.92055979999714	408.4765093999449	2.3495694000739604	404.5869050999172	407.452930899919	411.5189467999153	1.3336547000799328	1.0235785000259057	0.8061409000074491	410.50615259993356	0.4992178999818861	409.4804037999129	1	1	47	2	go_reward	1	1	0	1	1	1	0	0.0	1.0	1	0.3560001000296324	0.4992178999818861	425.1126419000793	828.6836323000025	829.6995469999965	831.0332017000765	832.5655727999983	833.5891513000242	834.5930456999922	835.6187945000129	836.6315886999946	837.4377296000021	2019-12-24 16:23:19.625425	17.7416825091502	17.0995699471465	0.0	17.0995699471465	17.7416825091502	0.0	-17.7416825091502	17.0995699471465	0.0	17.7416825091502	0.0	16.367201683077802	7.856090357542431	12.584565703936821	-0.877616421037602	10.520474264446072	11.085858863774307	-0.877616421037602	15.283148301958471	9.032166400139566	1.1760760425971362	10.253594493464448	1.453354789434769	1	correct	1.0
412.313099800027	9.108235999941826	nogo_punish	0.2726578000001609	412.3641883999808	415.1380100999959	417.66167559998576	2.7738217000151053	413.3750381999416	416.658561399905	420.69778549997136	1.7629719000542536	1.003114200080745	0.7746388999512419	419.69367279997095	0.6982267000712454	418.6763914999319	1	1	48	3	nogo_punish	1	-1	0	0	1	0	0	0.0	1.0	-1	0.2726578000001609	0.6982267000712454	425.1126419000793	837.4768303000601	838.487680100021	840.2506520000752	841.7712032999843	842.7743175000651	843.7890334000112	844.8063147000503	845.8104274000507	846.5850663000019	2019-12-24 16:23:19.625425	-0.393718529891209	-4.78318953831614	-3.3305731044165	-4.37729189849762	-3.7242916343077	-3.3305731044165	0.393718529891209	-4.78318953831614	-3.3305731044165	-3.7242916343077	-3.3305731044165	-5.8126473014556606	-10.279310681498977	-9.298193781525818	-4.208189525454102	-10.956387581198047	-10.380115279683592	-4.208189525454102	-6.89670068257499	-12.433807743318333	-2.154497061819364	-11.629164991998191	-1.8772183149817312	1	correct	1.0
421.45586190000176	8.26071529998444	nogo_reward	1.0	421.50695049995556	423.36901449994184	425.8988237999147	1.862063999986276	422.5106294999132	424.8853989999043	428.9290590999881	0.8583850000286475	1.013424800010398	0.8386066999519244	427.926200899994	0.6953848000848666	426.9131985999411	1	1	49	1	nogo_reward	1	0	1	0	0	1	0	0.0	1.0	1	1.0	0.6953848000848666	425.1126419000793	846.6195924000349	847.6232713999925	848.4816564000212	849.9980408999836	851.011465699994	852.0258405000204	853.0388428000733	854.0417010000674	854.8803077000193	2019-12-24 16:23:19.625425	26.1810373192124	0.0	26.7472242195721	26.7472242195721	0.566186900359759	26.7472242195721	-26.1810373192124	26.7472242195721	0.0	26.7472242195721	0.566186900359759	6.719547410652201	16.295445167604633	-4.5150042432096775	25.8696077985345	20.168128536871674	-6.089636745016132	25.8696077985345	5.635494029532871	18.037708110561468	1.7422629429568952	19.90124876589005	1.453354789434769	1	correct	1.0
429.751982399961	8.911492999992333	go_punish	0.2394288999494165	429.8030709999148	431.62023509992287	434.156759699923	1.8171641000080854	430.808581899968	433.1361355999252	437.2212729000021	0.8116531999548897	1.0206240999978036	1.4932910999050364	436.2086547999643	0.2972381999716162	435.17443369992543	1	1	50	4	go_punish	1	0	-1	1	1	1	0	0.0	1.0	0	0.2394288999494165	0.2972381999716162	425.1126419000793	854.9157128999941	855.9212238000473	856.7328770000022	858.2487775000045	859.2694016000023	860.2870756000048	861.3212967000436	862.3339148000814	863.8272058999864	2019-12-24 16:23:19.625425	2.45654958546619	-0.426522377097057	-2.00365639225761	-0.765295176317724	0.452893193208585	-2.00365639225761	-2.45654958546619	-0.426522377097057	-2.00365639225761	0.452893193208585	-2.00365639225761	0.426522377097057	-7.429042566141577	-4.9415266203067345	-2.8812728132952117	-7.344390859018151	-6.2029304521673065	-2.8812728132952117	-0.657531004022273	-8.256622915802048	-0.8275803496604737	-7.272497830779109	-0.5503016028228409	1	correct	1.0
438.6977924000239	8.000614900025539	nogo_reward	1.0	438.7488809999777	440.215131899924	442.7463342999108	1.466250899946317	439.7554337999318	441.7263564999448	445.7809184999205	0.459698099992238	1.019977799966	0.9685774000827223	444.7770223999396	0.4907139999559149	443.7638075000141	1	1	51	1	nogo_reward	0	1	0	0	0	1	1	1.0	1.0	0	1.0	0.4907139999559149	425.1126419000793	863.861522900057	864.8680757000111	865.3277738000033	866.8389984000241	867.8589761999901	868.8764494000934	869.8896643000189	870.8935603999998	871.8621378000826	2019-12-24 16:23:19.625425	27.2890321363566	0.0	27.8566952267586	27.8566952267586	0.567663090401938	27.8566952267586	-27.2890321363566	27.8566952267586	0.0	27.8566952267586	0.567663090401938	-27.8566952267586	17.403439984748832	-4.5150042432096775	26.979078805721	21.277599544058173	-6.088160554973953	26.979078805721	-28.94074860787793	19.147179117747967	1.7437391329990741	21.01071977307655	1.453354789434769	1	correct	1.0
446.73909269995056	8.123588100075722	nogo_punish	0.4202929000603035	446.79018129990436	448.35332150000613	450.9114502000157	1.5631402001017705	447.7999535999261	449.8901855999138	453.9516567999963	0.5533679000800475	1.0212646001018584	0.9621125999838114	452.94703189993743	0.8546509000007063	451.9260204999009	1	1	52	3	nogo_punish	1	-1	0	0	1	0	0	0.0	1.0	-1	0.4202929000603035	0.8546509000007063	425.1126419000793	871.9028231999837	872.9125955000054	873.4659634000855	875.0028274999931	876.024092100095	877.0386623999802	878.0596738000168	879.0642987000756	880.0264113000594	2019-12-24 16:23:19.625425	-1.30665234416562	-5.75663403462242	-3.3305731044165	-5.50647387229513	-4.63722544858211	-3.3305731044165	1.30665234416562	-5.75663403462242	-3.3305731044165	-4.63722544858211	-3.3305731044165	-4.839202805149381	-11.192244495773387	-10.271638277832096	-4.208189525454102	-12.085569554995557	-11.293049093958	-4.208189525454102	-5.923256186268711	-13.346741557592743	-2.154497061819364	-12.602609488304472	-1.8772183149817312	1	correct	1.0
454.89789170003496	8.226440300000831	go_reward	0.4666804999578744	454.94898029998876	456.6029872999061	459.14808929990977	1.6540069999173284	455.9552004999714	458.1342582999496	462.20745159999933	0.6477867999346927	1.0138309999601915	0.9679689999902621	461.1947797999019	0.4782542999600991	460.1622284000041	1	1	53	2	go_reward	1	1	0	1	1	1	0	0.0	1.0	1	0.4666804999578744	0.4782542999600991	425.1126419000793	880.0616222000681	881.0678424000507	881.7156291999854	883.2469002000289	884.2607311999891	885.2748703000834	886.3074216999812	887.3200935000787	888.2880625000689	2019-12-24 16:23:19.625425	20.8876923465324	20.291722736766	0.0	20.291722736766	20.8876923465324	0.0	-20.8876923465324	20.291722736766	0.0	20.8876923465324	0.0	13.1750488934583	11.002100194924633	15.776718493556324	-0.877616421037602	13.712627054065575	14.23186870115651	-0.877616421037602	12.090995512338969	12.178176237521768	1.1760760425971362	13.44574728308395	1.453354789434769	1	correct	1.0
463.1600267000031	8.263624600018375	go_punish	0.563499299925752	463.2111152999569	464.874043699936	467.4264761999948	1.6629283999791369	464.2175944999326	466.4053436999675	470.4643119999673	0.6564492000034079	1.0211325000273064	1.010427900007926	469.4622199999867	0.3681074000196531	468.44450869993307	1	1	54	4	go_punish	1	0	-1	1	1	1	0	0.0	1.0	0	0.563499299925752	0.3681074000196531	425.1126419000793	888.3237572000362	889.3302364000119	889.9866856000153	891.5179856000468	892.5391181000741	893.5571506000124	894.574861900066	895.5769539000466	896.5873818000546	2019-12-24 16:23:19.625425	2.52348745416976	-0.353472215852601	-2.00365639225761	-0.634895833616	0.519831061912145	-2.00365639225761	-2.52348745416976	-0.353472215852601	-2.00365639225761	0.519831061912145	-2.00365639225761	0.353472215852601	-7.362104697438007	-4.868476459062278	-2.8812728132952117	-7.213991516316426	-6.1359925834637465	-2.8812728132952117	-0.730581165266729	-8.189685047098488	-0.8275803496604737	-7.199447669534653	-0.5503016028228409	1	correct	1.0
471.4571269999724	8.196662500034904	nogo_reward	1.0	471.5082155999262	472.85322539997287	475.3777220000047	1.3450098000466824	472.5098899999866	474.36891540000215	478.4387516999851	0.34333539998624474	1.008806600002572	1.266126399975974	477.4251853999449	0.2963402000023052	476.39632719999645	1	1	55	1	nogo_reward	0	1	0	0	0	1	0	0.0	1.0	0	1.0	0.2963402000023052	425.1126419000793	896.6208575000055	897.622531900066	897.9658673000522	899.4815573000815	900.490363900084	901.5089691000758	902.5378273000242	903.5513936000644	904.8175200000404	2019-12-24 16:23:19.625425	20.9806407554927	0.0	21.7010657616162	21.7010657616162	0.720425006123544	21.7010657616162	-20.9806407554927	21.7010657616162	0.0	21.7010657616162	0.720425006123544	-21.7010657616162	11.095048603884933	-4.5150042432096775	20.8234493405786	15.121970078915773	-5.935398639252347	20.8234493405786	-22.785119142735528	12.991549652605567	1.8965010487206801	14.855090307934148	1.453354789434769	1	correct	1.0
479.6867891000585	8.625762899988217	nogo_reward	1.0	479.7378777000123	481.5737969999899	484.1093348999275	1.8359192999776042	480.7308544999687	483.089563199901	487.14963140001066	0.842942500021195	1.0197717000264674	1.214009199989846	486.14580950001266	0.3684046999551356	485.1312649999745	1	1	56	1	nogo_reward	0	1	0	0	0	1	0	0.0	1.0	0	1.0	0.3684046999551356	425.1126419000793	904.8505196000916	905.843496400048	906.6864389000692	908.2022050999803	909.2219768000068	910.2439069000538	911.258451400092	912.26227330009	913.4762825000798	2019-12-24 16:23:19.625425	16.3066037752604	0.0	17.1211236880659	17.1211236880659	0.81451991280543	17.1211236880659	-16.3066037752604	17.1211236880659	0.0	17.1211236880659	0.81451991280543	-17.1211236880659	6.421011623652632	-4.5150042432096775	16.2435072670283	10.542028005365474	-5.841303732570461	16.2435072670283	-18.20517706918523	8.411607579055268	1.9905959554025663	10.275148234383849	1.453354789434769	1	correct	1.0
488.3509024999803	9.51439440005936	nogo_punish	1.0	488.4019910999341	491.1774600999197	493.71219220000785	2.7754689999856055	489.40567319991544	492.6923966999167	496.76182669994887	1.7717869000042583	1.0197955000911634	1.1545588000445832	495.7469860999845	0.4807186999823898	494.7298368999035	1	1	57	3	nogo_punish	1	-1	0	0	0	1	0	0.0	1.0	0	1.0	0.4807186999823898	425.1126419000793	913.5146330000134	914.5183150999948	916.290101999999	917.805038599996	918.8248341000872	919.8424787999828	920.8596280000638	921.8744686000282	923.0290274000728	2019-12-24 16:23:19.625425	2.04434183416651	-6.5387482567744	-3.3305731044165	-6.39219901839415	-5.374914938583	-3.3305731044165	-2.04434183416651	-3.3305731044165	-6.5387482567744	-3.3305731044165	-5.374914938583	3.3305731044165	-7.841250317441258	-11.053752499984078	-4.208189525454102	-12.971294701094576	-12.030738583958891	-4.208189525454102	2.24651972329717	-12.040089213427132	-4.198838895985864	-10.176548558098553	-5.085393467339631	1	correct	1.0
497.90347120002843	8.522775899967996	nogo_punish	1.0	497.95455979998223	500.1605701999507	502.6832343999995	2.206010399968477	498.95922869991045	501.66354699991643	505.71823030000087	1.2013415000402574	1.0196874000830576	0.7591053999493624	504.71407290000946	0.5535143999150023	503.7020261000142	1	1	58	3	nogo_punish	1	-1	0	0	0	1	0	0.0	1.0	0	1.0	0.5535143999150023	425.1126419000793	923.0672017000616	924.0718705999898	925.27321210003	926.7761888999958	927.7958763000788	928.8146680000935	929.8267148000888	930.8308722000802	931.5899776000296	2019-12-24 16:23:19.625425	2.8224979428868	-6.5387482567744	-2.63265964650141	-5.0916764444625	-5.4551575893882	-2.63265964650141	-2.8224979428868	-2.63265964650141	-6.5387482567744	-2.63265964650141	-5.4551575893882	2.63265964650141	-7.063094208720967	-11.053752499984078	-3.510276067539012	-11.670772127162927	-12.110981234764091	-3.510276067539012	1.54860626538208	-11.342175755512041	-4.279081546791064	-9.478635100183462	-5.085393467339631	1	correct	1.0
506.4617263999535	8.166272100061178	go_reward	1.0	506.5128149999073	507.8555129999295	510.3809580999658	1.3426980000222102	507.52803229994606	509.36510199995246	513.4360333000077	0.32748069998342544	1.015856100013366	1.2430537999607623	512.422178299981	0.7898530999664217	511.4057943999069	1	1	59	2	go_reward	1	1	0	1	0	0	0	0.0	1.0	0	1.0	0.7898530999664217	425.1126419000793	931.6254568999866	932.6406742000254	932.9681549000088	934.4777439000318	935.4936000000451	936.5184362999862	937.5348202000604	938.548675200087	939.7917290000478	2019-12-24 16:23:19.625425	-23.3163940957727	22.7450974075233	0.0	22.7450974075233	23.3163940957727	0.0	23.3163940957727	0.0	22.7450974075233	0.0	23.3163940957727	0.0	-33.20198624738047	18.230093164313622	-0.877616421037602	16.166001724822873	16.66057045039681	-0.877616421037602	-1.08405338111933	-8.709516109010632	24.492470138369836	-6.845975453682052	24.19845219695807	1	correct	1.0
514.6673525000225	9.53536219999637	nogo_punish	1.0	514.7184410999763	517.1897208999143	519.7153215999715	2.4712797999379745	515.7211374999023	518.7041480999907	522.7592289999593	1.468583400011994	1.0111734999808277	1.4945743000133689	521.7584176999517	0.7482799999415874	520.7303435999203	1	1	60	3	nogo_punish	1	-1	0	0	0	1	1	1.0	1.0	0	1.0	0.7482799999415874	425.1126419000793	939.8310830000556	940.8337793999816	942.3023627999936	943.81679000007	944.8279635000508	945.8429854999996	946.871059600031	947.8718709000386	949.366445200052	2019-12-24 16:23:19.625425	3.40798123927344	-6.5387482567744	-2.1049214849554	-4.09998388644045	-5.51290272422884	-2.1049214849554	-3.40798123927344	-2.1049214849554	-6.5387482567744	-2.1049214849554	-5.51290272422884	2.1049214849554	-6.4776109123343275	-11.053752499984078	-2.9825379059930017	-10.679079569140876	-12.16872636960473	-2.9825379059930017	1.0208681038360699	-10.814437593966032	-4.336826681631704	-8.950896938637452	-5.085393467339631	1	correct	1.0
