onset	duration	trial_type	response_time	cueOnset	targetOnset	fbOnset	cueRT	firstfixOnset	secondfixOnset	waitOnset	firstfixdur	secondfixdur	waitdur	nback_fbOnset	nback_response_time	nback_targetOnset	block	wm	trial	cue	cond	is_common	outcome_go	outcome_nogo	key_correct	key_pressed	is_correct	key_correct_nback	key_pressed_nback	is_correct_nback	outcome	rt	rt_nback	time_scan	time_onset	time_isi1	time_circle	time_isi2	time_feedback	time_same	time_correct	time_iti	time_done	timestamp_scan	DV	Qgo	Qnogo	SV	Wgo	Wnogo	mDV	Qchosen	Qunchosen	Wchosen	Wunchosen	PE	DVC	QgoC	QnogoC	SVC	WgoC	WnogoC	PEC	WchosenC	WunchosenC	QchosenC	QunchosenC	run	outcome_nback	nback_targetResp
0.0	8.599160400102733	go_reward	0.4983234000392258	0.024379299953579903	1.5349540000315756	4.081218900042472	1.5105747000779957	1.0343960999744013	3.064916300005166	7.13050870003633	0.5005579000571743	1.0163026000373065	1.4930310000199825	6.120320899993999	0.5376158999279141	5.100622900063286	1	1	61	2	go_reward	1	1	0	1	1	1	1	0.0	0.0	1	0.4983234000392258	0.5376158999279141	1020.7960380000296	1020.8204172999832	1021.830434100004	1022.3309920000612	1023.8609543000348	1024.877256900072	1025.896660900093	1026.9163589000236	1027.926546700066	1029.419577700086	2019-12-24 16:33:15.296889	23.4535155265462	22.7450974075233	0.0	17.6086839155695	23.4535155265462	0.0	-23.4535155265462	22.7450974075233	0.0	23.4535155265462	0.0	10.721674222701001	13.567923374938434	18.230093164313622	-0.877616421037602	11.029588232869074	16.79769188117031	-0.877616421037602	9.63762084158167	14.74399941753557	1.1760760425971362	15.899121953841249	1.453354789434769	2	wrong	1.0
8.63378050003655	8.816439000074752	go_reward	0.3527421000180766	8.65815979999013	10.637609899975246	13.198857999988718	1.9794500999851152	9.66934669995669	12.175647799973262	16.22143370006222	0.9682632000185549	1.0232102000154555	1.2531651000026613	15.211909899953639	1.0	14.203801500028817	1	1	62	2	go_reward	1	1	0	1	1	1	0	n/a	0.0	0	0.3527421000180766	1.0	1020.7960380000296	1029.4541978000198	1030.4653846999863	1031.4336479000049	1032.971685800003	1033.9948960000183	1034.9998395000584	1036.0079478999833	1037.0174717000918	1038.2706368000945	2019-12-24 16:33:15.296889	25.3028063004929	24.6577659971529	0.0	20.8616575682514	25.3028063004929	0.0	-25.3028063004929	24.6577659971529	0.0	25.3028063004929	0.0	8.8090056330714	15.417214148885133	20.142761753943223	-0.877616421037602	14.282561885550972	18.646982655117007	-0.877616421037602	7.724952251952071	16.593290191482268	1.1760760425971362	17.81179054347085	1.453354789434769	2	missed	0.0
17.484229700057654	8.912117399974022	go_punish	0.2876228999812156	17.508609000011234	20.023723099962695	22.56066570000246	2.515114099951461	18.510947500006182	21.53973790002044	25.6150993000482	1.5127755999565125	1.0209277999820188	0.8056270999370554	24.603406399953997	0.7206489000236616	23.576619300060088	1	1	63	4	go_punish	1	0	-1	1	1	1	0	0.0	1.0	0	0.2876228999812156	0.7206489000236616	1020.7960380000296	1038.3046470000409	1039.3069855000358	1040.8197610999923	1042.33577590005	1043.356703700032	1044.3726573000897	1045.3994443999836	1046.4111373000778	1047.2167644000149	2019-12-24 16:33:15.296889	2.57757650464562	-0.294741436766749	-2.00365639225761	-0.530003436686867	0.573920112388009	-2.00365639225761	-2.57757650464562	-0.294741436766749	-2.00365639225761	0.573920112388009	-2.00365639225761	0.294741436766749	-7.308015646962147	-4.809745679976427	-2.8812728132952117	-7.109099119387293	-6.081903532987882	-2.8812728132952117	-0.789311944352581	-8.135595996622623	-0.8275803496604737	-7.140716890448801	-0.5503016028228409	2	correct	1.0
26.430524300085267	8.223068099934608	nogo_reward	1.0	26.454903600038847	28.32965239998873	30.844324300065523	1.8747487999498844	27.47127750003699	29.835487100062778	33.89684639999166	0.8583748999517411	1.0088372000027448	0.7811252999817953	32.89241460000619	0.6272801000159234	31.864056100021003	1	1	64	1	nogo_reward	0	1	0	0	0	1	0	0.0	1.0	0	1.0	0.6272801000159234	1020.7960380000296	1047.2509416000685	1048.2673155000666	1049.1256904000184	1050.6315251000924	1051.6403623000951	1052.6600941000506	1053.6884526000358	1054.6928844000213	1055.474009700003	2019-12-24 16:33:15.296889	12.7868454635117	0.0	13.6585002171118	13.6585002171118	0.87165475360008	13.6585002171118	-12.7868454635117	13.6585002171118	0.0	13.6585002171118	0.87165475360008	-13.6585002171118	2.9012533119039325	-4.5150042432096775	12.780883796074198	7.079404534411374	-5.784168891775812	12.780883796074198	-14.742553598231131	4.948984108101168	2.047730796197216	6.8125247634297486	1.453354789434769	2	correct	1.0
34.68719910003699	9.269055500044715	go_reward	0.3114104999694973	34.71157839999057	36.88395599997591	39.42993360001117	2.1723775999853387	35.71312319999549	38.42080510000221	42.49638210004207	1.170832799980417	1.0091285000089556	1.484251799993217	41.48311340005591	0.7145304000005126	40.44883310003195	1	1	65	2	go_reward	0	0	1	1	1	1	0	0.0	1.0	0	0.3114104999694973	0.7145304000005126	1020.7960380000296	1055.5076164000202	1056.5091612000251	1057.6799940000055	1059.2168431000318	1060.2259716000408	1061.2448711000616	1062.2791514000855	1063.2924201000717	1064.776671900065	2019-12-24 16:33:15.296889	19.876119977031	19.1184854559927	0.0	16.2661256430013	19.876119977031	0.0	-19.876119977031	19.1184854559927	0.0	19.876119977031	0.0	-19.1184854559927	9.990527825423232	14.603481212783024	-0.877616421037602	9.687029960300872	13.220296331655108	-0.877616421037602	-20.20253883711203	11.166603868020367	1.1760760425971362	12.27251000231065	1.453354789434769	2	correct	1.0
43.991099800099505	7.893868999904953	nogo_reward	1.0	44.015479100053085	45.38092929997936	47.923099400010074	1.365450199926272	45.022673100000134	46.89907300006587	50.99435649998475	0.3582561999792233	1.024026399944205	0.9149915999732912	49.98154179996334	0.5466332000214607	48.94678360002547	1	1	66	1	nogo_reward	0	1	0	0	0	1	1	1.0	1.0	0	1.0	0.5466332000214607	1020.7960380000296	1064.8115171000827	1065.8187111000298	1066.176967300009	1067.6951110000955	1068.7191374000397	1069.742821600055	1070.777579799993	1071.7903945000144	1072.7053860999877	2019-12-24 16:33:15.296889	10.0984810735702	0.0	11.0038009165562	11.0038009165562	0.90531984298595	11.0038009165562	-10.0984810735702	11.0038009165562	0.0	11.0038009165562	0.90531984298595	-11.0038009165562	0.21288892196243303	-4.5150042432096775	10.126184495518597	4.424705233855773	-5.750503802389941	10.126184495518597	-12.08785429767553	2.2942848075455675	2.081395885583086	4.157825462874148	1.453354789434769	2	correct	1.0
51.92080500000168	8.589993800036382	go_reward	0.551108599989675	51.94518429995526	53.935164800030066	56.48037230002217	1.9899805000748074	52.960255100042446	55.4564949000486	59.50934430002246	0.9749096999876201	1.0238773999735713	1.0258337999691776	58.507354300003385	0.5666773000266403	57.49368980003044	1	1	67	2	go_reward	1	1	0	1	1	1	1	1.0	1.0	1	0.551108599989675	0.5666773000266403	1020.7960380000296	1072.7412222999849	1073.756293100072	1074.7312028000597	1076.2525329000782	1077.2764103000518	1078.28972780006	1079.303392300033	1080.305382300052	1081.3312161000213	2019-12-24 16:33:15.296889	15.8444401298545	15.0175060251545	0.0	12.8431488608365	15.8444401298545	0.0	-15.8444401298545	15.0175060251545	0.0	15.8444401298545	0.0	18.4492656050698	5.958847978246732	10.502501781944822	-0.877616421037602	6.2640531781360735	9.188616484478608	-0.877616421037602	17.365212223950472	7.134924020843867	1.1760760425971362	8.171530571472449	1.453354789434769	2	correct	1.0
60.545504900044875	8.714418999966938	go_punish	0.4530053000198677	60.569884199998455	62.42038020002644	64.96835199999589	1.850496000027988	61.576527700060865	63.955179200041925	68.01001410000015	0.8438524999655783	1.0131727999539635	1.2742890999652445	66.99537430005137	0.5660629000049084	65.98328919999756	1	1	68	4	go_punish	1	0	-1	1	1	1	0	1.0	0.0	0	0.4530053000198677	0.5660629000049084	1020.7960380000296	1081.365922200028	1082.3725657000905	1083.216418200056	1084.7512172000716	1085.7643900000255	1086.7793272000272	1087.791412300081	1088.8060521000298	1090.080341199995	2019-12-24 16:33:15.296889	2.62159829465395	-0.247170339475555	-2.00365639225761	-0.444984056387147	0.617941902396337	-2.00365639225761	-2.62159829465395	-0.247170339475555	-2.00365639225761	0.617941902396337	-2.00365639225761	0.247170339475555	-7.263993856953817	-4.762174582685232	-2.8812728132952117	-7.024079739087574	-6.037881742979554	-2.8812728132952117	-0.836883041643775	-8.091574206614295	-0.8275803496604737	-7.093145793157607	-0.5503016028228409	2	wrong	1.0
69.29368120001152	7.755113500053994	go_punish	0.2832390000112355	69.3180604999651	70.60514720005438	73.1488327999831	1.2870867000892758	70.32417949999206	72.12806650006667	76.18896239995945	0.28096770006231964	1.0207662999164313	0.8842116000596434	75.17603029997542	0.2878712000092491	74.16146550001565	1	1	69	4	go_punish	1	0	-1	1	1	1	0	0.0	1.0	0	0.2832390000112355	0.2878712000092491	1020.7960380000296	1090.1140984999947	1091.1202175000217	1091.401185200084	1092.9241045000963	1093.9448708000127	1094.9575035000453	1095.972068300005	1096.985000399989	1097.8692120000487	2019-12-24 16:33:15.296889	2.65766425227256	-0.208373456518942	-2.00365639225761	-0.375589908868378	0.654007860014948	-2.00365639225761	-2.65766425227256	-0.208373456518942	-2.00365639225761	0.654007860014948	-2.00365639225761	0.208373456518942	-7.2279278993352065	-4.723377699728619	-2.8812728132952117	-6.954685591568804	-6.001815785360943	-2.8812728132952117	-0.875679924600388	-8.055508248995684	-0.8275803496604737	-7.054348910200994	-0.5503016028228409	2	correct	1.0
77.08544010005392	8.917322900030058	go_reward	0.2710537000093609	77.1098194000075	78.96633710002027	81.51777809997986	1.8565177000127733	78.1237167000071	80.49458499997843	84.54821689997323	0.8426204000131747	1.0231931000014356	1.4789254000643268	83.53848550002988	0.4285886000143364	82.52581020002242	1	1	70	2	go_reward	1	1	0	1	1	1	0	0.0	1.0	1	0.2710537000093609	0.4285886000143364	1020.7960380000296	1097.9058574000371	1098.9197547000367	1099.76237510005	1101.290623000008	1102.3138161000095	1103.321848200052	1104.3345235000595	1105.3442549000029	1106.8231803000672	2019-12-24 16:33:15.296889	19.7008112057243	18.9803431140978	0.0	17.3016774921973	19.7008112057243	0.0	-19.7008112057243	18.9803431140978	0.0	19.7008112057243	0.0	14.486428516126502	9.815219054116533	14.465338870888122	-0.877616421037602	10.722581809496873	13.044987560348408	-0.877616421037602	13.402375135007171	10.991295096713667	1.1760760425971362	12.134367660415748	1.453354789434769	2	correct	1.0
86.03694580006402	7.704336900031194	go_punish	0.4519370999187231	86.0613251000176	87.40545329998702	89.95232739998016	1.3441281999694183	87.07780149998132	88.93651619995933	93.00666690000787	0.3276518000056967	1.0158112000208348	0.7589951000409201	91.99362530000496	0.6535092999693006	90.96580380003422	1	1	71	4	go_punish	0	-1	0	1	1	1	1	1.0	1.0	-1	0.4519370999187231	0.6535092999693006	1020.7960380000296	1106.8573631000472	1107.873839500011	1108.2014913000166	1109.732554199989	1110.7483654000098	1111.7618418000638	1112.7896633000346	1113.8027049000375	1114.5617000000784	2019-12-24 16:33:15.296889	2.68739333825682	-0.176531220834266	-2.00365639225761	-0.318583723540909	0.683736945999205	-2.00365639225761	-2.68739333825682	-0.176531220834266	-2.00365639225761	0.683736945999205	-2.00365639225761	-10.419305618937535	-7.198198813350947	-4.691535464043944	-2.8812728132952117	-6.897679406241336	-5.972086699376686	-2.8812728132952117	-11.503359000056866	-8.025779163011427	-0.8275803496604737	-7.022506674516318	-0.5503016028228409	2	correct	1.0
93.77604560006864	8.081630400032736	go_punish	0.5189337999327108	93.80042490002222	95.15745169995341	97.71431680000376	1.357026799931191	94.79824909998558	96.69349209999189	100.77976519998617	0.3592025999678299	1.0208247000118718	1.1022901000687853	99.76592879998486	0.3864221000112593	98.7308449000119	1	1	72	4	go_punish	1	0	-1	1	1	1	0	0.0	1.0	0	0.5189337999327108	0.3864221000112593	1020.7960380000296	1114.5964629000518	1115.5942871000152	1115.953489699983	1117.4895301000215	1118.5103548000334	1119.5268829000415	1120.5619668000145	1121.5758032000158	1122.6780933000846	2019-12-24 16:33:15.296889	0.82161439379168	-2.15389901187801	-2.00365639225761	-2.27513055591098	-1.18204199846593	-2.00365639225761	-0.82161439379168	-2.15389901187801	-2.00365639225761	-1.18204199846593	-2.00365639225761	2.15389901187801	-9.063977757816087	-6.668903255087688	-2.8812728132952117	-8.854226238611407	-7.8378656438418215	-2.8812728132952117	1.06984563075868	-9.891558107476563	-0.8275803496604737	-8.999874465560062	-0.5503016028228409	2	correct	1.0
101.89719480008341	9.46535159996688	nogo_punish	1.0	101.92157410003699	104.35764060006488	106.88312130002294	2.4360665000278914	102.93269010004576	105.86338270001568	109.9251696000573	1.424950500019122	1.0197386000072584	1.4617560999465695	108.92131060000963	0.4775368000846356	107.90189199999429	1	1	73	3	nogo_punish	1	-1	0	0	0	1	0	0.0	1.0	0	1.0	0.4775368000846356	1020.7960380000296	1122.7176121000666	1123.7287281000754	1125.1536786000945	1126.6594207000453	1127.6791593000526	1128.697930000024	1129.7173486000393	1130.721207600087	1132.1829637000335	2019-12-24 16:33:15.296889	3.85509471153485	-6.5387482567744	-1.6999427896674	-3.33311080850914	-5.55503750120224	-1.6999427896674	-3.85509471153485	-1.6999427896674	-6.5387482567744	-1.6999427896674	-5.55503750120224	1.6999427896674	-6.030497440072917	-11.053752499984078	-2.577559210705002	-9.912206491209567	-12.210861146578132	-2.577559210705002	0.61588940854807	-10.409458898678032	-4.378961458605104	-8.545918243349451	-5.085393467339631	2	correct	1.0
111.39981510001223	9.434166599996388	go_punish	0.4817302000010386	111.42419439996581	114.38670370005991	116.9345052000134	2.962509300094098	112.44191379996471	115.9335288000292	119.98953390005033	1.944789900095202	1.0009763999842107	0.8688270999118686	118.98676370002806	0.6511405000928789	117.95214589999512	1	1	74	4	go_punish	1	0	-1	1	1	1	1	1.0	1.0	0	0.4817302000010386	0.6511405000928789	1020.7960380000296	1132.2202323999954	1133.2379517999943	1135.1827417000895	1136.7295668000588	1137.730543200043	1138.7481839000247	1139.7828017000577	1140.78557190008	1141.6543989999918	2019-12-24 16:33:15.296889	1.25925933502824	-1.6842235569755	-2.00365639225761	-1.78813076679767	-0.744397057229374	-2.00365639225761	-1.25925933502824	-1.6842235569755	-2.00365639225761	-0.744397057229374	-2.00365639225761	1.6842235569755	-8.626332816579527	-6.199227800185177	-2.8812728132952117	-8.367226449498096	-7.4002207026052655	-2.8812728132952117	0.6001701758561699	-9.453913166240007	-0.8275803496604737	-8.530199010657553	-0.5503016028228409	2	correct	1.0
120.86743910005328	8.617206800030317	nogo_reward	1.0	120.89181840000685	122.58349220000662	125.10084379999887	1.6916737999997622	121.89333910006087	124.08981380006287	128.1603108999551	0.6901530999457464	1.0110299999359995	1.3487143000820652	127.1476781000382	0.2651638999814167	126.11923029995512	1	1	75	1	nogo_reward	0	1	0	0	0	1	0	0.0	1.0	0	1.0	0.2651638999814167	1020.7960380000296	1141.6878564000365	1142.6893771000905	1143.3795302000362	1144.8858518000925	1145.8968818000285	1146.9152682999847	1147.9437161000678	1148.9563488999847	1150.3050632000668	2019-12-24 16:33:15.296889	8.01932593446345	0.0	8.94334225218793	8.94334225218793	0.924016317724478	8.94334225218793	-8.01932593446345	8.94334225218793	0.0	8.94334225218793	0.924016317724478	-8.94334225218793	-1.8662662171443163	-4.5150042432096775	8.065725831150328	2.364246569487504	-5.731807327651413	8.065725831150328	-10.027395633307261	0.2338261431772981	2.1000923603216144	2.0973667985058784	1.453354789434769	2	correct	1.0
129.52632340008847	8.804764900007285	nogo_punish	1.0	129.55070270004205	131.76943720004044	134.299579399987	2.2187344999983907	130.55157250002947	133.28546549996815	137.36214139999345	1.2178647000109777	1.014113900018856	0.9933262000558898	136.34882910002477	0.6416447000810876	135.31982360000245	1	1	76	3	nogo_punish	1	-1	0	0	0	1	0	0.0	1.0	0	1.0	0.6416447000810876	1020.7960380000296	1150.3467407000717	1151.347610500059	1152.56547520007	1154.0815034999978	1155.0956174000166	1156.115861600032	1157.1448671000544	1158.158179400023	1159.151505600079	2019-12-24 16:33:15.296889	4.20097977149076	-6.5387482567744	-1.3851678200833	-2.73280342563326	-5.58614759157406	-1.3851678200833	-4.20097977149076	-1.3851678200833	-6.5387482567744	-1.3851678200833	-5.58614759157406	1.3851678200833	-5.684612380117007	-11.053752499984078	-2.262784241120902	-9.311899108333687	-12.24197123694995	-2.262784241120902	0.30111443896396994	-10.094683929093932	-4.410071548976925	-8.231143273765351	-5.085393467339631	2	correct	1.0
138.3661696000487	8.721327099949349	go_reward	0.5260178999742493	138.39054890000227	140.31724829995062	142.87310329999298	1.9266993999483475	139.40601739997498	141.8488314000423	145.89960829995096	0.9112308999756351	1.0242718999506906	1.212267700000666	144.89661169995077	0.4975193999707699	143.87679230002675	1	1	77	2	go_reward	1	1	0	1	1	1	0	0.0	1.0	1	0.5260178999742493	0.4975193999707699	1020.7960380000296	1159.186586900032	1160.2020554000046	1161.1132862999802	1162.644869400072	1163.6691413000226	1164.6728303000564	1165.6926496999804	1166.6956462999806	1167.9079139999812	2019-12-24 16:33:15.296889	22.5871868798376	21.9302846103652	0.0	20.6196383127638	22.5871868798376	0.0	-22.5871868798376	21.9302846103652	0.0	22.5871868798376	0.0	11.536487019859102	12.701594728229832	17.41528036715552	-0.877616421037602	14.040542630063374	15.931363234461708	-0.877616421037602	10.452433638739771	13.877670770826967	1.1760760425971362	15.084309156683148	1.453354789434769	2	correct	1.0
147.12731050001446	9.53528880001977	nogo_punish	1.0	147.15168979996804	149.8528614999958	152.39177430002007	2.7011717000277713	148.15177440003015	151.36846080003295	155.44346790004045	1.7010870999656618	1.0233134999871254	1.2435106999473646	154.42455260001577	0.4603390000993386	153.40611069998693	1	1	78	3	nogo_punish	0	0	-1	0	0	1	1	1.0	1.0	-1	1.0	0.4603390000993386	1020.7960380000296	1167.9477277999977	1168.9478124000598	1170.6488995000254	1172.1644988000626	1173.1878123000497	1174.2021487000166	1175.2205906000454	1176.23950590007	1177.4830166000174	2019-12-24 16:33:15.296889	4.47161746031951	-6.5387482567744	-1.13773682247699	-2.25779349116859	-5.60935428279651	-1.13773682247699	-4.47161746031951	-1.13773682247699	-6.5387482567744	-1.13773682247699	-5.60935428279651	-9.45810001729481	-5.413974691288257	-11.053752499984078	-2.0153532435145918	-8.836889173869016	-12.265177928172402	-2.0153532435145918	-10.542153398414142	-9.847252931487622	-4.433278240199375	-7.983712276159042	-5.085393467339631	2	correct	1.0
156.69684300001234	8.491421199985552	go_punish	0.522053400054574	156.72122229996592	158.30140300001938	160.84485130000405	1.580180700053461	157.74001279997162	159.8239935999735	163.87831319996587	0.5613902000477538	1.0208577000305468	1.334330299985595	162.86483320000127	0.3953461000928655	161.85307880002085	1	1	79	4	go_punish	1	0	-1	1	1	1	0	0.0	1.0	0	0.522053400054574	0.3953461000928655	1020.7960380000296	1177.5172602999955	1178.5360508000012	1179.097441000049	1180.6200316000031	1181.6408893000337	1182.6491168000505	1183.660871200031	1184.6743511999955	1186.008681499981	2019-12-24 16:33:15.296889	1.58689969959097	-1.33393942549781	-2.00365639225761	-1.42335633001066	-0.416756692666643	-2.00365639225761	-1.58689969959097	-1.33393942549781	-2.00365639225761	-0.416756692666643	-2.00365639225761	1.33393942549781	-8.298692452016796	-5.848943668707488	-2.8812728132952117	-8.002452012711087	-7.072580338042534	-2.8812728132952117	0.24988604437848005	-9.126272801677276	-0.8275803496604737	-8.179914879179861	-0.5503016028228409	2	correct	1.0
165.22197569999832	9.291069200029597	nogo_reward	1.0	165.2463549999519	168.01298590004433	170.53008299996134	2.766630900092423	166.24769390001882	169.51632110006165	173.56873120006628	1.7652920000255108	1.0137618998996913	0.9686929999152198	172.55553620005946	0.660304700024426	171.5441110000246	1	1	80	1	nogo_reward	1	0	1	0	0	1	0	0.0	1.0	1	1.0	0.660304700024426	1020.7960380000296	1186.0423929999815	1187.0437319000484	1188.809023900074	1190.3123591000913	1191.326120999991	1192.3401490000542	1193.351574200089	1194.364769200096	1195.3334622000111	2019-12-24 16:33:15.296889	6.39337829688572	0.0	7.32654593679804	7.32654593679804	0.933167639912319	7.32654593679804	-6.39337829688572	7.32654593679804	0.0	7.32654593679804	0.933167639912319	26.14022569342626	-3.4922138547220474	-4.5150042432096775	6.4489295157604385	0.7474502540976138	-5.7226560054635724	6.4489295157604385	25.05617231230693	-1.382970172212592	2.1092436825094554	0.48057048311598827	1.453354789434769	2	correct	1.0
174.547876000055	9.58806670003105	go_punish	0.3685800000093877	174.57225530000858	177.34290309995401	179.89763629995275	2.7706477999454364	175.57865140005003	178.8807019999948	182.95735579996847	1.76425169990398	1.0169342999579385	1.2029662000711596	181.94446240004606	0.6037616999819875	180.91693970002245	1	1	81	4	go_punish	1	0	-1	1	1	1	1	1.0	1.0	0	0.3685800000093877	0.6037616999819875	1020.7960380000296	1195.3682933000382	1196.3746894000797	1198.1389410999836	1199.6767400000244	1200.6936742999824	1201.712977700052	1202.7405004000757	1203.753393799998	1204.9563600000693	2019-12-24 16:33:15.296889	1.83618295854494	-1.06838743912539	-2.00365639225761	-1.1456252759763	-0.167473433712672	-2.00365639225761	-1.83618295854494	-1.06838743912539	-2.00365639225761	-0.167473433712672	-2.00365639225761	1.06838743912539	-8.049409193062827	-5.583391682335067	-2.8812728132952117	-7.724720958676727	-6.823297079088563	-2.8812728132952117	-0.015665941993940002	-8.876989542723305	-0.8275803496604737	-7.914362892807442	-0.5503016028228409	2	correct	1.0
184.1690849000587	8.764879900030792	nogo_reward	1.0	184.19346420001227	185.96713790006459	188.5023114000213	1.7736737000523135	185.1861776000586	187.4823247999883	191.55717879999418	0.7809603000059724	1.0199866000330076	1.4011653000488877	190.55278260004695	0.6713521999772638	189.52010580000922	1	1	82	1	nogo_reward	0	1	0	0	0	1	1	0.0	0.0	0	1.0	0.6713521999772638	1020.7960380000296	1204.989502200042	1205.9822156000882	1206.7631759000942	1208.278362800018	1209.298349400051	1210.3161438000388	1211.3488206000766	1212.3532168000238	1213.7543821000727	2019-12-24 16:33:15.296889	12.3067017767338	0.0	13.0944885534611	13.0944885534611	0.787786776727299	13.0944885534611	-12.3067017767338	13.0944885534611	0.0	13.0944885534611	0.787786776727299	-13.0944885534611	2.4211096251260322	-4.5150042432096775	12.216872132423497	6.515392870760673	-5.868036868648592	12.216872132423497	-14.17854193458043	4.384972444450467	1.9638628193244352	6.248513099779047	1.453354789434769	2	wrong	1.0
192.96662010007992	9.455555099993944	nogo_reward	1.0	192.9909994000335	195.40196930000081	197.94101229996875	2.410969899967313	193.98240119998798	196.91767590004008	200.98432599997602	1.4195681000128388	1.0233363999286667	1.462228500051424	199.9698250000364	0.7195816000457853	198.94580089999351	1	1	83	1	nogo_reward	1	0	1	0	0	1	0	0.0	1.0	1	1.0	0.7195816000457853	1020.7960380000296	1213.7870374000631	1214.7784392000176	1216.1980073000304	1217.7137139000697	1218.7370502999984	1219.7418389000231	1220.765863000066	1221.7803640000056	1223.242592500057	2019-12-24 16:33:15.296889	9.47980073170371	0.0	10.3271396778059	10.3271396778059	0.847338946102157	10.3271396778059	-9.47980073170371	10.3271396778059	0.0	10.3271396778059	0.847338946102157	23.1396319524184	-0.4057914199040571	-4.5150042432096775	9.449523256768297	3.7480439951054727	-5.808484699273734	9.449523256768297	22.055578571299073	1.617623568795267	2.023414988699293	3.481164224123847	1.453354789434769	2	correct	1.0
202.4564822000683	9.384692899999209	nogo_reward	1.0	202.4808615000219	205.04179689998261	207.58005340001534	2.5609353999607265	203.4969933000392	206.55697489995498	210.63174690003495	1.5448035999434069	1.0230785000603646	1.233807499986142	209.61262969998631	0.4903785999631509	208.59710380004242	1	1	84	1	nogo_reward	1	0	1	0	0	1	1	1.0	1.0	1	1.0	0.4903785999631509	1020.7960380000296	1223.2768995000515	1224.2930313000688	1225.8378349000122	1227.3530128999846	1228.376091400045	1229.393141800072	1230.408667700016	1231.4277849000646	1232.6615924000507	2019-12-24 16:33:15.296889	14.5686275193314	0.0	15.3022434968666	15.3022434968666	0.7336159775352	15.3022434968666	-14.5686275193314	15.3022434968666	0.0	15.3022434968666	0.7336159775352	18.1645281333577	4.683035367723633	-4.5150042432096775	14.424627075828997	8.723147814166174	-5.922207667840691	14.424627075828997	17.08047475223837	6.592727387855968	1.9096920201323362	8.456268043184547	1.453354789434769	2	correct	1.0
211.87545420008234	8.410547000006773	go_punish	1.0	211.89983350003592	213.56722680001974	216.09154259995546	1.6673932999838144	212.90605160000257	215.0788484000367	219.15443870006118	0.6611752000171691	1.0126941999187693	1.1559417999815196	218.14165010000568	0.565703900065273	217.10763149999536	1	1	85	4	go_punish	1	0	-1	1	0	0	0	0.0	1.0	-1	1.0	0.565703900065273	1020.7960380000296	1232.6958715000656	1233.7020896000322	1234.3632648000494	1235.8748864000663	1236.887580599985	1237.903669500025	1238.9376881000353	1239.9504767000908	1241.1064185000723	2019-12-24 16:33:15.296889	-2.02852252679028	-0.864198381746577	-2.00365639225761	-0.931152918464997	0.0248661345326728	-2.00365639225761	2.02852252679028	-2.00365639225761	-0.864198381746577	-2.00365639225761	0.0248661345326728	-8.592180447514192	-11.914114678398047	-5.379202624956255	-2.8812728132952117	-7.510248601165424	-6.630957510843219	-2.8812728132952117	-9.676233828633523	-10.713172501268243	1.200942177129809	-8.849631845939662	0.5891564076881919	2	correct	1.0
220.32553690008342	7.845418600016274	nogo_punish	1.0	220.349916200037	221.78242469998088	224.3099220000439	1.4325084999438786	221.36091060005117	223.2982037999899	227.3499625000403	0.4215140999297091	1.0117182000540197	0.8453723000129685	226.34457069996267	0.505248700035736	225.3232951000099	1	1	86	3	nogo_punish	1	-1	0	0	0	1	0	0.0	1.0	0	1.0	0.505248700035736	1020.7960380000296	1241.1459542000666	1242.1569486000808	1242.5784627000105	1244.0942418000195	1245.1059600000735	1246.1193331000395	1247.1406086999923	1248.14600050007	1248.991372800083	2019-12-24 16:33:15.296889	2.56864720968678	-6.5387482567744	-2.94494223525935	-3.88195722977322	-5.51358944494613	-2.94494223525935	-2.56864720968678	-2.94494223525935	-6.5387482567744	-2.94494223525935	-5.51358944494613	2.94494223525935	-7.316944941920987	-11.053752499984078	-3.822558656296952	-10.461052912473647	-12.16941309032202	-3.822558656296952	1.86088885414002	-11.654458344269983	-4.3375134023489945	-9.790917688941402	-5.085393467339631	2	correct	1.0
228.21087250008702	8.024541500024498	nogo_punish	1.0	228.2352518000406	229.68364850000933	232.20922800002143	1.4483966999687254	229.24713619996317	231.18949390004843	235.25094669999078	0.4365123000461608	1.0197340999729931	1.008846600074321	234.24734330002673	0.2194245000137016	233.22814290004328	1	1	87	3	nogo_punish	1	-1	0	0	0	1	0	0.0	1.0	0	1.0	0.2194245000137016	1020.7960380000296	1249.0312898000702	1250.0431741999928	1250.479686500039	1251.985531900078	1253.005266000051	1254.024180900073	1255.0433813000564	1256.0469847000204	1257.0558313000947	2019-12-24 16:33:15.296889	3.21788170821426	-6.5387482567744	-2.33970697117726	-3.12829071411639	-5.55758867939152	-2.33970697117726	-3.21788170821426	-2.33970697117726	-6.5387482567744	-2.33970697117726	-5.55758867939152	2.33970697117726	-6.667710443393507	-11.053752499984078	-3.217323392214862	-9.707386396816815	-12.213412324767411	-3.217323392214862	1.25565359005793	-11.049223080187893	-4.381512636794383	-9.185682424859312	-5.085393467339631	2	correct	1.0
236.2709566000848	9.678147199912928	go_punish	0.544611299992539	236.29533590003837	239.04777010006353	241.6057506999931	2.7524342000251636	237.31468079995818	240.58517129998643	244.66160059999686	1.7330893001053482	1.0205794000066817	1.3118824999544358	243.65621909999743	0.5755850999848917	242.62272830004792	1	1	88	4	go_punish	1	0	-1	1	1	1	0	1.0	0.0	0	0.544611299992539	0.5755850999848917	1020.7960380000296	1257.091373900068	1258.1107187999878	1259.8438081000932	1261.381209300016	1262.4017887000227	1263.4187663000776	1264.452257100027	1265.4576386000265	1266.769521099981	2019-12-24 16:33:15.296889	3.68882611005887	-0.864198381746577	-3.55946037984029	-2.76712058835645	0.129365730218582	-3.55946037984029	-3.68882611005887	-0.864198381746577	-3.55946037984029	0.129365730218582	-3.55946037984029	0.864198381746577	-6.196766041548897	-5.379202624956255	-4.437076800877892	-9.346216271056877	-6.526457915157309	-4.437076800877892	-0.219854999372753	-8.58015037879205	-2.383384337243154	-7.710173835428629	-2.1061055904055213	2	wrong	1.0
245.98266140010662	8.348273999989033	nogo_reward	1.0	246.0070407000602	247.81983579997893	250.3497862999792	1.8127950999187306	247.00870020000718	249.3359974999911	253.40190639998752	0.8111355999717489	1.013788799988106	0.9534083000617102	252.39457190001838	0.4959228999214247	251.36458140006278	1	1	89	1	nogo_reward	1	0	1	0	0	1	0	0.0	1.0	1	1.0	0.4959228999214247	1020.7960380000296	1266.8030787000898	1267.8047382000368	1268.6158738000086	1270.1320355000207	1271.1458243000088	1272.1606194000924	1273.190609900048	1274.1979444000171	1275.1513527000789	2019-12-24 16:33:15.296889	18.3614156266861	0.0	19.0262222767803	19.0262222767803	0.664806650094177	19.0262222767803	-18.3614156266861	19.0262222767803	0.0	19.0262222767803	0.664806650094177	14.440549353444002	8.475823475078332	-4.5150042432096775	18.148605855742698	12.447126594079872	-5.991016995281714	18.148605855742698	13.356495972324671	10.316706167769667	1.8408826926913133	12.180246823098248	1.453354789434769	2	correct	1.0
254.37198340008024	8.069575699977577	nogo_punish	1.0	254.39636270003382	255.9590567999984	258.48553700000036	1.562694099964574	255.39675750001322	257.46593830001086	261.550422900007	0.5622992999851704	1.0195986999895013	0.9155155000044033	260.53632880002226	0.6262199999764562	259.5032648000632	1	1	90	3	nogo_punish	1	-1	0	0	0	1	0	1.0	0.0	0	1.0	0.6262199999764562	1020.7960380000296	1275.1924007000634	1276.1927955000428	1276.755094800028	1278.2619763000405	1279.28157500003	1280.2993028000928	1281.332366800052	1282.3464609000366	1283.261976400041	2019-12-24 16:33:15.296889	3.70883409009026	-6.5387482567744	-1.8805177736665	-2.54783667559901	-5.58935186375676	-1.8805177736665	-3.70883409009026	-1.8805177736665	-6.5387482567744	-1.8805177736665	-5.58935186375676	1.8805177736665	-6.176758061517507	-11.053752499984078	-2.758134194704102	-9.126932358299436	-12.24517550913265	-2.758134194704102	0.7964643925471699	-10.590033882677133	-4.413275821159624	-8.726493227348552	-5.085393467339631	2	wrong	1.0
262.4770264000398	8.85508020000998	go_reward	0.4092940000118688	262.50140569999337	264.302153800032	266.8458564999743	1.8007481000386178	263.5163352000526	265.8252652999944	269.878406099975	0.7858185999793932	1.02059119997989	1.478079800028354	268.87223460001394	1.0	267.86343010002736	1	1	91	2	go_reward	0	0	1	1	1	1	0	n/a	0.0	1	0.4092940000118688	1.0	1020.7960380000296	1283.297443700023	1284.3123732000822	1285.0981918000616	1286.621303300024	1287.641894500004	1288.659468100057	1289.6682726000436	1290.6744441000046	1292.152523900033	2019-12-24 16:33:15.296889	24.7863714963967	24.1663575406398	0.0	23.1326857019706	24.7863714963967	0.0	-24.7863714963967	24.1663575406398	0.0	24.7863714963967	0.0	-24.1663575406398	14.900779344788933	19.651353297430123	-0.877616421037602	16.553590019270175	18.130547851020808	-0.877616421037602	-25.25041092175913	16.07685538738607	1.1760760425971362	17.32038208695775	1.453354789434769	2	missed	0.0
271.37268580007355	7.866813599946909	nogo_punish	0.6241943999193609	271.39706510002713	272.75033509999037	275.28661449998606	1.3532699999632314	272.4071323999668	274.271249399986	278.31767639995076	0.34320270002353936	1.0153651000000536	0.9462023000232875	277.3033196000614	0.6923229999374598	276.2911788000491	1	1	92	3	nogo_punish	1	-1	0	0	1	0	1	0.0	0.0	-1	0.6241943999193609	0.6923229999374598	1020.7960380000296	1292.1931031000568	1293.2031703999965	1293.54637310002	1295.0672874000156	1296.0826525000157	1297.0872168000787	1298.099357600091	1299.1137143999804	1300.0599167000037	2019-12-24 16:33:15.296889	-4.08581377266842	-6.5387482567744	-1.5268013135019	-2.09437247022345	-5.61261508617031	-1.5268013135019	4.08581377266842	-6.5387482567744	-1.5268013135019	-5.61261508617031	-1.5268013135019	-4.057088582997401	-13.971405924276187	-11.053752499984078	-2.404417734539502	-8.673468152923876	-12.268438731546201	-2.404417734539502	-5.141141964116731	-14.322131195180942	-0.3507252709047639	-13.384723710456452	-0.07344652406713115	2	wrong	1.0
279.2750675000715	8.622529499931261	go_punish	0.3854228999698534	279.29944680002507	281.07110269996326	283.6232509999535	1.771655899938196	280.31432210002083	282.6026792000047	286.6786172999999	0.7567805999424309	1.0205717999488115	1.2433589999563992	285.6659336000447	0.4525904000038281	284.63070790003974	1	1	93	4	go_punish	1	0	-1	1	1	1	0	0.0	1.0	0	0.3854228999698534	0.4525904000038281	1020.7960380000296	1300.0954848000547	1301.1103601000505	1301.867140699993	1303.3987172000343	1304.419288999983	1305.4267459000694	1306.4619716000743	1307.4746553000296	1308.718014299986	2019-12-24 16:33:15.296889	3.81054651947384	-0.70522958914599	-3.55946037984029	-2.1867097870931	0.251086139633554	-3.55946037984029	-3.81054651947384	-0.70522958914599	-3.55946037984029	0.251086139633554	-3.55946037984029	0.70522958914599	-6.075045632133927	-5.220233832355667	-4.437076800877892	-8.765805469793527	-6.404737505742338	-4.437076800877892	-0.37882379197334004	-8.458429969377079	-2.383384337243154	-7.551205042828042	-2.1061055904055213	2	correct	1.0
287.93219880003005	8.805837200023234	go_punish	1.0	287.95657809998363	290.4068769000004	292.936684199958	2.4502988000167534	288.97273110004596	291.9223829000256	295.9879950999747	1.4341457999544218	1.0143012999324128	0.774420200032182	294.9753565000136	0.9709021999733524	293.95364219998	1	1	94	4	go_punish	1	0	-1	1	0	0	0	0.0	1.0	-1	1.0	0.9709021999733524	1020.7960380000296	1308.7526161000133	1309.7687691000756	1311.20291490003	1312.7184209000552	1313.7327221999876	1314.7496802000096	1315.7713945000432	1316.7840331000043	1317.5584533000365	2019-12-24 16:33:15.296889	-3.90915962523753	-0.580095349490223	-3.55946037984029	-1.74881266543684	0.349699245397242	-3.55946037984029	3.90915962523753	-3.55946037984029	-0.580095349490223	-3.55946037984029	0.349699245397242	-7.03637645993151	-13.794751776845297	-5.095099592699901	-4.437076800877892	-8.327908348137267	-6.306124399978649	-4.437076800877892	-8.120429841050841	-12.268976488850923	1.5257752879943782	-10.405435833522342	0.8732594399445459	2	correct	1.0
296.7779659000224	8.069391400087625	nogo_punish	1.0	296.802345199976	298.37500860006537	300.9173256000503	1.5726634000893682	297.81305870006315	299.8954685999778	303.98174069996446	0.5619499000022188	1.0218570000724867	0.8899959000991657	302.9678635000017	0.4828316000057384	301.93971039995074	1	1	95	3	nogo_punish	1	-1	0	0	0	1	0	1.0	0.0	0	1.0	0.4828316000057384	1020.7960380000296	1317.5983832000056	1318.6090967000928	1319.171046600095	1320.6915066000074	1321.71336360008	1322.7357483999804	1323.7639015000314	1324.777778699994	1325.6677746000933	2019-12-24 16:33:15.296889	4.62384970492057	-7.17277024377839	-1.5268013135019	-3.73939799079251	-6.15065101842247	-1.5268013135019	-4.62384970492057	-1.5268013135019	-7.17277024377839	-1.5268013135019	-6.15065101842247	1.5268013135019	-5.261742446687197	-11.687774486988069	-2.404417734539502	-10.318493673492936	-12.806474663798362	-2.404417734539502	0.44274793238257004	-10.236317422512533	-4.974574975825334	-8.372776767183952	-5.719415454343621	2	wrong	1.0
304.88450680009544	7.951828899909742	go_punish	0.3565713999560103	304.908886100049	306.2848842999664	308.83633239998005	1.375998199917376	305.9262613999887	307.8165945999789	311.88299319997884	0.3586228999777177	1.0197378000011668	0.9777217999799177	310.87699979997694	0.3714104000246152	309.8610326000488	1	1	96	4	go_punish	1	0	-1	1	1	1	1	0.0	0.0	0	0.3565713999560103	0.3714104000246152	1020.7960380000296	1325.7049241000786	1326.7222994000183	1327.080922299996	1328.6126326000085	1329.6323704000097	1330.6570706000784	1331.6730378000066	1332.6790312000085	1333.6567529999884	2019-12-24 16:33:15.296889	5.22694649729896	-0.580095349490223	-4.78318953831614	-3.41695411184841	0.443756958982825	-4.78318953831614	-5.22694649729896	-0.580095349490223	-4.78318953831614	0.443756958982825	-4.78318953831614	0.580095349490223	-4.658645654308807	-5.095099592699901	-5.660805959353742	-9.996049794548837	-6.212066686393066	-5.660805959353742	-0.503958031629107	-8.265759150027808	-3.607113495719004	-7.426070803172275	-3.329834748881371	2	wrong	1.0
312.8761948000173	8.653415900073014	nogo_punish	0.6254222999559715	312.90057409997087	314.7611412999685	317.31266259995743	1.860567199997604	313.9111727999988	316.28924519999407	320.34332630003325	0.849968499969691	1.023417399963364	1.2106637000106275	319.3367972000268	1.0	318.326734800008	1	1	97	3	nogo_punish	1	-1	0	0	1	0	1	n/a	0.0	0	0.6254222999559715	1.0	1020.7960380000296	1333.6966121000005	1334.7072108000284	1335.557179299998	1337.0852832000237	1338.108700599987	1339.1227728000376	1340.1328352000564	1341.1393643000629	1342.3500280000735	2019-12-24 16:33:15.296889	-4.94358202452724	-7.17277024377839	-1.25073478338993	-3.00485835167524	-6.19431680791716	-1.25073478338993	4.94358202452724	-7.17277024377839	-1.25073478338993	-6.19431680791716	-1.25073478338993	-3.4230665959934106	-14.829174176135007	-11.687774486988069	-2.128351204427532	-9.583954034375667	-12.85014045329305	-2.128351204427532	-4.50711997711274	-14.903832916927794	-0.07465874079279389	-14.018745697460442	0.20262000604483887	2	missed	0.0
321.56677430006664	8.484454900026321	go_reward	0.3899712000275031	321.5911536000202	323.2755999000507	325.80241909995686	1.6844463000304586	322.6044326999689	324.79804250004247	328.85834410006635	0.6711672000817543	1.0043765999143943	1.2172643999801949	327.8453058999727	0.56253039999865	326.8168718999947	1	1	98	2	go_reward	1	1	0	1	1	1	0	0.0	1.0	1	0.3899712000275031	0.56253039999865	1020.7960380000296	1342.3871916000498	1343.4004706999986	1344.0716379000803	1345.594080500072	1346.5984570999865	1347.6129099000243	1348.6413439000023	1349.654382100096	1350.8716465000762	2019-12-24 16:33:15.296889	26.4879456568494	25.8881289704185	0.0	25.0654548052349	26.4879456568494	0.0	-26.4879456568494	25.8881289704185	0.0	26.4879456568494	0.0	7.578642659805801	16.602353505241634	21.373124727208822	-0.877616421037602	18.486359122534473	19.83212201147351	-0.877616421037602	6.494589278686472	17.77842954783877	1.1760760425971362	19.042153516736448	1.453354789434769	2	correct	1.0
330.08652410004277	8.819665199960582	go_reward	0.256949899950996	330.11090339999635	332.40757300006214	334.9510266999713	2.2966696000657976	331.1274873999645	333.9392921000252	337.9990127000491	1.2800856000976637	1.0117345999460667	0.9315558999078348	336.98660790000565	0.4281083000823855	335.97540070000093	1	1	99	2	go_reward	0	0	1	1	1	1	0	0.0	1.0	0	0.256949899950996	0.4281083000823855	1020.7960380000296	1350.906941400026	1351.923525399994	1353.2036110000918	1354.7353301000549	1355.747064700001	1356.7714387000306	1357.7826459000353	1358.7950507000787	1359.7266065999866	2019-12-24 16:33:15.296889	27.8222945149612	27.2322155041606	0.0	26.5720389744332	27.8222945149612	0.0	-27.8222945149612	27.2322155041606	0.0	27.8222945149612	0.0	-27.2322155041606	17.936702363353433	22.717211260950922	-0.877616421037602	19.992943291732775	21.16647086958531	-0.877616421037602	-28.31626888527993	19.112778405950568	1.1760760425971362	20.38624005047855	1.453354789434769	2	correct	1.0
338.9458248000591	9.243804999976419	nogo_punish	1.0	338.97020410001267	341.3072923000435	343.82060570002056	2.3370882000308484	339.9857873000436	342.8127060000551	346.86141819995817	1.3215049999998882	1.007899699965492	1.3525909000309184	345.8484052000566	0.66040240006987	344.82910850003816	1	1	100	3	nogo_punish	1	-1	0	0	0	1	0	0.0	1.0	0	1.0	0.66040240006987	1020.7960380000296	1359.7662421000423	1360.7818253000733	1362.1033303000731	1363.6087440000847	1364.6166437000502	1365.6251465000678	1366.6444432000862	1367.6574561999878	1369.0100471000187	2019-12-24 16:33:15.296889	3.48945263575007	-5.68723868836295	-1.25073478338993	-2.44142473971757	-4.74018741914	-1.25073478338993	-3.48945263575007	-1.25073478338993	-5.68723868836295	-1.25073478338993	-4.74018741914	1.25073478338993	-6.396139515857698	-10.202242931572627	-2.128351204427532	-9.020520422417997	-11.396011064515891	-2.128351204427532	0.16668140227060002	-9.960250892400563	-3.5641113765428636	-8.096710237071981	-4.233883898928181	2	correct	1.0
348.2237520000198	9.37319379998371	nogo_reward	1.0	348.24813129997335	350.7392827000002	353.27833350002754	2.4911514000268653	349.2645794999552	352.25510810001276	356.3314778000348	1.4747032000450417	1.0232254000147805	1.2898472999222577	355.31885359995056	0.4245509000029415	354.29806599998835	1	1	101	1	nogo_reward	1	0	1	0	0	1	0	0.0	1.0	1	1.0	0.4245509000029415	1020.7960380000296	1369.044169300003	1370.0606174999848	1371.5353207000298	1373.0511461000424	1374.0743715000572	1375.094104000018	1376.1148915999802	1377.1275158000644	1378.4173630999867	2019-12-24 16:33:15.296889	21.2343392829981	0.0	21.8585636951267	21.8585636951267	0.624224412128603	21.8585636951267	-21.2343392829981	21.8585636951267	0.0	21.8585636951267	0.624224412128603	11.6082079350976	11.348747131390333	-4.5150042432096775	20.9809472740891	15.279468012426275	-6.031599233247288	20.9809472740891	10.524154553978269	13.149047586116069	1.8003004547257393	15.01258824144465	1.453354789434769	2	correct	1.0
357.6297724000177	8.038455400033854	nogo_reward	1.0	357.6541516999713	358.9924648000159	361.52041180001095	1.3383131000446156	358.663646699977	360.49736629996926	364.5520968000636	0.3288181000389159	1.0230455000416896	1.1405102999415249	363.5483342000515	0.6157325999811292	362.5347410000394	1	1	102	1	nogo_reward	1	0	1	0	0	1	0	0.0	1.0	1	1.0	0.6157325999811292	1020.7960380000296	1378.450189700001	1379.4596847000066	1379.7885028000455	1381.2934042999989	1382.3164498000406	1383.330779000069	1384.3443722000811	1385.3481348000932	1386.4886451000348	2019-12-24 16:33:15.296889	23.4414914240537	0.0	24.0429810036989	24.0429810036989	0.601489579645218	24.0429810036989	-23.4414914240537	24.0429810036989	0.0	24.0429810036989	0.601489579645218	9.423790626525403	13.555899272445934	-4.5150042432096775	23.165364582661297	17.46388532099847	-6.054334065730673	23.165364582661297	8.339737245406072	15.333464894688266	1.7775656222423541	17.197005550016847	1.453354789434769	2	correct	1.0
365.7037391000191	8.614435900002945	go_punish	0.3372767999535426	365.7281183999727	367.79035599995393	370.33254600001953	2.062237599981245	366.74316059995897	369.3205171000444	373.3756012000375	1.047195399994962	1.012028899975121	0.9669530999381095	372.3622963000088	0.5389585000229999	371.3506518000503	1	1	103	4	go_punish	1	0	-1	1	1	1	0	0.0	1.0	0	0.3372767999535426	0.5389585000229999	1020.7960380000296	1386.5241564000023	1387.5391985999886	1388.5863939999836	1390.116555100074	1391.1285840000492	1392.14668980008	1393.1583343000384	1394.1716392000671	1395.1385923000053	2019-12-24 16:33:15.296889	5.2816333007248	-0.480618130590968	-4.78318953831614	-2.70857181402696	0.498443762408664	-4.78318953831614	-5.2816333007248	-0.480618130590968	-4.78318953831614	0.498443762408664	-4.78318953831614	0.480618130590968	-4.603958850882967	-4.9956223738006456	-5.660805959353742	-9.287667496727387	-6.157379882967227	-5.660805959353742	-0.603435250528362	-8.211072346601968	-3.607113495719004	-7.32659358427302	-3.329834748881371	2	correct	1.0
374.35453200002655	8.185664499993436	go_punish	0.4399518000427633	374.37891129998013	375.938636100036	378.48992630001146	1.5597248000558466	375.3857768999875	377.4702888999599	381.5401044000172	0.5528592000484878	1.0196374000515789	1.0244713999563828	380.5271538000087	0.3558579999953508	379.50766999996256	1	1	104	4	go_punish	1	0	-1	1	1	1	0	0.0	1.0	0	0.4399518000427633	0.3558579999953508	1020.7960380000296	1395.1749493000098	1396.1818149000171	1396.7346741000656	1398.2663268999895	1399.285964300041	1400.3037079999922	1401.3231918000383	1402.3361424000468	1403.3606138000032	2019-12-24 16:33:15.296889	5.32938332632194	-0.400830265352844	-4.78318953831614	-2.17180628538148	0.5461937880058	-4.78318953831614	-5.32938332632194	-0.400830265352844	-4.78318953831614	0.5461937880058	-4.78318953831614	0.400830265352844	-4.556208825285827	-4.915834508562521	-5.660805959353742	-8.750901968081907	-6.109629857370091	-5.660805959353742	-0.6832231157664861	-8.163322321004832	-3.607113495719004	-7.246805719034896	-3.329834748881371	2	correct	1.0
382.576241700095	9.406651299912483	go_reward	0.2778234999859705	382.6006210000486	385.2196939999702	387.77337579999573	2.6190729999216273	383.6151464000576	386.7500965000362	390.80941530002735	1.604547599912621	1.0232792999595404	1.1978569999337196	389.81034299999	0.8868857000488788	388.78877079999086	1	1	105	2	go_reward	1	1	0	1	1	1	0	0.0	1.0	1	0.2778234999859705	0.8868857000488788	1020.7960380000296	1403.3966590000782	1404.4111844000872	1406.0157319999998	1407.5461345000658	1408.5694138000254	1409.5848088000205	1410.6063810000196	1411.605453300057	1412.8033102999907	2019-12-24 16:33:15.296889	21.9805201612288	21.2451708394644	0.0	20.7113790157514	21.9805201612288	0.0	-21.9805201612288	21.2451708394644	0.0	21.9805201612288	0.0	12.2216007907599	12.094928009621032	16.730166596254723	-0.877616421037602	14.132283333050975	15.324696515852908	-0.877616421037602	11.13754740964057	13.271004052218167	1.1760760425971362	14.399195385782349	1.453354789434769	2	correct	1.0
392.01640420011233	8.38369069993496	go_reward	1.0	392.0407835000659	393.5100057000526	396.0273093000286	1.4692221999866888	393.0424100999952	395.0159499000291	399.08136179996643	0.4675956000573933	1.0113593999994919	1.3431124000344425	398.0664428999879	0.8859272999688983	397.04357830004267	1	1	106	2	go_reward	1	1	0	1	0	0	0	0.0	1.0	0	1.0	0.8859272999688983	1020.7960380000296	1412.8368215000955	1413.8384481000248	1414.3060437000822	1415.8119879000587	1416.8233473000582	1417.8396163000723	1418.8624809000175	1419.877399799996	1421.2205122000305	2019-12-24 16:33:15.296889	-24.5125367686143	23.8366111866307	0.0	23.4020018457266	24.5125367686143	0.0	24.5125367686143	0.0	23.8366111866307	0.0	24.5125367686143	0.0	-34.398128920222064	19.321606943421024	-0.877616421037602	16.822906163026172	17.856713123238407	-0.877616421037602	-1.08405338111933	-8.709516109010632	25.688612811211435	-6.845975453682052	25.28996597606547	2	correct	1.0
400.43640390003554	8.355842399992753	go_reward	0.6526018000440672	400.4607831999891	401.8649942000628	404.40920860005997	1.4042110000737011	401.4753144000423	403.39658379997115	407.4325021000112	0.3896798000205308	1.0126248000888154	1.3841234999706558	406.4289955999699	0.444396200007759	405.4171987000153	1	1	107	2	go_reward	1	1	0	1	1	1	1	1.0	1.0	1	0.6526018000440672	0.444396200007759	1020.7960380000296	1421.2568212000187	1422.271352400072	1422.6610322000924	1424.1926218000008	1425.2052466000896	1426.213236700045	1427.2250335999995	1428.2285401000408	1429.6126636000115	2019-12-24 16:33:15.296889	24.6265006044082	23.8366111866307	0.0	18.3641216691421	24.6265006044082	0.0	-24.6265006044082	23.8366111866307	0.0	24.6265006044082	0.0	9.6301604435936	14.740908452800433	19.321606943421024	-0.877616421037602	11.785025986441674	17.97067695903231	-0.877616421037602	8.546107062474269	15.916984495397568	1.1760760425971362	16.99063573294865	1.453354789434769	2	correct	1.0
408.82803150010284	8.503355099936016	go_reward	0.4022313000168651	408.8524108000564	410.31634320004366	412.8722744999683	1.4639323999872431	409.85810860001936	411.84900379995804	415.90922729996953	0.45823460002429783	1.0232707000102437	1.4465386000229046	414.90586409997206	0.4282244000351056	413.88636570004735	1	1	108	2	go_reward	1	1	0	1	1	1	1	1.0	1.0	1	0.4022313000168651	0.4282244000351056	1020.7960380000296	1429.648448800086	1430.654146600049	1431.1123812000733	1432.6450417999877	1433.668312499998	1434.682403700077	1435.7019021000017	1436.7052652999992	1438.151803900022	2019-12-24 16:33:15.296889	26.4798392078446	25.7693367441726	0.0	21.6382931607108	26.4798392078446	0.0	-26.4798392078446	25.7693367441726	0.0	26.4798392078446	0.0	7.697434886051703	16.59424705623683	21.25433250096292	-0.877616421037602	15.059197478010372	19.82401556246871	-0.877616421037602	6.613381504932373	17.770323098833966	1.1760760425971362	18.923361290490547	1.453354789434769	2	correct	1.0
417.36843940010283	9.772784399916418	go_reward	0.2344192999880761	417.3928187000564	420.1761617000449	422.72234790003847	2.783342999988463	418.40623199997924	421.69911719998333	425.76608510001086	1.7699297000656316	1.0232307000551373	1.3995179999619722	424.7560159000567	0.3244641000637784	423.72812270000566	1	1	109	2	go_reward	1	1	0	1	1	1	1	1.0	1.0	1	0.2344192999880761	0.3244641000637784	1020.7960380000296	1438.188856700086	1439.2022700000089	1440.9721997000745	1442.495155200013	1443.518385900068	1444.5241607000353	1445.5520539000863	1446.5621231000405	1447.9616411000025	2019-12-24 16:33:15.296889	27.9009000210084	27.2377725361289	0.0	24.0708200871218	27.9009000210084	0.0	-27.9009000210084	27.2377725361289	0.0	27.9009000210084	0.0	6.2289990940954	18.015307869400633	22.722768292919223	-0.877616421037602	17.491724404421372	21.245076375632507	-0.877616421037602	5.14494571297607	19.191383911997768	1.1760760425971362	20.39179708244685	1.453354789434769	2	correct	1.0
427.178050000104	9.57914059993368	go_reward	0.2210328000364825	427.2024293000576	429.79361379996396	432.32910329999856	2.591184499906376	428.2165285999653	431.31529050006054	435.3651741000357	1.5770851999986917	1.013812799938023	1.4163957999555805	434.35579659999337	0.3337167999707162	433.3428249000573	1	1	110	2	go_reward	1	1	0	1	1	1	1	1.0	1.0	1	0.2210328000364825	0.3337167999707162	1020.7960380000296	1447.9984673000872	1449.012566599995	1450.5896517999936	1452.1113285000902	1453.1251413000282	1454.138862900087	1455.151834600023	1456.1612121000653	1457.577607900021	2019-12-24 16:33:15.296889	29.0070813294036	28.3714529336571	0.0	25.9108203708342	29.0070813294036	0.0	-29.0070813294036	28.3714529336571	0.0	29.0070813294036	0.0	5.095318696567201	19.121489177795834	23.856448690447422	-0.877616421037602	19.331724688133775	22.351257684027708	-0.877616421037602	4.011265315447871	20.29756522039297	1.1760760425971362	21.52547747997505	1.453354789434769	2	correct	1.0
436.79363530001126	8.687461400055327	go_reward	0.4087228999705985	436.81801459996484	438.73789980006393	441.2745461000594	1.9198852000990883	437.83209579996753	440.2486606000456	444.2967402000212	0.9058040000963956	1.0258855000138283	1.2087357999989763	443.29148270003486	0.6290075000142679	442.2774741000027	1	1	111	2	go_reward	1	1	0	1	1	1	1	1.0	1.0	1	0.4087228999705985	0.6290075000142679	1020.7960380000296	1457.6140525999945	1458.6281337999972	1459.5339378000936	1461.0446986000752	1462.070584100089	1463.0735121000323	1464.0875207000645	1465.0927782000508	1466.3015140000498	2019-12-24 16:33:15.296889	29.8795290663724	29.2589802635528	0.0	27.3245086556328	29.8795290663724	0.0	-29.8795290663724	29.2589802635528	0.0	29.8795290663724	0.0	4.2077913666715006	19.99393691476463	24.743976020343123	-0.877616421037602	20.745412972932375	23.22370542099651	-0.877616421037602	3.1237379855521707	21.170012957361767	1.1760760425971362	22.41300480987075	1.453354789434769	2	correct	1.0
445.5199310000752	7.909363799961284	go_punish	0.2761223000707105	445.54431030002877	447.10844680003345	449.6608088000211	1.564136500004679	446.56220879999444	448.6398628000169	452.6946361999725	0.5462380000390112	1.0209460000041872	0.7590379000175744	451.68135019997123	0.3964469999773428	450.6691795999649	1	1	112	4	go_punish	1	0	-1	1	1	1	0	0.0	1.0	0	0.2761223000707105	0.3964469999773428	1020.7960380000296	1466.3403483000584	1467.358246800024	1467.904484800063	1469.4359008000465	1470.4568468000507	1471.4652175999945	1472.4773882000009	1473.490674200002	1474.2497121000197	2019-12-24 16:33:15.296889	5.37064439287751	-0.336314797293012	-4.78318953831614	-1.75901903290517	0.587454854561377	-4.78318953831614	-5.37064439287751	-0.336314797293012	-4.78318953831614	0.587454854561377	-4.78318953831614	0.336314797293012	-4.5149477587302576	-4.851319040502689	-5.660805959353742	-8.338114715605597	-6.068368790814514	-5.660805959353742	-0.747738583826318	-8.122061254449255	-3.607113495719004	-7.182290250975064	-3.329834748881371	2	correct	1.0
453.4665120000717	8.565033199964091	go_reward	0.4814345999620855	453.4908913000253	455.54203460004635	458.0930830000433	2.0511433000210673	454.5035810000262	457.07905060006294	461.1550690999719	1.0384536000201479	1.0140323999803513	0.9008554000174627	460.1357858000555	0.4625469000311568	459.1071271999971	1	1	113	2	go_reward	1	1	0	1	1	1	1	1.0	1.0	1	0.4814345999620855	0.4625469000311568	1020.7960380000296	1474.286929300055	1475.2996190000558	1476.338072600076	1477.8750886000926	1478.889121000073	1479.9031652000267	1480.931823800085	1481.9511071000015	1482.851962500019	2019-12-24 16:33:15.296889	30.5756169737012	29.9623726763699	0.0	28.4256093907778	30.5756169737012	0.0	-30.5756169737012	29.9623726763699	0.0	30.5756169737012	0.0	3.504398953854402	20.690024822093434	25.44736843316022	-0.877616421037602	21.846513708077374	23.919793328325312	-0.877616421037602	2.420345572735072	21.86610086469057	1.1760760425971362	23.116397222687848	1.453354789434769	2	correct	1.0
462.0726499001029	8.911097999894992	nogo_punish	1.0	462.09702920005645	464.46507929998927	466.99594659998536	2.368050099932816	463.1064815999706	465.9761447999625	470.0428173999534	1.358597700018663	1.019801800022833	0.9653097999980673	469.02803030004713	0.3983780000125989	468.0142830000258	1	1	114	3	nogo_punish	1	-1	0	0	0	1	0	0.0	1.0	0	1.0	0.3983780000125989	1020.7960380000296	1482.893067200086	1483.9025196000002	1485.261117300019	1486.7721827999922	1487.791984600015	1488.8103210000554	1489.8240683000768	1490.838855399983	1491.804165199981	2019-12-24 16:33:15.296889	3.73031806813668	-5.68723868836295	-1.03278552556381	-2.00284389953215	-4.76310359370049	-1.03278552556381	-3.73031806813668	-1.03278552556381	-5.68723868836295	-1.03278552556381	-4.76310359370049	1.03278552556381	-6.155274083471087	-10.202242931572627	-1.9104019466014122	-8.581939582232577	-11.418927239076382	-1.9104019466014122	-0.05126785555551994	-9.742301634574442	-3.5870275511033536	-7.878760979245862	-4.233883898928181	2	correct	1.0
471.01839610002924	8.357388900010847	nogo_reward	1.0	471.0427753999828	472.7832223000004	475.3088180000194	1.7404469000175595	472.05877240002144	474.30013630003657	478.3598221000283	0.7244498999789357	1.0086816999828443	1.0403421999653801	477.3451103999977	0.5129215999040753	476.32376399997145	1	1	115	1	nogo_reward	1	0	1	0	0	1	0	0.0	1.0	1	1.0	0.5129215999040753	1020.7960380000296	1491.8388134000124	1492.854810400051	1493.57926030003	1495.0961743000662	1496.104856000049	1497.119802000001	1498.1411484000273	1499.155860100058	1500.1962023000233	2019-12-24 16:33:15.296889	25.1584613035375	0.0	25.7485200577458	25.7485200577458	0.590058754208259	25.7485200577458	-25.1584613035375	25.7485200577458	0.0	25.7485200577458	0.590058754208259	7.718251572478501	15.272869151929733	-4.5150042432096775	24.8709036367082	19.169424375045374	-6.065764891167632	24.8709036367082	6.634198191359171	17.039003948735168	1.766134796805395	18.90254460406375	1.453354789434769	2	correct	1.0
479.40983840008255	8.491324099945132	nogo_reward	1.0	479.43421770003613	480.92586590000417	483.46343969996076	1.49164819996804	480.4395683000329	482.4405746000119	486.5103739000623	0.4862975999712944	1.022865099948831	1.4151678999189699	485.4971120000117	0.5178470000391826	484.4788625000507	1	1	116	1	nogo_reward	1	0	1	0	0	1	0	0.0	1.0	1	1.0	0.5178470000391826	1020.7960380000296	1500.2302557000658	1501.2356063000625	1501.7219039000338	1503.2366126000416	1504.2594776999904	1505.2749005000803	1506.2931500000414	1507.306411900092	1508.7215798000109	2019-12-24 16:33:15.296889	26.5090477149211	0.0	27.0948066326681	27.0948066326681	0.585758917747002	27.0948066326681	-26.5090477149211	27.0948066326681	0.0	27.0948066326681	0.585758917747002	6.371964997556201	16.623455563313332	-4.5150042432096775	26.2171902116305	20.515710949967673	-6.070064727628889	26.2171902116305	5.287911616436872	18.385290523657467	1.7618349603441381	20.24883117898605	1.453354789434769	2	correct	1.0
487.94318300008297	9.42916049994551	nogo_punish	1.0	487.96756230003655	490.43924159998994	492.96685880003486	2.4716792999533936	488.9654020000015	491.94617520004965	496.0076124999904	1.4738395999884233	1.0206835999852046	1.3891102999916711	495.0042603999608	0.3346762000583112	493.9839652000227	1	1	117	3	nogo_punish	1	-1	0	0	0	1	0	0.0	1.0	0	1.0	0.3346762000583112	1020.7960380000296	1508.7636003000662	1509.7614400000311	1511.2352796000196	1512.7422132000793	1513.7628968000645	1514.7800032000523	1515.8002983999904	1516.80365050002	1518.1927608000117	2019-12-24 16:33:15.296889	3.9210733236956	-5.68723868836295	-0.858962078192313	-1.65709077355039	-4.78003540188791	-0.858962078192313	-3.9210733236956	-0.858962078192313	-5.68723868836295	-0.858962078192313	-4.78003540188791	0.858962078192313	-5.964518827912167	-10.202242931572627	-1.736578499229915	-8.236186456250817	-11.4358590472638	-1.736578499229915	-0.22509130292701707	-9.568478187202945	-3.603959359290774	-7.704937531874365	-4.233883898928181	2	correct	1.0
497.40959550009563	9.892611399991665	go_reward	0.6932131999637932	497.4339748000492	500.2763838999671	502.81755529995996	2.842409099917859	498.4473525000502	501.7969546000239	505.848768500029	1.8290313999168575	1.0206006999360397	1.477817700011883	504.84511310001847	0.4388056000461802	503.8248872000257	1	1	118	2	go_reward	0	0	1	1	1	1	0	0.0	1.0	0	0.6932131999637932	0.4388056000461802	1020.7960380000296	1518.2300128000788	1519.2433905000798	1521.0724218999967	1522.5929926000535	1523.6135932999896	1524.6209252000554	1525.641151100048	1526.6448065000586	1528.1226242000705	2019-12-24 16:33:15.296889	31.1367160574489	30.5259290811292	0.0	29.2936713258716	31.1367160574489	0.0	-31.1367160574489	30.5259290811292	0.0	31.1367160574489	0.0	-30.5259290811292	21.251123905841133	26.01092483791952	-0.877616421037602	22.714575643171173	24.48089241207301	-0.877616421037602	-31.609982462248528	22.42719994843827	1.1760760425971362	23.679953627447148	1.453354789434769	2	correct	1.0
507.3381036000793	8.668282199999794	go_punish	0.7522157001076266	507.3624829000329	509.3762856000102	511.93323980004027	2.0138026999773047	508.3772440999743	510.9133918000151	514.9839053000325	0.9990415000359008	1.0198480000251493	1.0468598000002203	513.9799448000266	0.4066038000164553	512.9510639000215	1	1	119	4	go_punish	1	0	-1	1	1	1	0	0.0	1.0	0	0.7522157001076266	0.4066038000164553	1020.7960380000296	1528.1585209000625	1529.173282100004	1530.1723236000398	1531.7094298000447	1532.72927780007	1533.7471019000511	1534.7759828000562	1535.779943300062	1536.8268031000623	2019-12-24 16:33:15.296889	5.40610778455721	-0.283760956691433	-4.78318953831614	-1.43746976778098	0.622918246241076	-4.78318953831614	-5.40610778455721	-0.283760956691433	-4.78318953831614	0.622918246241076	-4.78318953831614	0.283760956691433	-4.479484367050557	-4.79876519990111	-5.660805959353742	-8.016565450481407	-6.032905399134815	-5.660805959353742	-0.800292424427897	-8.086597862769556	-3.607113495719004	-7.129736410373485	-3.329834748881371	2	correct	1.0
516.0411504000657	8.672258300008252	go_reward	0.3319850999396294	516.0655297000193	517.7266949999611	520.2793197999707	1.6611652999417856	517.0812224999535	519.2593523999675	523.3486409999895	0.6454725000075996	1.0199674000032246	1.389147000038065	522.3361659999936	0.3488824999658391	521.3038396000628	1	1	120	2	go_reward	0	0	1	1	1	1	1	1.0	1.0	0	0.3319850999396294	0.3488824999658391	1020.7960380000296	1536.861567700049	1537.877260499983	1538.5227329999907	1540.0553903999971	1541.0753578000003	1542.0998776000924	1543.1322040000232	1544.144679000019	1545.5338260000572	2019-12-24 16:33:15.296889	24.6925764251611	23.9327806352534	0.0	22.9363501832873	24.6925764251611	0.0	-24.6925764251611	23.9327806352534	0.0	24.6925764251611	0.0	-23.9327806352534	14.806984273553333	19.417776392043724	-0.877616421037602	16.357254500586873	18.03675277978521	-0.877616421037602	-25.01683401637273	15.983060316150468	1.1760760425971362	17.08680518157135	1.453354789434769	2	correct	1.0
