onset	duration	trial_type	response_time	cueOnset	targetOnset	fbOnset	cueRT	firstfixOnset	secondfixOnset	waitOnset	firstfixdur	secondfixdur	waitdur	nback_fbOnset	nback_response_time	nback_targetOnset	block	wm	trial	cue	cond	is_common	outcome_go	outcome_nogo	key_correct	key_pressed	is_correct	key_correct_nback	key_pressed_nback	is_correct_nback	outcome	rt	rt_nback	time_scan	time_onset	time_isi1	time_circle	time_isi2	time_feedback	time_same	time_correct	time_iti	time_done	timestamp_scan	DV	Qgo	Qnogo	SV	Wgo	Wnogo	mDV	Qchosen	Qunchosen	Wchosen	Wunchosen	PE	DVC	QgoC	QnogoC	SVC	WgoC	WnogoC	PEC	WchosenC	WunchosenC	QchosenC	QunchosenC	run	outcome_nback	nback_targetResp
0.0	9.067559899994876	nogo_punish	0.346552699978929	0.021937900048442316	2.2026824000058696	4.738744700036477	2.1807444999574273	1.0303160000476055	3.7364517000387423	7.80854660004843	1.172366399958264	1.002292999997735	1.2809511999948882	6.799447000026703	0.5803371000220068	5.758983400010038	2	1	1	1	nogo_punish	1	-1	0	0	1	0	0	0.0	1.0	-1	0.346552699978929	0.5803371000220068	1477.9263838999905	1477.948321800039	1478.956699900038	1480.1290662999963	1481.6628356000292	1482.665128600027	1483.6853673000005	1484.7258309000172	1485.734930500039	1487.0158817000338	2020-02-21 19:11:00.440840	1.55733372321702	0.0	0.0	0.0	1.55733372321702	0.0	-1.55733372321702	0.0	0.0	1.55733372321702	0.0	-22.5416620936891	-7.8831349442134115	-0.9306486021119144	-0.483545537233921	-4.879230349394809	-2.244409398086816	-0.483545537233921	-22.82260973416569	-5.305544939767078	2.577590004446335	-5.514235361222871	4.100041221877032	3	correct	1.0
9.095050999952718	8.357572700013407	nogo_punish	1.0	9.11698890000116	10.687510000017937	13.221084700024221	1.5705211000167765	10.123837899998762	12.20127910003066	16.262572600040585	0.5636721000191756	1.0198055999935605	1.2119889999739826	15.251348700025119	0.3638708000071347	14.230461600003764	2	1	2	1	nogo_punish	1	-1	0	0	0	1	0	1.0	0.0	0	1.0	0.3638708000071347	1477.9263838999905	1487.0433727999916	1488.0502217999892	1488.6138939000084	1490.1276630000211	1491.1474686000147	1492.1568454999942	1493.1777326000156	1494.188956500031	1495.400945500005	2020-02-21 19:11:00.440840	5.52402091517759	-4.41855532700325	0.0	-4.41855532700325	-5.52402091517759	0.0	-5.52402091517759	0.0	-4.41855532700325	0.0	-5.52402091517759	0.0	-3.916447752252842	-5.3492039291151645	-0.483545537233921	-9.297785676398059	-9.325764036481425	-0.483545537233921	-0.2809476404765886	-6.862878662984097	-2.9464309107312547	-5.514235361222871	-0.3185141051262175	3	wrong	1.0
17.477843099972006	8.856447500002105	go_reward	0.4950896999798715	17.499781000020448	19.35312420001719	21.914726999995764	1.8533431999967434	18.50975110003492	20.890899300051615	24.955244400014635	0.8433730999822728	1.0238276999441496	1.4009841000079177	23.946910400002025	0.5873296000063419	22.92716110002948	2	1	3	4	go_reward	1	1	0	1	1	1	0	0.0	1.0	1	0.4950896999798715	0.5873296000063419	1477.9263838999905	1495.426164900011	1496.4361350000254	1497.2795081000077	1498.817283200042	1499.8411108999862	1500.85354500002	1501.8732942999925	1502.881628300005	1504.282612400013	2020-02-21 19:11:00.440840	1.55733372321702	0.0	0.0	0.0	1.55733372321702	0.0	-1.55733372321702	0.0	0.0	1.55733372321702	0.0	26.0121991426814	-7.8831349442134115	-0.9306486021119144	-0.483545537233921	-4.879230349394809	-2.244409398086816	-0.483545537233921	25.73125150220481	-5.305544939767078	2.577590004446335	-5.514235361222871	4.100041221877032	3	correct	1.0
26.35920509998664	8.120671299984679	go_reward	0.6149522000341676	26.38114300003508	27.725485700007994	30.25864780001575	1.3443426999729127	27.38213209999958	29.246859700011555	33.31401560001564	0.3433536000084132	1.0117881000041962	1.187798700004123	32.29770150000695	0.944116299971938	31.27617399999872	2	1	4	4	go_reward	0	0	1	1	1	1	0	0.0	1.0	0	0.6149522000341676	0.944116299971938	1477.9263838999905	1504.3075269000256	1505.30851599999	1505.6518695999985	1507.173243600002	1508.1850317000062	1509.2025578999892	1510.2240853999974	1511.240399500006	1512.4281982000102	2020-02-21 19:11:00.440840	10.0968764338787	5.17391878828822	0.0	5.17391878828822	10.0968764338787	0.0	-10.0968764338787	5.17391878828822	0.0	10.0968764338787	0.0	-5.17391878828822	0.6564077664482681	4.243270186176305	-0.483545537233921	0.29468843889341123	6.295133312574864	-0.483545537233921	-5.4548664287648085	3.233997770894603	2.577590004446335	-0.34031657293465134	4.100041221877032	3	correct	1.0
34.50623780000001	8.25801239995053	nogo_punish	1.0	34.52817570004845	35.81013820000226	38.34628520003753	1.2819624999538064	35.52758690004703	37.32643640000583	41.40220940002473	0.2825512999552302	1.0198488000316956	1.38397869997425	40.39781180000864	0.3391772999893874	39.364170200016815	2	1	5	1	nogo_punish	1	-1	0	0	0	1	0	1.0	0.0	0	1.0	0.3391772999893874	1477.9263838999905	1512.454559600039	1513.4539708000375	1513.7365220999927	1515.2528202999963	1516.272669100028	1517.2905541000073	1518.324195699999	1519.3285933000152	1520.7125719999894	2020-02-21 19:11:00.440840	4.94198207762652	-4.41855532700325	0.0	-3.4300510734684	-4.94198207762652	0.0	-4.94198207762652	0.0	-4.41855532700325	0.0	-4.94198207762652	0.0	-4.498486589803912	-5.3492039291151645	-0.483545537233921	-8.309281422863208	-8.743725198930356	-0.483545537233921	-0.2809476404765886	-6.862878662984097	-2.3643920731801846	-5.514235361222871	-0.3185141051262175	3	wrong	1.0
42.79007839999372	8.088838299969211	nogo_punish	1.0	42.81201630004216	44.37497010000516	46.889122600026894	1.5629537999629974	43.811206400045194	45.880173700046726	49.94830990000628	0.5637636999599636	1.0089488999801688	0.9525447000050917	48.93465990002733	0.7001300000119954	47.905331600049976	2	1	6	1	nogo_punish	1	-1	0	0	0	1	0	1.0	0.0	0	1.0	0.7001300000119954	1477.9263838999905	1520.7384002000326	1521.7375903000357	1522.3013539999956	1523.8065576000372	1524.8155065000174	1525.8317155000404	1526.8610438000178	1527.8746937999967	1528.8272385000018	2020-02-21 19:11:00.440840	4.50275229989421	-4.41855532700325	0.0	-2.68995122170426	-4.50275229989421	0.0	-4.50275229989421	0.0	-4.41855532700325	0.0	-4.50275229989421	0.0	-4.937716367536222	-5.3492039291151645	-0.483545537233921	-7.569181571099069	-8.304495421198046	-0.483545537233921	-0.2809476404765886	-6.862878662984097	-1.9251622954478749	-5.514235361222871	-0.3185141051262175	3	wrong	1.0
50.92139429994836	8.238072500040289	nogo_reward	1.0	50.9433321999968	52.73405990004562	55.254622900043614	1.7907277000488193	51.95213320001494	54.2387462000479	58.29098370001884	0.7819267000306809	1.0158766999957152	0.8904210000182502	57.28593430004548	0.6970858999993652	56.26932100002864	2	1	7	3	nogo_reward	1	0	1	0	0	1	0	0.0	1.0	1	1.0	0.6970858999993652	1477.9263838999905	1528.8697160999873	1529.8785171000054	1530.660443800036	1532.1651301000384	1533.181006800034	1534.195704900019	1535.212318200036	1536.2173676000093	1537.1077886000276	2020-02-21 19:11:00.440840	-1.55733372321702	0.0	0.0	0.0	1.55733372321702	0.0	1.55733372321702	0.0	0.0	0.0	1.55733372321702	26.0121991426814	-10.997802390647452	-0.9306486021119144	-0.483545537233921	-4.879230349394809	-2.244409398086816	-0.483545537233921	25.73125150220481	-6.862878662984097	4.134923727663355	-5.514235361222871	4.100041221877032	3	correct	1.0
59.18397319997871	8.93495859997347	nogo_punish	1.0	59.20591110002715	61.567190400033724	64.08238690003054	2.361279300006572	60.20690069999546	63.071055400010664	67.11642259999644	1.3602897000382654	1.0113315000198781	1.0244471000041813	66.10271740000462	0.4143137999926694	65.08815080003114	2	1	8	1	nogo_punish	1	-1	0	0	0	1	1	1.0	1.0	0	1.0	0.4143137999926694	1477.9263838999905	1537.1322950000176	1538.133284599986	1539.4935743000242	1540.9974393000011	1542.008770800021	1543.0145347000216	1544.029101299995	1545.042806499987	1546.067253599991	2020-02-21 19:11:00.440840	4.16743896803939	-4.41855532700325	0.0	-2.12900728946184	-4.16743896803939	0.0	-4.16743896803939	0.0	-4.41855532700325	0.0	-4.16743896803939	0.0	-5.273029699391042	-5.3492039291151645	-0.483545537233921	-7.008237638856649	-7.969182089343226	-0.483545537233921	-0.2809476404765886	-6.862878662984097	-1.5898489635930546	-5.514235361222871	-0.3185141051262175	3	correct	1.0
68.14505989995064	8.653938800038532	nogo_punish	1.0	68.16699779999908	70.08272200002102	72.6226787000196	1.9157242000219412	69.17587130004563	71.59923829999752	75.65594350005267	0.9068506999753936	1.023440400022082	1.1649930999849403	74.65097499999683	0.4876404000096954	73.62571320001734	2	1	9	1	nogo_punish	0	0	-1	0	0	1	0	1.0	0.0	-1	1.0	0.4876404000096954	1477.9263838999905	1546.0933816999895	1547.102255200036	1548.0091059000115	1549.525622199988	1550.54906260001	1551.5520971000078	1552.5773588999873	1553.5823274000431	1554.747320500028	2020-02-21 19:11:00.440840	3.90879184082458	-4.41855532700325	0.0	-1.69915235685596	-3.90879184082458	0.0	-3.90879184082458	0.0	-4.41855532700325	0.0	-3.90879184082458	-22.5416620936891	-5.531676826605851	-5.3492039291151645	-0.483545537233921	-6.578382706250769	-7.710534962128416	-0.483545537233921	-22.82260973416569	-6.862878662984097	-1.331201836378245	-5.514235361222871	-0.3185141051262175	3	wrong	1.0
76.82373059994984	9.833456600026693	go_reward	0.2748223000089638	76.84566849999828	79.5806261000107	82.14818620000733	2.7349576000124216	77.85598809999647	81.12337680003839	85.18474370002514	1.724638000014238	1.0248093999689445	1.4943813999998383	84.18012380000437	0.628915400011465	83.1604670000379	2	1	10	4	go_reward	1	1	0	1	1	1	0	0.0	1.0	1	0.2748223000089638	0.628915400011465	1477.9263838999905	1554.7720523999888	1555.782371999987	1557.5070100000012	1559.0497607000289	1560.0745700999978	1561.0868509000284	1562.1065076999948	1563.1111276000156	1564.6055090000154	2020-02-21 19:11:00.440840	8.18066446309593	4.00271138074892	0.0	4.00271138074892	8.18066446309593	0.0	-8.18066446309593	4.00271138074892	0.0	8.18066446309593	0.0	22.00948776193248	-1.2598042043345021	3.072062778637006	-0.483545537233921	-0.8765189686458887	4.378921341792093	-0.483545537233921	21.72854012145589	1.3177858001118326	2.577590004446335	-1.5115239804739513	4.100041221877032	3	correct	1.0
86.68551569996612	8.23057339998195	nogo_punish	1.0	86.70745360001456	88.36883350001881	90.90995810000459	1.661379900004249	87.71248540002853	89.88890790002188	93.95877500000643	0.6563480999902822	1.0210501999827102	0.9792519999900833	92.95492859999649	0.2804562999517657	91.92795370001113	2	1	11	1	nogo_punish	1	-1	0	0	0	1	1	0.0	0.0	0	1.0	0.2804562999517657	1477.9263838999905	1564.633837500005	1565.638869300019	1566.2952174000093	1567.8152918000123	1568.836341999995	1569.8543376000016	1570.881312499987	1571.885158899997	1572.864410899987	2020-02-21 19:11:00.440840	1.95165231708133	-4.41855532700325	-4.41855532700325	-5.78502157215791	-6.37020764408458	-4.41855532700325	-1.95165231708133	-4.41855532700325	-4.41855532700325	-4.41855532700325	-6.37020764408458	4.41855532700325	-7.488816350349102	-5.3492039291151645	-4.902100864237171	-10.664251921552719	-10.171950765388416	-4.902100864237171	4.137607686526661	-11.281433989987347	-3.792617639638245	-9.93279068822612	-0.3185141051262175	3	wrong	1.0
94.96019739995222	9.028582700004563	nogo_reward	0.3098009000532329	94.98213530000066	97.43746860005194	99.99410050001461	2.4553333000512794	95.99491030001082	98.97468189999904	103.04365580005106	1.442558300041128	1.0194186000155696	0.9670621999541709	102.03073450003262	0.6792076999554411	101.0172317000106	2	1	12	3	nogo_reward	1	0	1	0	1	0	0	0.0	1.0	0	0.3098009000532329	0.6792076999554411	1477.9263838999905	1572.9085191999911	1573.9212942000013	1575.3638525000424	1576.9010657999895	1577.920484400005	1578.943615600001	1579.957118400023	1580.9700397000415	1581.9371018999957	2020-02-21 19:11:00.440840	-0.250961142697692	0.0	5.17391878828822	5.17391878828822	4.92295764559053	5.17391878828822	0.250961142697692	0.0	5.17391878828822	4.92295764559053	5.17391878828822	0.0	-9.691429810128124	-0.9306486021119144	4.690373251054299	0.29468843889341123	1.1212145242866938	4.690373251054299	-0.2809476404765886	-1.9399210173935675	7.751508792734555	-5.514235361222871	9.273960010165252	3	correct	1.0
104.01447029999667	9.22159729996929	go_reward	0.3355474999989383	104.03640820004512	106.52180030004843	109.0649649000261	2.4853921000033097	105.05406370002311	108.05286100000376	112.12423480005236	1.4677366000253187	1.012103900022339	1.1337706999620423	111.11129210004583	0.5880958000198007	110.08130300004268	2	1	13	4	go_reward	0	0	1	1	1	1	0	0.0	1.0	0	0.3355474999989383	0.5880958000198007	1477.9263838999905	1581.9627921000356	1582.9804476000136	1584.448184200039	1585.9792448999942	1586.9913488000166	1588.0076869000331	1589.0376760000363	1590.0506187000428	1591.1843894000049	2020-02-21 19:11:00.440840	15.2869480550989	8.30343312869148	0.0	8.30343312869148	15.2869480550989	0.0	-15.2869480550989	8.30343312869148	0.0	15.2869480550989	0.0	-8.30343312869148	5.846479387668468	7.372784526579566	-0.483545537233921	3.424202779296672	11.485204933795064	-0.483545537233921	-8.58438076916807	8.424069392114802	2.577590004446335	2.7891977674686093	4.100041221877032	3	correct	1.0
113.26228979998245	9.061900099972263	nogo_punish	0.7714663000078872	113.2842277000309	115.32994419999864	117.86915130005241	2.045716499967739	114.28489480004646	116.85418310004752	120.90610750002065	1.0450493999521768	1.014968200004887	1.440020299982507	119.89536270004464	0.7381927000242285	118.88221190002514	2	1	14	1	nogo_punish	1	-1	0	0	1	0	0	1.0	0.0	-1	0.7714663000078872	0.7381927000242285	1477.9263838999905	1591.2106116000214	1592.211278700037	1593.256328099989	1594.780567000038	1595.7955352000429	1596.8085958000156	1597.821746600035	1598.8324914000111	1600.2725116999936	2020-02-21 19:11:00.440840	-2.19998218739767	-4.41855532700325	-3.4300510734684	-4.5367029339163	-5.63003326086607	-3.4300510734684	2.19998218739767	-4.41855532700325	-3.4300510734684	-5.63003326086607	-3.4300510734684	-18.12310676668585	-11.640450854828103	-5.3492039291151645	-3.913596610702321	-9.415933283311109	-9.431776382169906	-3.913596610702321	-18.40405440716244	-12.492911923850167	-0.8524610690220649	-9.93279068822612	0.6699901484086324	3	wrong	1.0
122.36891599994829	9.21952040004544	go_punish	0.335179399990011	122.39085389999673	125.12024330004351	127.66155170003185	2.7293894000467844	123.40369720000308	126.64077270001872	130.7107765999972	1.716546100040432	1.0207790000131354	0.8995977000449784	129.70668860001024	0.5639721000334248	128.67734620004194	2	1	15	2	go_punish	1	0	-1	1	1	1	0	0.0	1.0	0	0.335179399990011	0.5639721000334248	1477.9263838999905	1600.3172377999872	1601.3300810999935	1603.046627200034	1604.5671566000092	1605.5879356000223	1606.6037301000324	1607.6330725000007	1608.6371604999877	1609.5367582000326	2020-02-21 19:11:00.440840	1.55733372321702	0.0	0.0	0.0	1.55733372321702	0.0	-1.55733372321702	0.0	0.0	1.55733372321702	0.0	0.0	-7.8831349442134115	-0.9306486021119144	-0.483545537233921	-4.879230349394809	-2.244409398086816	-0.483545537233921	-0.2809476404765886	-5.305544939767078	2.577590004446335	-5.514235361222871	4.100041221877032	3	correct	1.0
131.6116217999952	8.200696099956758	go_reward	0.3500429000123404	131.63355970004363	133.31733180000447	135.8768403000431	1.6837720999608337	132.64575950003905	134.86646960000508	138.92059340002015	0.671572299965419	1.0103707000380382	0.9136623999802396	137.90827980003064	0.2879431000328623	136.89448940003058	2	1	16	4	go_reward	0	0	1	1	1	1	0	0.0	1.0	0	0.3500429000123404	0.2879431000328623	1477.9263838999905	1609.559943600034	1610.5721434000295	1611.243715699995	1612.7928534999955	1613.8032242000336	1614.820873300021	1615.834663700021	1616.8469773000106	1617.7606396999909	2020-02-21 19:11:00.440840	12.2849667369405	6.47262376914293	0.0	6.47262376914293	12.2849667369405	0.0	-12.2849667369405	6.47262376914293	0.0	12.2849667369405	0.0	-6.47262376914293	2.8444980695100686	5.541975167031016	-0.483545537233921	1.5933934197481214	8.483223615636664	-0.483545537233921	-6.753571409619519	5.422088073956403	2.577590004446335	0.9583884079200589	4.100041221877032	3	correct	1.0
139.83697679999727	8.880073899985518	go_reward	0.98672639997676	139.85891470004572	142.28668130002916	144.82978480000747	2.4277665999834426	140.86102790001314	143.81528560002334	147.87024220003514	1.4256534000160173	1.0144991999841295	0.8687463999960983	146.85739530000137	0.5216862999950536	145.84277000004658	2	1	17	4	go_reward	1	1	0	1	1	1	0	0.0	1.0	1	0.98672639997676	0.5216862999950536	1477.9263838999905	1617.7852986000362	1618.7874118000036	1620.2130652000196	1621.7416695000138	1622.756168699998	1623.769153900037	1624.7837791999918	1625.7966261000256	1626.6653725000217	2020-02-21 19:11:00.440840	10.0198958507432	5.0953874705256	0.0	5.0953874705256	10.0198958507432	0.0	-10.0198958507432	5.0953874705256	0.0	10.0198958507432	0.0	20.9168116721558	0.5794271833127684	4.164738868413686	-0.483545537233921	0.21615712113079155	6.218152729439364	-0.483545537233921	20.63586403167921	3.157017187759103	2.577590004446335	-0.418847890697271	4.100041221877032	3	correct	1.0
148.76116130000423	8.249021999945171	go_punish	1.0	148.78309920005267	150.1091973000439	152.6428860000451	1.3260980999912135	149.78075259999582	151.61961799999722	155.67976480000652	0.3284447000480668	1.0232680000478922	1.3523563999913222	154.67550270003267	0.2400276999687776	153.6573755000136	2	1	18	2	go_punish	1	0	-1	1	0	0	0	0.0	1.0	-1	1.0	0.2400276999687776	1477.9263838999905	1626.7094831000431	1627.7071364999863	1628.0355812000344	1629.5460018999877	1630.5692699000356	1631.583759400004	1632.6018866000231	1633.606148699997	1634.9585050999883	2020-02-21 19:11:00.440840	-1.55733372321702	0.0	0.0	0.0	1.55733372321702	0.0	1.55733372321702	0.0	0.0	0.0	1.55733372321702	-22.5416620936891	-10.997802390647452	-0.9306486021119144	-0.483545537233921	-4.879230349394809	-2.244409398086816	-0.483545537233921	-22.82260973416569	-6.862878662984097	4.134923727663355	-5.514235361222871	4.100041221877032	3	correct	1.0
157.0513601999844	8.438789799984079	go_punish	0.4013801999972202	157.07329810003284	158.4429475000361	160.9881123000523	1.3696494000032544	158.08351110003423	159.97357430000557	164.0273026000359	0.3594364000018686	1.0145380000467412	1.484785299981013	163.01794600003632	0.6347676000441425	162.00168440002017	2	1	19	2	go_punish	0	-1	0	1	1	1	0	1.0	0.0	-1	0.4013801999972202	0.6347676000441425	1477.9263838999905	1634.9996820000233	1636.0098950000247	1636.3693314000266	1637.899958199996	1638.9144962000428	1639.9280683000106	1640.9443299000268	1641.9536865000264	1643.4384718000074	2020-02-21 19:11:00.440840	3.31308973882891	0.0	-4.41855532700325	-4.41855532700325	-1.10546558817434	-4.41855532700325	-3.31308973882891	0.0	-4.41855532700325	-1.10546558817434	-4.41855532700325	-22.5416620936891	-6.127378928601522	-0.9306486021119144	-4.902100864237171	-9.297785676398059	-4.9072087094781764	-4.902100864237171	-22.82260973416569	-7.968344251158437	-1.8409653225569147	-5.514235361222871	-0.3185141051262175	3	wrong	1.0
165.5353221999826	7.989606500021409	go_punish	1.0	165.55726010003104	167.06082280003466	169.58737250004197	1.503562700003613	166.55583750002552	168.56421179999597	172.63332419999642	0.5049853000091389	1.0231607000459917	0.9135424000560306	171.6144308000221	0.4149404999916442	170.59324040001957	2	1	20	2	go_punish	1	0	-1	1	0	0	1	1.0	1.0	-1	1.0	0.4149404999916442	1477.9263838999905	1643.4836440000215	1644.482221400016	1644.9872067000251	1646.4905956999864	1647.5137564000324	1648.51962430001	1649.5408147000126	1650.559708099987	1651.473250500043	2020-02-21 19:11:00.440840	3.18622606201464	-4.41855532700325	-4.41855532700325	-7.84860640047165	-7.60478138901788	-4.41855532700325	-3.18622606201464	-4.41855532700325	-4.41855532700325	-4.41855532700325	-7.60478138901788	-18.12310676668585	-6.254242605415792	-5.3492039291151645	-4.902100864237171	-12.727836749866459	-11.406524510321717	-4.902100864237171	-18.40405440716244	-11.281433989987347	-5.027191384571545	-9.93279068822612	-0.3185141051262175	3	correct	1.0
173.5686241999499	8.687662800017279	nogo_reward	0.8885585999814793	173.59056209999835	175.44185990001984	177.98554000002332	1.8512978000214844	174.59405680000782	176.9736526000197	181.0351537000388	0.8478031000120154	1.0118874000036158	1.2430711999768391	180.03137740003876	0.5105572999455035	179.00155800004723	2	1	21	3	nogo_reward	1	0	1	0	1	0	0	0.0	1.0	0	0.8885585999814793	0.5105572999455035	1477.9263838999905	1651.5169459999888	1652.5204406999983	1653.3682438000103	1654.9000365000102	1655.9119239000138	1656.9279419000377	1657.9577613000292	1658.9615376000293	1660.204608800006	2020-02-21 19:11:00.440840	-0.995965705941207	0.0	5.17391878828822	4.00271138074892	4.17795308234701	5.17391878828822	0.995965705941207	0.0	5.17391878828822	4.17795308234701	5.17391878828822	0.0	-10.43643437337164	-0.9306486021119144	4.690373251054299	-0.8765189686458887	0.3762099610431737	4.690373251054299	-0.2809476404765886	-2.6849255806370875	7.751508792734555	-5.514235361222871	9.273960010165252	3	correct	1.0
182.28409059997625	7.743184500024654	nogo_punish	1.0	182.3060285000247	183.6387759000063	186.14627710002242	1.3327473999815993	183.31013870000584	185.13504910003394	189.21235010004602	0.3286372000004576	1.0112279999884777	0.8368629000033252	188.19764720002422	0.5735585000365973	187.1647789000417	2	1	22	1	nogo_punish	1	-1	0	0	0	1	0	0.0	1.0	0	1.0	0.5735585000365973	1477.9263838999905	1660.2324124000152	1661.2365225999963	1661.5651597999968	1663.0614330000244	1664.0726610000129	1665.0911628000322	1666.1240311000147	1667.1387340000365	1667.9755969000398	2020-02-21 19:11:00.440840	7.72845873308568	-7.84860640047165	-3.4300510734684	-8.01057511639768	-11.1585098065541	-3.4300510734684	-7.72845873308568	-3.4300510734684	-7.84860640047165	-3.4300510734684	-11.1585098065541	3.4300510734684	-1.712009934344752	-8.779255002583565	-3.913596610702321	-12.889805465792488	-14.960252927857937	-3.913596610702321	3.1491034329918115	-10.292929736452496	-8.580919802107765	-8.944286434691271	-3.7485651785946175	3	correct	1.0
190.0504134999935	7.995942100009415	go_reward	0.8168941999902017	190.07235140004195	191.50744090002263	194.05941800004803	1.435089499980677	191.08570029999828	193.04568160005147	197.10625630000163	0.42174060002435	1.01373639999656	0.9620372000497355	196.09274010005174	0.538118000025861	195.0742842000327	2	1	23	4	go_reward	1	1	0	1	1	1	0	0.0	1.0	1	0.8168941999902017	0.538118000025861	1477.9263838999905	1667.9987353000324	1669.0120841999887	1669.433824800013	1670.972065500042	1671.9858019000385	1673.0006681000232	1674.0191240000422	1675.032640199992	1675.9946774000418	2020-02-21 19:11:00.440840	16.8300196136653	9.22056714444875	0.0	9.22056714444875	16.8300196136653	0.0	-16.8300196136653	9.22056714444875	0.0	16.8300196136653	0.0	16.79163199823265	7.389550946234868	8.289918542336837	-0.483545537233921	4.341336795053942	13.028276492361464	-0.483545537233921	16.51068435775606	9.967140950681202	2.577590004446335	3.7063317832258793	4.100041221877032	3	correct	1.0
198.07021459995258	9.07330620003654	go_reward	0.2520985000301152	198.09215250000102	200.6143309000181	203.16498739999952	2.522178400017083	199.10386820003623	202.14522300002864	206.2190690000425	1.510462699981872	1.0197643999708816	0.9463896999950521	205.20010160002857	0.3080484999809414	204.1753907999955	2	1	24	4	go_reward	0	0	1	1	1	1	0	0.0	1.0	0	0.2520985000301152	0.3080484999809414	1477.9263838999905	1676.0185363999915	1677.0302521000267	1678.5407148000086	1680.071606900019	1681.09137129999	1682.101774699986	1683.126485500019	1684.145452900033	1685.091842600028	2020-02-21 19:11:00.440840	22.1189997573477	12.4160323233696	0.0	12.4160323233696	22.1189997573477	0.0	-22.1189997573477	12.4160323233696	0.0	22.1189997573477	0.0	-12.4160323233696	12.67853108991727	11.485383721257687	-0.483545537233921	7.536801973974792	18.317256636043865	-0.483545537233921	-12.69697996384619	15.256121094363603	2.577590004446335	6.901796962146729	4.100041221877032	3	correct	1.0
207.18866009998578	9.3765432999935	nogo_reward	1.0	207.21059800003422	209.68542250001337	212.21354580001184	2.4748244999791496	208.21662130003097	211.18985110003268	215.2755045000231	1.4688011999824084	1.0236946999791599	1.311636800004635	214.2593817000161	0.271992499998305	213.22744700004114	2	1	25	3	nogo_reward	1	0	1	0	0	1	0	1.0	0.0	1	1.0	0.271992499998305	1477.9263838999905	1685.1369819000247	1686.1430052000214	1687.6118064000038	1689.1162350000232	1690.1399297000023	1691.1538309000316	1692.1857656000066	1693.2018884000136	1694.5135252000182	2020-02-21 19:11:00.440840	1.55602778425428	0.0	5.17391878828822	3.12951434040326	3.61789100403394	5.17391878828822	-1.55602778425428	5.17391878828822	0.0	5.17391878828822	3.61789100403394	20.83828035439318	-7.884440883176152	-0.9306486021119144	4.690373251054299	-1.7497160089915487	-0.18385211726989592	4.690373251054299	20.55733271391659	-1.6889598746958772	6.195481008480275	-0.34031657293465134	4.100041221877032	3	wrong	1.0
216.61089689994674	8.280457800021395	go_punish	1.0	216.63283479999518	218.11170490004588	220.64198190002935	1.478870100050699	217.63808840001002	219.6279327000375	223.69451180001465	0.47361650003585964	1.0140491999918595	1.2187808000019231	222.68171480001183	0.6543442000402138	221.6620390000171	2	1	26	2	go_punish	1	0	-1	1	0	0	0	0.0	1.0	-1	1.0	0.6543442000402138	1477.9263838999905	1694.5592186999856	1695.5644723000005	1696.0380888000363	1697.554316600028	1698.5683658000198	1699.5884229000076	1700.6080987000023	1701.6208957000051	1702.839676500007	2020-02-21 19:11:00.440840	1.39770568465422	-4.41855532700325	-7.84860640047165	-10.5385576221759	-9.24631208512587	-7.84860640047165	-1.39770568465422	-7.84860640047165	-4.41855532700325	-7.84860640047165	-9.24631208512587	-14.693055693217453	-8.042762982776212	-5.3492039291151645	-8.332151937705571	-15.417787971570707	-13.048055206429707	-8.332151937705571	-14.974003333694041	-14.711485063455747	-6.668722080679535	-13.362841761694522	-0.3185141051262175	3	correct	1.0
224.9141628999496	8.06394580000756	go_reward	0.369795200007502	224.93610079999803	226.451584000024	229.0394731000415	1.515483200025983	225.93988300004276	228.01588410005184	232.10070090001682	0.5117009999812581	1.02358899998967	0.8993456999887712	231.0870720000239	0.5641075000166893	230.0532837000212	2	1	27	4	go_reward	1	1	0	1	1	1	0	0.0	1.0	1	0.369795200007502	0.5641075000166893	1477.9263838999905	1702.8624846999885	1703.8662669000332	1704.3779679000145	1705.9422680000423	1706.965857000032	1707.9796676000117	1709.0134559000144	1710.0270848000073	1710.926430499996	2020-02-21 19:11:00.440840	17.7303114401124	9.74426148150908	0.0	9.74426148150908	17.7303114401124	0.0	-17.7303114401124	9.74426148150908	0.0	17.7303114401124	0.0	16.26793766117232	8.289842772681967	8.813612879397166	-0.483545537233921	4.865031132114271	13.928568318808562	-0.483545537233921	15.98699002069573	10.8674327771283	2.577590004446335	4.230026120286208	4.100041221877032	3	correct	1.0
233.00433219998354	8.142456699977629	nogo_punish	1.0	233.02627010003198	234.58707589999563	237.11243750003632	1.5608057999636458	234.03512230003253	236.09237500000745	240.16884880000703	0.5519535999630989	1.020062500028871	0.9998780000025818	239.1558055000496	0.310921500029508	238.1264722000344	2	1	28	1	nogo_punish	1	-1	0	0	0	1	0	0.0	1.0	0	1.0	0.310921500029508	1477.9263838999905	1710.9526540000224	1711.961506200023	1712.513459799986	1714.018758899998	1715.0388214000268	1716.0528561000249	1717.08218940004	1718.0952326999975	1719.0951107	2020-02-21 19:11:00.440840	7.45145996280789	-7.84860640047165	-2.68995122170426	-6.29880926425661	-10.1414111845121	-2.68995122170426	-7.45145996280789	-2.68995122170426	-7.84860640047165	-2.68995122170426	-10.1414111845121	2.68995122170426	-1.9890087046225418	-8.779255002583565	-3.173496758938181	-11.178039613651418	-13.943154305815936	-3.173496758938181	2.4090035812276716	-9.552829884688357	-7.563821180065764	-8.204186582927132	-3.7485651785946175	3	correct	1.0
241.17189499997744	8.437224499997683	nogo_punish	1.0	241.19383290002588	242.64084240002558	245.17698859999655	1.4470094999996945	242.20374160003848	244.15582980000204	248.22335550002754	0.4371007999870926	1.0211587999945095	1.4077018999960274	247.2050659999952	0.3054772000177763	246.18598680000264	2	1	29	1	nogo_punish	1	-1	0	0	0	1	0	1.0	0.0	0	1.0	0.3054772000177763	1477.9263838999905	1719.1202168000164	1720.130125500029	1720.567226300016	1722.0822136999925	1723.103372499987	1724.112370699993	1725.1314498999857	1726.149739400018	1727.557441300014	2020-02-21 19:11:00.440840	7.23449572809068	-7.84860640047165	-2.12900728946184	-4.99916651966803	-9.36350301755252	-2.12900728946184	-7.23449572809068	-2.12900728946184	-7.84860640047165	-2.12900728946184	-9.36350301755252	2.12900728946184	-2.205972939339752	-8.779255002583565	-2.6125528266957607	-9.87839686906284	-13.165246138856356	-2.6125528266957607	1.8480596489852514	-8.991885952445937	-6.7859130131061836	-7.643242650684711	-3.7485651785946175	3	wrong	1.0
249.65436909999676	9.314736999978777	nogo_reward	1.0	249.6763070000452	252.09615739999572	254.60649000003468	2.419850399950519	250.67320660001133	253.59090820001438	257.63817330001643	1.4229507999843918	1.0155818000202999	1.3528707000075428	256.6252637000289	0.3690010000136681	255.60940860002324	2	1	30	3	nogo_reward	1	0	1	0	0	1	0	0.0	1.0	1	1.0	0.3690010000136681	1477.9263838999905	1727.6026909000357	1728.5995905000018	1730.0225412999862	1731.5172921000049	1732.5328739000252	1733.5357925000137	1734.5516476000194	1735.564557200007	1736.9174279000144	2020-02-21 19:11:00.440840	2.61928263799603	0.0	9.17663016903714	7.64383117668223	6.55734753104111	9.17663016903714	-2.61928263799603	9.17663016903714	0.0	9.17663016903714	6.55734753104111	16.83556897364426	-6.821186029434402	-0.9306486021119144	8.693084631803218	2.7646008272874214	2.755604409737274	8.693084631803218	16.55462133316767	2.313751506053042	9.134937535487445	3.662394807814268	4.100041221877032	3	correct	1.0
258.9953438999944	7.890587700007018	nogo_punish	1.0	259.01728180004284	260.5613781000138	263.1017090000096	1.5440962999709882	260.0262018000358	262.07563229999505	266.14935410005273	0.5351762999780476	1.0260767000145279	0.7585153999971226	265.1439274000004	0.3164589999942109	264.1139959000284	2	1	31	1	nogo_punish	0	0	-1	0	0	1	1	0.0	0.0	-1	1.0	0.3164589999942109	1477.9263838999905	1736.9436657000333	1737.9525857000262	1738.4877620000043	1740.0020161999855	1741.0280929	1742.0403798000189	1743.0703112999909	1744.0757380000432	1744.8342534000403	2020-02-21 19:11:00.440840	7.06304439463425	-7.84860640047165	-1.69915235685596	-4.00124374552052	-8.76219675149021	-1.69915235685596	-7.06304439463425	-1.69915235685596	-7.84860640047165	-1.69915235685596	-8.76219675149021	-20.84250973683314	-2.3774242727961816	-8.779255002583565	-2.1826978940898814	-8.880474094915328	-12.563939872794046	-2.1826978940898814	-21.12345737730973	-8.562031019840058	-6.184606747043874	-7.213387718078831	-3.7485651785946175	3	wrong	1.0
266.93024999997556	10.04252949997317	go_punish	0.2608416000148281	266.952187900024	269.93059960001847	272.4788954000105	2.978411699994467	267.9593728000182	271.45853790000547	275.5157557000057	1.971226800000295	1.0203575000050478	1.478961699991487	274.5210250000234	0.2711011000210419	273.5004048999981	2	1	32	2	go_punish	1	0	-1	1	1	1	0	0.0	1.0	0	0.2608416000148281	0.2711011000210419	1477.9263838999905	1744.8785718000145	1745.8857567000086	1747.856983500009	1749.384921799996	1750.405279300001	1751.4267887999886	1752.447408900014	1753.4421395999962	1754.9211012999876	2020-02-21 19:11:00.440840	-0.0139718272031195	-4.41855532700325	-10.5385576221759	-12.6675649116378	-10.552529449379	-10.5385576221759	0.0139718272031195	-4.41855532700325	-10.5385576221759	-10.552529449379	-10.5385576221759	4.41855532700325	-9.454440494633552	-5.3492039291151645	-11.02210315940982	-17.54679526103261	-14.354272570682836	-11.02210315940982	4.137607686526661	-17.415408112363096	-7.960967617729564	-9.93279068822612	-6.438516400298867	3	correct	1.0
276.9987320999494	9.141773100011278	nogo_punish	1.0	277.02066999999784	279.34907779999776	281.8640817000414	2.3284077999999226	278.02954590000445	280.8538090000511	284.9125089000445	1.3195318999933079	1.0102726999903098	1.2499341999646276	283.9003490000032	0.3537059999653138	282.87686120002763	2	1	33	1	nogo_punish	1	-1	0	0	0	1	1	0.0	0.0	0	1.0	0.3537059999653138	1477.9263838999905	1754.9470538999883	1755.955929799995	1757.2754616999882	1758.7801929000416	1759.790465600032	1760.803245100018	1761.8267328999937	1762.838892800035	1764.0888269999996	2020-02-21 19:11:00.440840	5.17073157861992	-7.84860640047165	-5.78502157215791	-7.64574998014838	-10.9557531507778	-5.78502157215791	-5.17073157861992	-5.78502157215791	-7.84860640047165	-5.78502157215791	-10.9557531507778	5.78502157215791	-4.269737088810512	-8.779255002583565	-6.268567109391831	-12.524980329543189	-14.757496272081637	-6.268567109391831	5.504073931681321	-12.647900235142007	-8.378163146331465	-11.299256933380782	-3.7485651785946175	3	wrong	1.0
286.164155999955	8.270838299999014	go_reward	1.0	286.18609390000347	287.67036990000634	290.21102530002827	1.4842760000028647	287.20384910004213	289.1910852000001	293.2607767000445	0.4665207999642007	1.0199401000281796	1.1961554999579675	292.24828110000817	0.4484699000022374	291.219021200028	2	1	34	4	go_reward	1	1	0	1	0	0	0	0.0	1.0	0	1.0	0.4484699000022374	1477.9263838999905	1764.112477799994	1765.1302330000326	1765.5967537999968	1767.1174690999906	1768.1374092000187	1769.1454051000185	1770.1746649999986	1771.187160600035	1772.383316099993	2020-02-21 19:11:00.440840	-22.934598285142	12.893568710892	0.0	12.893568710892	22.934598285142	0.0	22.934598285142	0.0	12.893568710892	0.0	22.934598285142	0.0	-32.37506695257243	11.962920108780086	-0.483545537233921	8.014338361497192	19.132855163838162	-0.483545537233921	-0.2809476404765886	-6.862878662984097	25.512188289588334	-5.514235361222871	16.993609932769033	3	correct	1.0
294.46051139995666	8.559987300017383	nogo_punish	1.0	294.4824493000051	296.2490738000488	298.77057039999636	1.7666245000436902	295.4918317000265	297.745464000036	301.82385929999873	0.7572421000222676	1.0251063999603502	1.2185773000237532	300.81110720004654	0.2748220000066794	299.7837500000023	2	1	35	1	nogo_punish	0	0	-1	0	0	1	1	1.0	1.0	-1	1.0	0.2748220000066794	1477.9263838999905	1772.4088331999956	1773.418215600017	1774.1754577000393	1775.6718479000265	1776.6969542999868	1777.7101338999928	1778.737491100037	1779.7502431999892	1780.968820500013	2020-02-21 19:11:00.440840	5.46765778115002	-7.84860640047165	-4.5367029339163	-6.0513193306205	-10.0043607150663	-4.5367029339163	-5.46765778115002	-4.5367029339163	-7.84860640047165	-4.5367029339163	-10.0043607150663	-18.004959159772802	-3.9728108862804117	-8.779255002583565	-5.020248471150221	-10.930549680015309	-13.806103836370136	-5.020248471150221	-18.285906800249393	-11.399581596900397	-7.426770710619964	-10.050938295139172	-3.7485651785946175	3	correct	1.0
303.04572939994955	9.853975700039882	go_reward	0.2568773000384681	303.067667299998	305.90752810001163	308.46898590005003	2.839860800013639	304.0801268000505	307.44489450001856	311.53040380001744	1.8274012999611386	1.024091400031466	1.3912392000204363	310.5110039000283	0.3083827999653294	309.4820385000203	2	1	36	4	go_reward	1	1	0	1	1	1	1	1.0	1.0	1	0.2568773000384681	0.3083827999653294	1477.9263838999905	1780.9940511999885	1782.006510700041	1783.833912000002	1785.371278400009	1786.3953698000405	1787.4084224000107	1788.4373878000188	1789.456787700008	1790.8480269000283	2020-02-21 19:11:00.440840	21.1782171599097	12.893568710892	0.0	10.1701240972819	21.1782171599097	0.0	-21.1782171599097	12.893568710892	0.0	21.1782171599097	0.0	13.1186304317894	11.737748492479268	11.962920108780086	-0.483545537233921	5.2908937478870905	17.376474038605863	-0.483545537233921	12.837682791312812	14.315338496925602	2.577590004446335	7.379333349669128	4.100041221877032	3	correct	1.0
312.9426053999921	8.359200200007763	go_punish	1.0	312.96454330004053	314.6587620000355	317.18656689999625	1.6942186999949627	313.96301880001556	316.16338740003994	320.23214750003535	0.6957432000199333	1.0231794999563135	1.0915960000129417	319.2199552000384	0.5651856999611482	318.2012371000019	2	1	37	2	go_punish	1	0	-1	1	0	0	0	0.0	1.0	-1	1.0	0.5651856999611482	1477.9263838999905	1790.890927200031	1791.889402700006	1792.585145900026	1794.0897713000304	1795.1129507999867	1796.1276209999924	1797.1463391000289	1798.1585314000258	1799.2501274000388	2020-02-21 19:11:00.440840	-2.58976150068474	-3.4300510734684	-10.5385576221759	-9.94816194149046	-7.94879612149117	-10.5385576221759	2.58976150068474	-10.5385576221759	-3.4300510734684	-10.5385576221759	-7.94879612149117	-12.003104471513202	-12.030230168115171	-4.360699675580315	-11.02210315940982	-14.827392290885268	-11.750539242795005	-11.02210315940982	-12.28405211198979	-17.401436285159996	-5.371206117044835	-16.05279298339877	0.6699901484086324	3	correct	1.0
321.32512929994823	7.950250200054143	go_reward	0.3816632999805733	321.3470671999967	322.7097329000244	325.2550804000348	1.3626657000277191	322.35112570005003	324.2408458000284	328.30474650004203	0.3586071999743581	1.0142346000063753	0.9925709000087863	327.2918534000055	0.309088799986057	326.26242159999674	2	1	38	4	go_reward	1	1	0	1	1	1	1	1.0	1.0	1	0.3816632999805733	0.309088799986057	1477.9263838999905	1799.2734510999871	1800.2775096000405	1800.6361168000149	1802.1672297000189	1803.1814643000253	1804.1888054999872	1805.218237299996	1806.2311304000325	1807.2237013000413	2020-02-21 19:11:00.440840	25.6462890692309	15.3440428855701	0.0	13.2684046820269	25.6462890692309	0.0	-25.6462890692309	15.3440428855701	0.0	25.6462890692309	0.0	10.6681562571113	16.205820401800466	14.413394283458187	-0.483545537233921	8.389174332632091	21.844545947927063	-0.483545537233921	10.38720861663471	18.7834104062468	2.577590004446335	9.82980752434723	4.100041221877032	3	correct	1.0
329.32208189996913	8.460810900024853	go_punish	0.3269015999976545	329.3440198000176	331.401828400034	333.95189330005064	2.057808600016415	330.3566186000244	332.93203760002507	336.9987315000035	1.0452098000096157	1.0198557000255732	0.8060992000389433	335.9860588000156	0.3053921000100672	334.9620966000366	2	1	39	2	go_punish	1	0	-1	1	1	1	1	1.0	1.0	0	0.3269015999976545	0.3053921000100672	1477.9263838999905	1807.270403700008	1808.2830025000148	1809.3282123000245	1810.8584215000155	1811.878277200041	1812.888480500027	1813.912442700006	1814.925115399994	1815.731214600033	2020-02-21 19:11:00.440840	3.29054322368852	-3.4300510734684	-12.6675649116378	-12.30313244018	-9.37702168794923	-12.6675649116378	-3.29054322368852	-3.4300510734684	-12.6675649116378	-9.37702168794923	-12.6675649116378	3.4300510734684	-6.149925443741912	-4.360699675580315	-13.151110448871721	-17.18236278957481	-13.178764809253066	-13.151110448871721	3.1491034329918115	-16.239900350933326	-10.089974907191465	-8.944286434691271	-8.567523689760769	3	correct	1.0
337.8077346999778	8.556783100008033	go_reward	0.314924499951303	337.82967260002624	339.4957124000066	342.05335160001437	1.6660397999803536	338.8399922000244	341.02998520003143	345.1097116000019	0.65572019998217	1.0233663999829332	1.2767441000323743	344.0946020000265	0.4627511000144295	343.06071130000055	2	1	40	4	go_reward	1	1	0	1	1	1	1	1.0	1.0	1	0.314924499951303	0.4627511000144295	1477.9263838999905	1815.7560565000167	1816.766376100015	1817.422096299997	1818.956369100022	1819.9797355000048	1820.987095199991	1822.020985900017	1823.0360954999924	1824.3128396000247	2020-02-21 19:11:00.440840	29.1486059231946	17.2711160627758	0.0	15.6713975067436	29.1486059231946	0.0	-29.1486059231946	17.2711160627758	0.0	29.1486059231946	0.0	8.7410830799056	19.70813725576417	16.340467460663884	-0.483545537233921	10.792167157348793	25.346862801890765	-0.483545537233921	8.460135439429012	22.285727260210503	2.577590004446335	11.756880701552928	4.100041221877032	3	correct	1.0
346.3899890999892	8.539749599993002	go_reward	0.2967459000064991	346.4119270000376	348.38671790005196	350.9287156000498	1.9747909000143409	347.42304419999755	349.91644600004656	353.99876139999833	0.9636737000544144	1.0122696000032647	0.9529152000322938	352.9789893000268	0.4512782000238076	351.9502417000476	2	1	41	4	go_reward	1	1	0	1	1	1	0	0.0	1.0	1	0.2967459000064991	0.4512782000238076	1477.9263838999905	1824.338310900028	1825.349428099988	1826.3131018000424	1827.842829900037	1828.8550995000403	1829.876625600038	1830.9053732000173	1831.9251452999888	1832.878060500021	2020-02-21 19:11:00.440840	31.9207847349042	18.8009118471469	0.0	17.5556993544054	31.9207847349042	0.0	-31.9207847349042	18.8009118471469	0.0	31.9207847349042	0.0	7.2112872955345	22.480316067473765	17.870263245034984	-0.483545537233921	12.676469005010592	28.119041613600363	-0.483545537233921	6.930339655057912	25.0579060719201	2.577590004446335	13.286676485924028	4.100041221877032	3	correct	1.0
354.95297839998943	8.906991500000004	go_reward	1.0	354.9749163000379	356.9553402000456	359.4808897000039	1.980423900007736	355.97048890002793	358.46043670002837	362.52960200002394	0.9848513000176808	1.0204529999755323	1.3523058000139372	361.51637860003393	0.4300740000326186	360.4974735000287	2	1	42	4	go_reward	1	1	0	1	0	0	1	1.0	1.0	0	1.0	0.4300740000326186	1477.9263838999905	1832.9013002000283	1833.8968728000184	1834.881724100036	1836.3868206000188	1837.4072735999944	1838.4238574000192	1839.4427625000244	1840.4559859000144	1841.8082917000283	2020-02-21 19:11:00.440840	-34.1341968786665	20.0256117427995	0.0	19.0476947869185	34.1341968786665	0.0	34.1341968786665	0.0	20.0256117427995	0.0	34.1341968786665	0.0	-43.57466554609693	19.094963140687586	-0.483545537233921	14.168464437523689	30.332453757362664	-0.483545537233921	-0.2809476404765886	-6.862878662984097	36.711786883112836	-5.514235361222871	24.125652964676533	3	correct	1.0
363.9080690999979	9.77611929998966	go_punish	0.2802402999950573	363.9300070000463	366.6891983000096	369.22703070001444	2.759191299963277	364.9333987000284	368.2051081000245	372.2911049000104	1.7557995999811737	1.0219225999899209	1.41502140002558	371.2781158	0.3862665999913588	370.2432327000424	2	1	43	2	go_punish	1	0	-1	1	1	1	0	0.0	1.0	0	0.2802402999950573	0.3862665999913588	1477.9263838999905	1841.8563909000368	1842.859782600019	1844.6155822	1846.131492000015	1847.153414600005	1848.169616600033	1849.2044996999905	1850.2174888000009	1851.6325102000264	2020-02-21 19:11:00.440840	5.56616142587217	-2.68995122170426	-12.6675649116378	-9.73132882538877	-7.10140348576558	-12.6675649116378	-5.56616142587217	-2.68995122170426	-12.6675649116378	-7.10140348576558	-12.6675649116378	2.68995122170426	-3.8743072415582622	-3.6205998238161743	-13.151110448871721	-14.610559174783578	-10.903146607069417	-13.151110448871721	2.4090035812276716	-13.964282148749678	-10.089974907191465	-8.204186582927132	-8.567523689760769	3	correct	1.0
373.70751889998746	8.913461699965637	go_reward	0.3565478000091389	373.7294568000359	375.5819580000243	378.1432031000147	1.85250119998841	374.7329461000045	377.11994490004145	381.1907026999979	0.849011900019832	1.0232581999732702	1.4522158000036143	380.18604790000245	0.3103696000180207	379.1581870000223	2	1	44	4	go_reward	1	1	0	1	1	1	1	1.0	1.0	1	0.3565478000091389	0.3103696000180207	1477.9263838999905	1851.6558407000264	1852.659329999995	1853.5083419000148	1855.046328800032	1856.0695870000052	1857.0845709000127	1858.112431799993	1859.1170865999884	1860.569302399992	2020-02-21 19:11:00.440840	31.5617959069463	20.0256117427995	0.0	15.0654551169309	31.5617959069463	0.0	-31.5617959069463	20.0256117427995	0.0	31.5617959069463	0.0	5.986587399881898	22.12132723951587	19.094963140687586	-0.483545537233921	10.186224767536093	27.760052785642465	-0.483545537233921	5.70563975940531	24.698917243962203	2.577590004446335	14.51137638157663	4.100041221877032	3	correct	1.0
382.6450724999886	8.651642999960814	go_reward	0.4832431999966502	382.66701040003704	384.49516420002305	387.0476678000416	1.828153799986012	383.6782016000359	386.03459750005277	390.0854738000198	0.8169625999871641	1.01307029998884	1.2331795999780297	389.0785841000031	0.3323415999766439	388.06509200000437	2	1	45	4	go_reward	0	0	1	1	1	1	0	0.0	1.0	0	0.4832431999966502	0.3323415999766439	1477.9263838999905	1860.5933943000275	1861.6045855000264	1862.4215481000135	1863.9609814000432	1864.974051700032	1865.9914758999948	1867.0049679999936	1868.0118577000103	1869.2450372999883	2020-02-21 19:11:00.440840	33.9358285731968	21.0135679170408	0.0	17.1959789160997	33.9358285731968	0.0	-33.9358285731968	21.0135679170408	0.0	33.9358285731968	0.0	-21.0135679170408	24.49535990576637	20.082919314928883	-0.483545537233921	12.316748566704891	30.134085451892965	-0.483545537233921	-21.29451555751739	27.072949910212703	2.577590004446335	15.499332555817928	4.100041221877032	3	correct	1.0
391.34327779995465	9.51688690000492	nogo_reward	1.0	391.3652157000031	393.9167007000067	396.4434451000416	2.551485000003595	392.37021220003953	395.4211752000265	399.493339900044	1.546488499967154	1.0222699000150897	1.3887626999639906	398.4790241000012	0.3587451999774202	397.4587392000251	2	1	46	3	nogo_reward	1	0	1	0	0	1	0	0.0	1.0	1	1.0	0.3587451999774202	1477.9263838999905	1869.2915995999936	1870.29659610003	1871.8430845999972	1873.347559100017	1874.369829000032	1875.3851231000156	1876.4054079999917	1877.4197238000345	1878.8084864999985	2020-02-21 19:11:00.440840	3.45595012853625	0.0	12.3061445094404	11.1425032991595	8.85019438090415	12.3061445094404	-3.45595012853625	12.3061445094404	0.0	12.3061445094404	8.85019438090415	13.706054633241	-5.984518538894182	-0.9306486021119144	11.82259897220648	6.2632729497646915	5.048451259600313	11.82259897220648	13.42510699276441	5.4432658464563035	11.427784385350485	6.791909148217529	4.100041221877032	3	correct	1.0
400.9013280999495	8.42137640004512	go_punish	0.6700835999799892	400.92326599999797	402.283341100032	404.8281845000456	1.3600751000340097	401.93404960003704	403.8158506000184	407.87289749999763	0.3492914999949335	1.0123339000272153	1.4717449000454508	406.85988350003026	0.5471569999936037	405.83332990005147	2	1	47	2	go_punish	1	0	-1	1	1	1	0	0.0	1.0	0	0.6700835999799892	0.5471569999936037	1477.9263838999905	1878.8496498999884	1879.8604335000275	1880.2097250000224	1881.7422345000089	1882.754568400036	1883.759713800042	1884.7862674000207	1885.799281399988	1887.2710263000336	2020-02-21 19:11:00.440840	7.30964537829994	-2.12900728946184	-12.6675649116378	-7.76429025185296	-5.35791953333781	-12.6675649116378	-7.30964537829994	-2.12900728946184	-12.6675649116378	-5.35791953333781	-12.6675649116378	2.12900728946184	-2.1308232891304915	-3.059655891573754	-13.151110448871721	-12.643520601247769	-9.159662654641647	-13.151110448871721	1.8480596489852514	-12.220798196321908	-10.089974907191465	-7.643242650684711	-8.567523689760769	3	correct	1.0
409.36549989995547	8.559452900022507	go_punish	0.8101231000036933	409.3874378000039	411.11128579999786	413.6622165000299	1.72384799999395	410.38664130005054	412.642207900004	416.70223340002144	0.724644499947317	1.0200086000259034	1.2446573000049739	415.68413589999545	0.3643378000124357	414.6702667000354	2	1	48	2	go_punish	1	0	-1	1	1	1	0	0.0	1.0	0	0.8101231000036933	0.3643378000124357	1477.9263838999905	1887.3138216999944	1888.313025200041	1889.0376696999883	1890.5685917999945	1891.5886004000204	1892.596650600026	1893.610519799986	1894.628617300012	1895.8732746000169	2020-02-21 19:11:00.440840	8.65922321063493	-1.69915235685596	-12.6675649116378	-6.24394486408095	-4.00834170100282	-12.6675649116378	-8.65922321063493	-1.69915235685596	-12.6675649116378	-4.00834170100282	-12.6675649116378	1.69915235685596	-0.7812454567955012	-2.6298009589678744	-13.151110448871721	-11.123175213475758	-7.810084822306656	-13.151110448871721	1.4182047163793716	-10.871220363986918	-10.089974907191465	-7.213387718078831	-8.567523689760769	3	correct	1.0
417.9485817999812	8.944917700020369	go_reward	0.590607899997849	417.9705197000296	420.5737437000498	423.11605210002745	2.603224000020191	418.97914800001354	422.103328600002	426.15676260000305	1.5945957000362796	1.0127235000254586	0.758674800046947	425.152928500029	0.5031512000132352	424.13335210003424	2	1	49	4	go_reward	0	0	1	1	1	1	0	0.0	1.0	0	0.590607899997849	0.5031512000132352	1477.9263838999905	1895.89690360002	1896.905531900004	1898.5001276000403	1900.0297124999925	1901.042436000018	1902.0597360000247	1903.0793124000195	1904.0831464999935	1904.8418213000405	2020-02-21 19:11:00.440840	27.2804856805035	16.6421910846974	0.0	13.6730663130488	27.2804856805035	0.0	-27.2804856805035	16.6421910846974	0.0	27.2804856805035	0.0	-16.6421910846974	17.840017013073066	15.711542482585488	-0.483545537233921	8.79383596365399	23.478742559199663	-0.483545537233921	-16.92313872517399	20.4176070175194	2.577590004446335	11.12795572347453	4.100041221877032	3	correct	1.0
426.93873629998393	8.347418899997137	go_punish	0.2441217000014148	426.9606742000324	428.95940220000944	431.4931210000068	1.9987279999770635	427.9602951999984	430.48250270000426	434.5322478000303	0.9991070000110085	1.010618300002534	0.7758452999992187	433.52779870002996	0.4736246999818831	432.51190790004307	2	1	50	2	go_punish	1	0	-1	1	1	1	1	1.0	1.0	0	0.2441217000014148	0.4736246999818831	1477.9263838999905	1904.8870581000228	1905.886679099989	1906.8857861	1908.4088865999947	1909.4195048999973	1910.4382918000335	1911.4541826000204	1912.4586317000208	1913.23447700002	2020-02-21 19:11:00.440840	9.71361377130647	-1.36646624515467	-12.6675649116378	-5.0576866274282	-2.95395114033128	-12.6675649116378	-9.71361377130647	-1.36646624515467	-12.6675649116378	-2.95395114033128	-12.6675649116378	1.36646624515467	0.27314510387603796	-2.2971148472665845	-13.151110448871721	-9.93691697682301	-6.755694261635115	-13.151110448871721	1.0855186046780814	-9.816829803315377	-10.089974907191465	-6.880701606377541	-8.567523689760769	3	correct	1.0
435.3291038000018	9.255252499948483	nogo_reward	1.0	435.35104170005025	438.116046600044	440.6482236000011	2.7650048999937553	436.35015650000423	439.6249469000031	443.68554259999655	1.765890100039769	1.0232766999979503	0.9207516000021769	442.68281740002544	0.3359825999941677	441.65256430004956	2	1	51	3	nogo_reward	1	0	1	0	0	1	0	0.0	1.0	1	1.0	0.3359825999941677	1477.9263838999905	1913.2774256000407	1914.2765403999947	1916.0424305000345	1917.5513307999936	1918.5746074999915	1919.57894820004	1920.609201300016	1921.611926499987	1922.5326780999892	2020-02-21 19:11:00.440840	4.11981767412157	0.0	14.7760568978344	13.8828804772069	10.6562392237128	14.7760568978344	-4.11981767412157	14.7760568978344	0.0	14.7760568978344	10.6562392237128	11.236142244847	-5.3206509933088615	-0.9306486021119144	14.292511360600479	9.00365012781209	6.854496102408964	14.292511360600479	10.955194604370412	7.913178234850302	13.233829228159136	9.261821536611528	4.100041221877032	3	correct	1.0
444.6101091000014	9.369683599972404	nogo_punish	1.0	444.63204700004985	447.41683170001465	449.94245580001757	2.7847846999648027	445.642983100028	448.9328558000268	452.9771961000515	1.7738485999866498	1.009599999990769	1.0245344999707413	451.9647060999996	0.301527299976442	450.9499844000095	2	1	52	1	nogo_punish	1	-1	0	0	0	1	0	0.0	1.0	0	1.0	0.301527299976442	1477.9263838999905	1922.5584309000403	1923.5693670000185	1925.3432156000051	1926.8592397000173	1927.868839700008	1928.8763683	1929.89108999999	1930.903580000042	1931.9281145000127	2020-02-21 19:11:00.440840	3.92433401614188	-7.84860640047165	-8.01057511639768	-9.25148051647764	-11.9349091325396	-8.01057511639768	-3.92433401614188	-8.01057511639768	-7.84860640047165	-8.01057511639768	-11.9349091325396	8.01057511639768	-5.516134651288552	-8.779255002583565	-8.494120653631601	-14.130710865872448	-15.736652253843436	-8.494120653631601	7.729627475921092	-14.873453779381776	-9.357319128093264	-13.524810477620552	-3.7485651785946175	3	correct	1.0
454.0058946999486	8.92370330000972	nogo_punish	1.0	454.02783259999705	455.89470210002037	458.4090564000071	1.8668695000233129	455.0309082000167	457.3978140000256	461.4587346000478	0.8637939000036567	1.0112423999814837	1.4928012999589555	460.4548695000119	0.2744423999683931	459.42521810001904	2	1	53	1	nogo_punish	1	-1	0	0	0	1	0	0.0	1.0	0	1.0	0.2744423999683931	1477.9263838999905	1931.9542164999875	1932.9572921000072	1933.8210860000108	1935.324197900016	1936.3354402999976	1937.3516020000095	1938.3812534000024	1939.3851185000383	1940.8779197999972	2020-02-21 19:11:00.440840	4.48460184978107	-7.84860640047165	-6.29880926425661	-7.32158846378479	-10.7834111140377	-6.29880926425661	-4.48460184978107	-6.29880926425661	-7.84860640047165	-6.29880926425661	-10.7834111140377	6.29880926425661	-4.955866817649362	-8.779255002583565	-6.782354801490531	-12.200818813179598	-14.585154235341536	-6.782354801490531	6.017861623780021	-13.161687927240706	-8.205821109591364	-11.813044625479481	-3.7485651785946175	3	correct	1.0
462.96028259996115	8.452625900040857	nogo_punish	1.0	462.9822205000096	464.55493939999747	467.0471406000431	1.5727188999878763	464.00063320004847	466.04941790003795	470.09127700002864	0.5543061999489964	0.9977227000051698	1.3435694000218064	469.0783069000463	0.3321565000223927	468.06536920001963	2	1	54	1	nogo_punish	1	-1	0	0	0	1	1	1.0	1.0	0	1.0	0.3321565000223927	1477.9263838999905	1940.9086044	1941.927017100039	1942.481323299988	1943.9758018000284	1944.9735245000336	1945.99175310001	1947.0046908000368	1948.017660900019	1949.361230300041	2020-02-21 19:11:00.440840	4.89801830870966	-7.84860640047165	-4.99916651966803	-5.84688284387969	-9.89718482837769	-4.99916651966803	-4.89801830870966	-4.99916651966803	-7.84860640047165	-4.99916651966803	-9.89718482837769	4.99916651966803	-4.542450358720772	-8.779255002583565	-5.482712056901951	-10.726113193274498	-13.698927949681526	-5.482712056901951	4.718218879191442	-11.862045182652128	-7.319594823931354	-10.513401880890902	-3.7485651785946175	3	correct	1.0
471.4408186999499	8.362939800019149	nogo_punish	1.0	471.46275659999833	472.86093840003036	475.3892625000444	1.3981818000320345	472.47000620001904	474.3758507000166	478.4422217000392	0.3909322000113207	1.013411800027825	1.383474699978251	477.4225518000312	0.6195580000057817	476.39360900002066	2	1	55	1	nogo_punish	0	0	-1	0	0	1	1	1.0	1.0	-1	1.0	0.6195580000057817	1477.9263838999905	1949.3891404999888	1950.3963901000095	1950.7873223000208	1952.302234600007	1953.315646400035	1954.3199929000111	1955.3489357000217	1956.3686056000297	1957.752080300008	2020-02-21 19:11:00.440840	5.20679541283073	-7.84860640047165	-4.00124374552052	-4.70753749238113	-9.20803915835125	-4.00124374552052	-5.20679541283073	-4.00124374552052	-7.84860640047165	-4.00124374552052	-9.20803915835125	-18.540418348168583	-4.233673254599702	-8.779255002583565	-4.48478928275444	-9.586767841775938	-13.009782279655086	-4.48478928275444	-18.821365988645173	-10.864122408504617	-6.630449153904914	-9.515479106743392	-3.7485651785946175	3	correct	1.0
479.8273484999661	8.553744200034998	go_reward	0.2617567999986931	479.84928640001453	481.7566883999971	484.30749310000124	1.9074019999825396	480.86060640000505	483.2939379000454	487.3474969000092	0.8960819999920204	1.0135551999558174	1.0555337000403142	486.33514150005044	0.9239636000129394	485.3137063000463	2	1	56	4	go_reward	1	1	0	1	1	1	0	0.0	1.0	1	0.2617567999986931	0.9239636000129394	1477.9263838999905	1957.775670300005	1958.7869902999955	1959.6830722999875	1961.220321800036	1962.2338769999917	1963.2400902000368	1964.261525400041	1965.2738807999997	1966.32941450004	2020-02-21 19:11:00.440840	22.1664526485556	13.2955891520216	0.0	10.9647599861353	22.1664526485556	0.0	-22.1664526485556	13.2955891520216	0.0	22.1664526485556	0.0	12.7166099906598	12.72598398112517	12.364940549909686	-0.483545537233921	6.085529636740492	18.364709527251765	-0.483545537233921	12.435662350183211	15.303573985571504	2.577590004446335	7.781353790798729	4.100041221877032	3	correct	1.0
488.4058824999954	9.285423900000751	go_reward	0.2740417000022717	488.42782040004386	490.64750360004837	493.19143740000436	2.2196832000045106	489.4321117000072	492.16859450004995	496.24428680003643	1.2153919000411406	1.0228428999544121	1.4689575000081732	495.2406300000148	0.3771553999977186	494.2054427000112	2	1	57	4	go_reward	1	1	0	1	1	1	0	0.0	1.0	1	0.2740417000022717	0.3771553999977186	1477.9263838999905	1966.3542043000343	1967.3584955999977	1968.5738875000388	1970.0949784000404	1971.1178212999948	1972.1318266000017	1973.1670139000053	1974.170670700027	1975.639628200035	2020-02-21 19:11:00.440840	26.7348825023795	15.8795735131785	0.0	14.0344509254889	26.7348825023795	0.0	-26.7348825023795	15.8795735131785	0.0	26.7348825023795	0.0	10.1326256295029	17.29441383494907	14.948924911066586	-0.483545537233921	9.155220576094091	22.933139381075662	-0.483545537233921	9.851677989026312	19.8720038393954	2.577590004446335	10.365338151955628	4.100041221877032	3	correct	1.0
497.7393819999995	8.110369300003867	nogo_reward	1.0	497.76131990004797	499.53617770003643	502.06517310003983	1.7748577999884674	498.7650337000375	501.04069290001644	505.09751920000394	0.7711439999989125	1.0244802000233904	0.7741700000478886	504.09285060002003	0.3018736999947577	503.07970420003403	2	1	58	3	nogo_reward	1	0	1	0	0	1	0	0.0	1.0	1	1.0	0.3018736999947577	1477.9263838999905	1975.6877038000384	1976.691417600028	1977.462561600027	1978.967076800007	1979.9915570000303	1981.0060881000245	1982.0192345000105	1983.0239030999944	1983.7980731000423	2020-02-21 19:11:00.440840	4.65063280389474	0.0	16.7419300279567	16.0495859220445	12.091297224062	16.7419300279567	-4.65063280389474	16.7419300279567	0.0	16.7419300279567	12.091297224062	9.270269114724702	-4.789835863535692	-0.9306486021119144	16.258384490722776	11.17035557264969	8.289554102758164	16.258384490722776	8.989321474248113	9.8790513649726	14.668887228508336	11.227694666733827	4.100041221877032	3	correct	1.0
505.891372699989	8.92776059999619	go_punish	0.350480199966114	505.91331060003745	508.2009877000239	510.7531842000319	2.2876770999864675	506.92020760005084	509.73181900003715	513.7938066000352	1.2807800999730716	1.0213651999947615	1.0472645999984707	512.7899328000494	0.3776799000333994	511.75988000002667	2	1	59	2	go_punish	1	0	-1	1	1	1	0	0.0	1.0	0	0.350480199966114	0.3776799000333994	1477.9263838999905	1983.839694500028	1984.8465915000413	1986.1273716000144	1987.6582029000276	1988.6795681000224	1989.6862639000171	1990.71631670004	1991.7201905000256	1992.767455100024	2020-02-21 19:11:00.440840	10.5443428663087	-1.1066518604479	-12.6675649116378	-4.12411886618302	-2.12322204532904	-12.6675649116378	-10.5443428663087	-1.1066518604479	-12.6675649116378	-2.12322204532904	-12.6675649116378	1.1066518604479	1.1038741988782679	-2.0373004625598146	-13.151110448871721	-9.003349215577828	-5.924965166632876	-13.151110448871721	0.8257042199713115	-8.986100708313137	-10.089974907191465	-6.620887221670771	-8.567523689760769	3	correct	1.0
514.8473656999995	9.383177399984334	nogo_punish	1.0	514.8693036000479	517.4346901000245	519.9598270000424	2.565386499976512	515.8666340000345	518.9402110000376	523.0092203000095	1.5680560999899171	1.0196160000048167	1.2432607000228018	521.996444999997	0.2565793999820016	520.9789420000159	2	1	60	1	nogo_punish	1	-1	0	0	0	1	0	0.0	1.0	0	1.0	0.2565793999820016	1477.9263838999905	1992.7956875000384	1993.793017900025	1995.361074000015	1996.866594900028	1997.886210900033	1998.9053259000063	1999.9228288999875	2000.9356042	2002.1788649000227	2020-02-21 19:11:00.440840	3.68420205739746	-7.84860640047165	-7.64574998014838	-8.23710130982913	-11.3299520375458	-7.64574998014838	-3.68420205739746	-7.64574998014838	-7.84860640047165	-7.64574998014838	-11.3299520375458	7.64574998014838	-5.756266610032972	-8.779255002583565	-8.129295517382301	-13.116331659223938	-15.131695158849636	-8.129295517382301	7.364802339671791	-14.508628643132477	-8.752362033099464	-13.15998534137125	-3.7485651785946175	3	correct	1.0
