onset	duration	trial_type	response_time	cueOnset	targetOnset	fbOnset	cueRT	firstfixOnset	secondfixOnset	waitOnset	firstfixdur	secondfixdur	waitdur	nback_fbOnset	nback_response_time	nback_targetOnset	block	wm	trial	cue	cond	is_common	outcome_go	outcome_nogo	key_correct	key_pressed	is_correct	key_correct_nback	key_pressed_nback	is_correct_nback	outcome	rt	rt_nback	time_scan	time_onset	time_isi1	time_circle	time_isi2	time_feedback	time_same	time_correct	time_iti	time_done	timestamp_scan	DV	Qgo	Qnogo	SV	Wgo	Wnogo	mDV	Qchosen	Qunchosen	Wchosen	Wunchosen	PE	DVC	QgoC	QnogoC	SVC	WgoC	WnogoC	PEC	WchosenC	WunchosenC	QchosenC	QunchosenC	run	outcome_nback	nback_targetResp
0.0	6.485979699995141	nogo_punish	1.0	0.025710100017249715	1.7007302999846843	4.238574700022696	1.6750201999674346	1.0377418000136913	3.2177628999926355	5.259020800004009	0.662988499970993	1.0208118000300601	1.2526690000083818	n/a	1.0	n/a	1	0	61	1	nogo_punish	1	-1	0	0	0	1	0	n/a	n/a	0	1.0	1.0	1009.3471676000044	1009.3728777000216	1010.384909400018	1011.047897899989	1012.564930499997	1013.585742300027	n/a	n/a	1014.6061884000084	1015.8588574000167	2020-02-21 19:03:11.853104	12.848809153013	-15.6903215705281	-1.12895288802712	-1.16617401193589	-13.9777620410401	-1.12895288802712	-12.848809153013	-1.12895288802712	-15.6903215705281	-1.12895288802712	-13.9777620410401	1.12895288802712	3.4083404855825687	-16.620970172640014	-1.612498425261041	-6.045404361330699	-17.779505162343934	-1.612498425261041	0.8480052475505314	-7.9918315510112174	-11.400172036593764	-6.643188249249992	-11.590280348651067	2	missed	0.0
6.525523099989982	6.795519399980435	nogo_reward	0.3573006000369787	6.551233200007232	9.031086100032667	11.566400200012254	2.479852900025435	7.56239159998961	10.556507700006591	12.572070599999279	1.468694500043057	1.0098925000056624	0.7746819999883883	n/a	1.0	n/a	1	0	62	3	nogo_reward	1	0	1	0	1	0	0	n/a	n/a	0	0.3573006000369787	1.0	1009.3471676000044	1015.8984008000116	1016.909559199994	1018.378253700037	1019.903675300011	1020.9135678000166	n/a	n/a	1021.9192382000036	1022.693920199992	2020-02-21 19:03:11.853104	1.82060879537965	0.298150974851803	0.0	0.298150974851803	1.82060879537965	0.0	-1.82060879537965	0.298150974851803	0.0	1.82060879537965	0.0	-0.298150974851803	-7.619859872050782	-0.6324976272601114	-0.483545537233921	-4.581079374543005	-1.981134325924186	-0.483545537233921	-0.5790986153283916	-5.042269867604447	2.577590004446335	-5.216084386371069	4.100041221877032	2	missed	0.0
13.355911299993636	6.810577100026421	go_reward	0.3167186999926343	13.381621400010886	15.161847000010425	17.70072890003223	1.7802255999995396	14.388404500030447	16.676813199999856	18.698961400019584	0.7734424999799785	1.0239157000323758	1.4932371000177227	n/a	1.0	n/a	1	0	63	4	go_reward	1	1	0	1	1	1	0	n/a	n/a	1	0.3167186999926343	1.0	1009.3471676000044	1022.7287890000152	1023.7355721000348	1024.5090146000148	1026.0239808000042	1027.0478965000366	n/a	n/a	1028.046129000024	1029.5393661000417	2020-02-21 19:03:11.853104	11.1271288087191	10.7441868530379	0.0	10.7441868530379	11.1271288087191	0.0	-11.1271288087191	10.7441868530379	0.0	11.1271288087191	0.0	15.268012289643499	1.6866601412886677	9.813538250925987	-0.483545537233921	5.864956503643092	7.325385687415263	-0.483545537233921	14.98706464916691	4.264250145735002	2.577590004446335	5.229951491815029	4.100041221877032	2	missed	0.0
20.20174809999287	6.452754599973559	go_punish	0.3152503999881446	20.22745820001012	21.693166500015536	24.235136100032946	1.4657083000054172	21.23382319998916	23.214495400025157	25.237685400003215	0.4593433000263758	1.0206407000077888	1.442527399980463	n/a	1.0	n/a	1	0	64	2	go_punish	1	0	-1	1	1	1	0	n/a	n/a	0	0.3152503999881446	1.0	1009.3471676000044	1029.5746258000145	1030.5809907999935	1031.04033410002	1032.5616630000295	1033.5823037000373	n/a	n/a	1034.5848530000076	1036.027380399988	2020-02-21 19:03:11.853104	3.52803567896778	-10.3770415943913	-10.3770415943913	-15.6903215705281	-6.84900591542351	-10.3770415943913	-3.52803567896778	-10.3770415943913	-10.3770415943913	-6.84900591542351	-10.3770415943913	10.3770415943913	-5.912432988462652	-11.307690196503215	-10.860587131625222	-20.569551919922908	-10.650749036727346	-10.860587131625222	10.096093953914712	-13.711884578407608	-7.799451589944965	-15.891276955614172	-6.2770003725142685	2	missed	0.0
26.693638600001464	7.0093665000167675	go_reward	0.2809280999936163	26.719348700018713	29.27650899998855	31.821668900025657	2.557160299969837	27.727571199997442	30.80644830001995	32.82203470001707	1.5489377999911085	1.015220600005705	0.9066805000184104	n/a	1.0	n/a	1	0	65	4	go_reward	1	1	0	1	1	1	1	n/a	n/a	1	0.2809280999936163	1.0	1009.3471676000044	1036.066516300023	1037.0747388000018	1038.623676599993	1040.1536159000243	1041.16883650003	n/a	n/a	1042.1692023000214	1043.0758828000398	2020-02-21 19:03:11.853104	17.4864361021519	17.8322786165039	0.0	17.8322786165039	17.4864361021519	0.0	-17.4864361021519	17.8322786165039	0.0	17.4864361021519	0.0	8.1799205261775	8.045967434721467	16.901630014391984	-0.483545537233921	12.95304826710909	13.684692980848062	-0.483545537233921	7.898972885700912	10.6235574391678	2.577590004446335	12.318043255281028	4.100041221877032	2	missed	0.0
33.73811310000008	6.8363793999888	nogo_punish	1.0	33.76382320001733	35.60764890001167	38.125113799993755	1.8438256999943405	34.76820550003333	37.11460410000302	39.137980400002675	0.839443399978336	1.0105096999907346	1.4622222000034526	n/a	1.0	n/a	1	0	66	1	nogo_punish	1	-1	0	0	0	1	0	n/a	n/a	0	1.0	1.0	1009.3471676000044	1043.1109908000217	1044.1153731000377	1044.954816500016	1046.4617717000074	1047.472281399998	n/a	n/a	1048.485148000007	1049.9473702000105	2020-02-21 19:03:11.853104	13.3583126135688	-15.6903215705281	-0.68029421585275	-0.70583271016332	-14.0386068294216	-0.68029421585275	-13.3583126135688	-0.68029421585275	-15.6903215705281	-0.68029421585275	-14.0386068294216	0.68029421585275	3.917843946138369	-16.620970172640014	-1.163839753086671	-5.585063059558129	-17.840349950725436	-1.163839753086671	0.39934657537616136	-7.543172878836847	-11.461016824975264	-6.194529577075621	-11.590280348651067	2	missed	0.0
40.611617200018486	6.514146199973538	go_punish	0.321840200049337	40.637327300035736	42.2075877999888	44.76111920003325	1.570260499953065	41.642397399991864	43.74106580001546	45.77378310001234	0.5651903999969363	1.0200534000177868	1.3776903999969363	n/a	1.0	n/a	1	0	67	2	go_punish	1	0	-1	1	1	1	0	n/a	n/a	0	0.321840200049337	1.0	1009.3471676000044	1049.98449490004	1050.9895649999962	1051.5547553999932	1053.0882334000198	1054.1082868000376	n/a	n/a	1055.1209507000167	1056.4986411000136	2020-02-21 19:03:11.853104	7.67078418351728	-5.3132799761368	-10.3770415943913	-8.16512400896979	-2.706257410874	-10.3770415943913	-7.67078418351728	-5.3132799761368	-10.3770415943913	-2.706257410874	-10.3770415943913	5.3132799761368	-1.769684483913152	-6.243928578248715	-10.860587131625222	-13.0443543583646	-6.508000532177836	-10.860587131625222	5.032332335660212	-9.569136073858097	-7.799451589944965	-10.82751533735967	-6.2770003725142685	2	missed	0.0
47.16186669998558	7.197435999987647	nogo_punish	1.0	47.18757680000283	49.96671100001561	52.470987799984755	2.779134200012777	48.19304720003868	51.46126499999093	53.48511469998641	1.77366379997693	1.009722799993824	0.8998981000040658	n/a	1.0	n/a	1	0	68	1	nogo_punish	1	-1	0	0	0	1	1	n/a	n/a	0	1.0	1.0	1009.3471676000044	1056.5347444000072	1057.540214800043	1059.31387860002	1060.8084325999953	1061.818155399989	n/a	n/a	1062.8322822999908	1063.7321803999948	2020-02-21 19:03:11.853104	13.654258577559	-15.6903215705281	-0.420041745054262	-0.437735423891359	-14.0743003226132	-0.420041745054262	-13.654258577559	-0.420041745054262	-15.6903215705281	-0.420041745054262	-14.0743003226132	0.420041745054262	4.213789910128568	-16.620970172640014	-0.903587282288183	-5.316965773286168	-17.876043443917034	-0.903587282288183	0.1390941045776734	-7.282920408038359	-11.496710318166864	-5.934277106277134	-11.590280348651067	2	missed	0.0
54.39980939996883	6.345020600012504	go_punish	0.3263593000010587	54.42551949998608	56.106944600003885	58.647736300015936	1.6814251000178047	55.43404469999962	57.626674400002344	59.66080080001859	0.6728999000042677	1.021061900013592	1.1097392999799922	n/a	1.0	n/a	1	0	69	2	go_punish	1	0	-1	1	1	1	1	n/a	n/a	0	0.3263593000010587	1.0	1009.3471676000044	1063.7726870999904	1064.781212300004	1065.4541122000082	1066.9738420000067	1067.9949039000203	n/a	n/a	1069.007968400023	1070.117707700003	2020-02-21 19:03:11.853104	9.66321852535439	-2.85184403283299	-10.3770415943913	-4.44471408254333	-0.713823069036895	-10.3770415943913	-9.66321852535439	-2.85184403283299	-10.3770415943913	-0.713823069036895	-10.3770415943913	2.85184403283299	0.22274985792395796	-3.782492634944904	-10.860587131625222	-9.323944431938138	-4.515566190340731	-10.860587131625222	2.5708963923564014	-7.576701732020992	-7.799451589944965	-8.36607939405586	-6.2770003725142685	2	missed	0.0
60.78056159999676	6.438538399990648	nogo_punish	1.0	60.80627170001401	62.74389650003275	65.27006770001037	1.9376248000187388	61.81386400002532	64.24925990001077	66.27759130002244	0.9300325000074281	1.0208077999996021	0.9672187999822199	n/a	1.0	n/a	1	0	70	1	nogo_punish	1	-1	0	0	0	1	1	n/a	n/a	0	1.0	1.0	1009.3471676000044	1070.1534393000184	1071.1610316000297	1072.091064100037	1073.5964275000151	1074.6172353000147	n/a	n/a	1075.6247589000268	1076.591977700009	2020-02-21 19:03:11.853104	13.8308635372407	-15.6903215705281	-0.264903547627105	-0.277271802139688	-14.0957670848678	-0.264903547627105	-13.8308635372407	-0.264903547627105	-15.6903215705281	-0.264903547627105	-14.0957670848678	0.264903547627105	4.390394869810269	-16.620970172640014	-0.748449084861026	-5.156502151534497	-17.897510206171635	-0.748449084861026	-0.016044092849483604	-7.127782210611202	-11.518177080421465	-5.779138908849976	-11.590280348651067	2	missed	0.0
67.26683789998049	7.272951400023885	nogo_reward	1.0	67.29254799999774	70.06677800003683	72.59288190002565	2.774230000039097	68.29609630000789	71.57210709998628	73.60383849998482	1.7706817000289448	1.0207748000393622	0.9616609000368044	n/a	1.0	n/a	1	0	71	3	nogo_reward	1	0	1	0	0	1	0	n/a	n/a	1	1.0	1.0	1009.3471676000044	1076.639715600002	1077.6432639000122	1079.4139456000412	1080.9192746999906	1081.94004950003	n/a	n/a	1082.9510060999892	1083.912667000026	2020-02-21 19:03:11.853104	-1.72678067926827	0.192032255728076	0.0	0.192032255728076	1.72678067926827	0.0	1.72678067926827	0.0	0.192032255728076	0.0	1.72678067926827	26.0121991426814	-11.167249346698702	-0.7386163463838383	-0.483545537233921	-4.687198093666733	-2.0749624420355657	-0.483545537233921	25.73125150220481	-6.862878662984097	4.304370683714605	-5.514235361222871	4.292073477605109	2	missed	0.0
74.57778509997286	6.894055800046772	go_punish	0.284042400016915	74.6034951999901	76.89727830002096	79.43629660003364	2.2937831000308506	75.61621850001404	78.41419149999285	80.44470669998566	1.2810598000069149	1.0221051000407897	1.0528443000512198	n/a	1.0	n/a	1	0	72	2	go_punish	1	0	-1	1	1	1	0	n/a	n/a	0	0.284042400016915	1.0	1009.3471676000044	1083.9506627999945	1084.9633861000184	1086.2444459000253	1087.7613590999972	1088.783464200038	n/a	n/a	1089.79187429999	1090.8447186000412	2020-02-21 19:03:11.853104	10.6735144206389	-1.59287004971033	-10.3770415943913	-2.51331040497091	0.296472826247578	-10.3770415943913	-10.6735144206389	-1.59287004971033	-10.3770415943913	0.296472826247578	-10.3770415943913	1.59287004971033	1.2330457532084687	-2.5235186518222443	-10.860587131625222	-7.392540754365719	-3.505270295056258	-10.860587131625222	1.3119224092337416	-6.56640583673652	-7.799451589944965	-7.107105410933201	-6.2770003725142685	2	missed	0.0
81.5129055000142	6.148500699957367	nogo_reward	1.0	81.53861560003145	83.25856829999259	85.7824944999885	1.7199526999611408	82.53830310003843	84.76321140001517	86.78117720002786	0.7202651999541558	1.019283099973336	0.9059390999609604	n/a	1.0	n/a	1	0	73	3	nogo_reward	1	0	1	0	0	1	1	n/a	n/a	1	1.0	1.0	1009.3471676000044	1090.8857832000358	1091.8854707000428	1092.605735899997	1094.1103790000195	1095.1296620999929	n/a	n/a	1096.1283448000322	1097.0342838999932	2020-02-21 19:03:11.853104	11.3163025299081	0.192032255728076	11.8184684662778	11.944087635893	0.502165936369666	11.8184684662778	-11.3163025299081	11.8184684662778	0.192032255728076	11.8184684662778	0.502165936369666	14.1937306764036	1.875833862477668	-0.7386163463838383	11.334922929043879	7.064857286498191	-3.29957718493417	11.334922929043879	13.912783035927012	4.9555898032937025	3.079755940816001	6.304233105054928	4.292073477605109	2	missed	0.0
87.7000689000123	6.392936199961696	go_punish	0.3272261999663897	87.72577900002955	89.23020629998075	91.76867560000403	1.5044272999512032	88.73059729998943	90.7610192000285	92.76859100000013	0.4996089999913238	1.0076563999755308	1.3501241999911144	n/a	1.0	n/a	1	0	74	2	go_punish	0	-1	0	1	1	1	1	n/a	n/a	-1	0.3272261999663897	1.0	1009.3471676000044	1097.072946600034	1098.0777648999938	1098.577373899985	1100.1081868000329	1101.1158432000084	n/a	n/a	1102.1157586000045	1103.4658827999956	2020-02-21 19:03:11.853104	11.2093222887678	-0.920440355260576	-10.3770415943913	-1.46809950627768	0.83228069437653	-10.3770415943913	-11.2093222887678	-0.920440355260576	-10.3770415943913	0.83228069437653	-10.3770415943913	-21.621221738428524	1.7688536213373673	-1.8510889573724905	-10.860587131625222	-6.347329855672489	-2.969462426927306	-10.860587131625222	-21.902169378905114	-6.030597968607568	-7.799451589944965	-6.434675716483447	-6.2770003725142685	2	missed	0.0
94.12837380002009	6.177236399962794	go_punish	0.2769986999919638	94.15408390003734	95.7302807000234	98.28347760002373	1.5761967999860644	95.16713680000987	97.26061440003116	99.30053160002001	0.5631439000135288	1.022863199992571	1.0307886999801212	n/a	1.0	n/a	1	0	75	2	go_punish	1	0	-1	1	1	1	0	n/a	n/a	0	0.2769986999919638	1.0	1009.3471676000044	1103.5012515000417	1104.5143044000142	1105.0774483000278	1106.6077820000355	1107.630645200028	n/a	n/a	1108.6476992000244	1109.6784879000045	2020-02-21 19:03:11.853104	2.41954766001541	-10.9247007454084	-10.3770415943913	-11.2589153286984	-7.95749393437587	-10.3770415943913	-2.41954766001541	-10.9247007454084	-10.3770415943913	-7.95749393437587	-10.3770415943913	10.9247007454084	-7.020921007415022	-11.855349347520313	-10.860587131625222	-16.13814567809321	-11.759237055679707	-10.860587131625222	10.643753104931811	-14.820372597359967	-7.799451589944965	-16.43893610663127	-6.2770003725142685	2	missed	0.0
100.40065419999871	6.07696949999081	nogo_reward	1.0	100.42636430001596	101.68957290001015	104.22003430000052	1.2632085999941864	101.41803619998984	103.1960036000238	105.22890430001996	0.27153670002030594	1.02403069997672	1.2744294999868089	n/a	1.0	n/a	1	0	76	3	nogo_reward	1	0	1	0	0	1	0	n/a	n/a	1	1.0	1.0	1009.3471676000044	1109.7735319000203	1110.7652037999942	1111.0367405000145	1112.5431712000282	1113.5672019000049	n/a	n/a	1114.5760719000243	1115.8505014000111	2020-02-21 19:03:11.853104	18.086411246821	0.192032255728076	17.9357715366127	18.0190911763714	-0.150639710208371	17.9357715366127	-18.086411246821	17.9357715366127	0.192032255728076	17.9357715366127	-0.150639710208371	8.076427606068698	8.645942579390569	-0.7386163463838383	17.45222599937878	13.13986082697659	-3.952382831512207	17.45222599937878	7.79547996559211	11.072892873628604	2.426950294237964	12.42153617538983	4.292073477605109	2	missed	0.0
106.51775200001418	6.2635127999819815	nogo_punish	1.0	106.54346210003143	107.88900500000466	110.41559320001409	1.3455428999732248	107.55421939998644	109.39491869998176	111.42767940001806	0.3347856000182219	1.020674500032328	1.3792954999953508	n/a	1.0	n/a	1	0	77	1	nogo_punish	1	-1	0	0	0	1	0	n/a	n/a	0	1.0	1.0	1009.3471676000044	1115.8906297000358	1116.9013869999908	1117.236172600009	1118.742086299986	1119.7627608000184	n/a	n/a	1120.7748470000224	1122.1541425000178	2020-02-21 19:03:11.853104	13.9387708249819	-15.6903215705281	-0.17019469387665	-0.178911592250893	-14.1089655188586	-0.17019469387665	-13.9387708249819	-0.17019469387665	-15.6903215705281	-0.17019469387665	-14.1089655188586	0.17019469387665	4.498302157551468	-16.620970172640014	-0.653740231110571	-5.058141941645702	-17.910708640162436	-0.653740231110571	-0.11075294659993859	-7.033073356860747	-11.531375514412264	-5.684430055099521	-11.590280348651067	2	missed	0.0
112.81697559996962	6.726380900014192	nogo_punish	1.0	112.84268569998687	114.71835129999101	117.24425920000078	1.8756656000041403	113.85915430000762	116.23341899999662	118.24780990002921	0.8591969999833964	1.0108402000041679	1.3212566999718547	n/a	1.0	n/a	1	0	78	1	nogo_punish	1	-1	0	0	0	1	0	n/a	n/a	0	1.0	1.0	1009.3471676000044	1122.1898532999912	1123.206321900012	1124.0655188999954	1125.580586600001	1126.5914268000051	n/a	n/a	1127.5949775000336	1128.9162342000054	2020-02-21 19:03:11.853104	14.0060874486489	-15.6903215705281	-0.111153463195104	-0.117343776029807	-14.117240911844	-0.111153463195104	-14.0060874486489	-0.111153463195104	-15.6903215705281	-0.111153463195104	-14.117240911844	0.111153463195104	4.565618781218468	-16.620970172640014	-0.594699000429025	-4.996574125424615	-17.918984033147836	-0.594699000429025	-0.1697941772814846	-6.9740321261792015	-11.539650907397665	-5.625388824417976	-11.590280348651067	2	missed	0.0
119.58070659998327	7.060170000011567	go_punish	0.3245058999746106	119.60641670000052	121.62560810003208	124.18758510000782	2.019191400031559	120.61992740002472	123.16377700003807	125.19652689999214	1.0056807000073604	1.0238080999697559	1.4700598000199534	n/a	1.0	n/a	1	0	79	2	go_punish	0	-1	0	1	1	1	0	n/a	n/a	-1	0.3245058999746106	1.0	1009.3471676000044	1128.9535843000049	1129.967095000029	1130.9727757000364	1132.5109446000424	1133.5347527000122	n/a	n/a	1134.5436944999965	1136.0137543000164	2020-02-21 19:03:11.853104	7.03844530460424	-5.6474945594268	-10.3770415943913	-5.85600709219334	-3.33859628978704	-10.3770415943913	-7.03844530460424	-5.6474945594268	-10.3770415943913	-3.33859628978704	-10.3770415943913	-16.8941675342623	-2.402023362826192	-6.578143161538715	-10.860587131625222	-10.735237441588149	-7.140339411090876	-10.860587131625222	-17.17511517473889	-10.201474952771138	-7.799451589944965	-11.161729920649671	-6.2770003725142685	2	missed	0.0
126.68457009998349	5.89614570001163	nogo_reward	1.0	126.71028020000074	128.27047739998682	130.7999618999894	1.560197199986078	127.70629020000354	129.77622320002422	131.80004619999102	0.5641871999832802	1.023738699965179	0.8063797000213526	n/a	1.0	n/a	1	0	80	3	nogo_reward	1	0	1	0	0	1	0	n/a	n/a	1	1.0	1.0	1009.3471676000044	1136.057447800005	1137.053457800008	1137.6176449999912	1139.1233908000286	1140.1471294999938	n/a	n/a	1141.1472137999954	1141.9535935000167	2020-02-21 19:03:11.853104	21.7677957401307	0.192032255728076	21.2551465731423	21.3111015519402	-0.512649166988387	21.2551465731423	-21.7677957401307	21.2551465731423	0.192032255728076	21.2551465731423	-0.512649166988387	4.757052569539098	12.32732707270027	-0.7386163463838383	20.77160103590838	16.43187120254539	-4.314392288292223	20.77160103590838	4.47610492906251	14.392267910158203	2.0649408374579483	15.74091121191943	4.292073477605109	2	missed	0.0
132.61465030000534	6.270535199961159	nogo_punish	1.0	132.6403604000226	133.9753574000207	136.5110937000137	1.3349969999981113	133.64708160003659	135.49122750002437	137.52406560000975	0.3282757999841124	1.0198661999893375	1.3868299999739975	n/a	1.0	n/a	1	0	81	1	nogo_punish	1	-1	0	0	0	1	0	n/a	n/a	0	1.0	1.0	1009.3471676000044	1141.987528000027	1142.994249200041	1143.322525000025	1144.8383951000287	1145.858261300018	n/a	n/a	1146.871233200014	1148.258063199988	2020-02-21 19:03:11.853104	14.0488612660648	-15.6903215705281	-0.0736597521541393	-0.0780869172655212	-14.1225210182189	-0.0736597521541393	-14.0488612660648	-0.0736597521541393	-15.6903215705281	-0.0736597521541393	-14.1225210182189	0.0736597521541393	4.608392598634367	-16.620970172640014	-0.5572052893880604	-4.95731726666033	-17.924264139522734	-0.5572052893880604	-0.20728788832244932	-6.936538415138236	-11.544931013772564	-5.5878951133770105	-11.590280348651067	2	missed	0.0
138.92045699997095	6.846079300041538	go_reward	0.3331154999905266	138.9461670999882	141.0013387000073	143.54879470000753	2.0551716000190936	139.9547210999882	142.538632299984	144.5616173000309	1.0466176000190899	1.010162400023546	1.2306290999988505	n/a	1.0	n/a	1	0	82	4	go_reward	0	0	1	1	1	1	0	n/a	n/a	0	0.3331154999905266	1.0	1009.3471676000044	1148.2933346999926	1149.3018886999926	1150.3485063000116	1151.8857998999883	1152.895962300012	n/a	n/a	1153.9087849000352	1155.139414000034	2020-02-21 19:03:11.853104	20.6987424924641	21.4270400052923	0.0	21.4270400052923	20.6987424924641	0.0	-20.6987424924641	21.4270400052923	0.0	20.6987424924641	0.0	-21.4270400052923	11.258273825033667	20.496391403180386	-0.483545537233921	16.547809655897492	16.896999371160263	-0.483545537233921	-21.707987645768892	13.835863829480001	2.577590004446335	15.91280464406943	4.100041221877032	2	missed	0.0
145.80635349999636	7.439702000003308	nogo_punish	1.0	145.8320636000136	148.24495630001195	150.76693039998656	2.4128926999983378	146.8254009000376	149.7496068000329	151.77107529999932	1.4195553999743424	1.01732359995367	1.5006903000175953	n/a	1.0	n/a	1	0	83	1	nogo_punish	1	-1	0	0	0	1	1	n/a	n/a	0	1.0	1.0	1009.3471676000044	1155.179231200018	1156.172568500042	1157.5921239000163	1159.0967744000372	1160.114097999991	n/a	n/a	1161.1182429000037	1162.6189332000213	2020-02-21 19:03:11.853104	14.0764886405431	-15.6903215705281	-0.0494544515189363	-0.0526415355816031	-14.125943092062	-0.0494544515189363	-14.0764886405431	-0.0494544515189363	-15.6903215705281	-0.0494544515189363	-14.125943092062	0.0494544515189363	4.636019973112669	-16.620970172640014	-0.5329999887528574	-4.931871884976412	-17.927686213365835	-0.5329999887528574	-0.2314931889576523	-6.912333114503033	-11.548353087615665	-5.563689812741807	-11.590280348651067	2	missed	0.0
153.28873369999917	5.871661100012716	nogo_reward	1.0	153.31444380001642	154.70345289999398	157.21924790000787	1.3890090999775566	154.3226990000113	156.21026090002863	158.22393410000961	0.38075389998266473	1.0089869999792427	0.9621708000195213	n/a	1.0	n/a	1	0	84	3	nogo_reward	0	1	0	0	0	1	0	n/a	n/a	0	1.0	1.0	1009.3471676000044	1162.6616114000208	1163.6698666000157	1164.0506204999983	1165.557428500033	1166.5664155000122	n/a	n/a	1167.571101700014	1168.5332725000335	2020-02-21 19:03:11.853104	23.8485659432829	0.192032255728076	23.1282732462675	23.1662762390495	-0.72029269701541	23.1282732462675	-23.8485659432829	23.1282732462675	0.192032255728076	23.1282732462675	-0.72029269701541	-23.1282732462675	14.408097275852468	-0.7386163463838383	22.644727709033578	18.28704588965469	-4.522035818319246	22.644727709033578	-23.40922088674409	16.265394583283403	1.8572973074309251	17.61403788504463	4.292073477605109	2	missed	0.0
159.1980827999647	6.495004000026029	go_reward	0.2770554000162519	159.22379289998196	161.2744176000125	163.81964450003613	2.0506247000305393	160.22767600003874	162.80073560000176	164.8286424999825	1.0467415999737568	1.0189089000343756	0.8901544000254944	n/a	1.0	n/a	1	0	85	4	go_reward	1	1	0	1	1	1	0	n/a	n/a	1	0.2770554000162519	1.0	1009.3471676000044	1168.5709604999863	1169.574843600043	1170.6215852000169	1172.147903200006	1173.1668121000405	n/a	n/a	1174.1758100999868	1175.0659645000123	2020-02-21 19:03:11.853104	11.821077777866	11.5263265239603	0.0	11.5263265239603	11.821077777866	0.0	-11.821077777866	11.5263265239603	0.0	11.821077777866	0.0	14.4858726187211	2.380609110435568	10.595677921848386	-0.483545537233921	6.647096174565491	8.019334656562163	-0.483545537233921	14.204924978244511	4.958199114881903	2.577590004446335	6.012091162737429	4.100041221877032	2	missed	0.0
165.7318559999693	6.496371200017165	go_punish	0.6704275999800302	165.75756609998655	167.54810559999908	170.0900588000078	1.7905395000125282	166.76601540000422	169.07780780002975	171.09349850000615	0.7820901999948546	1.0122509999780505	1.1604387999975643	n/a	1.0	n/a	1	0	86	2	go_punish	1	0	-1	1	1	1	0	n/a	n/a	0	0.6704275999800302	1.0	1009.3471676000044	1175.104733699991	1176.1131830000086	1176.8952732000034	1178.424975400034	1179.4372264000122	n/a	n/a	1180.4406661000105	1181.601104900008	2020-02-21 19:03:11.853104	0.205664790700032	-13.4373981599908	-10.3770415943913	-13.5700332248265	-10.1713768036913	-10.3770415943913	-0.205664790700032	-13.4373981599908	-10.3770415943913	-10.1713768036913	-10.3770415943913	13.4373981599908	-9.2348038767304	-14.368046762102713	-10.860587131625222	-18.44926357422131	-13.973119924995137	-10.860587131625222	13.15645051951421	-17.034255466675397	-7.799451589944965	-18.951633521213672	-6.2770003725142685	2	missed	0.0
172.2690518000162	7.320924300001707	nogo_reward	1.0	172.29476190003345	174.73257990001014	177.2587556000218	2.437817999976687	173.29710309999075	176.24821120000013	178.2634124000325	1.4354768000193872	1.0105444000216721	1.3522738000026493	n/a	1.0	n/a	1	0	87	3	nogo_reward	0	1	0	0	0	1	0	n/a	n/a	0	1.0	1.0	1009.3471676000044	1181.6419295000378	1182.644270699995	1184.0797475000145	1185.5953788000045	1186.6059232000262	n/a	n/a	1187.6105800000369	1188.9628538000395	2020-02-21 19:03:11.853104	12.0126919738411	0.192032255728076	12.4021513821394	12.4282279180331	0.389459408298264	12.4021513821394	-12.0126919738411	12.4021513821394	0.192032255728076	12.4021513821394	0.389459408298264	-12.4021513821394	2.5722233064106685	-0.7386163463838383	11.918605844905478	7.548997568638291	-3.412283713005572	11.918605844905478	-12.683099022615988	5.539272719155302	2.967049412744599	6.887916020916528	4.292073477605109	2	missed	0.0
179.62659020000126	7.4259502000059	go_punish	0.342946499993559	179.6523003000185	182.49355120002303	185.05039600003522	2.8412509000045247	180.65804860001674	184.03036460001056	186.0636775000022	1.8355026000062935	1.0200314000246635	1.0145730000222102	n/a	1.0	n/a	1	0	88	2	go_punish	1	0	-1	1	1	1	1	n/a	n/a	0	0.342946499993559	1.0	1009.3471676000044	1188.9994679000229	1190.005216200021	1191.8407188000274	1193.377532200015	1194.3975636000396	n/a	n/a	1195.4108451000066	1196.4254181000288	2020-02-21 19:03:11.853104	5.81348746094699	-7.03878509068278	-10.3770415943913	-7.12461225244705	-4.5635541334443	-10.3770415943913	-5.81348746094699	-7.03878509068278	-10.3770415943913	-4.5635541334443	-10.3770415943913	7.03878509068278	-3.6269812064834417	-7.969433692794695	-10.860587131625222	-12.003842601841859	-8.365297254748135	-10.860587131625222	6.757837450206192	-11.426432796428397	-7.799451589944965	-12.553020451905653	-6.2770003725142685	2	missed	0.0
187.09121119999315	7.126189799979329	go_reward	0.3104826000053435	187.1169213000104	189.87890880001976	192.40152040001715	2.7619875000093543	188.12105900002655	191.40111859998444	193.40599040000245	1.7578497999932097	1.000401800032705	0.8371206999872811	n/a	1.0	n/a	1	0	89	4	go_reward	0	0	1	1	1	1	0	n/a	n/a	0	0.3104826000053435	1.0	1009.3471676000044	1196.4640889000148	1197.468226600031	1199.226076400024	1200.7482861999888	1201.7486880000215	n/a	n/a	1202.7531580000068	1203.590278699994	2020-02-21 19:03:11.853104	17.895847851557	18.2944260109164	0.0	18.2944260109164	17.895847851557	0.0	-17.895847851557	18.2944260109164	0.0	17.895847851557	0.0	-18.2944260109164	8.455379184126569	17.363777408804484	-0.483545537233921	13.41519566152159	14.094104730253164	-0.483545537233921	-18.57537365139299	11.032969188572903	2.577590004446335	12.780190649693528	4.100041221877032	2	missed	0.0
194.25271049997525	7.7299941999956445	nogo_punish	1.0	194.2784205999925	197.0287663000055	199.57297809998283	2.7503457000129856	195.29405920003785	198.55211049999355	200.58615039999142	1.7347070999676362	1.0208675999892876	1.4222643999967204	n/a	1.0	n/a	1	0	90	1	nogo_punish	1	-1	0	0	0	1	0	n/a	n/a	0	1.0	1.0	1009.3471676000044	1203.6255881999969	1204.6412268000422	1206.3759339000098	1207.899278099998	1208.9201456999872	n/a	n/a	1209.9333179999958	1211.3555823999925	2020-02-21 19:03:11.853104	14.0945963175955	-15.6903215705281	-0.0335960584478256	-0.0359045632495207	-14.1281923760434	-0.0335960584478256	-14.0945963175955	-0.0335960584478256	-15.6903215705281	-0.0335960584478256	-14.1281923760434	0.0335960584478256	4.6541276501650675	-16.620970172640014	-0.5171415956817467	-4.915134912644329	-17.929935497347234	-0.5171415956817467	-0.247351582028763	-6.896474721431923	-11.550602371597064	-5.547831419670697	-11.590280348651067	2	missed	0.0
202.0252290000209	6.311244899988878	nogo_reward	1.0	202.05093910003814	203.61269819998427	206.14349799999047	1.56175909994613	203.05025570001465	205.11971749999805	207.1477032999975	0.5624424999696203	1.0237804999924265	1.214480700029526	n/a	1.0	n/a	1	0	91	3	nogo_reward	1	0	1	0	0	1	0	n/a	n/a	1	1.0	1.0	1009.3471676000044	1211.3981067000425	1212.397423300019	1212.9598657999886	1214.4668851000024	1215.4906655999948	n/a	n/a	1216.4948709000018	1217.7093516000314	2020-02-21 19:03:11.853104	5.96690605883171	0.192032255728076	6.93989501801649	6.95795687766645	0.972988959184784	6.93989501801649	-5.96690605883171	6.93989501801649	0.192032255728076	6.93989501801649	0.972988959184784	19.07230412466491	-3.473562608598722	-0.7386163463838383	6.456349480782569	2.078726528271641	-2.828754162119052	6.456349480782569	18.79135648418832	0.07701635503239235	3.550578963631119	1.4256596567936182	4.292073477605109	2	missed	0.0
208.37774999998499	6.321407400013413	go_punish	0.3448341000475921	208.40346010000223	210.17966209998133	212.72282219998317	1.7762019999790937	209.41416919999767	211.71034410002187	213.74068049999198	0.7654928999836557	1.0124780999612994	0.9841870000236668	n/a	1.0	n/a	1	0	92	2	go_punish	1	0	-1	1	1	1	0	n/a	n/a	0	0.3448341000475921	1.0	1009.3471676000044	1217.7506277000066	1218.761336800002	1219.5268296999857	1221.0575117000262	1222.0699897999875	n/a	n/a	1223.0878480999963	1224.07203510002	2020-02-21 19:03:11.853104	8.58854049014867	-3.85811154985784	-10.3770415943913	-3.9145025647184	-1.78850110424262	-10.3770415943913	-8.58854049014867	-3.85811154985784	-10.3770415943913	-1.78850110424262	-10.3770415943913	3.85811154985784	-0.8519281772817617	-4.788760151969755	-10.860587131625222	-8.793732914113209	-5.590244225546456	-10.860587131625222	3.5771639093812517	-8.651379767226718	-7.799451589944965	-9.372346911080712	-6.2770003725142685	2	missed	0.0
214.73575170000538	7.927091199963115	go_reward	0.3628259000252001	214.76146180002263	217.72858739999367	220.29165979998663	2.967125599971041	215.76932810002484	219.26498710003227	221.30260599998303	1.959259299968835	1.0266726999543607	1.3859470000027159	n/a	1.0	n/a	1	0	93	4	go_reward	1	1	0	1	1	1	0	n/a	n/a	1	0.3628259000252001	1.0	1009.3471676000044	1224.108629400027	1225.1164957000292	1227.075754999998	1228.6121547000366	1229.638827399991	n/a	n/a	1230.6497735999874	1232.03572059999	2020-02-21 19:03:11.853104	10.3604900861384	9.8887011976435	0.0	9.8887011976435	10.3604900861384	0.0	-10.3604900861384	9.8887011976435	0.0	10.3604900861384	0.0	16.123497945037897	0.920021418707968	8.958052595531587	-0.483545537233921	5.009470848248692	6.5587469648345635	-0.483545537233921	15.842550304561309	3.4976114231543027	2.577590004446335	4.3744658364206295	4.100041221877032	2	missed	0.0
222.6977913000154	6.149239699996542	nogo_punish	1.0	222.72350140003266	224.57364419999078	227.09455770003854	1.850142799958121	223.72978350002074	226.08085780002887	228.0980413000217	0.8438606999700369	1.0136999000096694	0.7746998000075109	n/a	1.0	n/a	1	0	94	1	nogo_punish	1	-1	0	0	0	1	0	n/a	n/a	0	1.0	1.0	1009.3471676000044	1232.070669000037	1233.076951100025	1233.9208117999951	1235.4280254000332	1236.441725300043	n/a	n/a	1237.445208900026	1238.2199087000336	2020-02-21 19:03:11.853104	14.1066221154053	-15.6903215705281	-0.0230675936527451	-0.02474938285289	-14.129689709058	-0.0230675936527451	-14.1066221154053	-0.0230675936527451	-15.6903215705281	-0.0230675936527451	-14.129689709058	0.0230675936527451	4.666153447974867	-16.620970172640014	-0.5066131308866662	-4.903979732247699	-17.931432830361835	-0.5066131308866662	-0.2578800468238435	-6.885946256636842	-11.552099704611665	-5.537302954875616	-11.590280348651067	2	missed	0.0
228.88435439998273	6.1981257000006735	go_reward	0.3220715000061318	228.91006449999998	230.61356979998516	233.1684349999997	1.7035052999851814	229.92343930003733	232.15333669999416	234.17746139998815	0.690130499947827	1.0150983000055476	0.9307288000125027	n/a	1.0	n/a	1	0	95	4	go_reward	1	1	0	1	1	1	1	n/a	n/a	1	0.3220715000061318	1.0	1009.3471676000044	1238.2572321000043	1239.2706069000417	1239.9607373999895	1241.5005042999985	1242.515602600004	n/a	n/a	1243.5246289999925	1244.455357800005	2020-02-21 19:03:11.853104	17.1010922100969	17.4010930232505	0.0	17.4010930232505	17.1010922100969	0.0	-17.1010922100969	17.4010930232505	0.0	17.1010922100969	0.0	8.6111061194309	7.660623542666469	16.470444421138584	-0.483545537233921	12.52186267385569	13.299349088793065	-0.483545537233921	8.330158478954312	10.238213547112803	2.577590004446335	11.886857662027628	4.100041221877032	2	missed	0.0
235.11710739997204	6.736086000047862	go_reward	0.2986822000239044	235.1428174999893	237.35689709999144	239.90707280003733	2.214079600002151	236.14787580003042	238.89514799998153	240.92707159998838	1.209021299961023	1.0119248000557945	0.9518319000487736	n/a	1.0	n/a	1	0	96	4	go_reward	0	0	1	1	1	1	0	n/a	n/a	0	0.2986822000239044	1.0	1009.3471676000044	1244.4899850999936	1245.4950434000348	1246.7040646999958	1248.242315599986	1249.2542404000417	n/a	n/a	1250.2742391999927	1251.2260711000415	2020-02-21 19:03:11.853104	20.4981122868634	21.2020436572854	0.0	21.2020436572854	20.4981122868634	0.0	-20.4981122868634	21.2020436572854	0.0	20.4981122868634	0.0	-21.2020436572854	11.057643619432968	20.271395055173485	-0.483545537233921	16.32281330789059	16.696369165559563	-0.483545537233921	-21.48299129776199	13.635233623879301	2.577590004446335	15.68780829606253	4.100041221877032	2	missed	0.0
241.88743910001347	6.038264299975708	nogo_punish	1.0	241.91314920003072	243.40629750001256	245.9370669000201	1.49314829998184	242.90455040003883	244.91214369999955	246.9460671999842	0.501747099973727	1.0249232000205666	1.005346300022211	n/a	1.0	n/a	1	0	97	1	nogo_punish	0	0	-1	0	0	1	0	n/a	n/a	-1	1.0	1.0	1009.3471676000044	1251.260316800035	1252.2517180000432	1252.753465100017	1254.259311300004	1255.2842345000245	n/a	n/a	1256.2932347999886	1257.2985811000108	2020-02-21 19:03:11.853104	14.1147047229341	-15.6903215705281	-0.0159933199735248	-0.0172251942643385	-14.1306980429076	-0.0159933199735248	-14.1147047229341	-0.0159933199735248	-15.6903215705281	-0.0159933199735248	-14.1306980429076	-22.525668773715577	4.674236055503668	-16.620970172640014	-0.49953885720744584	-4.8964555436591475	-17.932441164211436	-0.49953885720744584	-22.806616414192167	-6.878871982957622	-11.553108038461264	-5.530228681196396	-11.590280348651067	2	missed	0.0
247.9652237999834	5.811908400035463	go_reward	0.3179109999909997	247.99093390000064	249.35157009999955	251.88167040003475	1.3606361999989076	249.00208050000958	250.868536300026	252.89179780002462	0.3494895999899654	1.013134100008756	0.9110445000114851	n/a	1.0	n/a	1	0	98	4	go_reward	1	1	0	1	1	1	1	n/a	n/a	1	0.3179109999909997	1.0	1009.3471676000044	1257.338101500005	1258.349248100014	1258.698737700004	1260.2157039000303	1261.228838000039	n/a	n/a	1262.238965400029	1263.1500099000405	2020-02-21 19:03:11.853104	11.7134916533198	11.4054542779923	0.0	11.4054542779923	11.7134916533198	0.0	-11.7134916533198	11.4054542779923	0.0	11.7134916533198	0.0	14.6067448646891	2.2730229858893676	10.474805675880386	-0.483545537233921	6.526223928597491	7.911748532015963	-0.483545537233921	14.325797224212511	4.850612990335702	2.577590004446335	5.891218916769429	4.100041221877032	2	missed	0.0
253.81873290002102	7.062965499993879	nogo_reward	1.0	253.84444300003827	256.4241522999947	258.9503905000166	2.5797092999564484	254.85527440003364	257.9290790000233	259.9630843999913	1.5688778999610804	1.0213114999933168	0.9443241000408307	n/a	1.0	n/a	1	0	99	3	nogo_reward	0	1	0	0	0	1	0	n/a	n/a	0	1.0	1.0	1009.3471676000044	1263.1916106000426	1264.202442000038	1265.771319899999	1267.2762466000277	1268.297558100021	n/a	n/a	1269.3102519999957	1270.2545761000365	2020-02-21 19:03:11.853104	15.7813937348085	0.192032255728076	15.8413122183797	15.8539314591242	0.0599184835711981	15.8413122183797	-15.7813937348085	15.8413122183797	0.192032255728076	15.8413122183797	0.0599184835711981	-15.8413122183797	6.340925067378068	-0.7386163463838383	15.35776668114578	10.974701109729391	-3.741824637732638	15.35776668114578	-16.12225985885629	8.978433555395604	2.637508488017533	10.327076857156829	4.292073477605109	2	missed	0.0
260.9179282999827	6.074884900008556	nogo_punish	1.0	260.94363839999994	262.27764019998733	264.7931417000365	1.3340017999873908	261.9486638000236	263.7735261000345	265.8064099000186	0.32897639996372163	1.0196156000019982	1.212113399989903	n/a	1.0	n/a	1	0	100	1	nogo_punish	1	-1	0	0	0	1	0	n/a	n/a	0	1.0	1.0	1009.3471676000044	1270.2908060000043	1271.295831400028	1271.6248077999917	1273.1206937000388	1274.1403093000408	n/a	n/a	1275.153577500023	1276.3656909000129	2020-02-21 19:03:11.853104	2.45122001080542	-15.6903215705281	-10.3882293934234	-10.3891363364748	-12.8394494042288	-10.3882293934234	-2.45122001080542	-10.3882293934234	-15.6903215705281	-10.3882293934234	-12.8394494042288	10.3882293934234	-6.989248656625012	-16.620970172640014	-10.87177493065732	-15.268366685869609	-16.641192525532635	-10.87177493065732	10.107281752946811	-17.251108056407496	-10.261859399782464	-15.902464754646271	-11.590280348651067	2	missed	0.0
267.0346407999749	6.860663200030103	nogo_reward	1.0	267.06035089999216	268.9718183000224	271.51175330003036	1.911467400030233	268.06489680003153	270.48749390000023	272.51116799999716	0.9069214999908581	1.0242594000301324	1.4098461000251064	n/a	1.0	n/a	1	0	101	3	nogo_reward	1	0	1	0	0	1	1	n/a	n/a	1	1.0	1.0	1009.3471676000044	1276.4075184999965	1277.412064400036	1278.3189859000267	1279.8346615000046	1280.8589209000347	n/a	n/a	1281.8583356000015	1283.2681817000266	2020-02-21 19:03:11.853104	7.70400462072575	0.192032255728076	8.51930048379986	8.52818801362012	0.815295863074105	8.51930048379986	-7.70400462072575	8.51930048379986	0.192032255728076	8.51930048379986	0.815295863074105	17.49289865888154	-1.7364640467046817	-0.7386163463838383	8.03575494656594	3.6489576642253114	-2.986447258229731	8.03575494656594	17.21195101840495	1.6564218208157628	3.39288586752044	3.0050651225769887	4.292073477605109	2	missed	0.0
273.9306188999907	6.779162799997721	go_reward	0.2969727999879978	273.95632900000794	275.94754010002373	278.52379940002004	1.9912111000157893	274.977409299987	277.5093370000251	279.5325247999864	0.9701308000367135	1.0144623999949545	1.202967000019271	n/a	1.0	n/a	1	0	102	4	go_reward	1	1	0	1	1	1	0	n/a	n/a	1	0.2969727999879978	1.0	1009.3471676000044	1283.3034966000123	1284.3245768999914	1285.294707700028	1286.8565046000294	1287.8709670000244	n/a	n/a	1288.8796923999907	1290.08265940001	2020-02-21 19:03:11.853104	17.836714824837	18.2278881986419	0.0	18.2278881986419	17.836714824837	0.0	-17.836714824837	18.2278881986419	0.0	17.836714824837	0.0	7.7843109440395	8.396246157406567	17.297239596529984	-0.483545537233921	13.34865784924709	14.034971703533163	-0.483545537233921	7.503363303562912	10.973836161852901	2.577590004446335	12.713652837419028	4.100041221877032	2	missed	0.0
280.7541673000086	7.7001302999562995	nogo_reward	1.0	280.77987740002584	283.47686310001893	286.001990400022	2.6969856999930926	281.7772626000225	284.9859970000108	287.0119533999824	1.6996004999964498	1.0159934000112116	1.4680542999997215	n/a	1.0	n/a	1	0	103	3	nogo_reward	1	0	1	0	0	1	1	n/a	n/a	1	1.0	1.0	1009.3471676000044	1290.1270450000302	1291.1244302000268	1292.8240307000233	1294.3331646000152	1295.3491580000264	n/a	n/a	1296.3591209999868	1297.8271752999865	2020-02-21 19:03:11.853104	16.627688156774	0.192032255728076	16.6085857874171	16.6148918591248	-0.0191023693569306	16.6085857874171	-16.627688156774	16.6085857874171	0.192032255728076	16.6085857874171	-0.0191023693569306	9.403613355264302	7.187219489343567	-0.7386163463838383	16.125040250183176	11.73566150972999	-3.8208454906607665	16.125040250183176	9.122665714787713	9.745707124433	2.5584876350894046	11.094350426194227	4.292073477605109	2	missed	0.0
288.4962520999833	7.093613100005314	nogo_reward	1.0	288.52196220000053	290.89019030000816	293.41036390000966	2.3682281000076273	289.5308504999849	292.39538450003613	294.4191845000024	1.3593398000232355	1.0149793999735266	1.196390800003428	n/a	1.0	n/a	1	0	104	3	nogo_reward	1	0	1	0	0	1	0	n/a	n/a	1	1.0	1.0	1009.3471676000044	1297.8691298000049	1298.8780180999893	1300.2373579000125	1301.7425521000405	1302.757531500014	n/a	n/a	1303.7663521000068	1304.9627429000102	2020-02-21 19:03:11.853104	21.1874410349595	0.192032255728076	20.7291203398825	20.7336258920995	-0.458320695077007	20.7291203398825	-21.1874410349595	20.7291203398825	0.192032255728076	20.7291203398825	-0.458320695077007	5.283078802798901	11.74697236752907	-0.7386163463838383	20.245574802648576	15.85439554270469	-4.260063816380843	20.245574802648576	5.002131162322312	13.866241676898401	2.119269309369328	15.214884978659628	4.292073477605109	2	missed	0.0
295.6269250999902	6.138557500031311	go_reward	0.3866518000140786	295.65263520000747	297.46983290003857	300.0300423000009	1.8171977000311017	296.6575400999865	299.0060340000201	301.0307216999937	0.8122928000520915	1.0240082999807782	0.7604710000450723	n/a	1.0	n/a	1	0	105	4	go_reward	1	1	0	1	1	1	0	n/a	n/a	1	0.3866518000140786	1.0	1009.3471676000044	1304.9998028000118	1306.0047076999908	1306.817000500043	1308.3532016000245	1309.3772099000053	n/a	n/a	1310.377889299998	1311.1383603000431	2020-02-21 19:03:11.853104	20.9134219300313	21.6697899921117	0.0	21.6697899921117	20.9134219300313	0.0	-20.9134219300313	21.6697899921117	0.0	20.9134219300313	0.0	4.342409150569701	11.47295326260087	20.739141389999784	-0.483545537233921	16.79055964271689	17.111678808727465	-0.483545537233921	4.061461510093112	14.050543267047203	2.577590004446335	16.15555463088883	4.100041221877032	2	missed	0.0
301.8008163999765	6.2835621000267565	go_reward	0.4231047999928705	301.82652649999375	303.29346720001206	305.8524976000191	1.4669407000183128	302.8320698000026	304.8291212000187	306.8618260000368	0.46139740000944585	1.0233764000004157	1.2482625999837182	n/a	1.0	n/a	1	0	106	4	go_reward	1	1	0	1	1	1	0	n/a	n/a	1	0.4231047999928705	1.0	1009.3471676000044	1311.173694099998	1312.179237400007	1312.6406348000164	1314.176288800023	1315.1996652000234	n/a	n/a	1316.2089936000411	1317.4572562000249	2020-02-21 19:03:11.853104	22.5416978232965	23.4970422640523	0.0	23.4970422640523	22.5416978232965	0.0	-22.5416978232965	23.4970422640523	0.0	22.5416978232965	0.0	2.5151568786290994	13.101229155866067	22.566393661940385	-0.483545537233921	18.61781191465749	18.739954701992662	-0.483545537233921	2.234209238152511	15.6788191603124	2.577590004446335	17.98280690282943	4.100041221877032	2	missed	0.0
308.1310169000061	6.8900958999875	nogo_reward	1.0	308.15672700002335	310.65193819999706	313.1677020000062	2.49521119997371	309.16807760001404	312.1486311000191	314.17830989998754	1.483860599983018	1.0190708999871276	0.868513000023313	n/a	1.0	n/a	1	0	107	3	nogo_reward	1	0	1	0	0	1	0	n/a	n/a	1	1.0	1.0	1009.3471676000044	1317.5038946000277	1318.5152452000184	1319.9991058000014	1321.4957987000234	1322.5148696000106	n/a	n/a	1323.525477499992	1324.3939905000152	2020-02-21 19:03:11.853104	23.6334047576699	0.192032255728076	22.9341918296238	22.9374318940912	-0.699212928046082	22.9341918296238	-23.6334047576699	22.9341918296238	0.192032255728076	22.9341918296238	-0.699212928046082	3.0780073130576007	14.192936090239469	-0.7386163463838383	22.450646292389877	18.05820154469639	-4.500956049349918	22.450646292389877	2.797059672581012	16.0713131666397	1.8783770764002532	17.419956468400926	4.292073477605109	2	missed	0.0
315.0610946000087	7.542687600012869	nogo_reward	1.0	315.08680470002594	317.6153180000257	320.13351300003717	2.5285132999997586	316.1003906999832	319.12048899999365	321.14471289998653	1.5149273000424728	1.0130240000435151	1.4847794000522754	n/a	1.0	n/a	1	0	108	3	nogo_reward	0	1	0	0	0	1	0	n/a	n/a	0	1.0	1.0	1009.3471676000044	1324.4339723000303	1325.4475582999876	1326.96248560003	1328.467656599998	1329.4806806000415	n/a	n/a	1330.4918804999909	1331.9766599000432	2020-02-21 19:03:11.853104	24.999668305433	0.192032255728076	24.1636089126866	24.1659531485249	-0.836059392746424	24.1636089126866	-24.999668305433	24.1636089126866	0.192032255728076	24.1636089126866	-0.836059392746424	-24.1636089126866	15.55919963800257	-0.7386163463838383	23.680063375452676	19.28672279913009	-4.63780251405026	23.680063375452676	-24.44455655316319	17.3007302497025	1.7415306116999112	18.649373551463725	4.292073477605109	2	missed	0.0
322.6396534999948	7.602386599988677	nogo_punish	1.0	322.66536360001203	325.28763939999055	327.80268820002686	2.6222757999785244	323.6702287000372	326.7815858999967	328.80700279999303	1.617410699953325	1.0211023000301793	1.4607474000076763	n/a	1.0	n/a	1	0	109	1	nogo_punish	1	-1	0	0	0	1	0	n/a	n/a	0	1.0	1.0	1009.3471676000044	1332.0125312000164	1333.0173963000416	1334.634806999995	1336.128753500001	1337.1498558000312	n/a	n/a	1338.1541703999974	1339.614917800005	2020-02-21 19:03:11.853104	8.13191806093234	-15.6903215705281	-5.32117064783508	-5.32184159675765	-13.4530887087674	-5.32117064783508	-8.13191806093234	-5.32117064783508	-15.6903215705281	-5.32117064783508	-13.4530887087674	5.32117064783508	-1.3085506064980912	-16.620970172640014	-5.804716185069001	-10.201071946152458	-17.254831830071236	-5.804716185069001	5.040223007358492	-12.184049310819177	-10.875498704321064	-10.835406009057952	-11.590280348651067	2	missed	0.0
330.2846485999761	6.543848400004208	nogo_reward	1.0	330.31035869999334	331.9672195999884	334.49322599999175	1.6568608999950811	331.31131670001207	333.47816030000115	335.50151600001857	0.6559028999763541	1.0150656999906005	1.3526910999789834	n/a	1.0	n/a	1	0	110	3	nogo_reward	1	0	1	0	0	1	1	n/a	n/a	1	1.0	1.0	1009.3471676000044	1339.6575262999977	1340.6584843000164	1341.3143871999928	1342.8253279000055	1343.840393599996	n/a	n/a	1344.848683600023	1346.201374700002	2020-02-21 19:03:11.853104	12.7384392586561	0.192032255728076	13.0546134221008	13.0563192447821	0.316174163444699	13.0546134221008	-12.7384392586561	13.0546134221008	0.192032255728076	13.0546134221008	0.316174163444699	12.9575857205806	3.2979705912256687	-0.7386163463838383	12.57106788486688	8.177088895387293	-3.485568957859137	12.57106788486688	12.676638080104011	6.191734759116703	2.893764167891034	7.540378060877929	4.292073477605109	2	missed	0.0
336.8743449000175	6.413966799969785	go_reward	0.3016948000295087	336.90005500003474	338.43388269998843	341.01851130003354	1.5338276999536902	337.8954005999841	339.99530399998196	342.01788330002466	0.5384821000043303	1.0232073000515811	1.296138499979861	n/a	1.0	n/a	1	0	111	4	go_reward	1	1	0	1	1	1	0	n/a	n/a	1	0.3016948000295087	1.0	1009.3471676000044	1346.247222600039	1347.2425681999885	1347.7810502999928	1349.3424715999863	1350.365678900038	n/a	n/a	1351.365050900029	1352.6611894000089	2020-02-21 19:03:11.853104	23.4413038202761	24.5090537968282	0.0	24.5090537968282	23.4413038202761	0.0	-23.4413038202761	24.5090537968282	0.0	23.4413038202761	0.0	1.5031453458531985	14.000835152845669	23.578405194716286	-0.483545537233921	19.62982344743339	19.639560698972264	-0.483545537233921	1.22219770537661	16.578425157292003	2.577590004446335	18.994818435605332	4.100041221877032	2	missed	0.0
343.32368899998244	6.082372100034263	nogo_punish	1.0	343.3493990999997	344.77872190001665	347.29415199998755	1.429322800016962	344.36587949999387	346.2730751000346	348.2964825999808	0.4128424000227824	1.0210768999529591	1.1352886000531726	n/a	1.0	n/a	1	0	112	1	nogo_punish	1	-1	0	0	0	1	0	n/a	n/a	0	1.0	1.0	1009.3471676000044	1352.696566700004	1353.7130470999982	1354.125889500021	1355.620242700039	1356.641319599992	n/a	n/a	1357.6436501999851	1358.7789388000383	2020-02-21 19:03:11.853104	10.903809322718	-15.6903215705281	-2.85745165342489	-2.8579502880375	-13.7612609761429	-2.85745165342489	-10.903809322718	-2.85745165342489	-15.6903215705281	-2.85745165342489	-13.7612609761429	2.85745165342489	1.4633406552875687	-16.620970172640014	-3.340997190658811	-7.737180637432308	-17.563004097446736	-3.340997190658811	2.5765040129483014	-9.720330316408987	-11.183670971696564	-8.371687014647762	-11.590280348651067	2	missed	0.0
349.44396000000404	7.1312139999936335	go_punish	0.2703718999982811	349.4696701000213	351.80112190003285	354.35244160000013	2.331451800011564	350.47344690002535	353.3318162999932	355.35722639999597	1.3276750000075026	1.020625300006941	1.2436577000189573	n/a	1.0	n/a	1	0	113	2	go_punish	1	0	-1	1	1	1	0	n/a	n/a	0	0.2703718999982811	1.0	1009.3471676000044	1358.8168377000256	1359.8206145000297	1361.1482895000372	1362.6789838999975	1363.6996092000045	n/a	n/a	1364.7043940000003	1365.9480517000193	2020-02-21 19:03:11.853104	10.0329783418713	-2.196920215588	-10.3770415943913	-2.234479844629	-0.344063252519946	-10.3770415943913	-10.0329783418713	-2.196920215588	-10.3770415943913	-0.344063252519946	-10.3770415943913	2.196920215588	0.5925096744408673	-3.127568817699914	-10.860587131625222	-7.113710194023809	-4.145806373823782	-10.860587131625222	1.9159725751114114	-7.206941915504043	-7.799451589944965	-7.711155576810871	-6.2770003725142685	2	missed	0.0
356.616349400021	6.327299199998379	nogo_reward	1.0	356.6420595000383	358.0890616999824	360.61654419999115	1.4470021999441087	357.65205209999124	359.60091290000116	361.62526150001224	0.43700959999114275	1.015631299989991	1.3440972000244074	n/a	1.0	n/a	1	0	114	3	nogo_reward	1	0	1	0	0	1	0	n/a	n/a	1	1.0	1.0	1009.3471676000044	1365.9892271000426	1366.9992196999956	1367.4362292999867	1368.9480805000055	1369.9637117999955	n/a	n/a	1370.9724291000166	1372.316526300041	2020-02-21 19:03:11.853104	19.4839288354049	0.192032255728076	19.1773481542505	19.1785961390513	-0.306580681154422	19.1773481542505	-19.4839288354049	19.1773481542505	0.192032255728076	19.1773481542505	-0.306580681154422	6.834850988430901	10.043460167974468	-0.7386163463838383	18.693802617016576	14.299365789656491	-4.108323802458258	18.693802617016576	6.5539033479543125	12.3144694912664	2.271009323291913	13.663112793027627	4.292073477605109	2	missed	0.0
362.9807218000061	5.674988999962579	go_punish	0.5457582999952137	363.00643190002336	364.35986470000364	366.91477179998753	1.3534327999802827	364.00101519998873	365.89093560003687	367.91662800003576	0.35884950001491234	1.023836199950665	0.7647928999501801	n/a	1.0	n/a	1	0	115	2	go_punish	0	-1	0	1	1	1	1	n/a	n/a	-1	0.5457582999952137	1.0	1009.3471676000044	1372.3535995000277	1373.348182799993	1373.707032300008	1375.2381032000412	1376.261939399992	n/a	n/a	1377.26379560004	1378.0285884999903	2020-02-21 19:03:11.853104	10.8176307451176	-1.29221456759157	-10.3770415943913	-1.31754086902241	0.440589150726268	-10.3770415943913	-10.8176307451176	-1.29221456759157	-10.3770415943913	0.440589150726268	-10.3770415943913	-21.24944752609753	1.377162077687169	-2.2228631697034844	-10.860587131625222	-6.196771218417219	-3.361153970577568	-10.860587131625222	-21.53039516657412	-6.422289512257829	-7.799451589944965	-6.806449928814441	-6.2770003725142685	2	missed	0.0
368.7029235999795	7.110176999995247	nogo_reward	1.0	368.72863369999675	370.9094404000208	373.42997810000077	2.18080670002405	369.73850989999494	372.4153607999907	374.43909440003347	1.170930500025861	1.014617300010059	1.399716299958527	n/a	1.0	n/a	1	0	116	3	nogo_reward	1	0	1	0	0	1	1	n/a	n/a	1	1.0	1.0	1009.3471676000044	1378.075801300001	1379.0856774999993	1380.2566080000252	1381.762528399995	1382.7771457000051	n/a	n/a	1383.7862620000378	1385.1859782999963	2020-02-21 19:03:11.853104	22.8608599036056	0.192032255728076	22.232130147631	22.2330478427688	-0.628729755974539	22.232130147631	-22.8608599036056	22.232130147631	0.192032255728076	22.232130147631	-0.628729755974539	3.7800689950503994	13.420391236175169	-0.7386163463838383	21.748584610397078	17.35381749337399	-4.430472877278375	21.748584610397078	3.499121354573811	15.369251484646902	1.9488602484717963	16.71789478640813	4.292073477605109	2	missed	0.0
375.8485633999809	6.544586600037064	go_reward	0.2941567999660037	375.87427349999814	377.85834620002436	380.40956410003116	1.9840727000262177	376.88984299998276	379.38587440003187	381.4189146999853	0.9685032000415958	1.023689699999295	0.99994540004991	n/a	1.0	n/a	1	0	117	4	go_reward	1	1	0	1	1	1	0	n/a	n/a	1	0.2941567999660037	1.0	1009.3471676000044	1385.2214411000025	1386.2370105999871	1387.2055138000287	1388.7330420000362	1389.7567317000355	n/a	n/a	1390.7660822999896	1391.7660277000396	2020-02-21 19:03:11.853104	23.9565581254348	25.0898138135051	0.0	25.0898138135051	23.9565581254348	0.0	-23.9565581254348	25.0898138135051	0.0	23.9565581254348	0.0	0.9223853291763007	14.516089458004368	24.159165211393184	-0.483545537233921	20.21058346411029	20.154815004130963	-0.483545537233921	0.6414376886997121	17.0936794624507	2.577590004446335	19.57557845228223	4.100041221877032	2	missed	0.0
382.4286872000083	7.031546399986837	go_reward	0.2618375000311062	382.45439730002556	384.88874170003703	387.4364098000225	2.4343444000114687	383.4611046999927	386.41129000001854	388.43417449999845	1.4276370000443421	1.0251198000039494	1.0517692000139505	n/a	1.0	n/a	1	0	118	4	go_reward	1	1	0	1	1	1	0	n/a	n/a	1	0.2618375000311062	1.0	1009.3471676000044	1391.80156490003	1392.808272299997	1394.2359093000414	1395.758457600023	1396.7835774000268	n/a	n/a	1397.7813421000028	1398.8331113000168	2020-02-21 19:03:11.853104	24.2608017373753	25.4332715228809	0.0	25.4332715228809	24.2608017373753	0.0	-24.2608017373753	25.4332715228809	0.0	24.2608017373753	0.0	0.5789276198004991	14.820333069944867	24.502622920768985	-0.483545537233921	20.55404117348609	20.459058616071463	-0.483545537233921	0.2979799793239105	17.3979230743912	2.577590004446335	19.919036161658028	4.100041221877032	2	missed	0.0
389.50514570000803	6.106705199985299	nogo_reward	1.0	389.5308558000253	390.88501740002573	393.40944560000196	1.3541616000004524	390.53656340000464	392.39211459999194	394.4235803000048	0.3484540000210927	1.0173310000100173	1.2139807000057772	n/a	1.0	n/a	1	0	119	3	nogo_reward	0	1	0	0	0	1	0	n/a	n/a	0	1.0	1.0	1009.3471676000044	1398.8780234000296	1399.883731000009	1400.23218500003	1401.7392821999963	1402.7566132000063	n/a	n/a	1403.7707479000092	1404.984728600015	2020-02-21 19:03:11.853104	24.641083657726	0.192032255728076	23.838307622047	23.8389857060976	-0.802776035679042	23.838307622047	-24.641083657726	23.838307622047	0.192032255728076	23.838307622047	-0.802776035679042	-23.838307622047	15.200614990295568	-0.7386163463838383	23.35476208481308	18.95975535670279	-4.604519156982878	23.35476208481308	-24.11925526252359	16.975428959062903	1.774813968767293	18.32407226082413	4.292073477605109	2	missed	0.0
395.6509424999821	6.626812200003997	go_reward	0.301417600014247	395.67665259999933	397.52306480001437	400.0686262000237	1.8464122000150383	396.6793523000089	399.04468200000736	401.06994950003	0.8437125000054948	1.0239442000163308	1.2335152999733054	n/a	1.0	n/a	1	0	120	4	go_reward	1	1	0	1	1	1	1	n/a	n/a	1	0.301417600014247	1.0	1009.3471676000044	1405.0238202000037	1406.0265199000132	1406.8702324000187	1408.3918496000117	1409.415793800028	n/a	n/a	1410.4171171000344	1411.6506324000077	2020-02-21 19:03:11.853104	24.4451851234793	25.6416846206248	0.0	25.6416846206248	24.4451851234793	0.0	-24.4451851234793	25.6416846206248	0.0	24.4451851234793	0.0	0.37051452205659885	15.004716456048866	24.711036018512885	-0.483545537233921	20.76245427122999	20.643442002175462	-0.483545537233921	0.08956688158001025	17.5823064604952	2.577590004446335	20.127449259401928	4.100041221877032	2	missed	0.0
