onset	duration	trial_type	response_time	cueOnset	targetOnset	fbOnset	cueRT	firstfixOnset	secondfixOnset	waitOnset	firstfixdur	secondfixdur	waitdur	nback_fbOnset	nback_response_time	nback_targetOnset	block	wm	trial	cue	cond	is_common	outcome_go	outcome_nogo	key_correct	key_pressed	is_correct	key_correct_nback	key_pressed_nback	is_correct_nback	outcome	rt	rt_nback	time_scan	time_onset	time_isi1	time_circle	time_isi2	time_feedback	time_same	time_correct	time_iti	time_done	timestamp_scan	DV	Qgo	Qnogo	SV	Wgo	Wnogo	mDV	Qchosen	Qunchosen	Wchosen	Wunchosen	PE	DVC	QgoC	QnogoC	SVC	WgoC	WnogoC	PEC	WchosenC	WunchosenC	QchosenC	QunchosenC	run	outcome_nback	nback_targetResp
0.0	6.3516019000003325	go_reward	0.3582185000000208	0.013657499999681022	1.7513920000001235	4.300205000000005	1.7377345000004425	1.0170029999999315	3.2762824999999793	5.310302299999876	0.734389000000192	1.023922500000026	1.0549571000001379	n/a	1.0	n/a	2	0	61	1	go_reward	1	1	0	1	1	1	1	n/a	n/a	1	0.3582185000000208	1.0	2333.3204353	2333.3340928	2334.3374383	2335.0718273	2336.5967178	2337.6206403	n/a	n/a	2338.6307376	2339.6856947	2020-07-07 13:48:34.479920	18.755560489072	13.1705193966832	0.0	13.1705193966832	18.755560489072	0.0	-18.755560489072	13.1705193966832	0.0	18.755560489072	0.0	1.6390159214651998	13.477792585097061	11.811426292512266	-0.1743414932863137	10.471984636527576	15.597770319028125	-0.1743414932863137	1.4846282562934845	14.450610705419432	0.9728181203223761	10.186477254760653	1.4506075444652986	4	missed	0.0
6.383873900000253	6.303041000000121	nogo_punish	1.0	6.397531399999934	7.752108599999701	10.278980900000079	1.354577199999767	7.408242599999994	9.269087000000127	11.29201779999994	0.34386599999970713	1.0098938999999518	1.408554600000116	n/a	1.0	n/a	2	0	62	4	nogo_punish	1	-1	0	0	0	1	0	n/a	n/a	0	1.0	1.0	2333.3204353	2339.7179667	2340.7286779	2341.0725439	2342.5895223	2343.5994162	n/a	n/a	2344.6124531	2346.0210077	2020-07-07 13:48:34.479920	5.34307088784047	-6.00343283346643	-0.197950164841985	-0.355299185504114	-5.54102105268246	-0.197950164841985	-5.34307088784047	-0.197950164841985	-6.00343283346643	-0.197950164841985	-5.54102105268246	0.197950164841985	0.06530298386553124	-7.362525937637366	-0.3722916581282987	-3.0538339456597376	-8.698811222726334	-0.3722916581282987	0.04356249967026957	-4.5028999484945516	-4.568202932360084	-3.1819923067645326	-4.552825289001132	4	missed	0.0
12.732950200000232	6.712302800000089	nogo_punish	1.0	12.746607699999913	14.711653500000011	17.239722299999812	1.965045800000098	13.744314300000042	16.220545599999696	18.247001799999907	0.9673391999999694	1.0191767000001164	1.2119087000000945	n/a	1.0	n/a	2	0	63	4	nogo_punish	1	-1	0	0	0	1	0	n/a	n/a	0	1.0	1.0	2333.3204353	2346.067043	2347.0647496	2348.0320888	2349.5409809	2350.5601576	n/a	n/a	2351.5674371	2352.7793458	2020-07-07 13:48:34.479920	5.35531168792119	-6.00343283346643	-0.151730514757552	-0.274250712988334	-5.50704220267874	-0.151730514757552	-5.35531168792119	-0.151730514757552	-6.00343283346643	-0.151730514757552	-5.50704220267874	0.151730514757552	0.07754378394625139	-7.362525937637366	-0.3260720080438657	-2.972785473143958	-8.664832372722614	-0.3260720080438657	-0.002657150414163423	-4.456680298410118	-4.5342240823563635	-3.1357726566800994	-4.552825289001132	4	missed	0.0
19.49572020000005	6.419641400000273	go_punish	0.3628856000000269	19.50937769999973	20.88246019999997	23.43222829999968	1.373082500000237	20.525518099999772	22.415707799999836	24.44150149999996	0.35694210000019666	1.0165204999998423	1.4875176000000465	n/a	1.0	n/a	2	0	64	3	go_punish	0	-1	0	1	1	1	0	n/a	n/a	-1	0.3628856000000269	1.0	2333.3204353	2352.829813	2353.8459534	2354.2028955	2355.7361431	2356.7526636	n/a	n/a	2357.7619368	2359.2494544	2020-07-07 13:48:34.479920	5.03540052045586	-1.85138101125512	-7.24484114672585	-2.41635078614113	-2.20944062626999	-7.24484114672585	-5.03540052045586	-1.85138101125512	-7.24484114672585	-2.20944062626999	-7.24484114672585	-7.229144122321841	-0.2423673835190785	-3.210474115426055	-7.419182640012164	-5.114885546296754	-5.367230796313866	-7.419182640012164	-7.383531787493557	-6.514390409922557	-6.272023026403474	-4.8354231531776675	-5.794233602260552	4	missed	0.0
25.96118260000003	7.232781900000191	nogo_punish	1.0	25.97484009999971	28.71435509999992	31.237054799999896	2.7395150000002104	26.980460299999777	30.217893600000025	32.25003990000005	1.7338948000001437	1.0191611999998713	0.9575820999998541	n/a	1.0	n/a	2	0	65	4	nogo_punish	1	-1	0	0	0	1	1	n/a	n/a	0	1.0	1.0	2333.3204353	2359.2952754	2360.3008956	2362.0347904	2363.5383289	2364.5574901	n/a	n/a	2365.5704752	2366.5280573	2020-07-07 13:48:34.479920	5.36413593841946	-6.00343283346643	-0.117219859031991	-0.213239600893173	-5.48135579745145	-0.117219859031991	-5.36413593841946	-0.117219859031991	-6.00343283346643	-0.117219859031991	-5.48135579745145	0.117219859031991	0.08636803444452124	-7.362525937637366	-0.2915613523183047	-2.911774361048797	-8.639145967495326	-0.2915613523183047	-0.037167806139724424	-4.422169642684557	-4.508537677129074	-3.1012620009545384	-4.552825289001132	4	missed	0.0
33.22684500000014	5.928399400000217	nogo_punish	1.0	33.24050249999982	34.522286800000074	37.05862089999982	1.281784300000254	34.2430489999997	36.03951789999974	38.06620399999974	0.2792378000003737	1.0191030000000865	1.1026979000002939	n/a	1.0	n/a	2	0	66	4	nogo_punish	1	-1	0	0	0	1	0	n/a	n/a	0	1.0	1.0	2333.3204353	2366.5609378	2367.5634843	2367.8427221	2369.3599532	2370.3790562	n/a	n/a	2371.3866393	2372.4893372	2020-07-07 13:48:34.479920	5.3705808932727	-6.00343283346643	-0.0912003865997908	-0.16689578187295	-5.46178127987249	-0.0912003865997908	-5.3705808932727	-0.0912003865997908	-6.00343283346643	-0.0912003865997908	-5.46178127987249	0.0912003865997908	0.09281298929776138	-7.362525937637366	-0.2655418798861045	-2.865430542028574	-8.619571449916364	-0.2655418798861045	-0.06318727857192463	-4.3961501702523575	-4.488963159550114	-3.075242528522338	-4.552825289001132	4	missed	0.0
39.20137620000014	6.721457200000259	nogo_punish	1.0	39.21503369999982	41.63939919999984	44.174476799999866	2.4243655000000217	40.21996369999988	43.15100660000007	45.176312099999905	1.4194354999999632	1.0234701999997924	0.7601788000001761	n/a	1.0	n/a	2	0	67	4	nogo_punish	0	0	-1	0	0	1	1	n/a	n/a	-1	1.0	1.0	2333.3204353	2372.535469	2373.540399	2374.9598345	2376.4714419	2377.4949121	n/a	n/a	2378.4967474	2379.2569262	2020-07-07 13:48:34.479920	5.37534322115033	-6.00343283346643	-0.0714122543711414	-0.131407976939197	-5.44675547552147	-0.0714122543711414	-5.37534322115033	-0.0714122543711414	-6.00343283346643	-0.0714122543711414	-5.44675547552147	-9.00911287920582	0.0975753171753917	-7.362525937637366	-0.2457537476574551	-2.8299427370948207	-8.604545645565345	-0.2457537476574551	-9.163500544377534	-4.376362038023708	-4.4739373551990935	-3.055454396293689	-4.552825289001132	4	missed	0.0
45.95768800000042	6.294730599999639	go_reward	0.6592685999999048	45.9713455000001	47.30823620000001	49.87288409999974	1.3368906999999126	46.98220029999993	48.849519699999746	50.88281710000001	0.326035900000079	1.0233643999999913	1.3832589999997253	n/a	1.0	n/a	2	0	68	1	go_reward	1	1	0	1	1	1	0	n/a	n/a	1	0.6592685999999048	1.0	2333.3204353	2379.2917808	2380.3026356	2380.6286715	2382.169955	2383.1933194	n/a	n/a	2384.2032524	2385.5865114	2020-07-07 13:48:34.479920	19.4380330045832	13.6623436173418	0.0	13.6623436173418	19.4380330045832	0.0	-19.4380330045832	13.6623436173418	0.0	19.4380330045832	0.0	1.1471917008065997	14.160265100608262	12.303250513170866	-0.1743414932863137	10.963808857186176	16.280242834539326	-0.1743414932863137	0.9928040356348843	15.133083220930633	0.9728181203223761	10.678301475419254	1.4506075444652986	4	missed	0.0
52.29746800000021	6.363268999999946	nogo_reward	1.0	52.31112549999989	54.16799140000012	56.693417099999806	1.8568659000002299	53.31156039999996	55.67049709999992	57.69553880000012	0.8564310000001569	1.0229199999998855	0.9788556999997127	n/a	1.0	n/a	2	0	69	2	nogo_reward	1	0	1	0	0	1	0	n/a	n/a	1	1.0	1.0	2333.3204353	2385.6315608	2386.6319957	2387.4884267	2388.9909324	2390.0138524	n/a	n/a	2391.0159741	2391.9948298	2020-07-07 13:48:34.479920	8.34788186197967	0.0	14.2850127780558	14.0782880381911	5.93713091607616	14.2850127780558	-8.34788186197967	14.2850127780558	0.0	14.2850127780558	5.93713091607616	0.524522540092601	3.0701139580047325	-1.3590931041709353	14.110671284769486	11.379753278035476	2.7793407460322843	14.110671284769486	0.3701348749208856	9.980062994403234	6.909949036398536	11.300970636133252	1.4506075444652986	4	missed	0.0
58.7105617000002	6.419930300000033	go_punish	0.3552984000002652	58.72421919999988	60.17615859999978	62.73008570000002	1.451939399999901	59.741092599999774	61.71747349999987	63.74440779999986	0.43506600000000617	1.0126122000001487	1.3997417000000496	n/a	1.0	n/a	2	0	70	3	go_punish	1	0	-1	1	1	1	0	n/a	n/a	0	0.3552984000002652	1.0	2333.3204353	2392.0446545	2393.0615279	2393.4965939	2395.0379088	2396.050521	n/a	n/a	2397.0648431	2398.4645848	2020-07-07 13:48:34.479920	1.85968558350435	-4.23177939131742	-7.24484114672585	-4.65969286556547	-5.3851555632215	-7.24484114672585	-1.85968558350435	-4.23177939131742	-7.24484114672585	-5.3851555632215	-7.24484114672585	4.23177939131742	-3.4180823204705884	-5.590872495488355	-7.419182640012164	-7.358227625721094	-8.542945733265375	-7.419182640012164	4.077391726145704	-9.690105346874066	-6.272023026403474	-7.215821533239968	-5.794233602260552	4	missed	0.0
65.17760440000029	6.345488500000101	nogo_reward	1.0	65.19126189999997	66.54618119999986	69.08080259999997	1.3549192999998922	66.18966929999988	68.05753240000013	70.09044859999995	0.3565118999999868	1.0232701999998426	1.4463018000001284	n/a	1.0	n/a	2	0	71	2	nogo_reward	1	0	1	0	0	1	1	n/a	n/a	1	1.0	1.0	2333.3204353	2398.5116972	2399.5101046	2399.8666165	2401.3779677	2402.4012379	n/a	n/a	2403.4108839	2404.8571857	2020-07-07 13:48:34.479920	8.39850526855045	0.0	14.4121883881888	14.2602378324185	6.01368311963833	14.4121883881888	-8.39850526855045	14.4121883881888	0.0	14.4121883881888	6.01368311963833	0.39734692995959975	3.120737364575511	-1.3590931041709353	14.237846894902487	11.561703072262876	2.8558929495944545	14.237846894902487	0.24295926478788432	10.107238604536235	6.986501239960706	11.428146246266254	1.4506075444652986	4	missed	0.0
71.55646990000014	6.998925500000041	go_reward	0.3739256000003479	71.57012739999982	73.5315427999999	76.08770989999994	1.961415400000078	72.57183940000004	75.06460949999973	77.09782559999985	0.959703399999853	1.023100400000203	1.4712273000000096	n/a	1.0	n/a	2	0	72	1	go_reward	1	1	0	1	1	1	0	n/a	n/a	1	0.3739256000003479	1.0	2333.3204353	2404.8905627	2405.8922747	2406.8519781	2408.3850448	2409.4081452	n/a	n/a	2410.4182609	2411.8894882	2020-07-07 13:48:34.479920	19.8921139896381	13.9870102530597	0.0	13.9870102530597	19.8921139896381	0.0	-19.8921139896381	13.9870102530597	0.0	19.8921139896381	0.0	0.8225250650887013	14.614346085663163	12.627917148888764	-0.1743414932863137	11.288475492904075	16.734323819594227	-0.1743414932863137	0.6681373999169858	15.587164205985534	0.9728181203223761	11.002968111137152	1.4506075444652986	4	missed	0.0
78.61691690000043	7.533780999999635	go_punish	0.3163241000002017	78.63057440000011	81.59611649999988	84.14217559999997	2.965542099999766	79.63012499999968	83.12289639999972	85.15582029999996	1.9659915000002002	1.0192792000002555	1.00853509999979	n/a	1.0	n/a	2	0	73	3	go_punish	1	0	-1	1	1	1	0	n/a	n/a	0	0.3163241000002017	1.0	2333.3204353	2411.9510097	2412.9505603	2414.9165518	2416.4433317	2417.4626109	n/a	n/a	2418.4762556	2419.4847907	2020-07-07 13:48:34.479920	3.86936545626091	-2.77417774267933	-7.24484114672585	-3.10146350130298	-3.37547569046494	-7.24484114672585	-3.86936545626091	-2.77417774267933	-7.24484114672585	-3.37547569046494	-7.24484114672585	2.77417774267933	-1.4084024477140282	-4.133270846850265	-7.419182640012164	-5.799998261458604	-6.533265860508815	-7.419182640012164	2.6197900775076146	-7.680425474117507	-6.272023026403474	-5.7582198846018775	-5.794233602260552	4	missed	0.0
86.19829100000015	6.422917200000029	nogo_reward	1.0	86.21194849999983	87.86168640000005	90.38199669999995	1.6497379000002184	87.2155531999997	89.36483289999978	91.39187129999982	0.6461332000003495	1.0171638000001622	1.2429944000000432	n/a	1.0	n/a	2	0	74	2	nogo_reward	1	0	1	0	0	1	0	n/a	n/a	1	1.0	1.0	2333.3204353	2419.5323838	2420.5359885	2421.1821217	2422.6852682	2423.702432	n/a	n/a	2424.7123066	2425.955301	2020-07-07 13:48:34.479920	8.43543795429282	0.0	14.5052253582262	14.3922710409113	6.06978740393341	14.5052253582262	-8.43543795429282	14.5052253582262	0.0	14.5052253582262	6.06978740393341	0.30430995992220033	3.157670050317881	-1.3590931041709353	14.330883864939887	11.693736280755676	2.911997233889535	14.330883864939887	0.1499222947504849	10.200275574573634	7.042605524255786	11.521183216303653	1.4506075444652986	4	missed	0.0
92.65589310000041	6.765913299999738	go_reward	0.3098113000000921	92.6695506000001	94.84163979999994	97.39505860000008	2.1720891999998457	93.67849930000011	96.37496460000011	98.40993029999981	1.1631404999998267	1.0200939999999719	1.025533600000017	n/a	1.0	n/a	2	0	75	1	go_reward	0	0	1	1	1	1	0	n/a	n/a	0	0.3098113000000921	1.0	2333.3204353	2425.9899859	2426.9989346	2428.1620751	2429.6953999	2430.7154939	n/a	n/a	2431.7303656	2432.7558992	2020-07-07 13:48:34.479920	20.2033215912442	14.2081347028556	0.0	14.2081347028556	20.2033215912442	0.0	-20.2033215912442	14.2081347028556	0.0	20.2033215912442	0.0	-14.2081347028556	14.925553687269263	12.849041598684666	-0.1743414932863137	11.509599942699976	17.045531421200327	-0.1743414932863137	-14.362522368027316	15.898371807591634	0.9728181203223761	11.224092560933054	1.4506075444652986	4	missed	0.0
99.45698680000032	6.480036099999779	go_reward	0.3664899999998852	99.4706443	101.13306779999994	103.66662880000013	1.6624234999999317	100.47956429999977	102.64861350000001	104.67647669999997	0.6535035000001699	1.0180153000001155	1.2742036999998163	n/a	1.0	n/a	2	0	76	1	go_reward	1	1	0	1	1	1	0	n/a	n/a	1	0.3664899999998852	1.0	2333.3204353	2432.7910796	2433.7999996	2434.4535031	2435.9690488	2436.9870641	n/a	n/a	2437.996912	2439.2711157	2020-07-07 13:48:34.479920	13.3543489271582	9.14798934654667	0.0	9.14798934654667	13.3543489271582	0.0	-13.3543489271582	9.14798934654667	0.0	13.3543489271582	0.0	5.661545971601731	8.076581023183262	7.788896242375734	-0.1743414932863137	6.449454586391045	10.196558757114325	-0.1743414932863137	5.507158306430015	9.049399143505635	0.9728181203223761	6.163947204624122	1.4506075444652986	4	missed	0.0
105.99048580000044	6.701046299999689	nogo_reward	1.0	106.00414330000012	107.7013707000001	110.2351165	1.6972273999999743	107.0164391999997	109.2119776999998	111.24936339999977	0.6849315000004026	1.023138800000197	1.4558262000000468	n/a	1.0	n/a	2	0	77	2	nogo_reward	1	0	1	0	0	1	0	n/a	n/a	1	1.0	1.0	2333.3204353	2439.3245786	2440.3368745	2441.021806	2442.532413	2443.5555518	n/a	n/a	2444.5697987	2446.0256249	2020-07-07 13:48:34.479920	8.46285347302063	0.0	14.5742603238005	14.4894544514276	6.1114068507799	14.5742603238005	-8.46285347302063	14.5742603238005	0.0	14.5742603238005	6.1114068507799	0.23527499434790045	3.1850855690456914	-1.3590931041709353	14.399918830514187	11.790919691271975	2.953616680736025	14.399918830514187	0.08088732917618502	10.269310540147934	7.084224971102277	11.590218181877953	1.4506075444652986	4	missed	0.0
112.7250326000003	7.187782399999833	go_reward	0.3215786999999181	112.73869009999999	115.4358916000001	118.0012655999999	2.6972015000001193	113.73554969999986	116.96909449999976	119.01179199999979	1.7003419000002395	1.0321711000001415	0.9146805000000313	n/a	1.0	n/a	2	0	78	1	go_reward	1	1	0	1	1	1	1	n/a	n/a	1	0.3215786999999181	1.0	2333.3204353	2446.0591254	2447.055985	2448.7563269	2450.2895298	2451.3217009	n/a	n/a	2452.3322273	2453.2469078	2020-07-07 13:48:34.479920	16.2821814404871	11.3432911059769	0.0	11.3432911059769	16.2821814404871	0.0	-16.2821814404871	11.3432911059769	0.0	16.2821814404871	0.0	3.4662442121714996	11.004413536512162	9.984198001805966	-0.1743414932863137	8.644756345821277	13.124391270443226	-0.1743414932863137	3.3118565469997843	11.977231656834533	0.9728181203223761	8.359248964054354	1.4506075444652986	4	missed	0.0
119.95956350000006	6.335191699999996	go_punish	0.422341100000267	119.97322099999974	121.39715769999975	123.94352859999981	1.423936700000013	120.97804029999998	122.93022059999976	124.95623139999998	0.41911739999977726	1.0133080000000518	1.3521812999997564	n/a	1.0	n/a	2	0	79	3	go_punish	1	0	-1	1	1	1	0	n/a	n/a	0	0.422341100000267	1.0	2333.3204353	2453.2936563	2454.2984756	2454.717593	2456.2506559	2457.2639639	n/a	n/a	2458.2766667	2459.628848	2020-07-07 13:48:34.479920	5.10896085832706	-1.89040479452859	-7.24484114672585	-2.14287375333569	-2.13588028839879	-7.24484114672585	-5.10896085832706	-1.89040479452859	-7.24484114672585	-2.13588028839879	-7.24484114672585	1.89040479452859	-0.16880704564787852	-3.2494978986995253	-7.419182640012164	-4.841408513491314	-5.293670458442666	-7.419182640012164	1.7360171293568745	-6.440830072051357	-6.272023026403474	-4.874446936451138	-5.794233602260552	4	missed	0.0
126.33034970000017	7.301008400000228	go_reward	0.3991409999998723	126.34400719999985	129.1263242	131.67099099999996	2.7823170000001483	127.3533709999997	130.6520046999999	132.6754821999998	1.7729532000003019	1.0189863000000514	0.9695334000002731	n/a	1.0	n/a	2	0	80	1	go_reward	1	1	0	1	1	1	1	n/a	n/a	1	0.3991409999998723	1.0	2333.3204353	2459.6644425	2460.6738063	2462.4467595	2463.97244	2464.9914263	n/a	n/a	2465.9959175	2466.9654509	2020-07-07 13:48:34.479920	17.9531777310659	12.577581200291	0.0	12.577581200291	17.9531777310659	0.0	-17.9531777310659	12.577581200291	0.0	17.9531777310659	0.0	2.2319541178574003	12.675409827090961	11.218488096120065	-0.1743414932863137	9.879046440135376	14.795387561022025	-0.1743414932863137	2.077566452685685	13.648227947413332	0.9728181203223761	9.593539058368453	1.4506075444652986	4	missed	0.0
133.68032740000035	6.210759000000053	nogo_reward	1.0	133.69398490000003	135.59564920000003	138.12916489999998	1.901664299999993	134.69700250000005	137.11332029999994	139.1336054999997	0.898646699999972	1.0158446000000367	0.7711384000003818	n/a	1.0	n/a	2	0	81	2	nogo_reward	1	0	1	0	0	1	0	n/a	n/a	1	1.0	1.0	2333.3204353	2467.0144202	2468.0174378	2468.9160845	2470.4337556	2471.4496002	n/a	n/a	2472.4540408	2473.2251792	2020-07-07 13:48:34.479920	8.48350264656037	0.0	14.6261139881803	14.5618738705661	6.14261134161997	14.6261139881803	-8.48350264656037	14.6261139881803	0.0	14.6261139881803	6.14261134161997	0.1834213299681	3.205734742585431	-1.3590931041709353	14.451772494893987	11.863339110410475	2.984821171576095	14.451772494893987	0.029033664796384584	10.321164204527733	7.115429461942346	11.642071846257753	1.4506075444652986	4	missed	0.0
139.95187700000042	6.170663099999729	go_punish	0.3587979000003543	139.9655345000001	141.63483580000002	144.18803759999992	1.6693012999999155	140.96597759999986	143.16621170000008	145.2007392999999	0.6688582000001588	1.0218258999998397	0.9354582999999366	n/a	1.0	n/a	2	0	82	3	go_punish	1	0	-1	1	1	1	0	n/a	n/a	0	0.3587979000003543	1.0	2333.3204353	2473.2859698	2474.2864129	2474.9552711	2476.486647	2477.5084729	n/a	n/a	2478.5211746	2479.4566329	2020-07-07 13:48:34.479920	5.91124722852848	-1.32639387808096	-7.24484114672585	-1.5226291012034	-1.33359391819737	-7.24484114672585	-5.91124722852848	-1.32639387808096	-7.24484114672585	-1.33359391819737	-7.24484114672585	1.32639387808096	0.6334793245535417	-2.6854869822518954	-7.419182640012164	-4.221163861359024	-4.4913840882412455	-7.419182640012164	1.1720062129092446	-5.638543701849937	-6.272023026403474	-4.3104360200035075	-5.794233602260552	4	missed	0.0
146.15975450000042	6.290940699999737	go_reward	0.587532999999894	146.1734120000001	147.68492770000012	150.2424686999998	1.5115157000000181	147.1869925000001	149.21787069999982	151.25236210000003	0.497935200000029	1.024597999999969	1.2119905999998082	n/a	1.0	n/a	2	0	83	1	go_reward	1	1	0	1	1	1	0	n/a	n/a	1	0.587532999999894	1.0	2333.3204353	2479.4938473	2480.5074278	2481.005363	2482.538306	2483.562904	n/a	n/a	2484.5727974	2485.784788	2020-07-07 13:48:34.479920	18.9642142673363	13.3153158560206	0.0	13.3153158560206	18.9642142673363	0.0	-18.9642142673363	13.3153158560206	0.0	18.9642142673363	0.0	1.4942194621278002	13.68644636336136	11.956222751849666	-0.1743414932863137	10.616781095864976	15.806424097292425	-0.1743414932863137	1.339831796956085	14.659264483683732	0.9728181203223761	10.331273714098053	1.4506075444652986	4	missed	0.0
152.50439410000035	7.022097799999756	go_punish	0.5148098999998183	152.51805160000004	154.52067499999976	157.0642826999997	2.0026233999997203	153.52890149999985	156.0433141999997	158.07651480000004	0.9917734999999084	1.0209684999999808	1.4636345999997502	n/a	1.0	n/a	2	0	84	3	go_punish	1	0	-1	1	1	1	1	n/a	n/a	0	0.5148098999998183	1.0	2333.3204353	2485.8384869	2486.8493368	2487.8411103	2489.3637495	2490.384718	n/a	n/a	2491.3969501	2492.8605847	2020-07-07 13:48:34.479920	6.44988442056827	-0.952080432394917	-7.24484114672585	-1.10564549004894	-0.794956726157578	-7.24484114672585	-6.44988442056827	-0.952080432394917	-7.24484114672585	-0.794956726157578	-7.24484114672585	0.952080432394917	1.1721165165933316	-2.3111735365658523	-7.419182640012164	-3.804180250204564	-3.9527468962014534	-7.419182640012164	0.7976927672232016	-5.099906509810144	-6.272023026403474	-3.936122574317465	-5.794233602260552	4	missed	0.0
159.56269910000037	6.974356700000044	go_reward	0.3262387999998282	159.57635660000005	162.06623910000008	164.6258767999998	2.4898825000000215	160.59217179999996	163.6026766	165.63526759999968	1.4740673000001152	1.023200199999792	0.9154457000004186	n/a	1.0	n/a	2	0	85	1	go_reward	1	1	0	1	1	1	1	n/a	n/a	1	0.3262387999998282	1.0	2333.3204353	2492.8967919	2493.9126071	2495.3866744	2496.9231119	2497.9463121	n/a	n/a	2498.9557029	2499.8711486	2020-07-07 13:48:34.479920	19.6047244418016	13.7780745785674	0.0	13.7780745785674	19.6047244418016	0.0	-19.6047244418016	13.7780745785674	0.0	19.6047244418016	0.0	1.031460739581	14.326956537826662	12.418981474396466	-0.1743414932863137	11.079539818411776	16.446934271757726	-0.1743414932863137	0.8770730744092846	15.299774658149033	0.9728181203223761	10.794032436644853	1.4506075444652986	4	missed	0.0
166.56868310000027	6.79069649999974	nogo_punish	1.0	166.58234059999995	168.43555549999974	170.97061970000004	1.8532148999997844	167.58595699999978	169.9478641999999	171.98055369999975	0.8495984999999564	1.0227555000001303	1.3924833999999464	n/a	1.0	n/a	2	0	86	4	nogo_punish	0	0	-1	0	0	1	0	n/a	n/a	-1	1.0	1.0	2333.3204353	2499.9027759	2500.9063923	2501.7559908	2503.2682995	2504.291055	n/a	n/a	2505.300989	2506.6934724	2020-07-07 13:48:34.479920	3.50447818518161	-6.00343283346643	-2.99417781412317	-3.04196700747152	-6.49865599930478	-2.99417781412317	-3.50447818518161	-2.99417781412317	-6.00343283346643	-2.99417781412317	-6.49865599930478	-6.086347319453791	-1.7732897187933285	-7.362525937637366	-3.1685193074094835	-5.740501767627144	-9.656446169348655	-3.1685193074094835	-6.240734984625507	-7.299127597775737	-5.525837878982403	-5.978219956045717	-4.552825289001132	4	missed	0.0
173.39267910000035	6.962396800000079	nogo_punish	1.0	173.40633660000003	175.3439387999997	177.86882259999993	1.9376021999996738	174.42483949999996	176.85386049999988	178.87589649999973	0.9190992999997434	1.014962100000048	1.492836900000384	n/a	1.0	n/a	2	0	87	4	nogo_punish	1	-1	0	0	0	1	0	n/a	n/a	0	1.0	1.0	2333.3204353	2506.7267719	2507.7452748	2508.6643741	2510.1742958	2511.1892579	n/a	n/a	2512.1963318	2513.6891687	2020-07-07 13:48:34.479920	2.355242901168	-6.00343283346643	-4.83145061671297	-4.86969249536748	-7.18669351788097	-4.83145061671297	-2.355242901168	-4.83145061671297	-6.00343283346643	-4.83145061671297	-7.18669351788097	4.83145061671297	-2.9225250028069385	-7.362525937637366	-5.005792109999284	-7.568227255523103	-10.344483687924846	-5.005792109999284	4.677062951541254	-9.136400400365536	-6.213875397558594	-7.815492758635518	-4.552825289001132	4	missed	0.0
180.40790210000023	6.128242700000101	go_punish	0.3492331000002195	180.4215595999999	181.97131579999996	184.51222759999973	1.549756200000047	181.42678579999983	183.49143139999978	185.52551749999975	0.5445300000001225	1.0207961999999497	1.0242848000002596	n/a	1.0	n/a	2	0	88	3	go_punish	1	0	-1	1	1	1	0	n/a	n/a	0	0.3492331000002195	1.0	2333.3204353	2513.7419949	2514.7472211	2515.2917511	2516.8118667	2517.8326629	n/a	n/a	2518.8459528	2519.8702376	2020-07-07 13:48:34.479920	6.82197832083907	-0.69597084621729	-7.24484114672585	-0.816883784821568	-0.422862825886775	-7.24484114672585	-6.82197832083907	-0.69597084621729	-7.24484114672585	-0.422862825886775	-7.24484114672585	0.69597084621729	1.5442104168641313	-2.0550639503882255	-7.419182640012164	-3.5154185449771918	-3.58065299593065	-7.419182640012164	0.5415831810455746	-4.727812609539342	-6.272023026403474	-3.6800129881398376	-5.794233602260552	4	missed	0.0
186.58400710000024	6.500426499999776	nogo_reward	1.0	186.59766459999992	188.16107239999974	190.69470879999972	1.5634077999998226	187.6008071000001	189.67190129999972	191.7048909	0.560265299999628	1.022807499999999	1.3932001999996828	n/a	1.0	n/a	2	0	89	2	nogo_reward	1	0	1	0	0	1	0	n/a	n/a	1	1.0	1.0	2333.3204353	2519.9180999	2520.9212424	2521.4815077	2522.9923366	2524.0151441	n/a	n/a	2525.0253262	2526.4185264	2020-07-07 13:48:34.479920	8.49924894340975	0.0	14.6654779690248	14.6164257728658	6.166229025615	14.6654779690248	-8.49924894340975	14.6654779690248	0.0	14.6654779690248	6.166229025615	0.14405734912360124	3.2214810394348117	-1.3590931041709353	14.491136475738486	11.917891012710175	3.008438855571125	14.491136475738486	-0.010330316048114185	10.360528185372232	7.1390471459373765	11.681435827102252	1.4506075444652986	4	missed	0.0
193.13296760000003	6.425152799999978	go_punish	0.4246861999999964	193.1466250999997	194.6288725999998	197.18297839999968	1.482247500000085	194.16266559999985	196.1620657999997	198.19522479999978	0.4662069999999403	1.0209125999999742	1.37655309999991	n/a	1.0	n/a	2	0	90	3	go_punish	1	0	-1	1	1	1	1	n/a	n/a	0	0.4246861999999964	1.0	2333.3204353	2526.4670604	2527.4831009	2527.9493079	2529.4825011	2530.5034137	n/a	n/a	2531.5156601	2532.8922132	2020-07-07 13:48:34.479920	7.0849345568109	-0.516431401481689	-7.24484114672585	-0.612169008101153	-0.159906589914948	-7.24484114672585	-7.0849345568109	-0.516431401481689	-7.24484114672585	-0.159906589914948	-7.24484114672585	0.516431401481689	1.8071666528359618	-1.8755245056526242	-7.419182640012164	-3.3107037682567766	-3.317696759958823	-7.419182640012164	0.36204373630997355	-4.464856373567515	-6.272023026403474	-3.5004735434042367	-5.794233602260552	4	missed	0.0
199.5900502000004	6.585931499999788	nogo_punish	1.0	199.6037077000001	201.1670624999997	203.70276439999998	1.5633547999996154	200.60737960000006	202.68499089999978	204.7123277999999	0.5596828999996433	1.017773500000203	1.4773113999999623	n/a	1.0	n/a	2	0	91	4	nogo_punish	0	0	-1	0	0	1	0	n/a	n/a	-1	1.0	1.0	2333.3204353	2532.924143	2533.9278149	2534.4874978	2536.0054262	2537.0231997	n/a	n/a	2538.0327631	2539.5100745	2020-07-07 13:48:34.479920	3.48778577126909	-6.00343283346643	-3.10094395067006	-3.13167735158966	-6.58872972193915	-3.10094395067006	-3.48778577126909	-3.10094395067006	-6.00343283346643	-3.10094395067006	-6.58872972193915	-5.979581182906901	-1.7899821327058483	-7.362525937637366	-3.2752854439563737	-5.830212111745284	-9.746519891983025	-3.2752854439563737	-6.1339688480786165	-7.4058937343226265	-5.615911601616774	-6.084986092592608	-4.552825289001132	4	missed	0.0
206.22216320000007	6.142890699999953	go_reward	0.3318414999998822	206.23582069999975	208.05063999999993	210.5941886999999	1.814819300000181	207.2407202999998	209.57666999999992	211.60426179999968	0.8099197000001368	1.0175186999999823	0.7744496000000254	n/a	1.0	n/a	2	0	92	1	go_reward	1	1	0	1	1	1	0	n/a	n/a	1	0.3318414999998822	1.0	2333.3204353	2539.556256	2540.5611556	2541.3710753	2542.8971053	2543.914624	n/a	n/a	2544.9246971	2545.6991467	2020-07-07 13:48:34.479920	20.0256588970078	14.0797681786332	0.0	14.0797681786332	20.0256588970078	0.0	-20.0256588970078	14.0797681786332	0.0	20.0256588970078	0.0	0.7297671395152001	14.747890993032863	12.720675074462266	-0.1743414932863137	11.381233418477576	16.867868726963927	-0.1743414932863137	0.5753794743434847	15.720709113355234	0.9728181203223761	11.095726036710653	1.4506075444652986	4	missed	0.0
212.41459950000035	7.190278900000067	go_punish	0.2722920999999587	212.42825700000003	215.03429719999986	217.5747511999998	2.606040199999825	213.44062059999987	216.55210799999986	218.57690329999969	1.5936765999999807	1.0226431999999477	1.041632600000412	n/a	1.0	n/a	2	0	93	3	go_punish	0	-1	0	1	1	1	0	n/a	n/a	-1	0.2722920999999587	1.0	2333.3204353	2545.7486923	2546.7610559	2548.3547325	2549.8725433	2550.8951865	n/a	n/a	2551.8973386	2552.9389712	2020-07-07 13:48:34.479920	7.27424217234627	-0.388058180311866	-7.24484114672585	-0.464252431327566	0.0294010256204245	-7.24484114672585	-7.27424217234627	-0.388058180311866	-7.24484114672585	0.0294010256204245	-7.24484114672585	-8.692466953265095	1.9964742683713315	-1.7471512844828014	-7.419182640012164	-3.16278719148319	-3.128389144423451	-7.419182640012164	-8.84685461843681	-4.275548758032142	-6.272023026403474	-3.3721003222344135	-5.794233602260552	4	missed	0.0
219.651566	6.746939400000429	nogo_reward	1.0	219.66522349999968	221.99559360000012	224.52025460000004	2.3303701000004367	220.66947279999977	223.50714599999992	225.5282004999999	1.3261208000003535	1.0131086000001233	0.8839624000002004	n/a	1.0	n/a	2	0	94	2	nogo_reward	0	1	0	0	0	1	0	n/a	n/a	0	1.0	1.0	2333.3204353	2552.9856588	2553.9899081	2555.3160289	2556.8275813	2557.8406899	n/a	n/a	2558.8486358	2559.7325982	2020-07-07 13:48:34.479920	8.51138472800581	0.0	14.6956409448197	14.6579133488663	6.18425621681393	14.6956409448197	-8.51138472800581	14.6956409448197	0.0	14.6956409448197	6.18425621681393	-14.6956409448197	3.2336168240308716	-1.3590931041709353	14.521299451533388	11.959378588710676	3.0264660467700546	14.521299451533388	-14.850028609991416	10.390691161167133	7.157074337136306	11.711598802897154	1.4506075444652986	4	missed	0.0
226.4305777000004	5.860791299999619	nogo_punish	1.0	226.4442352000001	227.9129757999999	230.44334679999974	1.468740599999819	227.4477125999997	229.4240792999999	231.45695690000002	0.4652632000002086	1.0192674999998417	0.8480695999996897	n/a	1.0	n/a	2	0	95	4	nogo_punish	1	-1	0	0	0	1	0	n/a	n/a	0	1.0	1.0	2333.3204353	2559.7646705	2560.7681479	2561.2334111	2562.7445146	2563.7637821	n/a	n/a	2564.7773922	2565.6254618	2020-07-07 13:48:34.479920	2.2677572570078	-6.00343283346643	-5.01084955548322	-5.03564788339089	-7.27860681249102	-5.01084955548322	-2.2677572570078	-5.01084955548322	-6.00343283346643	-5.01084955548322	-7.27860681249102	5.01084955548322	-3.0100106469671384	-7.362525937637366	-5.185191048769534	-7.734182643546514	-10.436396982534895	-5.185191048769534	4.856461890311504	-9.315799339135786	-6.305788692168644	-7.994891697405768	-4.552825289001132	4	missed	0.0
232.33014580000008	7.246235399999932	go_reward	0.3454354000000421	232.34380329999976	234.7856529999999	237.33890539999993	2.441849700000148	233.35568879999983	236.31875910000008	238.35199430000011	1.4299642000000858	1.0201462999998512	1.2380443999995805	n/a	1.0	n/a	2	0	96	1	go_reward	0	0	1	1	1	1	0	n/a	n/a	0	0.3454354000000421	1.0	2333.3204353	2565.6642386	2566.6761241	2568.1060883	2569.6391944	2570.6593407	n/a	n/a	2571.6724296	2572.910474	2020-07-07 13:48:34.479920	20.31062914648	14.2826998219848	0.0	14.2826998219848	20.31062914648	0.0	-20.31062914648	14.2826998219848	0.0	20.31062914648	0.0	-14.2826998219848	15.032861242505062	12.923606717813865	-0.1743414932863137	11.584165061829175	17.152838976436126	-0.1743414932863137	-14.437087487156514	16.005679362827433	0.9728181203223761	11.298657680062252	1.4506075444652986	4	missed	0.0
239.6260774000002	6.76004150000017	go_punish	0.3535401999997702	239.6397348999999	241.49011689999998	244.0304031999999	1.8503820000000815	240.65680380000003	243.01740359999985	245.04692589999968	0.8333130999999412	1.0129996000000574	1.352850500000386	n/a	1.0	n/a	2	0	97	3	go_punish	1	0	-1	1	1	1	0	n/a	n/a	0	0.3535401999997702	1.0	2333.3204353	2572.9601702	2573.9772391	2574.8105522	2576.3378389	2577.3508385	n/a	n/a	2578.3673612	2579.7202117	2020-07-07 13:48:34.479920	3.41120615542245	-3.23268335124811	-7.24484114672585	-3.29361187094964	-3.8336349913034	-7.24484114672585	-3.41120615542245	-3.23268335124811	-7.24484114672585	-3.8336349913034	-7.24484114672585	3.23268335124811	-1.8665617485524884	-4.591776455419045	-7.419182640012164	-5.992146631105264	-6.991425161347275	-7.419182640012164	3.0782956860763946	-8.138584774955966	-6.272023026403474	-6.2167254931706575	-5.794233602260552	4	missed	0.0
246.4493994000004	7.327987499999836	go_punish	0.4286643000000367	246.46305690000008	248.87990199999967	251.42528670000002	2.416845099999591	247.46072000000004	250.4057459999999	252.4387124	1.419181999999637	1.0195407000001069	1.352331999999933	n/a	1.0	n/a	2	0	98	3	go_punish	1	0	-1	1	1	1	0	n/a	n/a	0	0.4286643000000367	1.0	2333.3204353	2579.7834922	2580.7811553	2582.2003373	2583.7261813	2584.745722	n/a	n/a	2585.7591477	2587.1114797	2020-07-07 13:48:34.479920	4.96913376479663	-2.07496355095725	-7.24484114672585	-2.1238996931751	-2.27570738192922	-7.24484114672585	-4.96913376479663	-2.07496355095725	-7.24484114672585	-2.27570738192922	-7.24484114672585	2.07496355095725	-0.3086341391783085	-3.4340566551281855	-7.419182640012164	-4.8224344533307235	-5.433497551973096	-7.419182640012164	1.9205758857855346	-6.580657165581787	-6.272023026403474	-5.059005692879797	-5.794233602260552	4	missed	0.0
253.81192770000007	5.931437300000198	go_reward	0.5340068999998948	253.82558519999975	255.33468300000004	257.8792152000001	1.5090978000002906	254.83629949999977	256.8668085999998	258.8942256999999	0.49838350000027276	1.012406600000304	0.8627968000000692	n/a	1.0	n/a	2	0	99	1	go_reward	0	0	1	1	1	1	0	n/a	n/a	0	0.5340068999998948	1.0	2333.3204353	2587.1460205	2588.1567348	2588.6551183	2590.1872439	2591.1996505	n/a	n/a	2592.214661	2593.0774578	2020-07-07 13:48:34.479920	13.4408348443737	9.20811136421703	0.0	9.20811136421703	13.4408348443737	0.0	-13.4408348443737	9.20811136421703	0.0	13.4408348443737	0.0	-9.20811136421703	8.163066940398762	7.849018260046095	-0.1743414932863137	6.509576604061406	10.283044674329826	-0.1743414932863137	-9.362499029388745	9.135885060721133	0.9728181203223761	6.224069222294483	1.4506075444652986	4	missed	0.0
259.79619390000016	7.37139389999993	go_punish	0.310606099999859	259.80985139999984	262.33103859999983	264.8776834999999	2.5211871999999858	260.8181371999999	263.8646613000001	265.8920611999997	1.5129013999999188	1.0130221999997957	1.2891841000000568	n/a	1.0	n/a	2	0	100	3	go_punish	1	0	-1	1	1	1	1	n/a	n/a	0	0.310606099999859	1.0	2333.3204353	2593.1302867	2594.1385725	2595.6514739	2597.1850966	2598.1981188	n/a	n/a	2599.2124965	2600.5016806	2020-07-07 13:48:34.479920	5.9028646427043	-1.39121492453242	-7.24484114672585	-1.43068065547285	-1.34197650402155	-7.24484114672585	-5.9028646427043	-1.39121492453242	-7.24484114672585	-1.34197650402155	-7.24484114672585	1.39121492453242	0.6250967387293613	-2.7503080287033552	-7.419182640012164	-4.129215415628474	-4.499766674065425	-7.419182640012164	1.2368272593607044	-5.646926287674116	-6.272023026403474	-4.375257066454967	-5.794233602260552	4	missed	0.0
267.2285471	6.377097900000081	go_punish	0.4664053999999851	267.2422045999997	269.0892159	271.64384040000004	1.847011300000304	268.2481557000001	270.62276059999976	272.65737519999993	0.8410601999999017	1.0210798000002796	0.9619272999998429	n/a	1.0	n/a	2	0	101	3	go_punish	1	0	-1	1	1	1	0	n/a	n/a	0	0.4664053999999851	1.0	2333.3204353	2600.5626399	2601.568591	2602.4096512	2603.9431959	2604.9642757	n/a	n/a	2605.9778105	2606.9397378	2020-07-07 13:48:34.479920	6.49307032507724	-0.964101858460767	-7.24484114672585	-0.996052384566568	-0.751770821648606	-7.24484114672585	-6.49307032507724	-0.964101858460767	-7.24484114672585	-0.751770821648606	-7.24484114672585	0.964101858460767	1.2153024211023018	-2.3231949626317023	-7.419182640012164	-3.694587144722192	-3.9095609916924814	-7.419182640012164	0.8097141932890516	-5.056720605301172	-6.272023026403474	-3.948144000383315	-5.794233602260552	4	missed	0.0
273.65023010000004	6.951949600000262	nogo_reward	1.0	273.6638875999997	275.93798909999987	278.47842009999977	2.2741015000001426	274.6592998000001	277.45582579999973	279.4808217	1.278689299999769	1.022594300000037	1.1350155000000086	n/a	1.0	n/a	2	0	102	2	nogo_reward	1	0	1	0	0	1	0	n/a	n/a	1	1.0	1.0	2333.3204353	2606.9843229	2607.9797351	2609.2584244	2610.7762611	2611.7988554	n/a	n/a	2612.801257	2613.9362725	2020-07-07 13:48:34.479920	5.15903248959839	0.0	9.50430757626595	9.47509737002372	4.34527508666757	9.50430757626595	-5.15903248959839	9.50430757626595	0.0	9.50430757626595	4.34527508666757	5.305227741882451	-0.11873541437654822	-1.3590931041709353	9.329966082979636	6.776562609868096	1.1874849166236947	9.329966082979636	5.150840076710735	5.199357792613383	5.318093206989946	6.520265434343402	1.4506075444652986	4	missed	0.0
280.6545185	6.126006600000437	go_punish	0.697653199999877	280.6681759999997	282.44498380000005	284.9759675999999	1.7768078000003698	281.68223979999993	283.9646886999999	285.98898499999996	0.7627440000001116	1.0112788999999793	0.8051976000001559	n/a	1.0	n/a	2	0	103	3	go_punish	1	0	-1	1	1	1	1	n/a	n/a	0	0.697653199999877	1.0	2333.3204353	2613.9886113	2615.0026751	2615.7654191	2617.285124	2618.2964029	n/a	n/a	2619.3094203	2620.1146179	2020-07-07 13:48:34.479920	6.88175519912977	-0.685480246202322	-7.24484114672585	-0.711440108146422	-0.363085947596085	-7.24484114672585	-6.88175519912977	-0.685480246202322	-7.24484114672585	-0.363085947596085	-7.24484114672585	0.685480246202322	1.6039872951548313	-2.0445733503732573	-7.419182640012164	-3.409974868302046	-3.5208761176399603	-7.419182640012164	0.5310925810306065	-4.668035731248652	-6.272023026403474	-3.6695223881248697	-5.794233602260552	4	missed	0.0
286.8112920000003	7.265021299999717	go_reward	0.3463983000001462	286.8249495	289.2961943999999	291.86857699999973	2.471244899999874	287.8298353	290.8453486999997	292.87868389999994	1.4663590999998632	1.023228300000028	1.2112868999997772	n/a	1.0	n/a	2	0	104	1	go_reward	1	1	0	1	1	1	0	n/a	n/a	1	0.3463983000001462	1.0	2333.3204353	2620.1453848	2621.1502706	2622.6166297	2624.165784	2625.1890123	n/a	n/a	2626.1991192	2627.4104061	2020-07-07 13:48:34.479920	9.28461149738527	6.177276113675	0.0	6.177276113675	9.28461149738527	0.0	-9.28461149738527	6.177276113675	0.0	9.28461149738527	0.0	8.6322592044734	4.006843593410332	4.8181830095040645	-0.1743414932863137	3.4787413535193763	6.126821327341395	-0.1743414932863137	8.477871539301685	4.979661713732704	0.9728181203223761	3.1932339717524525	1.4506075444652986	4	missed	0.0
294.1079043000004	7.314471899999717	nogo_punish	1.0	294.1215618000001	296.6638545999999	299.1855845	2.5422927999998137	295.1198540999999	298.1662004	300.19334290000006	1.5440005000000383	1.0193841000000248	1.2426907999997638	n/a	1.0	n/a	2	0	105	4	nogo_punish	1	-1	0	0	0	1	0	n/a	n/a	0	1.0	1.0	2333.3204353	2627.4419971	2628.4402894	2629.9842899	2631.4866357	2632.5060198	n/a	n/a	2633.5137782	2634.756469	2020-07-07 13:48:34.479920	3.39041878236158	-6.00343283346643	-3.27862884187786	-3.29871361773114	-6.66904762423944	-3.27862884187786	-3.39041878236158	-3.27862884187786	-6.00343283346643	-3.27862884187786	-6.66904762423944	3.27862884187786	-1.8873491216133584	-7.362525937637366	-3.452970335164174	-5.997248377886764	-9.826837794283314	-3.452970335164174	3.124241176706145	-7.583578625530427	-5.696229503917063	-6.262670983800408	-4.552825289001132	4	missed	0.0
301.4673415000002	6.997245800000201	nogo_reward	1.0	301.4809989999999	303.5308949	306.06110020000006	2.0498959000001378	302.48682439999993	305.04175829999986	307.06884790000004	1.044070500000089	1.0193419000001995	1.409396900000047	n/a	1.0	n/a	2	0	106	2	nogo_reward	0	1	0	0	0	1	0	n/a	n/a	0	1.0	1.0	2333.3204353	2634.8014343	2635.8072597	2636.8513302	2638.3621936	2639.3815355	n/a	n/a	2640.3892832	2641.7986801	2020-07-07 13:48:34.479920	6.56525841846313	0.0	11.6075086483115	11.5847550121654	5.04225022984841	11.6075086483115	-6.56525841846313	11.6075086483115	0.0	11.6075086483115	5.04225022984841	-11.6075086483115	1.2874905144881916	-1.3590931041709353	11.433167155025187	8.886220252009776	1.8844600598045345	11.433167155025187	-11.761896313483215	7.302558864658933	6.015068350170786	8.623466506388953	1.4506075444652986	4	missed	0.0
308.5136652000001	6.084524899999906	go_punish	0.6082604000002902	308.5273226999998	310.08335080000006	312.63652950000005	1.556028100000276	309.5215849000001	311.6169015999999	313.65012849999994	0.5617658999999549	1.0196279000001596	0.9617190999997547	n/a	1.0	n/a	2	0	107	3	go_punish	1	0	-1	1	1	1	0	n/a	n/a	0	0.6082604000002902	1.0	2333.3204353	2641.847758	2642.8420202	2643.4037861	2644.9373369	2645.9569648	n/a	n/a	2646.9705638	2647.9322829	2020-07-07 13:48:34.479920	7.14607973112995	-0.497448301485491	-7.24484114672585	-0.51861256777957	-0.0987614155958964	-7.24484114672585	-7.14607973112995	-0.497448301485491	-7.24484114672585	-0.0987614155958964	-7.24484114672585	0.497448301485491	1.8683118271550114	-1.8565414056564262	-7.419182640012164	-3.217147327935194	-3.2565515856397718	-7.419182640012164	0.3430606363137756	-4.4037111992484625	-6.272023026403474	-3.4814904434080387	-5.794233602260552	4	missed	0.0
314.63461800000005	6.829802100000052	go_reward	0.3872716000000764	314.6482754999997	317.0194262	319.5718207	2.371150700000271	315.6629874	318.55271809999977	320.57889109999996	1.356438799999978	1.019102600000224	0.8991864999998143	n/a	1.0	n/a	2	0	108	1	go_reward	0	0	1	1	1	1	0	n/a	n/a	0	0.3872716000000764	1.0	2333.3204353	2647.9687108	2648.9834227	2650.3398615	2651.8731534	2652.892256	n/a	n/a	2653.8993264	2654.7985129	2020-07-07 13:48:34.479920	13.713677206427	9.48744484669789	0.0	9.48744484669789	13.713677206427	0.0	-13.713677206427	9.48744484669789	0.0	13.713677206427	0.0	-9.48744484669789	8.435909302452062	8.128351742526956	-0.1743414932863137	6.788910086542266	10.555887036383126	-0.1743414932863137	-9.641832511869605	9.408727422774433	0.9728181203223761	6.503402704775343	1.4506075444652986	4	missed	0.0
321.49829420000015	6.4498899999998685	go_reward	0.594421599999805	321.5119516999998	323.08926889999975	325.6307910999999	1.577317199999925	322.5291828999998	324.61472289999983	326.64082359999975	0.5600859999999557	1.0160682000000634	1.3210180999999466	n/a	1.0	n/a	2	0	109	1	go_reward	1	1	0	1	1	1	0	n/a	n/a	1	0.594421599999805	1.0	2333.3204353	2654.832387	2655.8496182	2656.4097042	2657.9351582	2658.9512264	n/a	n/a	2659.9612589	2661.282277	2020-07-07 13:48:34.479920	9.20358871664824	6.15740700854982	0.0	6.15740700854982	9.20358871664824	0.0	-9.20358871664824	6.15740700854982	0.0	9.20358871664824	0.0	8.65212830959858	3.925820812673301	4.798313904378884	-0.1743414932863137	3.458872248394196	6.045798546604364	-0.1743414932863137	8.497740644426866	4.898638932995673	0.9728181203223761	3.173364866627272	1.4506075444652986	4	missed	0.0
328.0101939000001	6.34452280000005	go_punish	0.5257931999999528	328.0238513999998	329.81585670000004	332.3665034999999	1.7920053000002554	329.02891169999975	331.3424420000001	333.3756245999998	0.7869450000002871	1.0240614999997888	0.9927496000000247	n/a	1.0	n/a	2	0	110	3	go_punish	0	-1	0	1	1	1	0	n/a	n/a	-1	0.5257931999999528	1.0	2333.3204353	2661.3442867	2662.349347	2663.136292	2664.6628773	2665.6869388	n/a	n/a	2666.6960599	2667.6888095	2020-07-07 13:48:34.479920	7.33049984972112	-0.36707086670771	-7.24484114672585	-0.38438097512596	0.0856587029952658	-7.24484114672585	-7.33049984972112	-0.36707086670771	-7.24484114672585	0.0856587029952658	-7.24484114672585	-8.71345426686925	2.0527319457461815	-1.7261639708786454	-7.419182640012164	-3.082915735281584	-3.0721314670486093	-7.419182640012164	-8.867841932040966	-4.2192910806573005	-6.272023026403474	-3.3511130086302576	-5.794233602260552	4	missed	0.0
334.4033518000001	6.9335807000002205	nogo_reward	1.0	334.4170092999998	336.4584882999998	338.98357559999977	2.041478999999981	335.41442989999996	337.9603296	339.9966255999998	1.0440583999998125	1.0232459999997445	1.3539644000002227	n/a	1.0	n/a	2	0	111	2	nogo_reward	1	0	1	0	0	1	0	n/a	n/a	1	1.0	1.0	2333.3204353	2667.7374446	2668.7348652	2669.7789236	2671.2807649	2672.3040109	n/a	n/a	2673.3170609	2674.6710253	2020-07-07 13:48:34.479920	3.96080190536424	0.0	7.56130623471377	7.54348221587916	3.60050432934953	7.56130623471377	-3.96080190536424	7.56130623471377	0.0	7.56130623471377	3.60050432934953	7.24822908343463	-1.3169659986106983	-1.3590931041709353	7.386964741427456	4.844947455723537	0.4427141593056545	7.386964741427456	7.093841418262914	3.2563564510612037	4.573322449671906	4.577264092791223	1.4506075444652986	4	missed	0.0
341.38226580000037	7.224310199999763	nogo_punish	1.0	341.39592330000005	344.14678000000004	346.6762601999999	2.7508566999999857	342.4013547999998	345.6568236999997	347.6900863000001	1.745425200000227	1.0194365000002108	0.9301471999997375	n/a	1.0	n/a	2	0	112	4	nogo_punish	1	-1	0	0	0	1	0	n/a	n/a	0	1.0	1.0	2333.3204353	2674.7163586	2675.7217901	2677.4672153	2678.977259	2679.9966955	n/a	n/a	2681.0105216	2681.9406688	2020-07-07 13:48:34.479920	4.05425010318461	-6.00343283346643	-2.22704604456775	-2.24337087155048	-6.28129614775236	-2.22704604456775	-4.05425010318461	-2.22704604456775	-6.00343283346643	-2.22704604456775	-6.28129614775236	2.22704604456775	-1.2235178007903285	-7.362525937637366	-2.4013875378540637	-4.941905631706104	-9.439086317796235	-2.4013875378540637	2.0726583793960347	-6.5319958282203165	-5.308478027429984	-5.211088186490297	-4.552825289001132	4	missed	0.0
348.65502560000004	6.532194600000366	nogo_reward	1.0	348.6686830999997	350.4599186999999	352.9971195999997	1.7912356000001637	349.6883201999999	351.97757980000006	354.0103838	0.7715984999999819	1.0195397999996203	1.1904939000000923	n/a	1.0	n/a	2	0	113	2	nogo_reward	0	1	0	0	0	1	1	n/a	n/a	0	1.0	1.0	2333.3204353	2681.9891184	2683.0087555	2683.780354	2685.2980151	2686.3175549	n/a	n/a	2687.3308191	2688.521313	2020-07-07 13:48:34.479920	5.79492171448967	0.0	10.3362717166415	10.3222363664919	4.54135000215182	10.3362717166415	-5.79492171448967	10.3362717166415	0.0	10.3362717166415	4.54135000215182	-10.3362717166415	0.5171538105147313	-1.3590931041709353	10.161930223355187	7.623701606336276	1.3835598321079443	10.161930223355187	-10.490659381813215	6.031321932988933	5.514168122474196	7.352229574718953	1.4506075444652986	4	missed	0.0
355.2206064000002	6.110789599999862	nogo_punish	1.0	355.23426389999986	356.57216070000004	359.1094328999998	1.3378968000001805	356.2465678999997	358.08993299999975	360.1161323000001	0.3255928000003223	1.019499900000028	1.2289211999996041	n/a	1.0	n/a	2	0	114	4	nogo_punish	1	-1	0	0	0	1	1	n/a	n/a	0	1.0	1.0	2333.3204353	2688.5546992	2689.5670032	2689.892596	2691.4103683	2692.4298682	n/a	n/a	2693.4365676	2694.6654888	2020-07-07 13:48:34.479920	4.46852990981237	-6.00343283346643	-1.55663232021706	-1.56994548711108	-6.02516223002943	-1.55663232021706	-4.46852990981237	-1.55663232021706	-6.00343283346643	-1.55663232021706	-6.02516223002943	1.55663232021706	-0.8092379941625687	-7.362525937637366	-1.7309738135033736	-4.268480247266703	-9.182952400073304	-1.7309738135033736	1.4022446550453447	-5.861582103869626	-5.052344109707054	-4.540674462139608	-4.552825289001132	4	missed	0.0
361.3764017000003	6.055261699999846	nogo_reward	1.0	361.3900592	362.7526211999998	365.27030879999984	1.362561999999798	362.3959165000001	364.2549438000001	366.28043709999974	0.3567046999996819	1.015364999999747	1.1648838000000978	n/a	1.0	n/a	2	0	115	2	nogo_reward	1	0	1	0	0	1	1	n/a	n/a	1	1.0	1.0	2333.3204353	2694.7104945	2695.7163518	2696.0730565	2697.5753791	2698.5907441	n/a	n/a	2699.6008724	2700.7657562	2020-07-07 13:48:34.479920	3.44822509298436	0.0	6.70340082424524	6.69229503405073	3.25517573126088	6.70340082424524	-3.44822509298436	6.70340082424524	0.0	6.70340082424524	3.25517573126088	8.10613449390316	-1.8295428109905782	-1.3590931041709353	6.529059330958926	3.993760273895106	0.09738556121700448	6.529059330958926	7.9517468287314435	2.3984510405926738	4.227993851583256	3.7193586823226927	1.4506075444652986	4	missed	0.0
367.4635973000004	6.65147879999995	nogo_punish	1.0	367.4772548000001	369.6986466999997	372.2214733999999	2.2213918999996167	368.48201629999994	371.2087348	373.23582269999997	1.216630399999758	1.0127385999999206	0.8929109000000608	n/a	1.0	n/a	2	0	116	4	nogo_punish	1	-1	0	0	0	1	1	n/a	n/a	0	1.0	1.0	2333.3204353	2700.7976901	2701.8024516	2703.019082	2704.5291701	2705.5419087	n/a	n/a	2706.556258	2707.4491689	2020-07-07 13:48:34.479920	4.73812940574675	-6.00343283346643	-1.11278481745623	-1.12367632766184	-5.85091422320298	-1.11278481745623	-4.73812940574675	-1.11278481745623	-6.00343283346643	-1.11278481745623	-5.85091422320298	1.11278481745623	-0.5396384982281885	-7.362525937637366	-1.2871263107425437	-3.8222110878174638	-9.008704393246855	-1.2871263107425437	0.9583971522845146	-5.417734601108797	-4.878096102880604	-4.096826959378777	-4.552825289001132	4	missed	0.0
374.16693380000015	6.193581500000164	nogo_reward	1.0	374.18059129999983	375.5789300000001	378.1126602999998	1.398338700000295	375.1905876999999	377.0888425999997	379.1221875000001	0.388342300000204	1.0238177000001087	1.2519852999998875	n/a	1.0	n/a	2	0	117	2	nogo_reward	1	0	1	0	0	1	1	n/a	n/a	1	1.0	1.0	2333.3204353	2707.5010266	2708.511023	2708.8993653	2710.4092779	2711.4330956	n/a	n/a	2712.4426228	2713.6946081	2020-07-07 13:48:34.479920	5.44423183248034	0.0	9.74262138226037	9.73379367147732	4.29838954978002	9.74262138226037	-5.44423183248034	9.74262138226037	0.0	9.74262138226037	4.29838954978002	5.06691393588803	0.1664639285054017	-1.3590931041709353	9.568279888974057	7.035258911321696	1.1405993797361447	9.568279888974057	4.912526270716314	5.437671598607804	5.271207670102396	6.7585792403378235	1.4506075444652986	4	missed	0.0
380.39408140000023	7.586793200000102	nogo_punish	1.0	380.4077388999999	383.2524505000001	385.7883217999997	2.8447116000002097	381.42676249999977	384.7700657999999	386.79826980000007	1.8256880000003548	1.0182559999998375	1.196262299999944	n/a	1.0	n/a	2	0	118	4	nogo_punish	0	0	-1	0	0	1	1	n/a	n/a	-1	1.0	1.0	2333.3204353	2713.7281742	2714.7471978	2716.5728858	2718.0905011	2719.1087571	n/a	n/a	2720.1187051	2721.3149674	2020-07-07 13:48:34.479920	4.91946544629001	-6.00343283346643	-0.81008353734788	-0.819020684285082	-5.72954898363789	-0.81008353734788	-4.91946544629001	-0.81008353734788	-6.00343283346643	-0.81008353734788	-5.72954898363789	-8.27044159622908	-0.3583024576849283	-7.362525937637366	-0.9844250306341937	-3.517555444440706	-8.887339153681765	-0.9844250306341937	-8.424829261400795	-5.115033321000446	-4.756730863315513	-3.7941256792704277	-4.552825289001132	4	missed	0.0
388.0163311000001	7.0839294000002155	go_reward	0.3108981999998832	388.0299885999998	390.79780549999987	393.3538186999999	2.7678169000000707	389.03949999999986	392.33013729999993	394.3631359000001	1.7583055000000058	1.0236813999999868	0.750782099999924	n/a	1.0	n/a	2	0	119	1	go_reward	1	1	0	1	1	1	0	n/a	n/a	1	0.3108981999998832	1.0	2333.3204353	2721.3504239	2722.3599353	2724.1182408	2725.6505726	2726.674254	n/a	n/a	2727.6835712	2728.4343533	2020-07-07 13:48:34.479920	13.5336337930982	9.37801415336079	0.0	9.37801415336079	13.5336337930982	0.0	-13.5336337930982	9.37801415336079	0.0	13.5336337930982	0.0	5.431521164787611	8.255865889123262	8.018921049189855	-0.1743414932863137	6.679479393205165	10.375843623054326	-0.1743414932863137	5.277133499615895	9.228684009445633	0.9728181203223761	6.393972011438242	1.4506075444652986	4	missed	0.0
395.1301518	7.615119400000367	nogo_punish	1.0	395.1438092999997	397.7207745999999	400.2509557999997	2.576965300000211	396.1451661000001	399.23806719999993	401.26511029999983	1.5756084999998166	1.0128885999997692	1.4938184000002366	n/a	1.0	n/a	2	0	120	4	nogo_punish	1	-1	0	0	0	1	1	n/a	n/a	0	1.0	1.0	2333.3204353	2728.4642446	2729.4656014	2731.0412099	2732.5585025	2733.5713911	n/a	n/a	2734.5855456	2736.079364	2020-07-07 13:48:34.479920	3.17028983596516	-6.00343283346643	-3.53659334078389	-3.5439477925958	-6.70688317674905	-3.53659334078389	-3.17028983596516	-3.53659334078389	-6.00343283346643	-3.53659334078389	-6.70688317674905	3.53659334078389	-2.107478068009778	-7.362525937637366	-3.7109348340702035	-6.242482552751424	-9.864673346792927	-3.7109348340702035	3.3822056756121746	-7.841543124436456	-5.734065056426674	-6.520635482706437	-4.552825289001132	4	missed	0.0
