onset	duration	trial_type	response_time	cueOnset	targetOnset	fbOnset	cueRT	firstfixOnset	secondfixOnset	waitOnset	firstfixdur	secondfixdur	waitdur	nback_fbOnset	nback_response_time	nback_targetOnset	block	wm	trial	cue	cond	is_common	outcome_go	outcome_nogo	key_correct	key_pressed	is_correct	key_correct_nback	key_pressed_nback	is_correct_nback	outcome	rt	rt_nback	time_scan	time_onset	time_isi1	time_circle	time_isi2	time_feedback	time_same	time_correct	time_iti	time_done	timestamp_scan	DV	Qgo	Qnogo	SV	Wgo	Wnogo	mDV	Qchosen	Qunchosen	Wchosen	Wunchosen	PE	DVC	QgoC	QnogoC	SVC	WgoC	WnogoC	PEC	WchosenC	WunchosenC	QchosenC	QunchosenC	run	outcome_nback	nback_targetResp
0.0	8.128142000000025	nogo_reward	1.0	0.09513160000005882	1.6621995000000425	4.196136300000035	1.5670678999999836	1.1061317000001054	3.1688716000001023	7.237572499999942	0.556067799999937	1.0272646999999324	0.9857011000001421	6.234578000000056	1.0	5.225356899999952	1	1	1	2	nogo_reward	1	0	1	0	0	1	0	n/a	0.0	1	1.0	1.0	650.6746913	650.7698229	651.780823	652.3368908	653.8435629	654.8708276	655.9000481999999	656.9092693	657.9122637999999	658.8979649	2020-07-07 13:20:31.833863	-0.612426393334286	0.0	0.0	0.0	0.612426393334286	0.0	0.612426393334286	0.0	0.0	0.0	0.612426393334286	14.8095353181484	-5.8901942973092245	-1.3590931041709353	-0.1743414932863137	-2.6985347601556238	-2.545363776709589	-0.1743414932863137	14.655147652976686	-4.3049497836525665	1.585244513656662	-2.9840421419225476	1.4506075444652986	1	missed	0.0
8.211390700000038	8.436182099999996	go_reward	0.4219840999999178	8.306522300000097	9.966452000000118	12.51465630000007	1.6599297000000206	9.311435600000095	11.498541100000011	15.546985500000119	0.6550164000000223	1.0161152000000584	1.1957188999999744	14.5427423000001	1.0	13.530720700000074	1	1	2	1	go_reward	1	1	0	1	1	1	0	n/a	0.0	0	0.4219840999999178	1.0	650.6746913	658.9812136	659.9861269	660.6411433000001	662.1732324	663.1893476	664.205412	665.2174336	666.2216768000001	667.4173957	2020-07-07 13:20:31.833863	0.612426393334286	0.0	0.0	0.0	0.612426393334286	0.0	-0.612426393334286	0.0	0.0	0.612426393334286	0.0	14.8095353181484	-4.665341510640652	-1.3590931041709353	-0.1743414932863137	-2.6985347601556238	-2.545363776709589	-0.1743414932863137	14.655147652976686	-3.6925233903182804	0.9728181203223761	-2.9840421419225476	1.4506075444652986	1	missed	0.0
16.719042799999897	9.202501600000005	nogo_punish	0.3400323000000753	16.814174399999956	19.388379600000007	21.954581400000052	2.5742052000000513	17.81150300000013	20.929314400000067	24.994201200000134	1.5768765999998777	1.0252669999999853	1.0224747999998272	23.98462080000013	1.0	22.97254420000013	1	1	3	4	nogo_punish	1	-1	0	0	1	0	0	n/a	0.0	0	0.3400323000000753	1.0	650.6746913	667.4888656999999	668.4861943000001	670.0630709	671.6040057	672.6292727	673.6472355000001	674.6593121000001	675.6688925000001	676.6913672999999	2020-07-07 13:20:31.833863	0.612426393334286	0.0	0.0	0.0	0.612426393334286	0.0	-0.612426393334286	0.0	0.0	0.612426393334286	0.0	-9.08052513357696	-4.665341510640652	-1.3590931041709353	-0.1743414932863137	-2.6985347601556238	-2.545363776709589	-0.1743414932863137	-9.234912798748676	-3.6925233903182804	0.9728181203223761	-2.9840421419225476	1.4506075444652986	1	missed	0.0
25.98889269999995	9.65963899999997	go_reward	0.4292463000001589	26.08402430000001	28.861224199999924	31.414064999999937	2.777199899999914	27.087260799999967	30.39204480000012	34.453372800000125	1.773963399999957	1.0220201999998153	1.2902904999998555	33.4453797000001	0.6452590999999757	32.418177000000014	1	1	4	1	go_reward	1	1	0	1	1	1	1	1.0	1.0	1	0.4292463000001589	0.6452590999999757	650.6746913	676.7587156	677.7619520999999	679.5359154999999	681.0667361000001	682.0887562999999	683.0928683	684.120071	685.1280641000001	686.4183545999999	2020-07-07 13:20:31.833863	0.612426393334286	0.0	0.0	0.0	0.612426393334286	0.0	-0.612426393334286	0.0	0.0	0.612426393334286	0.0	14.8095353181484	-4.665341510640652	-1.3590931041709353	-0.1743414932863137	-2.6985347601556238	-2.545363776709589	-0.1743414932863137	14.655147652976686	-3.6925233903182804	0.9728181203223761	-2.9840421419225476	1.4506075444652986	1	correct	1.0
35.68616829999996	8.746114699999907	go_reward	0.492234400000143	35.78129990000002	37.79420920000007	40.3500818	2.0129093000000466	36.78860580000014	39.31989650000014	43.39491530000009	1.0056033999999272	1.0301852999998573	1.1324992999998358	42.395995300000095	0.6240236999999524	41.37340620000009	1	1	5	1	go_reward	1	1	0	1	1	1	0	0.0	1.0	1	0.492234400000143	0.6240236999999524	650.6746913	686.4559912	687.4632971000001	688.4689005	689.9945878000001	691.0247731	692.0480975	693.0706866	694.0696066	695.2021058999999	2020-07-07 13:20:31.833863	3.00579380679298	1.51186425670922	0.0	1.51186425670922	3.00579380679298	0.0	-3.00579380679298	1.51186425670922	0.0	3.00579380679298	0.0	13.29767106143918	-2.271974097181958	0.15277115253828466	-0.1743414932863137	-1.1866705034464038	-0.15199636325089516	-0.1743414932863137	13.143283396267465	-1.2991559768595864	0.9728181203223761	-1.4721778852133276	1.4506075444652986	1	correct	1.0
44.51002659999995	9.989343800000142	go_punish	0.4757294000000911	44.605158200000005	47.57252510000012	50.11101389999999	2.9673669000001155	45.612264300000106	49.08995660000005	53.16196160000004	1.9602608000000146	1.0210572999999386	1.4325404000001072	52.158316199999945	0.8333975999998984	51.12818429999993	1	1	6	3	go_punish	1	0	-1	1	1	1	0	1.0	0.0	0	0.4757294000000911	0.8333975999998984	650.6746913	695.2798495	696.2869556	698.2472164000001	699.7646479	700.7857051999999	701.8028755999999	702.8330074999999	703.8366529	705.2691933000001	2020-07-07 13:20:31.833863	0.612426393334286	0.0	0.0	0.0	0.612426393334286	0.0	-0.612426393334286	0.0	0.0	0.612426393334286	0.0	0.0	-4.665341510640652	-1.3590931041709353	-0.1743414932863137	-2.6985347601556238	-2.545363776709589	-0.1743414932863137	-0.15438766517171543	-3.6925233903182804	0.9728181203223761	-2.9840421419225476	1.4506075444652986	1	wrong	1.0
54.54607510000005	7.747153499999968	go_punish	0.7517084999999497	54.64120670000011	55.93075840000006	58.471703299999945	1.2895516999999472	55.64809360000004	57.459435700000085	61.52004959999999	0.2826648000000205	1.0122675999998592	0.8683106000000862	60.51403819999996	0.7032603000000108	59.48517390000006	1	1	7	3	go_punish	1	0	-1	1	1	1	0	0.0	1.0	0	0.7517084999999497	0.7032603000000108	650.6746913	705.3158980000001	706.3227849	706.6054497	708.134127	709.1463945999999	710.1598652	711.1887294999999	712.1947408999999	713.0630515	2020-07-07 13:20:31.833863	0.612426393334286	0.0	0.0	0.0	0.612426393334286	0.0	-0.612426393334286	0.0	0.0	0.612426393334286	0.0	0.0	-4.665341510640652	-1.3590931041709353	-0.1743414932863137	-2.6985347601556238	-2.545363776709589	-0.1743414932863137	-0.15438766517171543	-3.6925233903182804	0.9728181203223761	-2.9840421419225476	1.4506075444652986	1	correct	1.0
62.336503499999935	9.364795100000038	nogo_reward	0.4461833999998816	62.431635099999994	64.91812670000013	67.46585090000008	2.486491600000136	63.43709779999995	66.4430433	70.55570639999996	1.481028900000183	1.0228076000000783	1.2407238000000689	69.54406740000013	0.7605636000000686	68.51685900000007	1	1	8	2	nogo_reward	1	0	1	0	1	0	0	0.0	1.0	0	0.4461833999998816	0.7605636000000686	650.6746913	713.1063264	714.1117890999999	715.5928180000001	717.1177346	718.1405422	719.1915503	720.2187587000001	721.2303976999999	722.4711215	2020-07-07 13:20:31.833863	-0.0179347066254493	0.0	1.51186425670922	1.51186425670922	1.49392955008377	1.51186425670922	0.0179347066254493	0.0	1.51186425670922	1.49392955008377	1.51186425670922	0.0	-5.2957026106003875	-1.3590931041709353	1.3375227634229063	-1.1866705034464038	-1.6638606199601054	1.3375227634229063	-0.15438766517171543	-2.8110202335687964	2.484682377031596	-2.9840421419225476	2.9624718011745186	1	correct	1.0
71.7434897999999	9.044859100000167	nogo_reward	0.4160946000001786	71.83862139999997	73.89341089999994	76.44291109999995	2.05478949999997	72.83963319999998	75.41284840000003	79.48573690000012	1.053777699999955	1.0300626999999167	1.3977436000000125	78.47420430000011	0.5195579999999609	77.45184790000008	1	1	9	2	nogo_reward	0	1	0	0	1	0	0	0.0	1.0	1	0.4160946000001786	0.5195579999999609	650.6746913	722.5133126999999	723.5143244999999	724.5681021999999	726.0875397	727.1176023999999	728.1265392	729.1488956000001	730.1604282000001	731.5581718000001	2020-07-07 13:20:31.833863	-0.120080527852123	0.0	1.51186425670922	1.34124722154582	1.39178372885709	1.51186425670922	0.120080527852123	0.0	1.51186425670922	1.39178372885709	1.51186425670922	14.8095353181484	-5.397848431827061	-1.3590931041709353	1.3375227634229063	-1.3572875386098038	-1.7660064411867853	1.3375227634229063	14.655147652976686	-2.9131660547954765	2.484682377031596	-2.9840421419225476	2.9624718011745186	1	correct	1.0
80.83469319999995	7.9477079999999205	go_punish	0.4488126000001102	80.9298248	82.27755079999997	84.82085170000005	1.347725999999966	81.93464310000013	83.80097849999993	87.8595077	0.3429076999998415	1.01987320000012	1.0180250999999316	86.85547369999995	0.4001309000000219	85.83237280000003	1	1	10	3	go_punish	1	0	-1	1	1	1	0	0.0	1.0	0	0.4488126000001102	0.4001309000000219	650.6746913	731.6045161	732.6093344000001	732.9522420999999	734.4756697999999	735.495543	736.5070641	737.5301649999999	738.534199	739.5522240999999	2020-07-07 13:20:31.833863	0.612426393334286	0.0	0.0	0.0	0.612426393334286	0.0	-0.612426393334286	0.0	0.0	0.612426393334286	0.0	0.0	-4.665341510640652	-1.3590931041709353	-0.1743414932863137	-2.6985347601556238	-2.545363776709589	-0.1743414932863137	-0.15438766517171543	-3.6925233903182804	0.9728181203223761	-2.9840421419225476	1.4506075444652986	1	correct	1.0
88.82075110000005	8.448392199999944	go_reward	0.5078475000000253	88.91588270000011	90.46764830000006	93.02802450000013	1.5517655999999533	89.92115620000004	92.01036120000003	96.08314280000013	0.5464921000000231	1.0176633000000948	1.2811320999999225	95.07025909999993	0.4406925000000683	94.04074820000005	1	1	11	1	go_reward	1	1	0	1	1	1	0	0.0	1.0	1	0.5078475000000253	0.4406925000000683	650.6746913	739.5905740000001	740.5958475	741.1423396	742.6850525	743.7027158000001	744.7154395	745.7449503999999	746.7578341000001	748.0389662	2020-07-07 13:20:31.833863	5.12639836386161	2.85311147825503	0.0	2.85311147825503	5.12639836386161	0.0	-5.12639836386161	2.85311147825503	0.0	5.12639836386161	0.0	11.95642383989337	-0.15136954011332815	1.4940183740840947	-0.1743414932863137	0.1545767180994062	1.9686081938177349	-0.1743414932863137	11.802036174721655	0.8214485802090437	0.9728181203223761	-0.1309306636675176	1.4506075444652986	1	correct	1.0
97.31884009999999	8.946313500000088	nogo_punish	1.0	97.41397170000005	99.82823950000011	102.35655010000005	2.4142678000000615	98.40831150000008	101.34506409999995	105.39816380000002	1.4199280000000272	1.0114860000001045	0.9621214000001146	104.3894643000001	0.4234017999999651	103.36604069999999	1	1	12	4	nogo_punish	1	-1	0	0	0	1	0	0.0	1.0	0	1.0	0.4234017999999651	650.6746913	748.088663	749.0830028	750.5029308000001	752.0197553999999	753.0312414	754.0407319999999	755.0641556	756.0728551	757.0349765000001	2020-07-07 13:20:31.833863	-0.612426393334286	0.0	0.0	0.0	0.612426393334286	0.0	0.612426393334286	0.0	0.0	0.0	0.612426393334286	0.0	-5.8901942973092245	-1.3590931041709353	-0.1743414932863137	-2.6985347601556238	-2.545363776709589	-0.1743414932863137	-0.15438766517171543	-4.3049497836525665	1.585244513656662	-2.9840421419225476	1.4506075444652986	1	correct	1.0
106.30799929999989	8.923828200000116	go_reward	0.3500183000001016	106.40313089999995	108.36942070000009	110.90213489999996	1.9662898000001405	107.40752509999993	109.88560780000012	113.94337059999998	0.9618956000001617	1.0165270999998484	1.3835885000000872	112.94149779999998	0.6826987000001736	111.91587219999997	1	1	13	1	go_reward	1	1	0	1	1	1	1	1.0	1.0	1	0.3500183000001016	0.6826987000001736	650.6746913	757.0778221999999	758.0822163999999	759.044112	760.5602991000001	761.5768261999999	762.5905634999999	763.6161890999999	764.6180618999999	766.0016504	2020-07-07 13:20:31.833863	7.00783811002245	4.0445773915567	0.0	4.0445773915567	7.00783811002245	0.0	-7.00783811002245	4.0445773915567	0.0	7.00783811002245	0.0	10.7649579265917	1.730070206047512	2.6854842873857647	-0.1743414932863137	1.3460426314010765	3.850047939978575	-0.1743414932863137	10.610570261419985	2.7028883263698837	0.9728181203223761	1.0605352496341527	1.4506075444652986	1	correct	1.0
115.27096519999986	9.351684300000215	nogo_punish	1.0	115.36609679999992	118.10105840000006	120.62448979999999	2.7349616000001333	116.3698872	119.60347819999993	123.66558950000012	1.7311712000000625	1.0210116000000653	1.0521916000000147	122.65599709999992	0.5343413999999029	121.63450090000015	1	1	14	4	nogo_punish	1	-1	0	0	0	1	1	1.0	1.0	0	1.0	0.5343413999999029	650.6746913	766.0407880999999	767.0445785	768.7757497	770.2781694999999	771.2991810999999	772.3091922000001	773.3306883999999	774.3402808000001	775.3924724000001	2020-07-07 13:20:31.833863	-0.612426393334286	0.0	0.0	0.0	0.612426393334286	0.0	0.612426393334286	0.0	0.0	0.0	0.612426393334286	0.0	-5.8901942973092245	-1.3590931041709353	-0.1743414932863137	-2.6985347601556238	-2.545363776709589	-0.1743414932863137	-0.15438766517171543	-4.3049497836525665	1.585244513656662	-2.9840421419225476	1.4506075444652986	1	correct	1.0
124.66644079999992	8.678327300000092	go_punish	0.4953139000001556	124.76157239999998	126.6050679	129.16173249999997	1.8434955000000173	125.76152260000003	128.14344410000012	132.21236670000008	0.8435452999999598	1.0182883999998467	1.227532999999994	131.19904539999993	0.490766800000074	130.1785443000001	1	1	15	3	go_punish	1	0	-1	1	1	1	0	0.0	1.0	0	0.4953139000001556	0.490766800000074	650.6746913	775.4362636999999	776.4362139	777.2797592	778.8181354000001	779.8364237999999	780.8532356000001	781.8737366999999	782.887058	784.114591	2020-07-07 13:20:31.833863	0.612426393334286	0.0	0.0	0.0	0.612426393334286	0.0	-0.612426393334286	0.0	0.0	0.612426393334286	0.0	0.0	-4.665341510640652	-1.3590931041709353	-0.1743414932863137	-2.6985347601556238	-2.545363776709589	-0.1743414932863137	-0.15438766517171543	-3.6925233903182804	0.9728181203223761	-2.9840421419225476	1.4506075444652986	1	correct	1.0
133.38834240000006	8.016036900000017	go_punish	0.6438146000000415	133.48347400000011	135.13751679999996	137.67668920000006	1.6540427999998428	134.48061759999996	136.6530600000001	140.74120900000003	0.656899199999998	1.0236291999999594	0.7583019000001059	139.73239740000008	0.8498865000001388	138.69859029999998	1	1	16	3	go_punish	0	-1	0	1	1	1	0	1.0	0.0	-1	0.6438146000000415	0.8498865000001388	650.6746913	784.1581653000001	785.1553088999999	785.8122080999999	787.3277513	788.3513805	789.3732815999999	790.4070887	791.4159003	792.1742022000001	2020-07-07 13:20:31.833863	0.612426393334286	0.0	0.0	0.0	0.612426393334286	0.0	-0.612426393334286	0.0	0.0	0.612426393334286	0.0	-9.08052513357696	-4.665341510640652	-1.3590931041709353	-0.1743414932863137	-2.6985347601556238	-2.545363776709589	-0.1743414932863137	-9.234912798748676	-3.6925233903182804	0.9728181203223761	-2.9840421419225476	1.4506075444652986	1	wrong	1.0
141.44654349999996	8.919140599999992	go_punish	0.4195702000001802	141.54167510000002	143.39380610000012	145.93527310000013	1.8521310000000994	142.55043560000013	144.92236070000013	149.0047333	0.8433704999999918	1.0129124000000047	1.4560824000000139	147.9915410000001	0.5244324000000233	146.95511650000003	1	1	17	3	go_punish	1	0	-1	1	1	1	1	0.0	0.0	0	0.4195702000001802	0.5244324000000233	650.6746913	792.2163664	793.2251269000001	794.0684974000001	795.5970520000001	796.6099644000001	797.6298078	798.6662323	799.6794246	801.135507	2020-07-07 13:20:31.833863	-0.844826273209225	-0.92996900832542	0.0	-0.92996900832542	-0.844826273209225	0.0	0.844826273209225	-0.92996900832542	0.0	-0.844826273209225	0.0	0.92996900832542	-6.122594177184164	-2.2890621124963553	-0.1743414932863137	-3.6285037684810435	-4.002616443253101	-0.1743414932863137	0.7755813431537045	-5.149776056861792	0.9728181203223761	-3.9140111502479673	1.4506075444652986	1	wrong	1.0
150.40681829999994	8.92301969999994	nogo_punish	1.0	150.5019499	152.96529540000006	155.49708570000007	2.4633455000000595	151.519675	154.47985799999992	158.54248669999993	1.4456204000000525	1.0172277000001486	0.8824829000000136	157.53549270000008	0.5057436000001871	156.50866969999993	1	1	18	4	nogo_punish	1	-1	0	0	0	1	0	0.0	1.0	0	1.0	0.5057436000001871	650.6746913	801.1766412	802.1943663	803.6399867	805.1545492999999	806.171777	807.1833609999999	808.210184	809.2171779999999	810.0996608999999	2020-07-07 13:20:31.833863	-0.612426393334286	0.0	0.0	0.0	0.612426393334286	0.0	0.612426393334286	0.0	0.0	0.0	0.612426393334286	0.0	-5.8901942973092245	-1.3590931041709353	-0.1743414932863137	-2.6985347601556238	-2.545363776709589	-0.1743414932863137	-0.15438766517171543	-4.3049497836525665	1.585244513656662	-2.9840421419225476	1.4506075444652986	1	correct	1.0
159.37142010000002	8.697890899999948	nogo_reward	0.3811772000001383	159.46655170000008	161.3413505000001	163.8906019000001	1.8747988000000078	160.47764389999998	162.86544060000006	166.92889749999995	0.8637066000001141	1.0251613000000361	1.2355451000000812	165.92134520000013	0.5113697000001594	164.89623849999998	1	1	19	2	nogo_reward	0	1	0	0	1	0	0	0.0	1.0	1	0.3811772000001383	0.5113697000001594	650.6746913	810.141243	811.1523351999999	812.0160418	813.5401319	814.5652932	815.5709297999999	816.5960365000001	817.6035887999999	818.8391339	2020-07-07 13:20:31.833863	2.18390338294295	1.51186425670922	1.51186425670922	2.70333017001088	3.69576763965217	1.51186425670922	-2.18390338294295	1.51186425670922	1.51186425670922	3.69576763965217	1.51186425670922	13.29767106143918	-3.093864521031988	0.15277115253828466	1.3375227634229063	0.004795409855256061	0.5379774696082946	1.3375227634229063	13.143283396267465	-0.6091821440003966	2.484682377031596	-1.4721778852133276	2.9624718011745186	1	correct	1.0
168.1088605	8.631917299999941	go_reward	0.4629713000001629	168.20399210000005	170.4265011	172.98342730000013	2.2225089999999454	169.2076727000001	171.9594145000001	176.03089920000002	1.218828399999893	1.0240128000000368	0.8050101999999697	175.02469629999996	0.5337981000000127	173.99583140000004	1	1	20	1	go_reward	1	1	0	1	1	1	0	0.0	1.0	1	0.4629713000001629	0.5337981000000127	650.6746913	818.8786834	819.882364	821.1011924	822.6341058	823.6581186000001	824.6705227	825.6993875999999	826.7055905	827.5106006999999	2020-07-07 13:20:31.833863	8.67927573604919	5.10436731669003	0.0	5.10436731669003	8.67927573604919	0.0	-8.67927573604919	5.10436731669003	0.0	8.67927573604919	0.0	9.705168001458372	3.401507832074252	3.745274212519094	-0.1743414932863137	2.405832556534406	5.521485566005315	-0.1743414932863137	9.550780336286657	4.374325952396624	0.9728181203223761	2.120325174767482	1.4506075444652986	1	correct	1.0
176.7796739999999	9.598225899999989	nogo_punish	1.0	176.87480559999995	179.48881060000008	182.0168831000001	2.614005000000134	177.87971140000013	180.9953207000001	185.06843819999995	1.609099199999946	1.0215623999999934	1.4045932999999877	184.05608499999994	0.5112057000001187	183.0312818	1	1	21	4	nogo_punish	1	-1	0	0	0	1	0	0.0	1.0	0	1.0	0.5112057000001187	650.6746913	827.5494968999999	828.5544027000001	830.1635019	831.670012	832.6915744	833.7059730999999	834.7307762999999	835.7431294999999	837.1477227999999	2020-07-07 13:20:31.833863	-0.612426393334286	0.0	0.0	0.0	0.612426393334286	0.0	0.612426393334286	0.0	0.0	0.0	0.612426393334286	0.0	-5.8901942973092245	-1.3590931041709353	-0.1743414932863137	-2.6985347601556238	-2.545363776709589	-0.1743414932863137	-0.15438766517171543	-4.3049497836525665	1.585244513656662	-2.9840421419225476	1.4506075444652986	1	correct	1.0
186.42023169999993	9.364682399999992	go_reward	0.3069344999998975	186.5153633	188.87760600000001	191.42761990000008	2.3622427000000243	187.52457320000008	190.41019389999997	194.47596320000002	1.3530327999999372	1.017426000000114	1.4040824999999586	193.46386410000014	0.6518813000000137	192.43967780000003	1	1	22	1	go_reward	1	1	0	1	1	1	1	0.0	0.0	1	0.3069344999998975	0.6518813000000137	650.6746913	837.1900545999999	838.1992645	839.5522973	841.0848851999999	842.1023112	843.1143691	844.1385554000001	845.1506545	846.5547369999999	2020-07-07 13:20:31.833863	10.1660654620227	6.04823977456404	0.0	6.04823977456404	10.1660654620227	0.0	-10.1660654620227	6.04823977456404	0.0	10.1660654620227	0.0	8.76129554358436	4.888297558047762	4.689146670393105	-0.1743414932863137	3.3497050144084164	7.008275291978825	-0.1743414932863137	8.606907878412645	5.861115678370134	0.9728181203223761	3.0641976326414926	1.4506075444652986	1	wrong	1.0
195.82914529999994	8.781142199999977	go_punish	0.6434774000001653	195.9242769	197.69814399999996	200.25198769999997	1.7738670999999613	196.93356010000002	199.23922240000002	203.30847399999993	0.7645838999999341	1.0127652999999555	1.396945100000039	202.29478700000004	0.3937803999999687	201.26877519999994	1	1	23	3	go_punish	1	0	-1	1	1	1	0	0.0	1.0	0	0.6434774000001653	0.3937803999999687	650.6746913	846.5989682	847.6082514	848.3728352999999	849.9139137	850.9266789999999	851.9434664999999	852.9694783	853.9831652999999	855.3801103999999	2020-07-07 13:20:31.833863	-0.678452821357972	-0.824713590984983	0.0	-0.824713590984983	-0.678452821357972	0.0	0.678452821357972	-0.824713590984983	0.0	-0.678452821357972	0.0	0.824713590984983	-5.95622072533291	-2.1838066951559183	-0.1743414932863137	-3.523248351140607	-3.836242991401847	-0.1743414932863137	0.6703259258132676	-4.9834026050105384	0.9728181203223761	-3.8087557329075308	1.4506075444652986	1	correct	1.0
204.65319849999992	9.246834400000125	go_reward	0.5688757000000351	204.74833009999998	207.45179469999994	210.00868880000007	2.703464599999961	205.75625919999993	208.9899554000001	213.03242079999995	1.6955355000000054	1.0187333999999737	0.9627437000001464	212.02792780000004	0.5041975999999977	211.01263919999997	1	1	24	1	go_reward	1	1	0	1	1	1	1	0.0	0.0	1	0.5688757000000351	0.5041975999999977	650.6746913	855.4230213999999	856.4309504999999	858.1264859999999	859.6646467	860.6833801	861.6873304999999	862.7026191	863.7071120999999	864.6698558	2020-07-07 13:20:31.833863	11.490284593284	6.88993201602955	0.0	6.88993201602955	11.490284593284	0.0	-11.490284593284	6.88993201602955	0.0	11.490284593284	0.0	7.91960330211885	6.212516689309062	5.5308389118586145	-0.1743414932863137	4.191397255873927	8.332494423240124	-0.1743414932863137	7.765215636947135	7.185334809631434	0.9728181203223761	3.9058898741070025	1.4506075444652986	1	wrong	1.0
213.94077730000004	8.634925100000146	go_punish	0.5253361000000041	214.0359089000001	215.73726869999996	218.27395960000013	1.7013597999998638	215.04410970000004	217.26110110000013	221.31858279999983	0.6931589999999233	1.012858499999993	1.3522512000004099	220.31301469999994	0.7612217000000783	219.29143900000008	1	1	25	3	go_punish	1	0	-1	1	1	1	1	0.0	0.0	0	0.5253361000000041	0.7612217000000783	650.6746913	864.7106002	865.718801	866.4119599999999	867.9357924000001	868.9486509000001	869.9661303	870.9877059999999	871.9932740999998	873.3455253000002	2020-07-07 13:20:31.833863	-0.532737532941276	-0.732424923473132	0.0	-0.732424923473132	-0.532737532941276	0.0	0.532737532941276	-0.732424923473132	0.0	-0.532737532941276	0.0	0.732424923473132	-5.810505436916214	-2.0915180276440672	-0.1743414932863137	-3.430959683628756	-3.6905277029851513	-0.1743414932863137	0.5780372583014166	-4.8376873165938425	0.9728181203223761	-3.7164670653956797	1.4506075444652986	1	wrong	1.0
222.62039590000018	8.15373929999987	go_punish	0.5982435000000805	222.71552750000023	224.05027899999982	226.58208649999983	1.3347514999995838	223.72260070000016	225.57504029999996	229.65751350000005	0.32767829999966125	1.007046199999877	1.2117533000000549	228.64480909999997	0.4843215999999302	227.60534410000014	1	1	26	3	go_punish	1	0	-1	1	1	1	0	0.0	1.0	0	0.5982435000000805	0.4843215999999302	650.6746913	873.3902188000002	874.3972920000001	874.7249702999998	876.2497315999999	877.2567777999998	878.2800354000001	879.3195003999999	880.3322048	881.5439581	2020-07-07 13:20:31.833863	-0.404906265710571	-0.651373749243879	0.0	-0.651373749243879	-0.404906265710571	0.0	0.404906265710571	-0.651373749243879	0.0	-0.404906265710571	0.0	0.651373749243879	-5.68267416968551	-2.0104668534148145	-0.1743414932863137	-3.3499085093995027	-3.562696435754446	-0.1743414932863137	0.4969860840721636	-4.709856049363138	0.9728181203223761	-3.6354158911664265	1.4506075444652986	1	correct	1.0
230.81873259999998	8.332828000000063	go_reward	0.5733100000002196	230.91386420000003	232.28815599999984	234.83640260000016	1.3742917999998099	231.9290698000002	233.8113851999999	237.8939025000002	0.35908619999963776	1.0250174000002517	1.352789699999903	236.88089969999987	0.6320656999996572	235.84971610000025	1	1	27	1	go_reward	1	1	0	1	1	1	0	1.0	0.0	1	0.5733100000002196	0.6320656999996572	650.6746913	881.5885555	882.6037611000002	882.9628472999998	884.4860764999999	885.5110939000001	886.5244074000002	887.5555909999998	888.5685938000001	889.9213835	2020-07-07 13:20:31.833863	12.6711855009827	7.64143704596028	0.0	7.64143704596028	12.6711855009827	0.0	-12.6711855009827	7.64143704596028	0.0	12.6711855009827	0.0	7.168098272188121	7.393417597007762	6.282343941789344	-0.1743414932863137	4.9429022858046565	9.513395330938824	-0.1743414932863137	7.013710607016405	8.366235717330134	0.9728181203223761	4.657394904037732	1.4506075444652986	1	wrong	1.0
239.19802049999976	7.825094100000115	go_punish	0.5504493999997067	239.29315209999982	240.68922369999996	243.22958529999983	1.3960716000001412	240.2976153000002	242.2074629000001	246.27943449999998	0.39160839999976815	1.0221223999997164	0.8388116999999511	245.27540550000026	0.5996538999997938	244.24600459999988	1	1	28	3	go_punish	1	0	-1	1	1	1	1	1.0	1.0	0	0.5504493999997067	0.5996538999997938	650.6746913	889.9678433999998	890.9723066000001	891.3639149999999	892.8821542000001	893.9042765999998	894.9206958999998	895.9500968000002	896.9541257999999	897.7929374999999	2020-07-07 13:20:31.833863	-0.292588221592557	-0.580080781012634	0.0	-0.580080781012634	-0.292588221592557	0.0	0.292588221592557	-0.580080781012634	0.0	-0.292588221592557	0.0	0.580080781012634	-5.570356125567495	-1.9391738851835694	-0.1743414932863137	-3.278615541168258	-3.4503783916364323	-0.1743414932863137	0.4256931158409186	-4.597538005245124	0.9728181203223761	-3.564122922935182	1.4506075444652986	1	correct	1.0
247.05993269999976	8.147510100000204	nogo_punish	1.0	247.15506429999982	248.94968780000022	251.46106210000005	1.794623500000398	248.166297	250.44651050000004	254.52808960000004	0.7833908000002339	1.0145516000000043	0.774484799999982	253.51561359999982	0.4827015000000756	252.47795400000007	1	1	29	4	nogo_punish	1	-1	0	0	0	1	0	0.0	1.0	0	1.0	0.4827015000000756	650.6746913	897.8297555999998	898.8409882999999	899.6243791000002	901.1212018	902.1357534	903.1526453	904.1903048999998	905.2027809	905.9772657	2020-07-07 13:20:31.833863	-0.612426393334286	0.0	0.0	0.0	0.612426393334286	0.0	0.612426393334286	0.0	0.0	0.0	0.612426393334286	0.0	-5.8901942973092245	-1.3590931041709353	-0.1743414932863137	-2.6985347601556238	-2.545363776709589	-0.1743414932863137	-0.15438766517171543	-4.3049497836525665	1.585244513656662	-2.9840421419225476	1.4506075444652986	1	correct	1.0
255.2569563999998	9.571673400000236	go_punish	0.3568390000000363	255.35208799999987	258.09487090000005	260.65526740000007	2.7427829000001793	256.3442252000002	259.63480620000007	263.7076415	1.7506456999998363	1.0204611999999997	1.2161199000000806	262.6945041	0.7211361999998189	261.6654329999999	1	1	30	3	go_punish	1	0	-1	1	1	1	1	0.0	0.0	0	0.3568390000000363	0.7211361999998189	650.6746913	906.0267792999998	907.0189165000002	908.7695622	910.3094975	911.3299587	912.3401242999998	913.3691954	914.3823328	915.5984527	2020-07-07 13:20:31.833863	-0.19375202265598	-0.517277258673969	0.0	-0.517277258673969	-0.19375202265598	0.0	0.19375202265598	-0.517277258673969	0.0	-0.19375202265598	0.0	0.517277258673969	-5.4715199266309185	-1.8763703628449044	-0.1743414932863137	-3.2158120188295927	-3.3515421926998554	-0.1743414932863137	0.3628895935022536	-4.498701806308547	0.9728181203223761	-3.5013194005965165	1.4506075444652986	1	wrong	1.0
264.87808770000015	8.232437599999685	nogo_reward	0.4128940000000511	264.9732193000002	266.4007147000001	268.9457122	1.4274953999998843	265.97439410000004	267.9335482	271.9937462999999	0.4263206000000537	1.0121639999999843	1.2119106000000102	270.9870824000001	0.7428181000000222	269.96384139999986	1	1	31	2	nogo_reward	1	0	1	0	1	0	0	1.0	0.0	0	0.4128940000000511	0.7428181000000222	650.6746913	915.6479106000002	916.6490854	917.075406	918.6082395	919.6204035	920.6385326999998	921.6617737	922.6684375999998	923.8803481999998	2020-07-07 13:20:31.833863	4.22618180804579	2.85311147825503	1.51186425670922	3.91290140338837	5.73804606475501	1.51186425670922	-4.22618180804579	2.85311147825503	1.51186425670922	5.73804606475501	1.51186425670922	-2.85311147825503	-1.0515860959291485	1.4940183740840947	1.3375227634229063	1.2143666432327462	2.5802558947111347	1.3375227634229063	-3.0074991434267453	1.4330962811024435	2.484682377031596	-0.1309306636675176	2.9624718011745186	1	wrong	1.0
273.1594678	8.951594699999987	nogo_reward	0.7365817999998399	273.2545994000001	275.5900659	278.1531661	2.3354664999999386	274.2564731	277.133148	281.2142357	1.3335928000000195	1.0200181000000157	0.9919584000000441	280.20089670000004	0.7115957999999409	279.1731766999999	1	1	32	2	nogo_reward	1	0	1	0	1	0	0	1.0	0.0	0	0.7365817999998399	0.7115957999999409	650.6746913	923.9292907	924.9311644	926.2647572	927.8078393	928.8278574	929.8478679999998	930.875588	931.888927	932.8808854	2020-07-07 13:20:31.833863	3.64552370795403	2.53271313484748	1.51186425670922	3.47658559272149	5.15738796466325	1.51186425670922	-3.64552370795403	2.53271313484748	1.51186425670922	5.15738796466325	1.51186425670922	-2.53271313484748	-1.6322441960209084	1.1736200306765447	1.3375227634229063	0.7780508325658664	1.9995977946193744	1.3375227634229063	-2.6871008000191954	0.8524381810106831	2.484682377031596	-0.4513290070750675	2.9624718011745186	1	wrong	1.0
282.1551634	9.07096249999995	nogo_punish	0.6553788000001077	282.25029500000005	284.2433844999998	286.80293689999985	1.993089499999769	283.2592392	285.78585009999983	289.85102740000025	0.9841452999997955	1.0170868000000155	1.4702300999997533	288.84239660000026	0.8697971999999936	287.81584780000026	1	1	33	4	nogo_punish	1	-1	0	0	1	0	0	0.0	1.0	-1	0.6553788000001077	0.8697971999999936	650.6746913	932.9249863	933.9339305	934.9180757999998	936.4605413999998	937.4776281999998	938.4905391000002	939.5170879000002	940.5257187000002	941.9959488	2020-07-07 13:20:31.833863	0.612426393334286	0.0	0.0	0.0	0.612426393334286	0.0	-0.612426393334286	0.0	0.0	0.612426393334286	0.0	-9.08052513357696	-4.665341510640652	-1.3590931041709353	-0.1743414932863137	-2.6985347601556238	-2.545363776709589	-0.1743414932863137	-9.234912798748676	-3.6925233903182804	0.9728181203223761	-2.9840421419225476	1.4506075444652986	1	correct	1.0
291.2779859999998	9.538973100000135	nogo_punish	1.0	291.3731175999999	293.84403469999984	296.3837113000001	2.4709170999999515	292.3797562000002	295.36124300000006	299.43318940000006	1.4642784999996366	1.022468300000014	1.4789012999999613	298.42851529999984	0.5433136999999988	297.4074263	1	1	34	4	nogo_punish	1	-1	0	0	0	1	0	0.0	1.0	0	1.0	0.5433136999999988	650.6746913	942.0478088999998	943.0544475000002	944.5187259999998	946.0359343	947.0584026	948.0821176	949.1032065999998	950.1078807	951.586782	2020-07-07 13:20:31.833863	0.844826273209225	-0.92996900832542	0.0	-0.92996900832542	-0.844826273209225	0.0	-0.844826273209225	0.0	-0.92996900832542	0.0	-0.844826273209225	0.0	-4.432941630765713	-2.2890621124963553	-0.1743414932863137	-3.6285037684810435	-4.002616443253101	-0.1743414932863137	-0.15438766517171543	-4.3049497836525665	0.12799184711315115	-2.9840421419225476	0.5206385361398786	1	correct	1.0
300.85912210000004	8.574004599999967	go_punish	0.3718278000001191	300.9542537000001	302.43015560000026	304.9911838999999	1.4759019000001672	301.9552919999999	303.97030110000003	308.0361341	0.47486360000038985	1.0208827999998675	1.4921242000000348	307.02252440000007	0.5875194999998712	306.00625780000007	1	1	35	3	go_punish	1	0	-1	1	1	1	0	0.0	1.0	0	0.3718278000001191	0.5875194999998712	650.6746913	951.628945	952.6299832999998	953.1048469000002	954.6449924	955.6658751999998	956.6809491	957.6972157	958.7108254	960.2029496	2020-07-07 13:20:31.833863	-0.106652951074883	-0.461872377107098	0.0	-0.461872377107098	-0.106652951074883	0.0	0.106652951074883	-0.461872377107098	0.0	-0.106652951074883	0.0	0.461872377107098	-5.384420855049822	-1.8209654812780334	-0.1743414932863137	-3.160407137262722	-3.264443121118758	-0.1743414932863137	0.30748471193538257	-4.41160273472745	0.9728181203223761	-3.4459145190296456	1.4506075444652986	1	correct	1.0
309.4759883999998	8.993326100000218	go_reward	0.3583579999999529	309.57111999999984	311.61634720000006	314.1677545	2.0452272000002267	310.57586389999983	313.14679390000003	317.21076000000005	1.0404833000002327	1.0209605999999667	1.3536861000000044	316.1987271999999	0.7155665000000226	315.17722390000006	1	1	36	1	go_reward	0	0	1	1	1	1	0	0.0	1.0	0	0.3583579999999529	0.7155665000000226	650.6746913	960.2458112999998	961.2505551999998	962.2910385	963.8214852	964.8424458	965.8519152	966.8734184999998	967.8854513	969.2391374	2020-07-07 13:20:31.833863	13.7255809147088	8.31323997513463	0.0	8.31323997513463	13.7255809147088	0.0	-13.7255809147088	8.31323997513463	0.0	13.7255809147088	0.0	-8.31323997513463	8.447813010733862	6.954146870963695	-0.1743414932863137	5.614705214979006	10.567790744664926	-0.1743414932863137	-8.467627640306345	9.420631131056233	0.9728181203223761	5.329197833212083	1.4506075444652986	1	correct	1.0
318.5108543	9.389478099999792	nogo_punish	1.0	318.60598590000006	321.4594187	323.9921796000001	2.8534327999999505	319.61736300000007	322.9718288	327.0480848999998	1.8420556999999462	1.0203508000000738	0.9473791000000347	326.04763990000004	0.6355015999997704	325.0102461	1	1	37	4	nogo_punish	1	-1	0	0	0	1	0	0.0	1.0	0	1.0	0.6355015999997704	650.6746913	969.2806772	970.2920543	972.13411	973.6465201	974.6668709	975.6849374	976.7223312	977.7227761999998	978.6701552999998	2020-07-07 13:20:31.833863	0.783708238698409	-0.92996900832542	0.0	-0.824713590984983	-0.783708238698409	0.0	-0.783708238698409	0.0	-0.92996900832542	0.0	-0.783708238698409	0.0	-4.494059665276529	-2.2890621124963553	-0.1743414932863137	-3.523248351140607	-3.941498408742284	-0.1743414932863137	-0.15438766517171543	-4.3049497836525665	0.18910988162396714	-2.9840421419225476	0.5206385361398786	1	correct	1.0
327.94592069999976	8.380721100000187	nogo_reward	0.4409783000000971	328.0410522999998	329.6075459000001	332.1701019999998	1.5664936000002854	329.0460360000001	331.1473926000001	335.2252847000002	0.5615099000000328	1.0227093999997123	1.1964886999998043	334.20870279999986	0.9993325000000368	333.1832701000001	1	1	38	2	nogo_reward	1	0	1	0	1	0	0	0.0	1.0	0	0.4409783000000971	0.9993325000000368	650.6746913	978.7157435999998	979.7207273	980.2822372	981.8220839	982.8447932999998	983.8579614	984.8833940999998	985.8999760000002	987.0964647	2020-07-07 13:20:31.833863	3.13596639860849	2.251255838435	1.51186425670922	3.09294807990051	4.64783065531771	1.51186425670922	-3.13596639860849	2.251255838435	1.51186425670922	4.64783065531771	1.51186425670922	-2.251255838435	-2.1418015053664483	0.8921627342640648	1.3375227634229063	0.39441331974488625	1.490040485273835	1.3375227634229063	-2.4056435036067154	0.3428808716651437	2.484682377031596	-0.7327863034875475	2.9624718011745186	1	correct	1.0
336.38625809999996	7.879503399999976	go_punish	1.0	336.4813897	337.82372840000005	340.35952310000005	1.3423387000000275	337.4966054	339.33380640000007	343.40584190000004	0.3271230000000287	1.0257166999999754	0.9550511999999571	342.3912650999998	0.5806005999997979	341.3741102	1	1	39	3	go_punish	1	0	-1	1	0	0	0	0.0	1.0	-1	1.0	0.5806005999997979	650.6746913	987.156081	988.1712967	988.4984197	990.0084977	991.0342144	992.0488015	993.0659563999998	994.0805332	995.0355844	2020-07-07 13:20:31.833863	0.0297891804133403	-0.412926247857175	0.0	-0.412926247857175	-0.0297891804133403	0.0	-0.0297891804133403	0.0	-0.412926247857175	0.0	-0.0297891804133403	-9.08052513357696	-5.247978723561598	-1.7720193520281105	-0.1743414932863137	-3.1114610080127987	-3.1875793504572156	-0.1743414932863137	-9.234912798748676	-4.3049497836525665	0.9430289399090358	-2.9840421419225476	1.0376812966081235	1	correct	1.0
344.3129431	8.95215010000004	go_punish	0.7699976999997489	344.40807470000004	346.83677980000004	349.37757640000007	2.428705100000002	345.40658880000024	348.3598774000001	352.42832450000003	1.4301909999998088	1.0176989999999932	0.9319003000000521	351.42467640000007	0.4549767000003157	350.3878346	1	1	40	3	go_punish	1	0	-1	1	1	1	0	0.0	1.0	0	0.7699976999997489	0.4549767000003157	650.6746913	995.082766	996.0812801000002	997.5114711	999.0345687	1000.0522677	1001.0625259	1002.0993677	1003.1030158	1004.0349161	2020-07-07 13:20:31.833863	0.397521153301979	-0.412926247857175	-0.92996900832542	-1.29959635858838	-0.532447855023441	-0.92996900832542	-0.397521153301979	-0.412926247857175	-0.92996900832542	-0.532447855023441	-0.92996900832542	0.412926247857175	-4.880246750672959	-1.7720193520281105	-1.1043105016117336	-3.998131118744004	-3.690238025067316	-1.1043105016117336	0.2585385826854596	-4.837397638676007	0.04284911199695618	-3.3969683897797225	0.5206385361398786	1	correct	1.0
353.3072378999998	8.495470600000203	nogo_punish	1.0	353.40236949999985	354.84673780000026	357.3605587999998	1.4443683000004057	354.41820170000005	356.3473597999998	360.42062350000003	0.42853610000020126	1.013198999999986	1.4772166000000198	359.4102988000001	0.5745488999996269	358.3812621999998	1	1	41	4	nogo_punish	1	-1	0	0	0	1	0	0.0	1.0	0	1.0	0.5745488999996269	650.6746913	1004.0770607999998	1005.092893	1005.5214291000002	1007.0220510999998	1008.0352500999998	1009.0559534999998	1010.0849901	1011.0953148	1012.5725314	2020-07-07 13:20:31.833863	0.730281617793564	-0.92996900832542	0.0	-0.732424923473132	-0.730281617793564	0.0	-0.730281617793564	0.0	-0.92996900832542	0.0	-0.730281617793564	0.0	-4.547486286181375	-2.2890621124963553	-0.1743414932863137	-3.430959683628756	-3.8880717878374393	-0.1743414932863137	-0.15438766517171543	-4.3049497836525665	0.2425365025288121	-2.9840421419225476	0.5206385361398786	1	correct	1.0
361.8562169999998	8.357298500000184	go_punish	0.3741127000002961	361.95134859999985	363.45557829999984	366.0070767000001	1.5042296999999962	362.95652529999984	364.98833020000006	369.0552094000001	0.4990530000000035	1.0187465000000202	1.2534376999999495	368.05166540000005	0.5708956999997099	367.0299140999998	1	1	42	3	go_punish	1	0	-1	1	1	1	1	1.0	1.0	0	0.3741127000002961	0.5708956999997099	650.6746913	1012.6260398999998	1013.6312165999998	1014.1302695999998	1015.6630215	1016.681768	1017.7046053999998	1018.7263567	1019.7299007	1020.9833384	2020-07-07 13:20:31.833863	0.52368789607224	-0.369627350262959	-0.92996900832542	-1.15598723920331	-0.40628111225318	-0.92996900832542	-0.52368789607224	-0.369627350262959	-0.92996900832542	-0.40628111225318	-0.92996900832542	0.369627350262959	-4.754080007902698	-1.7287204544338943	-1.1043105016117336	-3.8545219993589335	-3.5640712822970553	-1.1043105016117336	0.21523968509124358	-4.7112308959057465	0.04284911199695618	-3.3536694921855066	0.5206385361398786	1	correct	1.0
370.25740940000003	8.10688400000015	nogo_punish	1.0	370.3525410000001	371.7225654	374.25133100000016	1.3700243999999202	371.35729200000003	373.2305863	377.3041016999998	0.3652733999999782	1.0207447000001366	1.1553233000004184	376.296912	0.8553087999998752	375.26854130000015	1	1	43	4	nogo_punish	1	-1	0	0	0	1	1	1.0	1.0	0	1.0	0.8553087999998752	650.6746913	1021.0272323	1022.0319833	1022.3972567	1023.9052776	1024.9260223	1025.9432326	1026.9716033	1027.9787929999998	1029.1341163000002	2020-07-07 13:20:31.833863	0.683501524792111	-0.92996900832542	0.0	-0.651373749243879	-0.683501524792111	0.0	-0.683501524792111	0.0	-0.92996900832542	0.0	-0.683501524792111	0.0	-4.5942663791828275	-2.2890621124963553	-0.1743414932863137	-3.3499085093995027	-3.841291694835986	-0.1743414932863137	-0.15438766517171543	-4.3049497836525665	0.2893165955302651	-2.9840421419225476	0.5206385361398786	1	correct	1.0
378.4050080999998	8.729118100000278	nogo_punish	1.0	378.50013969999986	380.3288633999998	382.8502860000001	1.828723699999955	379.5101668	381.8385737000001	385.9099966000001	0.8186965999998392	1.0117122999999992	1.3192612000000281	384.8968685000002	0.4563482999997177	383.86845540000013	1	1	44	4	nogo_punish	1	-1	0	0	0	1	0	0.0	1.0	0	1.0	0.4563482999997177	650.6746913	1029.1748309999998	1030.1848581	1031.0035546999998	1032.513265	1033.5249773	1034.5431467	1035.5715598000002	1036.5846879	1037.9039491	2020-07-07 13:20:31.833863	0.642476448905344	-0.92996900832542	0.0	-0.580080781012634	-0.642476448905344	0.0	-0.642476448905344	0.0	-0.92996900832542	0.0	-0.642476448905344	0.0	-4.635291455069594	-2.2890621124963553	-0.1743414932863137	-3.278615541168258	-3.8002666189492196	-0.1743414932863137	-0.15438766517171543	-4.3049497836525665	0.3303416714170321	-2.9840421419225476	0.5206385361398786	1	correct	1.0
387.18028059999983	8.89477930000021	go_punish	1.0	387.2754121999999	389.11610210000003	391.65675839999994	1.840689900000143	388.2726977	390.6314995	394.7085924999999	0.843404400000054	1.0252588999999261	1.4615990000002057	393.6951437	0.778434599999855	392.66724050000016	1	1	45	3	go_punish	1	0	-1	1	0	0	0	0.0	1.0	-1	1.0	0.778434599999855	650.6746913	1037.9501034999998	1038.947389	1039.7907934	1041.3061908	1042.3314497	1043.3419318	1044.369835	1045.3832837999998	1046.8448828	2020-07-07 13:20:31.833863	-0.634703701511365	-0.331273648218328	-0.92996900832542	-1.02968164081548	-0.295265306814055	-0.92996900832542	0.634703701511365	-0.92996900832542	-0.331273648218328	-0.92996900832542	-0.295265306814055	-8.15055612525154	-5.912471605486303	-1.6903667523892634	-1.1043105016117336	-3.728216400971104	-3.4530554768579305	-1.1043105016117336	-8.304943790423255	-5.234918791977987	0.6775528135083211	-3.9140111502479673	1.1193338962469705	1	correct	1.0
396.1224302999999	8.077876600000081	go_punish	1.0	396.21756189999996	397.80512920000024	400.3412426000002	1.5875673000002735	397.22956439999984	399.31627589999994	403.38385600000015	0.575564800000393	1.0249667000002773	0.9115824999998949	402.36594279999986	1.0	401.35396489999994	1	1	46	3	go_punish	1	0	-1	1	0	0	0	n/a	0.0	-1	1.0	1.0	650.6746913	1046.8922532	1047.9042556999998	1048.4798205000002	1049.9909672	1051.0159339000002	1052.0286562	1053.0406340999998	1054.0585473	1054.9701298	2020-07-07 13:20:31.833863	-0.995947305980884	-0.331273648218328	-1.7546825993104	-1.84839111497435	-0.758735293329519	-1.7546825993104	0.995947305980884	-1.7546825993104	-0.331273648218328	-1.7546825993104	-0.758735293329519	-7.3258425342665605	-6.273715209955823	-1.6903667523892634	-1.9290240925967137	-4.546925875129974	-3.9165254633733944	-1.9290240925967137	-7.480230199438276	-6.059632382962967	0.2140828269928572	-4.738724741232947	1.1193338962469705	1	missed	0.0
404.24280410000006	8.002934099999948	nogo_reward	0.6207696999999825	404.3379357000001	405.69902979999983	408.2479743000001	1.3610940999997183	405.34044210000025	407.23112030000016	411.30005510000024	0.35858769999958895	1.0168539999999666	1.040814699999828	410.29017869999984	0.8074283999999352	409.25840919999996	1	1	47	2	nogo_reward	0	1	0	0	1	0	0	0.0	1.0	1	0.6207696999999825	0.8074283999999352	650.6746913	1055.012627	1056.0151334000002	1056.3737210999998	1057.9058116	1058.9226656	1059.9331005	1060.9648699999998	1061.9747464000002	1063.0155611	2020-07-07 13:20:31.833863	2.68818536639327	2.00366238300734	1.51186425670922	2.75516741293807	4.20004962310249	1.51186425670922	-2.68818536639327	2.00366238300734	1.51186425670922	4.20004962310249	1.51186425670922	12.80587293514106	-2.589582537581668	0.6445692788364046	1.3375227634229063	0.056632652782446335	1.0422594530586151	1.3375227634229063	12.651485269969346	-0.10490016055007612	2.484682377031596	-0.9803797589152077	2.9624718011745186	1	correct	1.0
412.2871201999999	9.021179700000175	go_punish	1.0	412.38225179999995	414.57520750000026	417.1199015999998	2.1929557000003115	413.3995416	416.0921688000001	420.15931450000016	1.17566590000024	1.0277327999997397	1.2441169999999602	419.1513613999998	0.6506734000004144	418.1232453	1	1	48	3	go_punish	1	0	-1	1	0	0	1	1.0	1.0	-1	1.0	0.6506734000004144	650.6746913	1063.0569431	1064.0742329	1065.2498988000002	1066.7668601	1067.7945928999998	1068.7979366	1069.8260526999998	1070.8340058	1072.0781228	2020-07-07 13:20:31.833863	-1.31833429977852	-0.331273648218328	-2.48710752278353	-2.57495264646255	-1.16877322300501	-2.48710752278353	1.31833429977852	-2.48710752278353	-0.331273648218328	-2.48710752278353	-1.16877322300501	-6.593417610793431	-6.596102203753459	-1.6903667523892634	-2.661449016069844	-5.273487406618173	-4.326563393048885	-2.661449016069844	-6.747805275965146	-6.792057306436097	-0.19595510268263394	-5.471149664706077	1.1193338962469705	1	correct	1.0
421.3490503999999	7.806737599999906	nogo_punish	1.0	421.44418199999996	422.9296568000002	425.4539576999998	1.4854748000002473	422.45412699999997	424.44712219999997	428.48397650000015	0.47552980000023126	1.006835499999852	0.7669430999997076	427.47958889999995	0.6629674000000705	426.4657522	1	1	49	4	nogo_punish	1	-1	0	0	0	1	0	0.0	1.0	0	1.0	0.6629674000000705	650.6746913	1072.1188733	1073.1288183	1073.6043481000002	1075.1218135	1076.1286489999998	1077.1404435	1078.1542802	1079.1586678	1079.9256108999998	2020-07-07 13:20:31.833863	0.606443772307432	-0.92996900832542	0.0	-0.517277258673969	-0.606443772307432	0.0	-0.606443772307432	0.0	-0.92996900832542	0.0	-0.606443772307432	0.0	-4.6713241316675065	-2.2890621124963553	-0.1743414932863137	-3.2158120188295927	-3.764233942351307	-0.1743414932863137	-0.15438766517171543	-4.3049497836525665	0.3663743480149442	-2.9840421419225476	0.5206385361398786	1	correct	1.0
429.197175	8.740939399999888	go_reward	0.3399466000000757	429.2923066000001	431.0858727000002	433.6358017	1.7935661000001346	430.29296469999986	432.6191176	436.68745920000015	0.7929080000003523	1.0166841000000204	1.3457867999998143	435.67924819999985	0.5250238000003264	434.6498647000001	1	1	50	1	go_reward	1	1	0	1	1	1	0	0.0	1.0	1	0.3399466000000757	0.5250238000003264	650.6746913	1079.9669979	1080.9676559999998	1081.7605640000002	1083.2938089	1084.310493	1085.324556	1086.3539394999998	1087.3621505	1088.7079373	2020-07-07 13:20:31.833863	12.2748057159028	7.40265588820658	0.0	7.40265588820658	12.2748057159028	0.0	-12.2748057159028	7.40265588820658	0.0	12.2748057159028	0.0	7.406879429941821	6.9970378119278624	6.043562784035644	-0.1743414932863137	4.704121128050955	9.117015545858926	-0.1743414932863137	7.252491764770105	7.969855932250234	0.9728181203223761	4.4186137462840325	1.4506075444652986	1	correct	1.0
437.9775258000002	8.081580499999745	nogo_reward	0.5131032999997842	438.07265740000025	439.65075520000005	442.20398550000004	1.5780977999997958	439.0848589	441.17755969999985	445.2489624000002	0.5658963000000767	1.0264258000001973	0.9052754999997887	444.2341957000001	0.6063436999997975	443.20546319999994	1	1	51	2	nogo_reward	0	1	0	0	1	0	0	0.0	1.0	1	0.5131032999997842	0.6063436999997975	650.6746913	1088.7473487000002	1089.7595502	1090.3254465	1091.8522509999998	1092.8786768	1093.8801545	1094.908887	1095.9236537000002	1096.8289292	2020-07-07 13:20:31.833863	4.68753089187037	3.29742895604874	1.51186425670922	3.9692318852231	6.19939514857959	1.51186425670922	-4.68753089187037	3.29742895604874	1.51186425670922	6.19939514857959	1.51186425670922	11.51210636209966	-0.5902370121045681	1.9383358518778049	1.3375227634229063	1.2706971250674761	3.041604978535715	1.3375227634229063	11.357718696927945	1.8944453649270239	2.484682377031596	0.3133868141261926	2.9624718011745186	1	correct	1.0
446.1076831999999	9.544139200000018	go_punish	0.3308891000001495	446.20281479999994	448.74606400000016	451.31052269999986	2.5432492000002185	447.19822079999994	450.2886125000002	454.36333790000003	1.5478432000002158	1.0219101999996383	1.3836160999999265	453.35079599999995	0.4939002999999502	452.3269114	1	1	52	3	go_punish	1	0	-1	1	1	1	0	0.0	1.0	0	0.3308891000001495	0.4939002999999502	650.6746913	1096.8775061	1097.8729121	1099.4207553	1100.9633038000002	1101.9852139999998	1103.0016027	1104.0254873	1105.0380292	1106.4216453	2020-07-07 13:20:31.833863	1.60640871685405	-0.331273648218328	-3.13848127202741	-3.22066421158241	-1.53207255517336	-3.13848127202741	-1.60640871685405	-0.331273648218328	-3.13848127202741	-1.53207255517336	-3.13848127202741	0.331273648218328	-3.6713591871208884	-1.6903667523892634	-3.3128227653137237	-5.919198971738034	-4.689862725217235	-3.3128227653137237	0.17688598304661257	-5.837022338825927	-2.1656631517050338	-3.3153157901408754	-1.6878737275621114	1	correct	1.0
455.7016212000001	8.14911069999971	nogo_reward	0.362331499999982	455.79675280000015	457.54748770000015	460.1038710999999	1.7507348999999977	456.81203010000013	459.0832604	463.17091440000013	0.7354576000000179	1.0206106999999065	0.7749490999997306	462.15784259999987	0.6734851999999591	461.12133770000014	1	1	53	2	nogo_reward	1	0	1	0	1	0	1	1.0	1.0	0	0.362331499999982	0.6734851999999591	650.6746913	1106.4714441	1107.4867214	1108.222179	1109.7579517	1110.7785623999998	1111.796029	1112.8325338999998	1113.8456057	1114.6205547999998	2020-07-07 13:20:31.833863	6.46096619098393	4.44630874965127	1.51186425670922	5.04758891943243	7.97283044769315	1.51186425670922	-6.46096619098393	4.44630874965127	1.51186425670922	7.97283044769315	1.51186425670922	-4.44630874965127	1.1831982870089917	3.0872156454803346	1.3375227634229063	2.349054159276806	4.815040277649275	1.3375227634229063	-4.600696414822986	3.6678806640405837	2.484682377031596	1.4622666077287225	2.9624718011745186	1	correct	1.0
463.8920836	9.340894599999956	nogo_reward	0.500321200000144	463.98721520000004	466.75082740000016	469.31053199999997	2.763612200000125	464.9849934000001	468.29011949999995	472.37399370000026	1.7658340000000408	1.0204125000000204	0.9541160999997373	471.36013260000004	0.727398699999867	470.3334265000001	1	1	54	2	nogo_reward	1	0	1	0	1	0	0	0.0	1.0	0	0.500321200000144	0.727398699999867	650.6746913	1114.6619065	1115.6596847	1117.4255187	1118.9648108	1119.9852233	1121.0081178	1122.0348239	1123.0486850000002	1124.0028011	2020-07-07 13:20:31.833863	5.64276131397899	3.95602109395256	1.51186425670922	4.49482530390344	7.1546255706882	1.51186425670922	-5.64276131397899	3.95602109395256	1.51186425670922	7.1546255706882	1.51186425670922	-3.95602109395256	0.3649934100040513	2.5969279897816246	1.3375227634229063	1.796290543747816	3.9968354006443247	1.3375227634229063	-4.110408759124276	2.8496757870356335	2.484682377031596	0.9719789520300126	2.9624718011745186	1	correct	1.0
473.2783609999999	8.222590899999886	nogo_reward	0.8847305999997843	473.37349259999996	474.87806479999995	477.4483026999999	1.5045721999999842	474.37881430000016	476.41907030000016	480.49655359999997	0.4992504999997891	1.029232399999728	1.0995298999998795	479.4855077999998	0.6351457999999184	478.44873200000006	1	1	55	2	nogo_reward	0	1	0	0	1	0	1	1.0	1.0	1	0.8847305999997843	0.6351457999999184	650.6746913	1124.0481839	1125.0535056	1125.5527561	1127.0937616	1128.1229939999998	1129.1234233	1130.1601990999998	1131.1712449	1132.2707747999998	2020-07-07 13:20:31.833863	4.92305622723735	3.52433893739052	1.51186425670922	4.00773020417291	6.43492048394656	1.51186425670922	-4.92305622723735	3.52433893739052	1.51186425670922	6.43492048394656	1.51186425670922	11.285196380757881	-0.35471167673758863	2.1652458332195845	1.3375227634229063	1.3091954440172864	3.277130313902685	1.3375227634229063	11.130808715586166	2.1299707002939936	2.484682377031596	0.5402967954679725	2.9624718011745186	1	correct	1.0
481.5432134	8.187591399999746	nogo_reward	0.4690425999997387	481.6383450000001	483.3098570999998	485.8621875000001	1.6715120999997453	482.6477215000002	484.8418156	488.92665980000015	0.6621355999996013	1.0203719000001001	0.8992765999996664	487.9208301000001	0.442210900000191	486.89570619999995	1	1	56	2	nogo_reward	1	0	1	0	1	0	1	1.0	1.0	0	0.4690425999997387	0.442210900000191	650.6746913	1132.3130363	1133.3224128000002	1133.9845483999998	1135.5165069	1136.5368788	1137.5703975	1138.5955214	1139.6013511	1140.5006276999998	2020-07-07 13:20:31.833863	6.68251251151919	4.6556110194486	1.51186425670922	5.08979656131766	8.19437676822841	1.51186425670922	-6.68251251151919	4.6556110194486	1.51186425670922	8.19437676822841	1.51186425670922	-4.6556110194486	1.4047446075442513	3.296517915277664	1.3375227634229063	2.391261801162036	5.0365865981845355	1.3375227634229063	-4.809998684620315	3.8894269845758442	2.484682377031596	1.671568877526052	2.9624718011745186	1	correct	1.0
489.77501700000016	9.010783100000026	nogo_reward	0.5551163000000088	489.8701486000002	492.39067039999986	494.9371884999998	2.520521799999642	490.87678670000014	493.9243319999998	497.9911327000002	1.5138836999997238	1.012856499999998	0.8897990000000391	496.98401490000015	0.5262521999998171	495.9557232999998	1	1	57	2	nogo_reward	1	0	1	0	1	0	1	1.0	1.0	0	0.5551163000000088	0.5262521999998171	650.6746913	1140.5448399000002	1141.551478	1143.0653616999998	1144.5990232999998	1145.6118797999998	1146.6304145999998	1147.6587062	1148.6658240000002	1149.5556230000002	2020-07-07 13:20:31.833863	5.85067751027958	4.1490073976186	1.51186425670922	4.53944893791444	7.3625417669888	1.51186425670922	-5.85067751027958	4.1490073976186	1.51186425670922	7.3625417669888	1.51186425670922	-4.1490073976186	0.5729096063046413	2.789914293447665	1.3375227634229063	1.8409141777588158	4.2047515969449245	1.3375227634229063	-4.303395062790316	3.0575919833362333	2.484682377031596	1.1649652556960528	2.9624718011745186	1	correct	1.0
498.8310535999999	9.389059100000168	go_punish	0.4060718999999153	498.92618519999996	501.21387260000006	503.77515970000013	2.2876874000000953	499.9318525000001	502.75934829999983	506.83367080000016	1.2820200999999543	1.0158114000003025	1.4815734999999677	505.82184240000015	0.5457751000003555	504.78906919999986	1	1	58	3	go_punish	0	-1	0	1	1	1	0	0.0	1.0	-1	0.4060718999999153	0.5457751000003555	650.6746913	1149.6008765	1150.6065438	1151.8885639	1153.4340395999998	1154.449851	1155.4637604999998	1156.4965337	1157.5083621	1158.9899356	2020-07-07 13:20:31.833863	1.84536067128353	-0.297256717342345	-3.13848127202741	-2.86535459223061	-1.29312060074389	-3.13848127202741	-1.84536067128353	-0.297256717342345	-3.13848127202741	-1.29312060074389	-3.13848127202741	-8.783268416234616	-3.4324072326914083	-1.6563498215132804	-3.3128227653137237	-5.563889352386234	-4.4509107707877655	-3.3128227653137237	-8.937656081406331	-5.598070384396457	-2.1656631517050338	-3.2812988592648926	-1.6878737275621114	1	correct	1.0
508.2677397	8.920734399999901	go_punish	0.4666580000002795	508.36287130000005	510.27030379999997	512.8340390000001	1.9074324999999135	509.36513000000014	511.8099015	515.8842870999999	0.9051737999998295	1.0241375000000517	1.399318600000015	514.8732262000001	0.8568042000001697	513.8492290000002	1	1	59	3	go_punish	0	-1	0	1	1	1	0	0.0	1.0	-1	0.4666580000002795	0.8568042000001697	650.6746913	1159.0375626	1160.0398213	1160.9449951	1162.4845928	1163.5087303	1164.5239203	1165.5479175	1166.5589784	1167.958297	2020-07-07 13:20:31.833863	0.598069307137857	-1.19701736573047	-3.13848127202741	-3.4827307888123	-2.54041196488956	-3.13848127202741	-0.598069307137857	-1.19701736573047	-3.13848127202741	-2.54041196488956	-3.13848127202741	-7.883507767846491	-4.679698596837081	-2.5561104699014052	-3.3128227653137237	-6.181265548967923	-5.698202134933435	-3.3128227653137237	-8.037895433018207	-6.8453617485421265	-2.1656631517050338	-4.181059507653018	-1.6878737275621114	1	correct	1.0
517.2300054999998	8.521867500000099	nogo_reward	1.0	517.3251370999999	519.2485309000001	521.7777721	1.9233938000002127	518.3254519	520.7568994000001	524.8540326	0.9230790000001434	1.0208726999999271	0.9929720000000088	523.8271616	0.8525962999997319	522.7993383	1	1	60	2	nogo_reward	0	1	0	0	0	1	0	0.0	1.0	0	1.0	0.8525962999997319	650.6746913	1167.9998283999998	1169.0001432	1169.9232222	1171.4315907	1172.4524634	1173.4740296	1174.5018529	1175.5287239	1176.5216959	2020-07-07 13:20:31.833863	-5.11781697220026	3.70223999334934	1.51186425670922	4.05374898191983	6.62968122890947	1.51186425670922	5.11781697220026	1.51186425670922	3.70223999334934	1.51186425670922	6.62968122890947	-1.51186425670922	-10.3955848761752	2.3431468891784046	1.3375227634229063	1.3552142217642058	3.4718910588655945	1.3375227634229063	-1.6662519218809355	-2.7930855269433463	7.602499349231846	-1.4721778852133276	5.152847537814639	1	correct	1.0
