onset	duration	trial_type	response_time	cueOnset	targetOnset	fbOnset	cueRT	firstfixOnset	secondfixOnset	waitOnset	firstfixdur	secondfixdur	waitdur	nback_fbOnset	nback_response_time	nback_targetOnset	block	wm	trial	cue	cond	is_common	outcome_go	outcome_nogo	key_correct	key_pressed	is_correct	key_correct_nback	key_pressed_nback	is_correct_nback	outcome	rt	rt_nback	time_scan	time_onset	time_isi1	time_circle	time_isi2	time_feedback	time_same	time_correct	time_iti	time_done	timestamp_scan	DV	Qgo	Qnogo	SV	Wgo	Wnogo	mDV	Qchosen	Qunchosen	Wchosen	Wunchosen	PE	DVC	QgoC	QnogoC	SVC	WgoC	WnogoC	PEC	WchosenC	WunchosenC	QchosenC	QunchosenC	run	outcome_nback	nback_targetResp
0.0	8.473953599999732	go_punish	1.0	0.0298638000003848	1.7011398000004192	4.231348300000263	1.6712760000000344	1.0435040000002118	3.207139200000256	7.300060900000062	0.6576358000002074	1.0242091000000073	1.203756500000054	6.286472600000252	0.8921217000001889	5.254266600000392	1	1	61	3	go_punish	1	0	-1	1	0	0	1	0.0	0.0	-1	1.0	0.8921217000001889	1236.6733430999998	1236.7032069000002	1237.7168471	1238.3744829000002	1239.8804823	1240.9046914	1241.9276097000002	1242.9598157	1243.9734039999998	1245.1771605	2020-07-07 13:30:17.828006	0.508041479203829	-1.99487186544992	-3.13848127202741	-4.03201299209058	-3.64652275123124	-3.13848127202741	-0.508041479203829	-3.13848127202741	-1.99487186544992	-3.13848127202741	-3.64652275123124	-5.942043861549551	-4.769726424771109	-3.353964969620855	-3.3128227653137237	-6.7305477522462045	-6.804312921275115	-3.3128227653137237	-6.0964315267212665	-7.4434310556799765	-2.6737046309088637	-6.122523413949958	-0.5442643209846214	2	wrong	1.0
8.52039949999994	9.170736399999669	nogo_reward	0.3507493999995859	8.550263300000324	11.38573200000019	13.931783400000313	2.835468699999865	9.546573000000308	12.910295300000143	16.961803300000156	1.8391589999998814	1.0214881000001697	0.759196399999837	15.95736170000032	1.0	14.944267200000013	1	1	62	2	nogo_reward	1	0	1	0	1	0	1	n/a	0.0	1	0.3507493999995859	1.0	1236.6733430999998	1245.2236064	1246.2199161	1248.0590751	1249.5836384	1250.6051265	1251.6176102999998	1252.6307048	1253.6351464	1254.3943427999998	2020-07-07 13:30:17.828006	5.03644018615766	3.70223999334934	1.34124722154582	3.62454490911351	6.37768740770348	1.34124722154582	-5.03644018615766	3.70223999334934	1.34124722154582	6.37768740770348	1.34124722154582	-3.70223999334934	-0.24132771781727858	2.3431468891784046	1.1669057282595063	0.9260101489578862	3.2198972376596044	1.1669057282595063	-3.8566276585210555	2.072737624050913	2.3140653418681962	0.7181978514267926	2.7918547660111184	2	missed	0.0
17.731317299999773	9.378709999999955	nogo_punish	1.0	17.761181100000158	20.497621600000002	23.031939800000146	2.736440499999844	18.77177019999999	22.011683000000176	26.084027700000206	1.7258514000000105	1.02025679999997	1.0558633999999074	25.071837100000266	0.4957841999998891	24.042540000000372	1	1	63	4	nogo_punish	1	-1	0	0	0	1	0	0.0	1.0	0	1.0	0.4957841999998891	1236.6733430999998	1254.4345242	1255.4451132999998	1257.1709646999998	1258.6850261	1259.7052829	1260.7158831000002	1261.7451802	1262.7573708	1263.8132342	2020-07-07 13:30:17.828006	0.574749582293205	-0.92996900832542	0.0	-0.461872377107098	-0.574749582293205	0.0	-0.574749582293205	0.0	-0.92996900832542	0.0	-0.574749582293205	0.0	-4.703018321681733	-2.2890621124963553	-0.1743414932863137	-3.160407137262722	-3.7325397523370802	-0.1743414932863137	-0.15438766517171543	-4.3049497836525665	0.3980685380291711	-2.9840421419225476	0.5206385361398786	2	correct	1.0
27.15623779999987	9.454707999999755	nogo_reward	0.4084969000000455	27.186101600000256	29.558875600000192	32.11823910000021	2.3727739999999358	28.20135540000001	31.098399900000004	35.16344150000032	1.357520200000181	1.019839200000206	1.477368099999694	34.15880130000005	0.507415999999921	33.135938400000214	1	1	64	2	nogo_reward	1	0	1	0	1	0	1	1.0	1.0	0	0.4084969000000455	0.507415999999921	1236.6733430999998	1263.8594447	1264.8746984999998	1266.2322187	1267.7717429999998	1268.7915822	1269.8092815	1270.8321443999998	1271.8367846	1273.3141526999998	2020-07-07 13:30:17.828006	6.81305031567675	4.81958922311253	1.34124722154582	4.75664808952569	8.15429753722256	1.34124722154582	-6.81305031567675	4.81958922311253	1.34124722154582	8.15429753722256	1.34124722154582	-4.81958922311253	1.5352824117018118	3.4604961189415944	1.1669057282595063	2.0581133293700664	4.996507367178684	1.1669057282595063	-4.973976888284246	3.849347753569993	2.3140653418681962	1.8355470811899823	2.7918547660111184	2	correct	1.0
36.65717739999991	8.605613699999822	nogo_punish	1.0	36.687041200000294	38.50255580000021	41.0375389000003	1.815514599999915	37.69163850000041	40.02024560000018	44.08491540000023	0.8109172999998009	1.0172933000001194	1.2077394999998887	43.07230800000025	0.5875355000002855	42.04179450000038	1	1	65	4	nogo_punish	0	0	-1	0	0	1	1	1.0	1.0	-1	1.0	0.5875355000002855	1236.6733430999998	1273.3603843	1274.3649816000002	1275.1758989	1276.6935887	1277.710882	1278.7151376000002	1279.7456511	1280.7582585	1281.965998	2020-07-07 13:30:17.828006	0.546831940881586	-0.92996900832542	0.0	-0.412926247857175	-0.546831940881586	0.0	-0.546831940881586	0.0	-0.92996900832542	0.0	-0.546831940881586	-9.08052513357696	-4.730935963093352	-2.2890621124963553	-0.1743414932863137	-3.1114610080127987	-3.7046221109254613	-0.1743414932863137	-9.234912798748676	-4.3049497836525665	0.4259861794407901	-2.9840421419225476	0.5206385361398786	2	correct	1.0
45.30319269999973	9.313020399999914	nogo_punish	1.0	45.33305650000011	47.680166100000406	50.20977149999999	2.3471096000002944	46.343471000000136	49.19538440000042	53.26261020000038	1.33669510000027	1.014387099999567	1.3834666999996443	52.25150890000032	0.4899122000001625	51.226404900000034	1	1	66	4	nogo_punish	1	-1	0	0	0	1	0	0.0	1.0	0	1.0	0.4899122000001625	1236.6733430999998	1282.0063996	1283.0168141	1284.3535092000002	1285.8687275000002	1286.8831145999998	1287.8997479999998	1288.924852	1289.9359533000002	1291.3194199999998	2020-07-07 13:30:17.828006	0.119521607166267	-0.92996900832542	-0.92996900832542	-1.29959635858838	-1.04949061549169	-0.92996900832542	-0.119521607166267	-0.92996900832542	-0.92996900832542	-0.92996900832542	-1.04949061549169	0.92996900832542	-5.158246296808671	-2.2890621124963553	-1.1043105016117336	-3.998131118744004	-4.207280785535565	-1.1043105016117336	0.7755813431537045	-5.234918791977987	-0.07667249516931396	-3.9140111502479673	0.5206385361398786	2	correct	1.0
54.66698969999993	8.323289699999805	go_reward	0.9194464000001972	54.696853500000316	56.16696769999999	58.731435200000305	1.4701141999996707	55.70501180000019	57.7058433000002	61.775852000000214	0.4619558999997935	1.0255919000001086	1.244291199999907	60.76708240000016	0.6283309000000372	59.75318540000012	1	1	67	1	go_reward	1	1	0	1	1	1	0	0.0	1.0	1	0.9194464000001972	0.6283309000000372	1236.6733430999998	1291.3701966	1292.3783549	1292.8403107999998	1294.3791864	1295.4047783	1296.4265285	1297.4404255	1298.4491951	1299.6934863	2020-07-07 13:30:17.828006	13.3912313349434	8.11207713332086	0.0	8.11207713332086	13.3912313349434	0.0	-13.3912313349434	8.11207713332086	0.0	13.3912313349434	0.0	6.697458184827541	8.113463430968462	6.752984029149924	-0.1743414932863137	5.413542373165235	10.233441164899524	-0.1743414932863137	6.543070519655825	9.086281551290835	0.9728181203223761	5.128034991398312	1.4506075444652986	2	correct	1.0
63.03167609999991	9.287028399999826	nogo_punish	1.0	63.0615399000003	65.51678710000033	68.04531560000032	2.4552472000000307	64.07088730000032	67.03200920000018	71.11323160000029	1.4458998000000065	1.0133064000001468	1.2353366999998343	70.10060810000004	0.6419107000001532	69.06352320000042	1	1	68	4	nogo_punish	1	-1	0	0	0	1	1	1.0	1.0	0	1.0	0.6419107000001532	1236.6733430999998	1299.734883	1300.7442304	1302.1901302	1303.7053523	1304.7186587	1305.7368663000002	1306.7739511999998	1307.7865747	1309.0219114	2020-07-07 13:30:17.828006	0.141909179330658	-0.92996900832542	-0.824713590984983	-1.15598723920331	-0.966622770315641	-0.824713590984983	-0.141909179330658	-0.824713590984983	-0.92996900832542	-0.824713590984983	-0.966622770315641	0.824713590984983	-5.13585872464428	-2.2890621124963553	-0.9990550842712966	-3.8545219993589335	-4.124412940359516	-0.9990550842712966	0.6703259258132676	-5.129663374637549	0.006195350006735101	-3.8087557329075308	0.5206385361398786	2	correct	1.0
72.37192079999977	8.395294899999953	go_reward	0.4452554999998028	72.40178460000016	73.69395780000013	76.26223010000012	1.2921731999999793	73.4100924000004	75.2368541000003	79.31881810000004	0.2838653999997405	1.0253759999998238	1.478261400000065	78.3041403000002	0.5390324999998484	77.26833600000032	1	1	69	1	go_reward	1	1	0	1	1	1	1	1.0	1.0	1	0.4452554999998028	0.5390324999998484	1236.6733430999998	1309.0751277	1310.0834355000002	1310.3673009	1311.9101972	1312.9355732	1313.9416791	1314.9774834	1315.9921611999998	1317.4704226	2020-07-07 13:30:17.828006	14.3864165026795	8.7452497083474	0.0	8.7452497083474	14.3864165026795	0.0	-14.3864165026795	8.7452497083474	0.0	14.3864165026795	0.0	6.064285609801001	9.108648598704562	7.386156604176464	-0.1743414932863137	6.0467149481917755	11.228626332635624	-0.1743414932863137	5.909897944629285	10.081466719026935	0.9728181203223761	5.7612075664248525	1.4506075444652986	2	correct	1.0
80.80623079999987	8.45718799999986	go_reward	1.0	80.83609460000025	82.23813510000014	84.7863169000002	1.4020404999998846	81.84736640000028	83.76564370000006	87.82293820000041	0.3907686999998532	1.0206732000001466	1.4703443999997035	86.80914180000013	1.0	85.80027870000004	1	1	70	1	go_reward	1	1	0	1	0	0	0	n/a	0.0	0	1.0	1.0	1236.6733430999998	1317.5094377	1318.5207095	1318.9114782	1320.4389867999998	1321.45966	1322.4736217999998	1323.4824849	1324.4962813000002	1325.9666257	2020-07-07 13:30:17.828006	-15.2747047968147	9.31111123838479	0.0	9.31111123838479	15.2747047968147	0.0	15.2747047968147	0.0	9.31111123838479	0.0	15.2747047968147	0.0	-20.552472700789636	7.952018134213854	-0.1743414932863137	6.612576478229165	12.116914626770825	-0.1743414932863137	-0.15438766517171543	-4.3049497836525665	16.247522917137076	-2.9840421419225476	10.761718782850089	2	missed	0.0
89.30302659999961	8.504435000000285	nogo_punish	1.0	89.3328904	91.23431479999999	93.77048960000002	1.9014243999999962	90.33673710000039	92.75028400000019	96.84372470000017	0.8975776999996015	1.0202055999998265	0.9936007000001155	95.83154420000028	0.581340100000034	94.80092720000039	1	1	71	4	nogo_punish	1	-1	0	0	0	1	0	0.0	1.0	0	1.0	0.581340100000034	1236.6733430999998	1326.0062334999998	1327.0100802000002	1327.9076578999998	1329.4236271	1330.4438326999998	1331.4742703000002	1332.5048873	1333.5170678	1334.5106685	2020-07-07 13:30:17.828006	0.161535743448015	-0.92996900832542	-0.732424923473132	-1.02968164081548	-0.893960666921147	-0.732424923473132	-0.161535743448015	-0.732424923473132	-0.92996900832542	-0.732424923473132	-0.893960666921147	0.732424923473132	-5.116232160526923	-2.2890621124963553	-0.9067664167594458	-3.728216400971104	-4.051750836965022	-0.9067664167594458	0.5780372583014166	-5.037374707125698	0.07885745340122918	-3.7164670653956797	0.5206385361398786	2	correct	1.0
97.85120999999981	8.338730399999804	nogo_punish	1.0	97.8810738000002	99.7298910000004	102.26705560000028	1.8488172000002123	98.88755600000013	101.23923810000042	105.3138957000001	0.8423350000002756	1.0278174999998555	0.9059084999998959	104.30621280000014	0.4900066000000151	103.27640870000005	1	1	72	4	nogo_punish	0	0	-1	0	0	1	0	0.0	1.0	-1	1.0	0.4900066000000151	1236.6733430999998	1334.5544169	1335.5608991	1336.4032341000002	1337.9125812000002	1338.9403987	1339.9497517999998	1340.9795559	1341.9872388	1342.8931472999998	2020-07-07 13:30:17.828006	0.17877324597464	-0.92996900832542	-0.651373749243879	-0.918422106648929	-0.83014699521852	-0.651373749243879	-0.17877324597464	-0.651373749243879	-0.92996900832542	-0.651373749243879	-0.83014699521852	-8.429151384333082	-5.098994658000298	-2.2890621124963553	-0.8257152425301928	-3.6169568668045526	-3.9879371652623954	-0.8257152425301928	-8.583539049504797	-4.9563235328964454	0.14267112510385616	-3.6354158911664265	0.5206385361398786	2	correct	1.0
106.24041529999977	8.999338600000101	nogo_reward	0.2990804000000935	106.27027910000015	108.70146670000031	111.25903200000039	2.4311876000001575	107.27821240000003	110.23797380000042	114.3168910000004	1.4232543000002806	1.0210581999999704	0.9527266999998574	113.30442260000018	0.6897969000001467	112.2746702000004	1	1	73	2	nogo_reward	1	0	1	0	1	0	0	0.0	1.0	0	0.2990804000000935	0.6897969000001467	1236.6733430999998	1342.9436222	1343.9515554999998	1345.3748098	1346.9113169000002	1347.9323751000002	1348.9480133000002	1349.9777657	1350.9902341000002	1351.9429608	2020-07-07 13:30:17.828006	5.99522016043402	4.30015330724167	1.34124722154582	4.24960033548292	7.33646738197984	1.34124722154582	-5.99522016043402	4.30015330724167	1.34124722154582	7.33646738197984	1.34124722154582	-4.30015330724167	0.7174522564590813	2.9410602030707347	1.1669057282595063	1.551065575327296	4.178677211935964	1.1669057282595063	-4.454540972413386	3.031517598327273	2.3140653418681962	1.3161111653191226	2.7918547660111184	2	correct	1.0
115.28111939999962	8.690588500000104	go_punish	0.7623906999997416	115.31098320000001	117.36101250000002	119.9076500000001	2.0500293000000056	116.32274630000029	118.88566600000013	122.95308920000025	1.0382661999997254	1.021983999999975	1.0484824999998636	121.9386076000003	0.4601496999998744	120.9172625000001	1	1	74	3	go_punish	1	0	-1	1	1	1	0	0.0	1.0	0	0.7623906999997416	0.4601496999998744	1236.6733430999998	1351.9843262999998	1352.9960894	1354.0343555999998	1355.5590091	1356.5809931	1357.5906056	1358.6119507	1359.6264323	1360.6749148	2020-07-07 13:30:17.828006	-0.201772548146195	-1.99487186544992	-3.71856205304005	-4.52139359778714	-3.92033460118624	-3.71856205304005	0.201772548146195	-1.99487186544992	-3.71856205304005	-3.92033460118624	-3.71856205304005	1.99487186544992	-5.4795404521211335	-3.353964969620855	-3.8929035463263637	-7.219928357942763	-7.078124771230115	-3.8929035463263637	1.8404842002782047	-8.225284384838806	-2.745743932717674	-4.978914007372468	-2.2679545085747517	2	correct	1.0
124.0175462999996	9.2916280000004	nogo_punish	1.0	124.04741009999998	126.80157240000017	129.3321651000001	2.754162300000189	125.04495080000015	128.31256710000025	132.38347500000032	1.7566216000000168	1.01959799999986	0.9555631000000631	131.3699386000003	0.6537299999999959	130.33972170000015	1	1	75	4	nogo_punish	1	-1	0	0	0	1	0	1.0	0.0	0	1.0	0.6537299999999959	1236.6733430999998	1360.7207531999998	1361.7182939	1363.4749155	1364.9859102	1366.0055082	1367.0130648	1368.0432817	1369.0568181	1370.0123812000002	2020-07-07 13:30:17.828006	-0.208746829933226	-0.92996900832542	-1.51004978933805	-1.75023905547757	-1.30130295940483	-1.51004978933805	0.208746829933226	-1.51004978933805	-0.92996900832542	-1.51004978933805	-1.30130295940483	1.51004978933805	-5.486514733908164	-2.2890621124963553	-1.6843912826243637	-4.448773815633194	-4.459093129448705	-1.6843912826243637	1.3556621241663347	-5.814999572990617	-0.32848483908245385	-4.494091931260598	0.5206385361398786	2	wrong	1.0
133.35093819999975	8.301925799999935	go_reward	0.9826468000001114	133.38080200000013	135.06169350000027	137.6213743000003	1.6808915000001434	134.3897052000002	136.60088050000013	140.66593800000032	0.6719883000000664	1.0204938000001675	1.0167897999997422	139.6595993000003	0.9154108000002452	138.6387867000003	1	1	76	1	go_reward	0	0	1	1	1	1	0	0.0	1.0	0	0.9826468000001114	0.9154108000002452	1236.6733430999998	1370.0541451	1371.0630483	1371.7350366	1373.2742236	1374.2947174	1375.3121298	1376.3329424	1377.3392811	1378.3560708999998	2020-07-07 13:30:17.828006	14.6807509127313	9.31111123838479	0.0	8.30560598923073	14.6807509127313	0.0	-14.6807509127313	9.31111123838479	0.0	14.6807509127313	0.0	-9.31111123838479	9.402983008756362	7.952018134213854	-0.1743414932863137	5.607071229075105	11.522960742687424	-0.1743414932863137	-9.465498903556504	10.375801129078734	0.9728181203223761	6.3270690964622425	1.4506075444652986	2	correct	1.0
141.69369729999994	9.23288199999979	go_reward	0.3657457999997859	141.72356110000032	144.245633	146.79348460000028	2.5220718999996734	142.73423130000037	145.7690109	149.84695350000038	1.5114016999996238	1.0244737000002715	1.1094895999997334	148.8356533000001	0.4375082999999904	147.8070871	1	1	77	1	go_reward	1	1	0	1	1	1	0	0.0	1.0	1	0.3657457999997859	0.4375082999999904	1236.6733430999998	1378.3969042	1379.4075744000002	1380.9189760999998	1382.4423539999998	1383.4668277	1384.4804301999998	1385.5089964	1386.5202966000002	1387.6297862	2020-07-07 13:30:17.828006	13.152667225983	8.30560598923073	0.0	7.4180479726639	13.152667225983	0.0	-13.152667225983	8.30560598923073	0.0	13.152667225983	0.0	6.503929328917671	7.874899322008062	6.946512885059794	-0.1743414932863137	4.719513212508277	9.994877055939124	-0.1743414932863137	6.349541663745955	8.847717442330435	0.9728181203223761	5.321563847308182	1.4506075444652986	2	correct	1.0
150.97745039999973	9.397865599999932	go_punish	0.3730361000002631	151.0073142000001	153.98940310000012	156.50412440000014	2.982088900000008	152.02285440000014	155.5055294000001	159.5611610000003	1.9665486999999757	0.998595000000023	0.8440187999997306	158.55052680000017	0.4444064999997863	157.5241406	1	1	78	3	go_punish	1	0	-1	1	1	1	0	0.0	1.0	0	0.3730361000002631	0.4444064999997863	1236.6733430999998	1387.6806573	1388.6961975	1390.6627462	1392.1788725	1393.1774675	1394.1974836999998	1395.2238699	1396.2345041	1397.0785228999998	2020-07-07 13:30:17.828006	0.303409266079205	-1.77341794458302	-3.71856205304005	-4.02802846661681	-3.41515278696084	-3.71856205304005	-0.303409266079205	-1.77341794458302	-3.71856205304005	-3.41515278696084	-3.71856205304005	1.77341794458302	-4.974358637895733	-3.1325110487539556	-3.8929035463263637	-6.726563226772434	-6.572942957004715	-3.8929035463263637	1.6190302794113047	-7.720102570613406	-2.745743932717674	-4.757460086505567	-2.2679545085747517	2	correct	1.0
160.4241560999999	8.37401060000002	nogo_reward	0.5603975000003629	160.45401990000028	162.0202065000003	164.57201759999998	1.5661866000000373	161.4569431	163.550166	167.61605310000004	0.5632634000003236	1.0218515999999909	1.2119774000002508	166.6038636000003	0.4643796000000293	165.57312820000016	1	1	79	2	nogo_reward	1	0	1	0	1	0	0	0.0	1.0	0	0.5603975000003629	0.4643796000000293	1236.6733430999998	1397.127363	1398.1302861999998	1398.6935496	1400.2235090999998	1401.2453606999998	1402.2464713	1403.2772067	1404.2893961999998	1405.5013736	2020-07-07 13:30:17.828006	5.27374727435544	3.8415714657799	1.34124722154582	3.80141232878544	6.61499449590125	1.34124722154582	-5.27374727435544	3.8415714657799	1.34124722154582	6.61499449590125	1.34124722154582	-3.8415714657799	-0.00402062961949845	2.4824783616089645	1.1669057282595063	1.1028775686298165	3.457204325857375	1.1669057282595063	-3.9959591309516154	2.3100447122486836	2.3140653418681962	0.8575293238573525	2.7918547660111184	2	correct	1.0
168.83526889999985	8.339949900000192	go_reward	0.3932078000002548	168.86513270000023	170.2292325000003	172.7830098000004	1.3640998000000764	169.8798051000001	171.7629149000004	175.85257530000013	0.3494274000001951	1.0200949000000037	1.3525073000002976	174.84337900000037	0.4382936000001791	173.8012888000003	1	1	80	1	go_reward	0	0	1	1	1	1	0	0.0	1.0	0	0.3932078000002548	0.4382936000001791	1236.6733430999998	1405.5384758	1406.5531482	1406.9025756	1408.4362580000002	1409.4563529000002	1410.4746319	1411.5167221000002	1412.5259184	1413.8784257000002	2020-07-07 13:30:17.828006	14.1980992878461	8.92991222937312	0.0	8.14545347031644	14.1980992878461	0.0	-14.1980992878461	8.92991222937312	0.0	14.1980992878461	0.0	-8.92991222937312	8.920331383871162	7.570819125202184	-0.1743414932863137	5.446918710160816	11.040309117802224	-0.1743414932863137	-9.084299894544834	9.893149504193534	0.9728181203223761	5.945870087450572	1.4506075444652986	2	correct	1.0
177.2134031999999	8.442615999999816	go_reward	0.4123488999998699	177.2432670000003	178.7242113000002	181.26722700000028	1.4809442999999192	178.2565682000004	180.2506475	184.33958540000003	0.4676430999998047	1.0165795000002618	1.3462976000000708	183.32626120000032	0.4245059999998375	182.28693340000018	1	1	81	1	go_reward	1	1	0	1	1	1	0	0.0	1.0	1	0.4123488999998699	0.4245059999998375	1236.6733430999998	1413.9166101	1414.9299113000002	1415.3975544	1416.9239905999998	1417.9405701	1418.9602765	1419.9996043	1421.0129284999998	1422.3592261	2020-07-07 13:30:17.828006	12.7347829717286	7.97483643515304	0.0	7.28062635789669	12.7347829717286	0.0	-12.7347829717286	7.97483643515304	0.0	12.7347829717286	0.0	6.834698882995361	7.457015067753662	6.615743330982104	-0.1743414932863137	4.582091597741066	9.576992801684725	-0.1743414932863137	6.680311217823645	8.429833188076035	0.9728181203223761	4.990794293230492	1.4506075444652986	2	correct	1.0
185.69743429999994	8.542644199999813	go_reward	0.2938684000000648	185.72729810000033	187.42951450000032	189.9829679000004	1.7022163999999975	186.73551960000032	188.9629060000002	193.0442395	0.693994900000007	1.0200619000002007	1.2257028000001355	192.0295787	0.4868738000000121	190.9927256000003	1	1	82	1	go_reward	0	0	1	1	1	1	1	1.0	1.0	0	0.2938684000000648	0.4868738000000121	1236.6733430999998	1422.4006412	1423.4088627	1424.1028576	1425.6362491	1426.6563110000002	1427.6660687	1428.7029217999998	1429.7175825999998	1430.9432854	2020-07-07 13:30:17.828006	13.8361175216905	8.64270930636176	0.0	8.0276071693398	13.8361175216905	0.0	-13.8361175216905	8.64270930636176	0.0	13.8361175216905	0.0	-8.64270930636176	8.558349617715562	7.283616202190825	-0.1743414932863137	5.329072409184176	10.678327351646626	-0.1743414932863137	-8.797096971533476	9.531167738037933	0.9728181203223761	5.658667164439214	1.4506075444652986	2	correct	1.0
194.2895094999999	7.911187700000028	go_punish	0.7153241999999409	194.31937330000028	195.65518770000017	198.2023266000001	1.3358143999998902	195.32065600000033	197.1875484000002	201.2533215000003	0.3345316999998431	1.0147781999999097	0.977239499999996	200.24890240000013	0.4459624999999505	199.22454930000004	1	1	83	3	go_punish	1	0	-1	1	1	1	0	0.0	1.0	0	0.7153241999999409	0.4459624999999505	1236.6733430999998	1430.9927164	1431.9939991	1432.3285308	1433.8608915	1434.8756697	1435.8978923999998	1436.9222455	1437.9266646	1438.9039041	2020-07-07 13:30:17.828006	0.747285777266537	-1.57876862413852	-3.71856205304005	-3.59335002944306	-2.97127627577351	-3.71856205304005	-0.747285777266537	-1.57876862413852	-3.71856205304005	-2.97127627577351	-3.71856205304005	1.57876862413852	-4.530482126708401	-2.9378617283094552	-3.8929035463263637	-6.291884789598684	-6.129066445817385	-3.8929035463263637	1.4243809589668044	-7.276226059426076	-2.745743932717674	-4.562810766061068	-2.2679545085747517	2	correct	1.0
202.24246109999967	8.131082100000185	nogo_punish	1.0	202.27232490000006	203.6396851000004	206.1568873000001	1.3673602000003484	203.2802280000003	205.13792580000018	209.2070487000003	0.35945710000009967	1.0189614999999321	1.196358299999929	208.1980626000004	0.710735200000272	207.17468700000018	1	1	84	4	nogo_punish	0	0	-1	0	0	1	0	0.0	1.0	-1	1.0	0.710735200000272	1236.6733430999998	1438.9456679999998	1439.9535711	1440.3130282000002	1441.8112689	1442.8302304	1443.8480301	1444.8714057000002	1445.8803918	1447.0767501	2020-07-07 13:30:17.828006	-0.15124559539902	-0.92996900832542	-1.34199084965895	-1.55827027978386	-1.19074525425993	-1.34199084965895	0.15124559539902	-1.34199084965895	-0.92996900832542	-1.34199084965895	-1.19074525425993	-7.7385342839180105	-5.4290134993739585	-2.2890621124963553	-1.5163323429452638	-4.256805039939484	-4.3485354243038055	-1.5163323429452638	-7.892921949089726	-5.646940633311517	-0.2179271339375538	-4.3260329915814975	0.5206385361398786	2	correct	1.0
210.4174641999998	8.356105599999864	go_reward	0.7523447999997188	210.4473280000002	211.95109850000017	214.51157560000001	1.5037704999999733	211.44685479999998	213.4937060000002	217.56059240000013	0.5042437000001883	1.0178695999998126	1.2428411999999298	216.54770710000003	0.708818699999938	215.52960100000018	1	1	85	1	go_reward	1	1	0	1	1	1	0	0.0	1.0	1	0.7523447999997188	0.708818699999938	1236.6733430999998	1447.1206711	1448.1201978999998	1448.6244416	1450.1670491	1451.1849186999998	1452.2029441	1453.2210501999998	1454.2339355	1455.4767766999998	2020-07-07 13:30:17.828006	12.4211012011258	7.72531414600807	0.0	7.17964608336181	12.4211012011258	0.0	-12.4211012011258	7.72531414600807	0.0	12.4211012011258	0.0	7.084221172140331	7.143333297150862	6.366221041837134	-0.1743414932863137	4.481111323206186	9.263311031081926	-0.1743414932863137	6.929833506968615	8.116151417473233	0.9728181203223761	4.741272004085522	1.4506075444652986	2	correct	1.0
218.81140099999993	8.670641599999726	go_reward	0.6973869000003106	218.84126480000032	220.50699620000023	223.0710570000001	1.6657313999999133	219.8582551000004	222.0466239000002	226.112396	0.6487410999998247	1.0244330999998965	1.3995104000000538	225.09812920000013	0.4268529000000853	224.08470820000002	1	1	86	1	go_reward	1	1	0	1	1	1	0	0.0	1.0	1	0.6973869000003106	0.4268529000000853	1236.6733430999998	1455.5146079	1456.5315982000002	1457.1803393	1458.719967	1459.7444001	1460.7580512999998	1461.7714723	1462.7857390999998	1464.1852494999998	2020-07-07 13:30:17.828006	13.5642066247884	8.42581156456756	0.0	7.94116469585344	13.5642066247884	0.0	-13.5642066247884	8.42581156456756	0.0	13.5642066247884	0.0	6.38372375358084	8.286438720813461	7.066718460396625	-0.1743414932863137	5.242629935697817	10.406416454744523	-0.1743414932863137	6.2293360884091245	9.259256841135834	0.9728181203223761	5.441769422645013	1.4506075444652986	2	correct	1.0
227.52317719999974	8.746028600000045	nogo_punish	0.2735566999999719	227.55304100000012	229.3320894000003	231.86596810000037	1.7790484000001925	228.5627255000004	230.85000790000004	234.90788220000013	0.7693638999999166	1.015960200000336	1.3911874000000353	233.8949189	0.7554586000001109	232.88219060000029	1	1	87	4	nogo_punish	1	-1	0	0	1	0	0	0.0	1.0	-1	0.2735566999999719	0.7554586000001109	1236.6733430999998	1464.2263841	1465.2360686000002	1466.0054325	1467.5233509999998	1468.5393112000002	1469.5555337	1470.5682619999998	1471.5812253	1472.9724127	2020-07-07 13:30:17.828006	0.503274292468849	-0.92996900832542	-2.12426630890565	-2.31923626032716	-1.6209920164368	-2.12426630890565	-0.503274292468849	-0.92996900832542	-2.12426630890565	-1.6209920164368	-2.12426630890565	-8.15055612525154	-4.774493611506089	-2.2890621124963553	-2.2986078021919636	-5.017771020482783	-4.778782186480675	-2.2986078021919636	-8.304943790423255	-5.925941800089366	-1.1514481885832737	-3.9140111502479673	-0.6736587644403513	2	correct	1.0
236.31311089999963	8.53932789999999	nogo_punish	1.0	236.3429747	238.08936070000027	240.61712500000021	1.746386000000257	237.3594223	239.59976189999998	243.67188420000002	0.7299384000002647	1.0173631000002388	1.2104183999999805	242.65982480000002	0.6529243999998471	241.6227285	1	1	88	4	nogo_punish	0	0	-1	0	0	1	0	0.0	1.0	-1	1.0	0.6529243999998471	1236.6733430999998	1473.0163177999998	1474.0327653999998	1474.7627038	1476.2731049999998	1477.2904681	1478.2960715999998	1479.3331678999998	1480.3452272999998	1481.5556456999998	2020-07-07 13:30:17.828006	0.702303676554476	-1.7546825993104	-2.12426630890565	-2.99493867531152	-2.82656998546013	-2.12426630890565	-0.702303676554476	-2.12426630890565	-1.7546825993104	-2.12426630890565	-2.82656998546013	-6.956258824671311	-4.575464227420462	-3.1137757034813354	-2.2986078021919636	-5.693473435467144	-5.984360155504005	-2.2986078021919636	-7.110646489843027	-6.4292160925582165	-1.8537518651377538	-5.108308450828197	-0.30407505484510144	2	correct	1.0
244.9001615999996	8.785450700000183	go_punish	0.3179873999997653	244.93002539999998	246.72451600000022	249.2766800000004	1.7944906000002447	245.94169600000032	248.25538090000032	252.32441260000041	0.7828199999999015	1.0212991000000784	1.3910634999997455	251.3119703000002	0.6294401999998627	250.29006500000014	1	1	89	3	go_punish	0	-1	0	1	1	1	0	0.0	1.0	-1	0.3179873999997653	0.6294401999998627	1236.6733430999998	1481.6033684999998	1482.6150391	1483.3978591	1484.928724	1485.9500231000002	1486.9634081	1487.9853134	1488.9977557000002	1490.3888192	2020-07-07 13:30:17.828006	1.13789483169624	-1.40741060915657	-3.71856205304005	-3.2098101716393	-2.58066722134381	-3.71856205304005	-1.13789483169624	-1.40741060915657	-3.71856205304005	-2.58066722134381	-3.71856205304005	-7.673114524420391	-4.139873072278698	-2.766503713327505	-3.8929035463263637	-5.9083449317949235	-5.738457391387685	-3.8929035463263637	-7.827502189592106	-6.8856170049963765	-2.745743932717674	-4.391452751079117	-2.2679545085747517	2	correct	1.0
253.73261569999977	8.300373499999978	nogo_punish	1.0	253.76247950000015	255.6790328000002	258.2170914000003	1.9165533000000323	254.7594346000003	257.1882204000003	261.2572520000001	0.9195981999998821	1.028870999999981	0.8056010000000242	260.2506175000003	0.5269803999999567	259.2265225000003	1	1	90	4	nogo_punish	0	0	-1	0	0	1	1	1.0	1.0	-1	1.0	0.5269803999999567	1236.6733430999998	1490.4358226	1491.4327777	1492.3523759	1493.8615635	1494.8904345	1495.8998656	1496.9239606	1497.9305951	1498.7361961	2020-07-07 13:30:17.828006	0.345229824365426	-1.7546825993104	-2.81898259641146	-3.59578690764586	-3.16421242077688	-2.81898259641146	-0.345229824365426	-2.81898259641146	-1.7546825993104	-2.81898259641146	-3.16421242077688	-6.261542537165501	-4.932538079609512	-3.1137757034813354	-2.9933240896977735	-6.2943216678014835	-6.322002590820755	-2.9933240896977735	-6.415930202337217	-7.123932380064026	-2.191394300454504	-5.803024738334008	-0.30407505484510144	2	correct	1.0
262.08307160000004	8.34411799999998	go_reward	0.3189244999998664	262.1129354000004	263.5514939000004	266.10240650000014	1.4385584999999992	263.12925270000005	265.0821975000001	269.1360138	0.42224120000037146	1.0202090000000226	1.3210396000004039	268.13109350000013	0.4272519000001011	267.1173000000001	1	1	91	1	go_reward	1	1	0	1	1	1	0	0.0	1.0	1	0.3189244999998664	0.4272519000001011	1236.6733430999998	1498.7862785000002	1499.8025957999998	1500.2248370000002	1501.7555406	1502.7757496	1503.7906431	1504.8044366	1505.8093568999998	1507.1303965000002	2020-07-07 13:30:17.828006	14.578713871238	9.04855571282243	0.0	8.61760318829584	14.578713871238	0.0	-14.578713871238	9.04855571282243	0.0	14.578713871238	0.0	5.76097960532597	9.300945967263061	7.689462608651495	-0.1743414932863137	5.919068428140216	11.420923701194123	-0.1743414932863137	5.606591940154254	10.273764087585434	0.9728181203223761	6.064513570899884	1.4506075444652986	2	correct	1.0
270.47217109999974	9.874714200000199	go_reward	0.3776116999997612	270.5020349000001	273.2700662000002	275.8426179000003	2.768031300000075	271.51205170000003	274.8180172000002	278.8856433000003	1.7580145000001721	1.0246007000000645	1.491105800000014	277.87053890000016	0.4065755999999965	276.8480462000002	1	1	92	1	go_reward	1	1	0	1	1	1	0	0.0	1.0	1	0.3776116999997612	0.4065755999999965	1236.6733430999998	1507.175378	1508.1853947999998	1509.9434093	1511.4913603	1512.515961	1513.5213893	1514.543882	1515.5589864	1517.0500922	2020-07-07 13:30:17.828006	15.4803782251583	9.6029644228034	0.0	9.21931638564724	15.4803782251583	0.0	-15.4803782251583	9.6029644228034	0.0	15.4803782251583	0.0	5.206570895345001	10.202610321183363	8.243871318632465	-0.1743414932863137	6.520781625491615	12.322588055114426	-0.1743414932863137	5.052183230173285	11.175428441505733	0.9728181203223761	6.618922280880852	1.4506075444652986	2	correct	1.0
280.39621369999986	7.907035000000178	go_punish	0.8207096999999521	280.42607750000025	281.7629403000003	284.3238303000003	1.3368628000000626	281.4196495000001	283.3031239000002	287.3752033000003	0.3432908000002044	1.0207064000001083	0.957909200000131	286.3700301000001	0.6421498999998221	285.3413065000004	1	1	93	3	go_punish	1	0	-1	1	1	1	0	0.0	1.0	0	0.8207096999999521	0.6421498999998221	1236.6733430999998	1517.0994206	1518.0929926	1518.4362834	1519.976467	1520.9971734	1522.0146496000002	1523.0433732	1524.0485464	1525.0064556000002	2020-07-07 13:30:17.828006	0.0248841047464364	-2.18629830159876	-3.71856205304005	-3.80087792315365	-3.69367794829361	-3.71856205304005	-0.0248841047464364	-2.18629830159876	-3.71856205304005	-3.69367794829361	-3.71856205304005	2.18629830159876	-5.252883799228502	-3.5453914057696956	-3.8929035463263637	-6.499412683309274	-6.851468118337485	-3.8929035463263637	2.0319106364270447	-7.9986277319461765	-2.745743932717674	-5.170340443521308	-2.2679545085747517	2	correct	1.0
288.3434784999997	8.534763200000043	nogo_punish	0.2945201000002271	288.3733423000001	290.5621155000001	293.09989940000014	2.188773200000014	289.38586910000004	292.0795733	296.1412928	1.1762464000000818	1.0203261000001476	0.7668127000001732	295.1286913000001	0.6496914999997898	294.11499090000007	1	1	94	4	nogo_punish	0	0	-1	0	1	0	0	0.0	1.0	0	0.2945201000002271	0.6496914999997898	1236.6733430999998	1525.0466854	1526.0592121999998	1527.2354586	1528.7529163999998	1529.7732425	1530.7883339999998	1531.8020344	1532.8146358999998	1533.5814486	2020-07-07 13:30:17.828006	-0.0271477895722967	-1.7546825993104	-3.43681565405913	-4.13081418891129	-3.46396344363142	-3.43681565405913	0.0271477895722967	-1.7546825993104	-3.43681565405913	-3.46396344363142	-3.43681565405913	1.7546825993104	-5.304915693547235	-3.1137757034813354	-3.611157147345444	-6.8293489490669135	-6.6217536136752955	-3.611157147345444	1.6002949341386845	-7.768913227283987	-2.463997533736754	-4.738724741232947	-1.9862081095938315	2	correct	1.0
296.9221435999998	9.056184099999882	nogo_punish	0.4059434000000692	296.9520074000002	298.9376693000004	301.4855352000004	1.9856619000001956	297.9597206000003	300.4649395000001	304.53791130000013	0.97794870000007	1.0205957000002854	1.4702801999999338	303.52412790000017	0.5102881000002526	302.4895002000003	1	1	95	4	nogo_punish	1	-1	0	0	1	0	0	0.0	1.0	-1	0.4059434000000692	0.5102881000002526	1236.6733430999998	1533.6253505	1534.6330637	1535.6110124000002	1537.1382826	1538.1588783000002	1539.1628433	1540.197471	1541.2112544	1542.6815345999998	2020-07-07 13:30:17.828006	0.431198946515729	-1.55713851445811	-3.43681565405913	-3.6779057410983	-3.0056167075434	-3.43681565405913	-0.431198946515729	-1.55713851445811	-3.43681565405913	-3.0056167075434	-3.43681565405913	-7.523386619118851	-4.846568957459209	-2.9162316186290456	-3.611157147345444	-6.376440501253924	-6.163406877587276	-3.611157147345444	-7.6777742842905665	-7.310566491195967	-2.463997533736754	-4.541180656380657	-1.9862081095938315	2	correct	1.0
306.01973499999986	8.060269099999914	nogo_punish	1.0	306.04959880000024	307.61990000000014	310.1498329000003	1.5703011999999035	307.0670172	309.1298326000003	313.17892200000006	0.552882800000134	1.0200002999999924	0.930945900000097	312.1729007000001	1.0	311.1609989000003	1	1	96	4	nogo_punish	1	-1	0	0	0	1	1	n/a	0.0	0	1.0	1.0	1236.6733430999998	1542.7229419	1543.7403602999998	1544.2932431	1545.8031757	1546.823176	1547.834342	1548.8462438	1549.8522650999998	1550.783211	2020-07-07 13:30:17.828006	0.623773184568146	-2.31376768104243	-3.43681565405913	-4.20909656907239	-4.06058883862727	-3.43681565405913	-0.623773184568146	-3.43681565405913	-2.31376768104243	-3.43681565405913	-4.06058883862727	3.43681565405913	-4.653994719406793	-3.6728607852133655	-3.611157147345444	-6.907631329228014	-7.218379008671145	-3.611157147345444	3.282427988887415	-7.741765437711697	-3.0877707183048937	-6.420857795981678	-0.8631601365771313	2	missed	0.0
314.1249929999999	9.032571599999756	nogo_reward	0.3122253999999884	314.1548568000003	316.2081303	318.7674063000004	2.0532734999997047	315.16359390000025	317.7469078000004	321.78792620000013	1.0445363999997426	1.0204985000000306	1.3995021999999153	320.7901059000003	0.3660307999998622	319.77557650000017	1	1	97	2	nogo_reward	1	0	1	0	1	0	0	0.0	1.0	0	0.3122253999999884	0.3660307999998622	1236.6733430999998	1550.8281999	1551.836937	1552.8814733999998	1554.4202509000002	1555.4407494000002	1556.4489196	1557.463449	1558.4612693	1559.8607714999998	2020-07-07 13:30:17.828006	4.63645086005818	3.43618812162814	1.34124722154582	3.40474018958673	5.97769808160399	1.34124722154582	-4.63645086005818	3.43618812162814	1.34124722154582	5.97769808160399	1.34124722154582	-3.43618812162814	-0.6413170439167581	2.0770950174572045	1.1669057282595063	0.7062054294311064	2.819907911560115	1.1669057282595063	-3.5905757867998553	1.6727482979514239	2.3140653418681962	0.45214597970559245	2.7918547660111184	2	correct	1.0
323.19641939999974	8.110613100000137	nogo_reward	0.7059155000001738	323.2262832000001	324.5967089000003	327.1445192000001	1.370425700000169	324.2382066	326.12895690000005	330.20302300000003	0.35850230000028205	1.015562300000056	1.1338733000002321	329.18992860000026	0.412761799999771	328.1607777000004	1	1	98	2	nogo_reward	1	0	1	0	1	0	0	0.0	1.0	0	0.7059155000001738	0.412761799999771	1236.6733430999998	1559.8996263	1560.9115496999998	1561.270052	1562.8022999999998	1563.8178623	1564.8341208000002	1565.8632717	1566.8763660999998	1568.0102394	2020-07-07 13:30:17.828006	4.07279480431416	3.07737750427929	1.34124722154582	3.05322017000236	5.41404202585997	1.34124722154582	-4.07279480431416	3.07737750427929	1.34124722154582	5.41404202585997	1.34124722154582	-3.07737750427929	-1.2049730996607781	1.7182844001083548	1.1669057282595063	0.354685409846736	2.256251855816095	1.1669057282595063	-3.2317651694510054	1.1090922422074039	2.3140653418681962	0.09333536235674256	2.7918547660111184	2	correct	1.0
331.34582199999977	9.120308999999907	nogo_reward	0.7238917999998193	331.37568580000016	333.8787080000002	336.4221851000002	2.503022200000032	332.3940703000003	335.4090456000001	339.4874066000002	1.4846376999998938	1.0131395000000794	1.0085881999998492	338.47427400000015	0.4640576000001601	337.44358850000026	1	1	99	2	nogo_reward	1	0	1	0	1	0	1	1.0	1.0	0	0.7238917999998193	0.4640576000001601	1236.6733430999998	1568.0490289	1569.0674134	1570.5520511	1572.0823887	1573.0955282	1574.1169316	1575.1476171	1576.1607497	1577.1693378999998	2020-07-07 13:30:17.828006	3.57365014568494	2.75939527385941	1.34124722154582	2.74132854837159	4.91489736723076	1.34124722154582	-3.57365014568494	2.75939527385941	1.34124722154582	4.91489736723076	1.34124722154582	-2.75939527385941	-1.7041177582899985	1.4003021696884745	1.1669057282595063	0.042793788215966355	1.757107197186885	1.1669057282595063	-2.913782939031125	0.6099475835781938	2.3140653418681962	-0.22464686806313772	2.7918547660111184	2	correct	1.0
340.51132579999967	8.98205760000019	nogo_punish	0.5179425999999694	340.54118960000005	342.77170350000006	345.3278594000003	2.2305139000000054	341.5549797000001	344.3043136000001	348.3590792	1.2167237999999543	1.0235458000001927	1.1641680000002452	347.35094000000026	1.0	346.3421413000003	1	1	100	4	nogo_punish	1	-1	0	0	1	0	0	n/a	0.0	0	0.5179425999999694	1.0	1236.6733430999998	1577.2145326999998	1578.2283228	1579.4450465999998	1580.9776567	1582.0012025	1583.0154844	1584.0242831	1585.0324222999998	1586.1965903	2020-07-07 13:30:17.828006	-0.741129856137044	-2.31376768104243	-3.05706317059429	-3.75219624365588	-3.79819302673133	-3.05706317059429	0.741129856137044	-2.31376768104243	-3.05706317059429	-3.79819302673133	-3.05706317059429	-6.766757452534531	-6.018897760111982	-3.6728607852133655	-3.2314046638806038	-6.450731003811503	-6.955983196775206	-3.2314046638806038	-6.921145117706247	-8.103142810383897	-2.084245050271914	-5.297809822964977	-1.6064556261289915	2	missed	0.0
349.5343321999999	8.728173900000002	go_reward	0.314563200000066	349.56419600000027	351.3540395	353.9057987000001	1.7898434999997335	350.57427210000014	352.8860937000004	356.93932700000005	0.7797673999998551	1.0197049999997034	1.3530429000002187	355.9340779000004	0.3838347000000794	354.9207899000003	1	1	101	1	go_reward	0	0	1	1	1	1	0	0.0	1.0	0	0.314563200000066	0.3838347000000794	1236.6733430999998	1586.2375391	1587.2476152	1588.0273825999998	1589.5594368000002	1590.5791418	1591.594133	1592.6074210000002	1593.6126700999998	1594.965713	2020-07-07 13:30:17.828006	16.2828751277872	10.0972239936157	0.0	9.75530032988465	16.2828751277872	0.0	-16.2828751277872	10.0972239936157	0.0	16.2828751277872	0.0	-10.0972239936157	11.005107223812262	8.738130889444765	-0.1743414932863137	7.056765569729025	13.125084957743326	-0.1743414932863137	-10.251611658787414	11.977925344134633	0.9728181203223761	7.113181851693152	1.4506075444652986	2	correct	1.0
358.3078601999996	7.927494700000125	nogo_reward	0.4023228000000927	358.337724	359.9043765000001	362.44932500000004	1.5666525000001457	359.34309310000026	361.4363442000001	365.5059758000002	0.5612833999998657	1.012980799999923	0.7592428999998901	364.49155120000023	0.4566678999999567	363.4668779000003	1	1	102	2	nogo_reward	1	0	1	0	1	0	0	0.0	1.0	0	0.4023228000000927	0.4566678999999567	1236.6733430999998	1595.0110670999998	1596.0164362	1596.5777196	1598.1096873	1599.1226680999998	1600.140221	1601.1648943	1602.1793189	1602.9385618	2020-07-07 13:30:17.828006	3.13109448421493	2.47725320578501	1.34124722154582	2.46426312027082	4.47234170576074	1.34124722154582	-3.13109448421493	2.47725320578501	1.34124722154582	4.47234170576074	1.34124722154582	-2.47725320578501	-2.1466734197600084	1.1181601016140748	1.1669057282595063	-0.23427163988480393	1.3145515357168644	1.1669057282595063	-2.6316408709567254	0.16739192210817322	2.3140653418681962	-0.5067889361375375	2.7918547660111184	2	correct	1.0
366.2771224999997	8.086900400000104	nogo_reward	0.659847500000069	366.30698630000006	367.8707753000001	370.4276589000003	1.5637890000000425	367.3093335000003	369.41020560000015	373.4789132000003	0.561441799999784	1.0174533000001702	0.91497349999986	372.46566740000026	0.4762617000001228	371.4444066000003	1	1	103	2	nogo_reward	1	0	1	0	1	0	0	0.0	1.0	0	0.659847500000069	0.4762617000001228	1236.6733430999998	1602.9803293999998	1603.9826766	1604.5441184	1606.0835487	1607.101002	1608.1177497	1609.1390105	1610.1522563	1611.0672298	2020-07-07 13:30:17.828006	2.73824207630925	2.22661302501999	1.34124722154582	2.21784265487903	4.07948929785507	1.34124722154582	-2.73824207630925	2.22661302501999	1.34124722154582	4.07948929785507	1.34124722154582	-2.22661302501999	-2.5395258276656882	0.8675199208490547	1.1669057282595063	-0.48069210527659356	0.9216991278111948	1.1669057282595063	-2.3810006901917053	-0.22546048579749645	2.3140653418681962	-0.7574291169025575	2.7918547660111184	2	correct	1.0
374.4087169999998	8.521095699999933	go_reward	0.9341335999997682	374.4385808000002	375.9365305000001	378.4968396000004	1.4979496999999355	375.44491140000014	377.4766205000003	381.5528647000003	0.4916190999999799	1.0202191000000767	1.4068117999997867	380.54458490000025	0.4028839000002335	379.51475440000013	1	1	104	1	go_reward	0	0	1	1	1	1	0	0.0	1.0	0	0.9341335999997682	0.4028839000002335	1236.6733430999998	1611.1119239	1612.1182545	1612.6098736	1614.1499636	1615.1701827000002	1616.1880975	1617.217928	1618.2262078	1619.6330196	2020-07-07 13:30:17.828006	14.6047281596267	9.02659856012146	0.0	8.72152002241792	14.6047281596267	0.0	-14.6047281596267	9.02659856012146	0.0	14.6047281596267	0.0	-9.02659856012146	9.32696025565176	7.667505455950525	-0.1743414932863137	6.022985262262296	11.446937989582825	-0.1743414932863137	-9.180986225293175	10.299778375974132	0.9728181203223761	6.042556418198913	1.4506075444652986	2	correct	1.0
382.96913719999975	8.873502600000165	nogo_reward	0.545079099999839	382.99900100000013	384.8707214000003	387.4216293000004	1.8717204000001857	384.01044820000016	386.4087045000001	390.46456880000005	0.8602732000001652	1.0129248000002917	1.4079348000002483	389.45185400000037	0.5379473999996662	388.4387385	1	1	105	2	nogo_reward	1	0	1	0	1	0	1	1.0	1.0	0	0.545079099999839	0.5379473999996662	1236.6733430999998	1619.6723441	1620.6837913	1621.5440645	1623.0820476	1624.0949724000002	1625.1120815999998	1626.1251971000002	1627.1379118999998	1628.5458467	2020-07-07 13:30:17.828006	2.38909952716561	2.00369621226728	1.34124722154582	1.99842136036243	3.73034674871143	1.34124722154582	-2.38909952716561	2.00369621226728	1.34124722154582	3.73034674871143	1.34124722154582	-2.00369621226728	-2.888668376809328	0.6446031080963446	1.1669057282595063	-0.7001133997931939	0.5725565786675548	1.1669057282595063	-2.158083877438995	-0.5746030349411364	2.3140653418681962	-0.9803459296552677	2.7918547660111184	2	correct	1.0
391.88447999999994	9.51325679999968	nogo_reward	0.3504782999998497	391.9143438000003	394.54224850000037	397.0830063000003	2.6279047000000446	392.92555900000025	396.07112670000015	400.13918690000037	1.6166895000001205	1.0118796000001566	1.2884136999996372	399.1279138	0.5591748000001644	398.0986240000002	1	1	106	2	nogo_reward	1	0	1	0	1	0	0	0.0	1.0	0	0.3504782999998497	0.5591748000001644	1236.6733430999998	1628.5876869	1629.5989021	1631.2155916000002	1632.7444698	1633.7563494	1634.7719671	1635.8012568999998	1636.8125300000002	1638.1009436999998	2020-07-07 13:30:17.828006	2.07844291899287	1.80520718437244	1.34124722154582	1.8028159369169	3.41969014053868	1.34124722154582	-2.07844291899287	1.80520718437244	1.34124722154582	3.41969014053868	1.34124722154582	-1.80520718437244	-3.199324984982068	0.44611408020150467	1.1669057282595063	-0.8957188232387239	0.2618999704948046	1.1669057282595063	-1.9595948495441555	-0.8852596431138866	2.3140653418681962	-1.1788349575501076	2.7918547660111184	2	correct	1.0
401.44163159999994	9.178127599999925	go_reward	0.4317575000000033	401.4714954000003	404.02372220000007	406.5654617	2.552226799999744	402.4787564000003	405.5479273000003	409.6249580000001	1.5449657999997726	1.017534399999704	1.024665000000141	408.61557200000016	0.4810732000000826	407.58661630000006	1	1	107	1	go_reward	1	1	0	1	1	1	0	0.0	1.0	1	0.4317575000000033	0.4810732000000826	1236.6733430999998	1638.1448385	1639.1520995	1640.6970652999998	1642.2212704	1643.2388047999998	1644.2599593999998	1645.2889151	1646.2983011	1647.3229661	2020-07-07 13:30:17.828006	13.1224241516693	8.07978698175096	0.0	7.80728185163118	13.1224241516693	0.0	-13.1224241516693	8.07978698175096	0.0	13.1224241516693	0.0	6.72974833639744	7.8446562476943615	6.7206938775800245	-0.1743414932863137	5.108747091475557	9.964633981625425	-0.1743414932863137	6.575360671225725	8.817474368016732	0.9728181203223761	5.095744839828413	1.4506075444652986	2	correct	1.0
410.66931249999993	8.926695199999813	nogo_reward	0.6027445999998235	410.6991763000003	412.6771003000001	415.21941300000026	1.9779239999998026	411.7146233000003	414.2070653000003	418.2788074	0.962476999999808	1.0123476999999639	1.347064100000125	417.27539430000024	0.479880200000025	416.2378292000003	1	1	108	2	nogo_reward	1	0	1	0	1	0	1	1.0	1.0	0	0.6027445999998235	0.479880200000025	1236.6733430999998	1647.3725194	1648.3879664	1649.3504434	1650.8804084	1651.8927561	1652.9111723	1653.9487374	1654.9521504999998	1656.2992146	2020-07-07 13:30:17.828006	1.80171295215821	1.62826771351372	1.34124722154582	1.62824322343111	3.14296017370403	1.34124722154582	-1.80171295215821	1.62826771351372	1.34124722154582	3.14296017370403	1.34124722154582	-1.62826771351372	-3.476054951816728	0.2691746093427847	1.1669057282595063	-1.0702915367245138	-0.014829996339845497	1.1669057282595063	-1.7826553786854356	-1.1619896099485367	2.3140653418681962	-1.3557744284088276	2.7918547660111184	2	correct	1.0
419.6500817999997	8.906514099999868	nogo_punish	1.0	419.6799456000001	421.52433500000006	424.0562595000001	1.8443893999999545	420.6805528	423.0328720000002	427.09234100000003	0.8437822000000779	1.0233874999998989	1.4941186999999445	426.0898981	0.4508590000000367	425.0628700000002	1	1	109	4	nogo_punish	1	-1	0	0	0	1	0	0.0	1.0	0	1.0	0.4508590000000367	1236.6733430999998	1656.3532887	1657.3538958999998	1658.1976780999998	1659.7062151	1660.7296026	1661.7362131	1662.7632411999998	1663.7656840999998	1665.2598027999998	2020-07-07 13:30:17.828006	0.252885876406805	-2.0561681212415	-3.05706317059429	-3.34937601855323	-3.3099490470011	-3.05706317059429	-0.252885876406805	-3.05706317059429	-2.0561681212415	-3.05706317059429	-3.3099490470011	3.05706317059429	-5.024882027568133	-3.4152612254124355	-3.2314046638806038	-6.047910778708854	-6.467739217044976	-3.2314046638806038	2.902675505422575	-7.362012954246857	-2.3371309266787237	-6.041105312516837	-0.6055605767762013	2	correct	1.0
428.59974669999974	9.417910900000152	go_reward	0.3522124000000985	428.6296105000001	431.21350140000004	433.7725607000002	2.583890899999915	429.6373047000002	432.7473978000003	436.81137590000026	1.576196699999855	1.0251628999999411	1.2361455000000205	435.7982086000002	0.45037769999999	434.77840760000026	1	1	110	1	go_reward	1	1	0	1	1	1	0	0.0	1.0	1	0.3522124000000985	0.45037769999999	1236.6733430999998	1665.3029536	1666.3106478	1667.8868444999998	1669.4207409	1670.4459038	1671.4517507	1672.4715517	1673.484719	1674.7208645	2020-07-07 13:30:17.828006	14.2047668557026	8.75324952240777	0.0	8.50957344800837	14.2047668557026	0.0	-14.2047668557026	8.75324952240777	0.0	14.2047668557026	0.0	6.05628579574063	8.926998951727661	7.394156418236835	-0.1743414932863137	5.811038687852745	11.046976685658723	-0.1743414932863137	5.901898130568914	9.899817072050034	0.9728181203223761	5.7692073804852235	1.4506075444652986	2	correct	1.0
438.0601767999997	8.33514809999997	go_punish	1.0	438.09004060000007	439.94311860000016	442.473289	1.853078000000096	439.0984024000004	441.4572879000002	445.5257880000004	0.8447161999997661	1.0160010999998121	0.89940069999966	444.50878980000016	0.9620874000002004	443.4847080000004	1	1	111	3	go_punish	0	-1	0	1	0	0	0	1.0	0.0	0	1.0	0.9620874000002004	1236.6733430999998	1674.7633836999998	1675.7717455000002	1676.6164617	1678.130631	1679.1466320999998	1680.1580511000002	1681.1821329	1682.1991311000002	1683.0985317999998	2020-07-07 13:30:17.828006	-0.495069787814655	-1.94764523675762	-3.71856205304005	-3.39575022743552	-3.22349226522539	-3.71856205304005	0.495069787814655	-3.71856205304005	-1.94764523675762	-3.71856205304005	-3.22349226522539	3.71856205304005	-5.772837691789594	-3.3067383409285553	-3.8929035463263637	-6.094284987591143	-6.381282435269265	-3.8929035463263637	3.5641743878683347	-8.023511836692617	-2.2506741449030137	-6.702604194962598	-0.4970376922923214	2	wrong	1.0
446.44075739999994	7.818259299999909	go_reward	0.6929565999998886	446.4706212000003	447.7968565000001	450.3503713	1.3262352999997802	447.4688084000004	449.32102710000026	453.4087091000001	0.3280480999997053	1.0293441999997412	0.8801714000001084	452.4070558000003	0.4506629999996221	451.3670530000004	1	1	112	1	go_reward	1	1	0	1	1	1	1	1.0	1.0	1	0.6929565999998886	0.4506629999996221	1236.6733430999998	1683.1439643	1684.1421515000002	1684.4701996	1685.9943702	1687.0237143999998	1688.0403961000002	1689.0803989	1690.0820522	1690.9622236	2020-07-07 13:30:17.828006	15.1643562187955	9.3511519888516	0.0	9.13301902027419	15.1643562187955	0.0	-15.1643562187955	9.3511519888516	0.0	15.1643562187955	0.0	5.458383329296801	9.886588314820562	7.992058884680664	-0.1743414932863137	6.434484260118566	12.006566048751626	-0.1743414932863137	5.303995664125085	10.859406435142933	0.9728181203223761	6.367109846929052	1.4506075444652986	2	correct	1.0
454.3157934999999	7.927135800000087	go_punish	1.0	454.3456573000003	455.79258600000003	458.3192495000003	1.4469286999997166	455.3562410000004	457.3022256000004	461.3667553	0.4363449999996192	1.0170238999999128	0.9060378000003766	460.3542371000003	0.773290299999644	459.33151780000026	1	1	113	3	go_punish	1	0	-1	1	0	0	1	1.0	1.0	-1	1.0	0.773290299999644	1236.6733430999998	1691.0190004	1692.0295841000002	1692.4659290999998	1693.9755687000002	1694.9925926	1696.0048609	1697.0275802	1698.0400983999998	1698.9461362000002	2020-07-07 13:30:17.828006	-0.286357476003292	-1.94764523675762	-3.3058703033886	-3.03776719319318	-3.0195128273853	-3.3058703033886	0.286357476003292	-3.3058703033886	-1.94764523675762	-3.3058703033886	-3.0195128273853	-5.774654830188361	-5.56412537997823	-3.3067383409285553	-3.4802117966749138	-5.7363019533488036	-6.177302997429175	-3.4802117966749138	-5.929042495360076	-7.610820087041167	-2.046694707062924	-6.289912445311147	-0.4970376922923214	2	correct	1.0
462.2879856999998	9.312179000000015	go_reward	0.338677799999914	462.3178495000002	465.0901364000001	467.6318347000001	2.7722868999999264	463.3248155000001	466.6139589000004	470.686275	1.765320900000006	1.0178757999997288	0.9437535000001844	469.6695687000001	0.8857826999997087	468.6447208000004	1	1	114	1	go_reward	1	1	0	1	1	1	1	1.0	1.0	1	0.338677799999914	0.8857826999997087	1236.6733430999998	1698.9911926	1699.9981586	1701.7634795	1703.2873020000002	1704.3051778	1705.3180639000002	1706.3429118	1707.3596180999998	1708.3033716	2020-07-07 13:30:17.828006	16.0163417263642	9.88273570074129	0.0	9.68725886337628	16.0163417263642	0.0	-16.0163417263642	9.88273570074129	0.0	16.0163417263642	0.0	4.926799617407111	10.738573822389261	8.523642596570355	-0.1743414932863137	6.988724103220656	12.858551556320325	-0.1743414932863137	4.772411952235395	11.711391942711632	0.9728181203223761	6.898693558818742	1.4506075444652986	2	correct	1.0
471.63787920000004	9.338392499999827	nogo_reward	0.3003089999997428	471.6677430000004	473.9545427000003	476.52163480000013	2.286799699999847	472.6730044000003	475.50196570000026	479.55980580000005	1.2815382999999656	1.0196690999998737	1.4463297000002058	478.5493508000004	0.8817895000001954	477.5241201000001	1	1	115	2	nogo_reward	1	0	1	0	1	0	0	0.0	1.0	0	0.3003089999997428	0.8817895000001954	1236.6733430999998	1708.3410861000002	1709.3463475	1710.6278858	1712.1753088	1713.1949779	1714.1974632	1715.2226939000002	1716.2331488999998	1717.6794786	2020-07-07 13:30:17.828006	1.55492527037879	1.4703608209946	1.34124722154582	1.47226678757096	2.89617249192461	1.34124722154582	-1.55492527037879	1.4703608209946	1.34124722154582	2.89617249192461	1.34124722154582	-1.4703608209946	-3.7228426335961484	0.11126771682366465	1.1669057282595063	-1.2262679725846637	-0.2616176781192654	1.1669057282595063	-1.6247484861663155	-1.4087772917279566	2.3140653418681962	-1.5136813209279476	2.7918547660111184	2	correct	1.0
481.02429519999987	9.498547099999996	go_reward	0.3463701000000583	481.05415900000025	483.4904222	486.0475227000002	2.4362631999997575	482.0705828	485.0233482000003	489.0907467000002	1.4198394000000008	1.0241744999998446	1.4619594000000689	488.0789046	0.4561997999999221	487.06359810000004	1	1	116	1	go_reward	1	1	0	1	1	1	1	1.0	1.0	1	0.3463701000000583	0.4561997999999221	1236.6733430999998	1717.7275021	1718.7439258999998	1720.1637652999998	1721.6966913	1722.7208658	1723.7369411999998	1724.7522476999998	1725.7640898	1727.2260492	2020-07-07 13:30:17.828006	16.7738591165243	10.3560224803563	0.0	10.1806624888512	16.7738591165243	0.0	-16.7738591165243	10.3560224803563	0.0	16.7738591165243	0.0	4.4535128377921005	11.496091212549361	8.996929376185365	-0.1743414932863137	7.482127728695575	13.616068946480425	-0.1743414932863137	4.299125172620385	12.468909332871732	0.9728181203223761	7.371980338433753	1.4506075444652986	2	correct	1.0
490.5643230999999	9.302928600000087	nogo_reward	0.3332434999997531	490.5941869000003	493.3155806	495.8637391000002	2.7213936999996804	491.6034674000002	494.8429524000003	498.9272133000004	1.7121131999997488	1.020786699999917	0.9699021999999786	497.9165322000001	0.7186037999999826	496.8832202000003	1	1	117	2	nogo_reward	1	0	1	0	1	0	1	1.0	1.0	0	0.3332434999997531	0.7186037999999826	1236.6733430999998	1727.26753	1728.2768105	1729.9889236999998	1731.5162955	1732.5370822	1733.5565633	1734.5898753	1735.6005564000002	1736.5704586000002	2020-07-07 13:30:17.828006	1.33459362170465	1.3292826815934	1.34124722154582	1.33275108760069	2.67584084325047	1.34124722154582	-1.33459362170465	1.3292826815934	1.34124722154582	2.67584084325047	1.34124722154582	-1.3292826815934	-3.9431742822702884	-0.0298104225775353	1.1669057282595063	-1.3657836725549337	-0.4819493267934054	1.1669057282595063	-1.4836703467651153	-1.6291089404020966	2.3140653418681962	-1.6547594603291476	2.7918547660111184	2	correct	1.0
499.90925259999995	8.433276100000057	nogo_reward	1.0	499.93911640000033	501.9392901000001	504.466938	2.0001736999997775	500.9477326000001	503.4483301	507.5032418000003	0.991557499999999	1.0186079000000063	0.8691507000000911	506.4979423	0.6816973999998481	505.47418300000027	1	1	118	2	nogo_reward	1	0	1	0	0	1	0	0.0	1.0	1	1.0	0.6816973999998481	1236.6733430999998	1736.6124595	1737.6210757	1738.6126332	1740.1216731999998	1741.1402810999998	1742.1475261	1743.1712853999998	1744.1765849	1745.0457356000002	2020-07-07 13:30:17.828006	-1.13766389829843	1.20310131857345	1.34124722154582	1.20782206123136	2.47891111984425	1.34124722154582	1.13766389829843	1.34124722154582	1.20310131857345	1.34124722154582	2.47891111984425	13.468288096602581	-6.4154318022733685	-0.15599178559748528	1.1669057282595063	-1.4907126989242638	-0.6788790501996251	1.1669057282595063	13.313900431430866	-2.9637025621067465	3.4517292401666264	-1.6427949203767276	2.653708863038749	2	correct	1.0
508.38319739999974	9.312359000000242	nogo_punish	1.0	508.41306120000013	510.88797680000016	513.4105674000002	2.474915600000031	509.42309430000023	512.3839458000002	516.4587347000002	1.4648824999999306	1.0266215999999986	1.2666855000002215	515.4519107000003	0.4532217999999375	514.4226190000004	1	1	119	4	nogo_punish	0	0	-1	0	0	1	0	0.0	1.0	-1	1.0	0.4532217999999375	1236.6733430999998	1745.0864043	1746.0964374	1747.5613199	1749.0572889	1750.0839105	1751.0959621000002	1752.1252538	1753.1320778	1754.3987633000002	2020-07-07 13:30:17.828006	0.383904227862702	-2.0561681212415	-2.72300854817909	-2.993715730334	-3.10691277604179	-2.72300854817909	-0.383904227862702	-2.72300854817909	-2.0561681212415	-2.72300854817909	-3.10691277604179	-6.357516585397871	-4.893863676112236	-3.4152612254124355	-2.897350041465404	-5.692250490489624	-6.264702946085665	-2.897350041465404	-6.511904250569587	-7.027958331831657	-2.1340946557194136	-5.707050690101638	-0.6055605767762013	2	correct	1.0
517.7435369999998	7.9324791999997615	go_punish	0.809284899999966	517.7734008000002	519.3373998000002	521.8886885000002	1.563998999999967	518.7761549000002	520.8704665	524.9316982	0.5612449000000197	1.0182220000001507	0.7741817999999512	523.9249708000002	0.4382219999997687	522.8966710000004	1	1	120	3	go_punish	1	0	-1	1	1	1	0	0.0	1.0	0	0.809284899999966	0.4382219999997687	1236.6733430999998	1754.4467439	1755.449498	1756.0107429	1757.5438095999998	1758.5620316	1759.5700141000002	1760.5983139	1761.6050412999998	1762.3792230999998	2020-07-07 13:30:17.828006	0.506164950724153	-1.94764523675762	-3.87299809783613	-3.6509655067332	-3.36683314711198	-3.87299809783613	-0.506164950724153	-1.94764523675762	-3.87299809783613	-3.36683314711198	-3.87299809783613	1.94764523675762	-4.7716029532507855	-3.3067383409285553	-4.0473395911224435	-6.349500266888824	-6.524623317155855	-4.0473395911224435	1.7932575715859045	-7.671782930764547	-2.9001799775137536	-4.931687378680167	-2.422390553370831	2	correct	1.0
