onset	duration	trial_type	response_time	cueOnset	targetOnset	fbOnset	cueRT	firstfixOnset	secondfixOnset	waitOnset	firstfixdur	secondfixdur	waitdur	nback_fbOnset	nback_response_time	nback_targetOnset	block	wm	trial	cue	cond	is_common	outcome_go	outcome_nogo	key_correct	key_pressed	is_correct	key_correct_nback	key_pressed_nback	is_correct_nback	outcome	rt	rt_nback	time_scan	time_onset	time_isi1	time_circle	time_isi2	time_feedback	time_same	time_correct	time_iti	time_done	timestamp_scan	DV	Qgo	Qnogo	SV	Wgo	Wnogo	mDV	Qchosen	Qunchosen	Wchosen	Wunchosen	PE	DVC	QgoC	QnogoC	SVC	WgoC	WnogoC	PEC	WchosenC	WunchosenC	QchosenC	QunchosenC	run	outcome_nback	nback_targetResp
0.0	7.355813399888575	go_reward	0.2740961001254618	0.019259900087490678	2.804132000077516	5.45308730006218	2.784872099990025	1.015857100021094	4.422776099992916	6.468820900190394	1.7882749000564218	1.0303112000692636	0.9062523997856715	n/a	1.0	n/a	2	0	1	1	go_reward	0	0	1	1	1	1	0	n/a	n/a	0	0.2740961001254618	1.0	1578.112085700035	1578.1313456001226	1579.1279428000562	1580.9162177001126	1582.534861800028	1583.5651730000973	n/a	n/a	1584.5809066002255	1585.4871590000112	2020-02-08 12:22:29.731428	0.690047736799606	0.0	0.0	0.0	0.690047736799606	0.0	-0.690047736799606	0.0	0.0	0.690047736799606	0.0	0.0	-2.906322551022013	-0.4504457994807188	-0.007637679682013617	-1.6146381020263796	-0.9431150170264279	-0.007637679682013617	-0.1041884427319344	-1.928537623865226	0.9777849271567851	-1.8862634441658912	1.4281799650031597	3	missed	0.0
7.469315199879702	6.334904200164829	nogo_reward	0.3186029000207782	7.488575099967193	8.991704300045967	11.539492900017649	1.5031292000787744	8.493919000029791	10.541428700089227	12.557026100112125	0.4977853000161758	0.9980641999284217	1.266453200019896	n/a	1.0	n/a	2	0	2	2	nogo_reward	1	0	1	0	1	0	0	n/a	n/a	0	0.3186029000207782	1.0	1578.112085700035	1585.6006608000023	1586.606004700065	1587.103790000081	1588.6535144001243	1589.6515786000527	n/a	n/a	1590.6691118001472	1591.9355650001671	2020-02-08 12:22:29.731428	0.690047736799606	0.0	0.0	0.0	0.690047736799606	0.0	-0.690047736799606	0.0	0.0	0.690047736799606	0.0	0.0	-2.906322551022013	-0.4504457994807188	-0.007637679682013617	-1.6146381020263796	-0.9431150170264279	-0.007637679682013617	-0.1041884427319344	-1.928537623865226	0.9777849271567851	-1.8862634441658912	1.4281799650031597	3	missed	0.0
13.837888600071892	6.634694099891931	nogo_punish	0.3607883001677692	13.857148500159383	15.715440700063482	18.2807732000947	1.858292199904099	14.870862500043813	17.256341600092128	19.289292400004342	0.8445782000196687	1.024431600002572	1.2025502000469714	n/a	1.0	n/a	2	0	3	4	nogo_punish	1	-1	0	0	1	0	0	n/a	n/a	-1	0.3607883001677692	1.0	1578.112085700035	1591.9692342001945	1592.982948200079	1593.8275264000986	1595.3684273001272	1596.3928589001298	n/a	n/a	1597.4013781000394	1598.6039283000864	2020-02-08 12:22:29.731428	0.690047736799606	0.0	0.0	0.0	0.690047736799606	0.0	-0.690047736799606	0.0	0.0	0.690047736799606	0.0	-7.58909621376947	-2.906322551022013	-0.4504457994807188	-0.007637679682013617	-1.6146381020263796	-0.9431150170264279	-0.007637679682013617	-7.693284656501405	-1.928537623865226	0.9777849271567851	-1.8862634441658912	1.4281799650031597	3	missed	0.0
20.49863149994053	7.327919499948393	go_reward	1.0	20.51789140002802	22.875129100168124	25.400052500190213	2.3572377001401037	21.51489350013435	24.391739800106734	26.407763900002465	1.360235600033775	1.0083127000834793	1.438046999973949	n/a	1.0	n/a	2	0	4	1	go_reward	1	1	0	1	0	0	0	n/a	n/a	0	1.0	1.0	1578.112085700035	1598.6299771000631	1599.6269792001694	1600.9872148002032	1602.5038255001418	1603.5121382002253	n/a	n/a	1604.5198496000376	1605.9578966000115	2020-02-08 12:22:29.731428	-0.690047736799606	0.0	0.0	0.0	0.690047736799606	0.0	0.690047736799606	0.0	0.0	0.0	0.690047736799606	0.0	-4.286418024621225	-0.4504457994807188	-0.007637679682013617	-1.6146381020263796	-0.9431150170264279	-0.007637679682013617	-0.1041884427319344	-2.618585360664832	1.667832663956391	-1.8862634441658912	1.4281799650031597	3	missed	0.0
27.854881099890918	7.570556099992018	go_reward	0.2478682999499142	27.874140999978408	30.584195700008422	33.13176400004886	2.710054700030014	28.872427599970024	32.11721030017361	34.12798870005645	1.7117681000383982	1.0145536998752505	1.3167083999139777	n/a	1.0	n/a	2	0	5	1	go_reward	1	1	0	1	1	1	0	n/a	n/a	1	0.2478682999499142	1.0	1578.112085700035	1605.9862267000135	1606.9845133000051	1608.6962814000435	1610.2292960002087	1611.243849700084	n/a	n/a	1612.2400744000915	1613.5567828000055	2020-02-08 12:22:29.731428	0.690047736799606	0.0	0.0	0.0	0.690047736799606	0.0	-0.690047736799606	0.0	0.0	0.690047736799606	0.0	9.24183436836282	-2.906322551022013	-0.4504457994807188	-0.007637679682013617	-1.6146381020263796	-0.9431150170264279	-0.007637679682013617	9.137645925630885	-1.928537623865226	0.9777849271567851	-1.8862634441658912	1.4281799650031597	3	missed	0.0
35.45000410010107	6.575739399995655	go_reward	0.231219100067392	35.46926400018856	37.112058700062335	39.65517470007762	1.6427946998737752	36.46129580005072	38.64319059997797	40.66305830003694	0.650762900011614	1.011984100099653	1.3819451001472771	n/a	1.0	n/a	2	0	6	1	go_reward	1	1	0	1	1	1	1	n/a	n/a	1	0.231219100067392	1.0	1578.112085700035	1613.5813497002237	1614.5733815000858	1615.2241444000974	1616.755276300013	1617.7672604001127	n/a	n/a	1618.775144000072	1620.1570891002193	2020-02-08 12:22:29.731428	4.98422285226381	3.49309055893628	0.0	3.49309055893628	4.98422285226381	0.0	-4.98422285226381	3.49309055893628	0.0	4.98422285226381	0.0	5.74874380942654	1.3878525644421904	3.0426447594555612	-0.007637679682013617	1.8784524569099004	3.3510600984377756	-0.007637679682013617	5.644555366694606	2.3656374915989775	0.9777849271567851	1.6068271147703888	1.4281799650031597	3	missed	0.0
42.05267390003428	7.136249399976805	go_reward	0.2588093997910619	42.07193380012177	44.28728809999279	46.825511700008065	2.2153542998710236	43.08649120014161	45.810369600076	47.822842500172555	1.2007968998511842	1.0151420999320635	1.3853406999260187	n/a	1.0	n/a	2	0	7	1	go_reward	1	1	0	1	1	1	1	n/a	n/a	1	0.2588093997910619	1.0	1578.112085700035	1620.1840195001569	1621.1985769001767	1622.399373800028	1623.922455300111	1624.9375974000432	n/a	n/a	1625.9349282002077	1627.3202689001337	2020-02-08 12:22:29.731428	7.5256553219466	5.56229901224362	0.0	5.56229901224362	7.5256553219466	0.0	-7.5256553219466	5.56229901224362	0.0	7.5256553219466	0.0	3.6795353561192004	3.9292850341249803	5.111853212762901	-0.007637679682013617	3.94766091021724	5.8924925681205655	-0.007637679682013617	3.575346913387266	4.907069961281767	0.9777849271567851	3.6760355680777286	1.4281799650031597	3	missed	0.0
49.25861770007759	6.584402999840677	nogo_reward	1.0	49.277877600165084	50.96595080010593	53.50027070008218	1.6880731999408454	50.27923330012709	52.48488440015353	54.497621400048956	0.6867174999788404	1.0153862999286503	1.3646591999568045	n/a	1.0	n/a	2	0	8	2	nogo_reward	1	0	1	0	0	1	0	n/a	n/a	1	1.0	1.0	1578.112085700035	1627.3899633002002	1628.3913190001622	1629.078036500141	1630.5969701001886	1631.6123564001173	n/a	n/a	1632.609707100084	1633.9743663000409	2020-02-08 12:22:29.731428	-0.690047736799606	0.0	0.0	0.0	0.690047736799606	0.0	0.690047736799606	0.0	0.0	0.0	0.690047736799606	9.24183436836282	-4.286418024621225	-0.4504457994807188	-0.007637679682013617	-1.6146381020263796	-0.9431150170264279	-0.007637679682013617	9.137645925630885	-2.618585360664832	1.667832663956391	-1.8862634441658912	1.4281799650031597	3	missed	0.0
55.89041589992121	7.11372430017218	go_punish	0.2430827999487519	55.9096758000087	58.66315430006921	61.201626599999145	2.7534785000605098	56.90171320014633	60.19220670009963	62.221696000080556	1.7614410999228767	1.0094198998995125	0.8017041001003236	n/a	1.0	n/a	2	0	9	3	go_punish	1	0	-1	1	1	1	0	n/a	n/a	0	0.2430827999487519	1.0	1578.112085700035	1634.0217615000438	1635.0137989001814	1636.7752400001043	1638.3042924001347	1639.3137123000342	n/a	n/a	1640.3337817001157	1641.135485800216	2020-02-08 12:22:29.731428	0.690047736799606	0.0	0.0	0.0	0.690047736799606	0.0	-0.690047736799606	0.0	0.0	0.690047736799606	0.0	0.0	-2.906322551022013	-0.4504457994807188	-0.007637679682013617	-1.6146381020263796	-0.9431150170264279	-0.007637679682013617	-0.1041884427319344	-1.928537623865226	0.9777849271567851	-1.8862634441658912	1.4281799650031597	3	missed	0.0
63.028706500073895	5.85611669998616	nogo_punish	1.0	63.047966400161386	64.37139600003138	66.8841370001901	1.3234295998699963	64.05280639999546	65.86603910010308	67.89495310001075	0.31858960003592074	1.0180979000870138	1.0091300001367927	n/a	1.0	n/a	2	0	10	4	nogo_punish	1	-1	0	0	0	1	0	n/a	n/a	0	1.0	1.0	1578.112085700035	1641.1600521001965	1642.1648921000306	1642.4834817000665	1643.9781248001382	1644.9962227002252	n/a	n/a	1646.0070388000458	1647.0161688001826	2020-02-08 12:22:29.731428	2.56918418632698	-2.69807046029739	0.0	-2.69807046029739	-2.56918418632698	0.0	-2.56918418632698	0.0	-2.69807046029739	0.0	-2.56918418632698	0.0	-1.0271861014946393	-3.1485162597781087	-0.007637679682013617	-4.3127085623237695	-4.202346940153014	-0.007637679682013617	-0.1041884427319344	-2.618585360664832	-1.5913992591701949	-1.8862634441658912	-1.2698904952942303	3	missed	0.0
68.91406899993308	5.891171799972653	go_reward	0.2508680999744683	68.93332890002057	70.33640670008026	72.885788000189	1.403077800059691	69.94225690001622	71.86048060003668	73.89355440018699	0.3941498000640422	1.0253074001523146	0.9309462998062372	n/a	1.0	n/a	2	0	11	1	go_reward	1	1	0	1	1	1	0	n/a	n/a	1	0.2508680999744683	1.0	1578.112085700035	1647.0454146000557	1648.0543426000513	1648.4484924001154	1649.9725663000718	1650.997873700224	n/a	n/a	1652.005640100222	1652.9365864000283	2020-02-08 12:22:29.731428	9.07804879246417	6.82762672216904	0.0	6.82762672216904	9.07804879246417	0.0	-9.07804879246417	6.82762672216904	0.0	9.07804879246417	0.0	2.4142076461937805	5.4816785046425505	6.3771809226883205	-0.007637679682013617	5.21298862014266	7.444886038638136	-0.007637679682013617	2.310019203461846	6.459463431799337	0.9777849271567851	4.9413632780031485	1.4281799650031597	3	missed	0.0
74.90961030009203	6.943307499866933	go_punish	1.0	74.92887020017952	77.3938168999739	79.9037342001684	2.464946699794382	75.92640890018083	78.88767610001378	80.91802810016088	1.4674079997930676	1.0160581001546234	0.954149599885568	n/a	1.0	n/a	2	0	12	3	go_punish	1	0	-1	1	0	0	0	n/a	n/a	-1	1.0	1.0	1578.112085700035	1653.0409559002146	1654.038494600216	1655.505902600009	1656.9997618000489	1658.0158199002035	n/a	n/a	1659.030113800196	1659.9842634000815	2020-02-08 12:22:29.731428	-0.690047736799606	0.0	0.0	0.0	0.690047736799606	0.0	0.690047736799606	0.0	0.0	0.0	0.690047736799606	-7.58909621376947	-4.286418024621225	-0.4504457994807188	-0.007637679682013617	-1.6146381020263796	-0.9431150170264279	-0.007637679682013617	-7.693284656501405	-2.618585360664832	1.667832663956391	-1.8862634441658912	1.4281799650031597	3	missed	0.0
81.88192679989152	6.693312200019136	go_reward	0.2641629998106509	81.90118669997901	83.5560461001005	86.09803490014747	1.6548594001214951	82.90762419998646	85.08567639999092	87.10861610015854	0.6484219001140445	1.0123585001565516	1.485882799839601	n/a	1.0	n/a	2	0	13	1	go_reward	1	1	0	1	1	1	1	n/a	n/a	1	0.2641629998106509	1.0	1578.112085700035	1660.013272400014	1661.0197099000216	1661.6681318001356	1663.197762100026	1664.2101206001826	n/a	n/a	1665.2207018001936	1666.7065846000332	2020-02-08 12:22:29.731428	10.0526349515059	7.62300034696438	0.0	7.62300034696438	10.0526349515059	0.0	-10.0526349515059	7.62300034696438	0.0	10.0526349515059	0.0	1.61883402139844	6.45626466368428	7.172554547483661	-0.007637679682013617	6.0083622449380005	8.419472197679866	-0.007637679682013617	1.5146455786665056	7.434049590841067	0.9777849271567851	5.736736902798489	1.4281799650031597	3	missed	0.0
88.60359290009364	6.286973099922761	go_reward	0.3010374999139458	88.62285280018114	90.10824250010774	92.66465650009923	1.4853896999265999	89.61422970006242	91.64095999998972	93.67225140007213	0.49401280004531145	1.0236965001095086	1.2375745000317693	n/a	1.0	n/a	2	0	14	1	go_reward	1	1	0	1	1	1	0	n/a	n/a	1	0.3010374999139458	1.0	1578.112085700035	1666.7349385002162	1667.7263154000975	1668.2203282001428	1669.7530457000248	1670.7767422001343	n/a	n/a	1671.7843371001072	1673.021911600139	2020-02-08 12:22:29.731428	10.6793648685963	8.13520730512303	0.0	8.13520730512303	10.6793648685963	0.0	-10.6793648685963	8.13520730512303	0.0	10.6793648685963	0.0	1.1066270632397899	7.082994580774681	7.684761505642311	-0.007637679682013617	6.520569203096651	9.046202114770267	-0.007637679682013617	1.0024386205078555	8.060779507931468	0.9777849271567851	6.248943860957139	1.4281799650031597	3	missed	0.0
95.00434820004739	6.7380772000178695	nogo_reward	0.2008563999552279	95.02360810013488	96.85099219996482	99.40319300000579	1.827384099829942	96.03276229999028	98.37713799998164	100.4168273000978	0.8182298999745399	1.0260550000241437	1.3448580000549555	n/a	1.0	n/a	2	0	15	2	nogo_reward	1	0	1	0	1	0	0	n/a	n/a	0	0.2008563999552279	1.0	1578.112085700035	1673.13569380017	1674.1448480000254	1674.9630779	1676.4892237000167	1677.5152787000409	n/a	n/a	1678.528913000133	1679.8737710001878	2020-02-08 12:22:29.731428	-2.00195826560875	0.0	3.49309055893628	3.49309055893628	1.49113229332753	3.49309055893628	2.00195826560875	0.0	3.49309055893628	1.49113229332753	3.49309055893628	0.0	-5.598328553430369	-0.4504457994807188	3.4854528792542663	1.8784524569099004	-0.14203046049850387	3.4854528792542663	-0.1041884427319344	-1.1274530673373022	4.470875486093065	-1.8862634441658912	4.921270523939439	3	missed	0.0
101.76562969991937	6.580095600103959	nogo_punish	1.0	101.78488960000686	103.95084760012082	106.46908370009601	2.1659580001139602	102.78423280012794	105.45505660003982	107.4795248999726	1.1666147999928853	1.0140271000561825	0.8854603001382202	n/a	1.0	n/a	2	0	16	4	nogo_punish	1	-1	0	0	0	1	0	n/a	n/a	0	1.0	1.0	1578.112085700035	1679.896975300042	1680.896318500163	1682.062933300156	1683.567142300075	1684.581169400131	n/a	n/a	1685.5916106000077	1686.477070900146	2020-02-08 12:22:29.731428	2.35107208505289	-2.69807046029739	0.0	-1.65773476860828	-2.35107208505289	0.0	-2.35107208505289	0.0	-2.69807046029739	0.0	-2.35107208505289	0.0	-1.2452982027687294	-3.1485162597781087	-0.007637679682013617	-3.2723728706346593	-3.9842348388789235	-0.007637679682013617	-0.1041884427319344	-2.618585360664832	-1.3732871578961048	-1.8862634441658912	-1.2698904952942303	3	missed	0.0
108.42557589989133	6.1025865999984035	nogo_reward	1.0	108.44483579997882	109.80113190016709	112.33654429996386	1.356296100188274	109.44227270013653	111.31228390010074	113.33325110003352	0.35885920003056526	1.024260399863124	1.2141712999437004	n/a	1.0	n/a	2	0	17	2	nogo_reward	1	0	1	0	0	1	1	n/a	n/a	1	1.0	1.0	1578.112085700035	1686.556921500014	1687.5543584001716	1687.9132176002022	1689.4243696001358	1690.448629999999	n/a	n/a	1691.4453368000686	1692.6595081000123	2020-02-08 12:22:29.731428	2.33081880576122	0.0	3.49309055893628	2.06920845330734	1.16227175317506	3.49309055893628	-2.33081880576122	3.49309055893628	0.0	3.49309055893628	1.16227175317506	5.74874380942654	-1.2655514820603995	-0.4504457994807188	3.4854528792542663	0.45457035128096024	-0.4708910006509739	3.4854528792542663	5.644555366694606	0.8745051982714478	2.140056680331845	1.6068271147703888	1.4281799650031597	3	missed	0.0
114.5565770000685	5.734204199863825	go_reward	0.2789276998955756	114.57583690015599	115.99624450015835	118.54086690000258	1.4204076000023633	115.58032279997133	117.52880810014881	119.55122660007328	0.41592170018702745	1.0120587998537758	0.7588144999465385	n/a	1.0	n/a	2	0	18	1	go_reward	1	1	0	1	1	1	0	n/a	n/a	1	0.2789276998955756	1.0	1578.112085700035	1692.687922600191	1693.6924085000064	1694.1083302001934	1695.640893800184	1696.6529526000377	n/a	n/a	1697.6633123001084	1698.422126800055	2020-02-08 12:22:29.731428	11.0910861731679	8.47221253719765	0.0	8.47221253719765	11.0910861731679	0.0	-11.0910861731679	8.47221253719765	0.0	11.0910861731679	0.0	0.7696218311651695	7.494715885346281	8.021766737716932	-0.007637679682013617	6.857574435171271	9.457923419341867	-0.007637679682013617	0.6654333884332351	8.472500812503068	0.9777849271567851	6.5859490930317595	1.4281799650031597	3	missed	0.0
120.38091489998624	6.818870499962941	nogo_reward	1.0	120.40017480007373	122.3059694999829	124.83859240007587	1.9057946999091655	121.40250109997578	123.81546370009892	125.84811000013724	0.9034684000071138	1.0231286999769509	1.370935299899429	n/a	1.0	n/a	2	0	19	2	nogo_reward	1	0	1	0	0	1	1	n/a	n/a	1	1.0	1.0	1578.112085700035	1698.5122605001088	1699.5145868000109	1700.418055200018	1701.927549400134	1702.950678100111	n/a	n/a	1703.9601957001723	1705.3311310000718	2020-02-08 12:22:29.731428	3.78410095832394	0.0	5.56229901224362	4.7584182688617	1.77819805391968	5.56229901224362	-3.78410095832394	5.56229901224362	0.0	5.56229901224362	1.77819805391968	3.6795353561192004	0.1877306705023205	-0.4504457994807188	5.554661332561606	3.1437801668353202	0.14503530009364618	5.554661332561606	3.575346913387266	2.9437136515787876	2.755982981076465	3.6760355680777286	1.4281799650031597	3	missed	0.0
127.28067949996353	6.955298100132268	go_punish	0.2096285999286919	127.29993940005102	129.3584625001531	131.8950806001667	2.058523100102093	128.31083000008948	130.89401970012113	132.902568400139	1.047632500063628	1.0010609000455588	1.3526691000442952	n/a	1.0	n/a	2	0	20	3	go_punish	0	-1	0	1	1	1	0	n/a	n/a	-1	0.2096285999286919	1.0	1578.112085700035	1705.412025100086	1706.4229157001246	1707.4705482001882	1709.0061054001562	1710.0071663002018	n/a	n/a	1711.014654100174	1712.3673232002184	2020-02-08 12:22:29.731428	2.82695673426779	0.0	-2.69807046029739	-2.69807046029739	0.128886273970405	-2.69807046029739	-2.82695673426779	0.0	-2.69807046029739	0.128886273970405	-2.69807046029739	-7.58909621376947	-0.7694135535538291	-0.4504457994807188	-2.7057081399794036	-4.3127085623237695	-1.5042764798556287	-2.7057081399794036	-7.693284656501405	-2.489699086694427	-1.7202855331406048	-1.8862634441658912	-1.2698904952942303	3	missed	0.0
134.26055860007182	6.145893299952149	nogo_punish	1.0	134.2798185001593	135.8473050000614	138.3736288000366	1.5674864999020883	135.290389700094	137.3615488000214	139.38016650010832	0.5569152999673861	1.012080000015203	1.0455453000031412	n/a	1.0	n/a	2	0	21	4	nogo_punish	0	0	-1	0	0	1	0	n/a	n/a	-1	1.0	1.0	1578.112085700035	1712.3919042001944	1713.402475400129	1713.9593907000965	1715.4736345000565	1716.4857145000717	n/a	n/a	1717.4922522001434	1718.5377975001466	2020-02-08 12:22:29.731428	2.22351328672607	-2.69807046029739	0.0	-1.04784043537283	-2.22351328672607	0.0	-2.22351328672607	0.0	-2.69807046029739	0.0	-2.22351328672607	-7.58909621376947	-1.3728570010955492	-3.1485162597781087	-0.007637679682013617	-2.6624785373992097	-3.856676040552104	-0.007637679682013617	-7.693284656501405	-2.618585360664832	-1.245728359569285	-1.8862634441658912	-1.2698904952942303	3	missed	0.0
140.45235450007021	6.579972599866096	go_punish	1.0	140.4716144001577	142.38118170015514	144.88557250006124	1.909567299997434	141.4658870000858	143.87250810000114	145.88393420004286	0.915294700069353	1.0130644000601023	1.1676527999809423	n/a	1.0	n/a	2	0	22	3	go_punish	1	0	-1	1	0	0	1	n/a	n/a	-1	1.0	1.0	1578.112085700035	1718.5837001001928	1719.5779727001209	1720.4932674001902	1721.9845938000362	1722.9976582000963	n/a	n/a	1723.996019900078	1725.163672700059	2020-02-08 12:22:29.731428	0.214163087584709	-2.69807046029739	-2.69807046029739	-4.35580522890567	-2.9122335478821	-2.69807046029739	-0.214163087584709	-2.69807046029739	-2.69807046029739	-2.69807046029739	-2.9122335478821	-4.89102575347208	-3.3822072002369103	-3.1485162597781087	-2.7057081399794036	-5.970443330932049	-4.545396301708134	-2.7057081399794036	-4.995214196204015	-5.316655820962222	-1.934448620725315	-4.584333904463281	-1.2698904952942303	3	missed	0.0
147.07799599994905	6.334017999935895	nogo_reward	1.0	147.09725590003654	148.54340120009147	151.06975220004097	1.4461453000549227	148.10220890003256	150.04856829997152	152.0787121001631	0.4411923000589013	1.0211839000694454	1.3525617998093367	n/a	1.0	n/a	2	0	23	2	nogo_reward	1	0	1	0	0	1	0	n/a	n/a	1	1.0	1.0	1578.112085700035	1725.2093416000716	1726.2142946000677	1726.6554869001266	1728.1606540000066	1729.181837900076	n/a	n/a	1730.1907978001982	1731.5433596000075	2020-02-08 12:22:29.731428	4.68505787821971	0.0	6.82762672216904	6.35767263703896	2.14256884394933	6.82762672216904	-4.68505787821971	6.82762672216904	0.0	6.82762672216904	2.14256884394933	2.4142076461937805	1.0886875903980906	-0.4504457994807188	6.819989042487026	4.743034535012581	0.509406090123296	6.819989042487026	2.310019203461846	4.209041361504207	3.1203537711061147	4.9413632780031485	1.4281799650031597	3	missed	0.0
153.4538298000116	6.255698899971321	nogo_reward	1.0	153.47308970009908	155.2399091001132	157.76376010011882	1.7668194000141284	154.4823835999705	156.7432633000426	158.77602830016986	0.7575255001427195	1.0204968000762165	0.9527602999005467	n/a	1.0	n/a	2	0	24	2	nogo_reward	0	1	0	0	0	1	0	n/a	n/a	0	1.0	1.0	1578.112085700035	1731.5851754001342	1732.5944693000056	1733.3519948001483	1734.8553490000777	1735.875845800154	n/a	n/a	1736.888114000205	1737.8408743001055	2020-02-08 12:22:29.731428	5.25805531773745	0.0	7.62300034696438	7.33983368032768	2.36494502922694	7.62300034696438	-5.25805531773745	7.62300034696438	0.0	7.62300034696438	2.36494502922694	-7.62300034696438	1.661685029915831	-0.4504457994807188	7.615362667282366	5.7251955783013	0.7317822754009062	7.615362667282366	-7.7271887896963145	5.0044149862995475	3.3427299563837254	5.736736902798489	1.4281799650031597	3	missed	0.0
159.76191890006885	7.081996300024912	go_punish	0.2200575999449938	159.78117880015634	161.82282910007052	164.39681160007603	2.0416502999141812	160.79990690015256	163.37480089999735	165.3970767001158	1.0229221999179572	1.0220107000786811	1.466098400065448	n/a	1.0	n/a	2	0	25	3	go_punish	1	0	-1	1	1	1	0	n/a	n/a	0	0.2200575999449938	1.0	1578.112085700035	1737.8932645001914	1738.9119926001877	1739.9349148001056	1741.4868866000324	1742.5088973001111	n/a	n/a	1743.509162400151	1744.9752608002163	2020-02-08 12:22:29.731428	1.22808111779528	-2.69807046029739	-4.35580522890567	-5.4036456642785	-3.12772411111039	-4.35580522890567	-1.22808111779528	-2.69807046029739	-4.35580522890567	-3.12772411111039	-4.35580522890567	2.69807046029739	-2.3682891700263395	-3.1485162597781087	-4.363442908587683	-7.018283766304879	-4.760886864936424	-4.363442908587683	2.5938820175654556	-5.746309471775222	-3.378020301748885	-4.584333904463281	-2.92762526390251	3	missed	0.0
166.8691277001053	6.610992099856958	nogo_punish	1.0	166.8883876001928	168.74262919998728	171.2493351001758	1.8542415997944772	167.899766399991	170.25214810017496	172.26961369998753	0.8428627999962828	0.9971870000008494	1.2297660000622272	n/a	1.0	n/a	2	0	26	4	nogo_punish	1	-1	0	0	0	1	0	n/a	n/a	0	1.0	1.0	1578.112085700035	1745.000473300228	1746.011852100026	1746.8547149000224	1748.36423380021	1749.361420800211	n/a	n/a	1750.3816994000226	1751.6114654000849	2020-02-08 12:22:29.731428	0.0097484816346963	-2.69807046029739	-2.69807046029739	-3.37707519015194	-2.70781894193208	-2.69807046029739	-0.0097484816346963	-2.69807046029739	-2.69807046029739	-2.69807046029739	-2.70781894193208	2.69807046029739	-3.586621806186923	-3.1485162597781087	-2.7057081399794036	-4.99171329217832	-4.3409816957581135	-2.7057081399794036	2.5938820175654556	-5.316655820962222	-1.7300340147752948	-4.584333904463281	-1.2698904952942303	3	missed	0.0
173.5050758998841	6.0011580002028495	go_reward	0.2953969000373035	173.5243357999716	175.0026463000106	177.55156560009323	1.478310500039015	174.53456160007045	176.52413760009222	178.54856969998218	0.4680846999401638	1.0274280000010094	0.9769241001922637	n/a	1.0	n/a	2	0	27	1	go_reward	1	1	0	1	1	1	0	n/a	n/a	1	0.2953969000373035	1.0	1578.112085700035	1751.6364215000067	1752.6466473001055	1753.1147320000457	1754.6362233001273	1755.6636513001283	n/a	n/a	1756.6606554000173	1757.6375795002095	2020-02-08 12:22:29.731428	11.3667710813929	8.69823921094848	0.0	8.69823921094848	11.3667710813929	0.0	-11.3667710813929	8.69823921094848	0.0	11.3667710813929	0.0	0.543595157414341	7.77040079357128	8.247793411467761	-0.007637679682013617	7.0836011089221	9.733608327566866	-0.007637679682013617	0.43940671468240655	8.748185720728067	0.9777849271567851	6.811975766782588	1.4281799650031597	3	missed	0.0
179.5717793998774	5.956607900094241	go_punish	0.6719700999092311	179.5910392999649	181.06103179999627	183.63106780010298	1.469992500031367	180.59082740009762	182.5981022999622	184.64732730016112	0.47020439989864826	1.03296550014079	0.9003198998980224	n/a	1.0	n/a	2	0	28	3	go_punish	1	0	-1	1	1	1	0	n/a	n/a	0	0.6719700999092311	1.0	1578.112085700035	1757.703125	1758.7029131001327	1759.1731175000314	1760.7101879999973	1761.743153500138	n/a	n/a	1762.7594130001962	1763.6597329000942	2020-02-08 12:22:29.731428	2.69094351670849	-1.65773476860828	-4.35580522890567	-3.38457993383566	-1.66486171219718	-4.35580522890567	-2.69094351670849	-1.65773476860828	-4.35580522890567	-1.66486171219718	-4.35580522890567	1.65773476860828	-0.9054267711131292	-2.108180568088999	-4.363442908587683	-4.9992180358620395	-3.2980244660232136	-4.363442908587683	1.5535463258763456	-4.283447072862012	-3.378020301748885	-3.543998212774171	-2.92762526390251	3	missed	0.0
185.5596888998989	5.991905600065365	go_reward	0.2271972999442368	185.5789487999864	187.23983069998212	189.80651460005902	1.6608818999957293	186.5783240001183	188.78243330004602	190.80452460004017	0.6615066998638213	1.0240813000129947	0.7663298000115901	n/a	1.0	n/a	2	0	29	1	go_reward	1	1	0	1	1	1	1	n/a	n/a	1	0.2271972999442368	1.0	1578.112085700035	1763.6910345000215	1764.6904097001534	1765.3519164000172	1766.8945190000811	1767.918600300094	n/a	n/a	1768.9166103000753	1769.6829401000869	2020-02-08 12:22:29.731428	11.554567404125	8.85247491194495	0.0	8.85247491194495	11.554567404125	0.0	-11.554567404125	8.85247491194495	0.0	11.554567404125	0.0	0.3893594564178695	7.958197116303381	8.402029112464232	-0.007637679682013617	7.237836809918571	9.921404650298967	-0.007637679682013617	0.2851710136859351	8.935982043460168	0.9777849271567851	6.966211467779059	1.4281799650031597	3	missed	0.0
191.60022419993766	6.277158600045368	nogo_reward	1.0	191.61948410002515	192.96842749998882	195.4870806999968	1.348943399963673	192.62605740013532	194.47455699997954	196.49598630005494	0.34237009985349687	1.0125237000172547	1.4006564000155777	n/a	1.0	n/a	2	0	30	2	nogo_reward	1	0	1	0	0	1	0	n/a	n/a	1	1.0	1.0	1578.112085700035	1769.7315698000602	1770.7381431001704	1771.080513200024	1772.5866427000146	1773.599166400032	n/a	n/a	1774.60807200009	1776.0087284001056	2020-02-08 12:22:29.731428	2.93885062567618	0.0	4.64211674618675	4.46691502010272	1.70326612051057	4.64211674618675	-2.93885062567618	4.64211674618675	0.0	4.64211674618675	1.70326612051057	4.59971762217607	-0.6575196621454391	-0.4504457994807188	4.634479066504737	2.85227691807634	0.0701033666845361	4.634479066504737	4.495529179444135	2.023531385521918	2.681051047667355	2.755853302020859	1.4281799650031597	3	missed	0.0
197.90691599994898	8.008845099946484	go_reward	0.3068599000107497	197.92617590003647	200.9121441000607	203.47118009999394	2.9859682000242174	198.94467870006338	202.4480882000646	204.4732309000101	1.9674653999973089	1.0230918999293408	1.461790099972859	n/a	1.0	n/a	2	0	31	1	go_reward	1	1	0	1	1	1	1	n/a	n/a	1	0.3068599000107497	1.0	1578.112085700035	1776.0382616000716	1777.0567644000985	1779.0242298000958	1780.5601739000997	1781.583265800029	n/a	n/a	1782.5853166000452	1784.047106700018	2020-02-08 12:22:29.731428	11.6845014032926	8.95938126183794	0.0	8.95938126183794	11.6845014032926	0.0	-11.6845014032926	8.95938126183794	0.0	11.6845014032926	0.0	0.28245310652487987	8.088131115470981	8.508935462357222	-0.007637679682013617	7.344743159811561	10.051338649466567	-0.007637679682013617	0.17826466379294548	9.065916042627768	0.9777849271567851	7.073117817672049	1.4281799650031597	3	missed	0.0
205.9446618000511	7.5996667998842895	nogo_punish	1.0	205.9639217001386	208.80218030000106	211.3160521001555	2.8382585998624563	206.97609430016018	210.3142205001784	212.3294708000028	1.8260859998408705	1.0018315999770948	1.2341177000200787	n/a	1.0	n/a	2	0	32	4	nogo_punish	1	-1	0	0	0	1	0	n/a	n/a	0	1.0	1.0	1578.112085700035	1784.0760074001737	1785.0881800001953	1786.9142660000362	1788.4263062002135	1789.4281378001906	n/a	n/a	1790.441556500038	1791.675674200058	2020-02-08 12:22:29.731428	0.784436252866424	-2.69807046029739	-1.65773476860828	-2.10751243613825	-2.44217102147471	-1.65773476860828	-0.784436252866424	-1.65773476860828	-2.69807046029739	-1.65773476860828	-2.44217102147471	1.65773476860828	-2.811934034955195	-3.1485162597781087	-1.6653724482902936	-3.7221505381646294	-4.075333775300744	-1.6653724482902936	1.5535463258763456	-4.276320129273112	-1.464386094317925	-3.543998212774171	-1.2698904952942303	3	missed	0.0
213.56796959997132	6.19651599996746	nogo_punish	1.0	213.5872295000588	215.3155702999793	217.8356934001206	1.7283407999204883	214.5956183001399	216.8263495999854	218.85149889998138	0.7199519998393953	1.0093438001351842	0.9322466000448912	n/a	1.0	n/a	2	0	33	4	nogo_punish	1	-1	0	0	0	1	0	n/a	n/a	0	1.0	1.0	1578.112085700035	1791.699315200094	1792.707704000175	1793.4276560000144	1794.9384353000205	1795.9477791001557	n/a	n/a	1796.9635846000165	1797.8958312000614	2020-02-08 12:22:29.731428	1.23667868661891	-2.69807046029739	-1.04784043537283	-1.35167077685948	-2.28451912199174	-1.04784043537283	-1.23667868661891	-1.04784043537283	-2.69807046029739	-1.04784043537283	-2.28451912199174	1.04784043537283	-2.3596916012027096	-3.1485162597781087	-1.0554781150548436	-2.96630887888586	-3.917681875817774	-1.0554781150548436	0.9436519926408955	-3.666425796037662	-1.3067341948349547	-2.9341038795387213	-1.2698904952942303	3	missed	0.0
219.8089634999635	6.076538200024288	nogo_reward	1.0	219.828223400051	221.41476449999027	223.93358570011333	1.586541099939268	220.84700050018728	222.9188528000377	224.93068860005587	0.5677639998029917	1.0147329000756145	0.9740730000194162	n/a	1.0	n/a	2	0	34	2	nogo_reward	1	0	1	0	0	1	0	n/a	n/a	1	1.0	1.0	1578.112085700035	1797.940309100086	1798.9590862002224	1799.5268502000254	1801.0309385000728	1802.0456714001484	n/a	n/a	1803.042774300091	1804.0168473001104	2020-02-08 12:22:29.731428	4.28141230231837	0.0	6.40300408389031	6.29202552556653	2.12159178157194	6.40300408389031	-4.28141230231837	6.40300408389031	0.0	6.40300408389031	2.12159178157194	2.83883028447251	0.6850420144967506	-0.4504457994807188	6.395366404208296	4.67738742354015	0.48842902774590624	6.395366404208296	2.734641841740576	3.784418723225478	3.099376708728725	4.516740639724419	1.4281799650031597	3	missed	0.0
225.93444139999337	7.395681600086391	go_punish	0.315261899959296	225.95370130008087	228.3637843001634	230.9383425000126	2.4100830000825226	226.94717920012772	229.91122700017854	231.9459538001097	1.4166051000356674	1.0271154998340535	1.403429100057565	n/a	1.0	n/a	2	0	35	3	go_punish	1	0	-1	1	1	1	0	n/a	n/a	0	0.315261899959296	1.0	1578.112085700035	1804.065787000116	1805.0592649001628	1806.4758700001985	1808.0233127002136	1809.0504282000477	n/a	n/a	1810.0580395001448	1811.4614686002024	2020-02-08 12:22:29.731428	3.55278827507725	-1.04784043537283	-4.35580522890567	-2.17662283275734	-0.803016953828425	-4.35580522890567	-3.55278827507725	-1.04784043537283	-4.35580522890567	-0.803016953828425	-4.35580522890567	1.04784043537283	-0.04358201274436935	-1.4982862348535486	-4.363442908587683	-3.7912609347837196	-2.4361797076544587	-4.363442908587683	0.9436519926408955	-3.4216023144932572	-3.378020301748885	-2.9341038795387213	-2.92762526390251	3	missed	0.0
233.40356040000938	6.647294000023976	nogo_reward	1.0	233.42282030009687	235.4164746999736	237.95171250007138	1.993654399876732	234.43137710005976	236.92856120015495	238.9618198000826	0.9850975999138427	1.0231512999164352	1.1082945000382551	n/a	1.0	n/a	2	0	36	2	nogo_reward	1	0	1	0	0	1	1	n/a	n/a	1	1.0	1.0	1578.112085700035	1811.534906000132	1812.5434628000949	1813.5285604000087	1815.04064690019	1816.0637982001065	n/a	n/a	1817.0739055001177	1818.182200000156	2020-02-08 12:22:29.731428	5.06754300390925	0.0	7.43291150102306	7.36112052826869	2.36536849711381	7.43291150102306	-5.06754300390925	7.43291150102306	0.0	7.43291150102306	2.36536849711381	1.80892286733976	1.4711727160876311	-0.4504457994807188	7.4252738213410465	5.74648242624231	0.732205743287776	7.4252738213410465	1.7047344246078255	4.814326140358228	3.3431534242705947	5.546648056857169	1.4281799650031597	3	missed	0.0
240.1135837000329	5.612747200065996	go_punish	0.6382128999102861	240.1328436001204	241.3988030999899	243.97409130004212	1.2659594998694956	241.12588680000044	242.95110140019096	244.97296120016858	0.272916299989447	1.0229898998511544	0.7726296000178081	n/a	1.0	n/a	2	0	37	3	go_punish	0	-1	0	1	1	1	1	n/a	n/a	-1	0.6382128999102861	1.0	1578.112085700035	1818.2449293001555	1819.2379725000355	1819.510888800025	1821.063187100226	1822.0861770000772	n/a	n/a	1823.0850469002037	1823.8576765002215	2020-02-08 12:22:29.731428	4.07610870855814	-0.67900472985455	-4.35580522890567	-1.43261273887116	-0.279696520347528	-4.35580522890567	-4.07610870855814	-0.67900472985455	-4.35580522890567	-0.279696520347528	-4.35580522890567	-6.91009148391492	0.4797384207365205	-1.1294505293352688	-4.363442908587683	-3.0472508408975396	-1.9128592741735617	-4.363442908587683	-7.0142799266468545	-2.8982818810123603	-3.378020301748885	-2.5652681740204413	-2.92762526390251	3	missed	0.0
245.75314459996298	7.083802999928821	nogo_punish	1.0	245.77240450005047	248.20437379996292	250.72986249998166	2.4319692999124527	246.77723930007778	249.72068940009922	251.73042280017398	1.4271344998851418	1.009173099882446	1.1257846998053083	n/a	1.0	n/a	2	0	38	4	nogo_punish	1	-1	0	0	0	1	0	n/a	n/a	0	1.0	1.0	1578.112085700035	1823.8844902000856	1824.8893250001129	1826.316459499998	1827.8327751001343	1828.8419482000168	n/a	n/a	1829.842508500209	1830.9682932000144	2020-02-08 12:22:29.731428	1.50920708471071	-2.69807046029739	-0.67900472985455	-0.887885126062168	-2.18821181456526	-0.67900472985455	-1.50920708471071	-0.67900472985455	-2.69807046029739	-0.67900472985455	-2.18821181456526	0.67900472985455	-2.0871632031109093	-3.1485162597781087	-0.6866424095365635	-2.5025232280885477	-3.8213745683912936	-0.6866424095365635	0.5748162871226156	-3.2975900905193822	-1.210426887408475	-2.5652681740204413	-1.2698904952942303	3	missed	0.0
252.86427109991178	6.425076500047226	go_reward	0.2356241000816226	252.88353099999927	254.7433760999702	257.28770070010796	1.8598450999709257	253.88782990002096	256.27071980014443	258.2938167999964	0.8555461999492309	1.016980899963528	1.0147907000500709	n/a	1.0	n/a	2	0	39	1	go_reward	1	1	0	1	1	1	0	n/a	n/a	1	0.2356241000816226	1.0	1578.112085700035	1830.9956167000344	1831.999915600056	1832.8554618000053	1834.3828055001795	1835.399786400143	n/a	n/a	1836.4059025000315	1837.4206932000816	2020-02-08 12:22:29.731428	11.7756841634431	9.03454409422435	0.0	9.03454409422435	11.7756841634431	0.0	-11.7756841634431	9.03454409422435	0.0	11.7756841634431	0.0	0.20729027413847056	8.179313875621482	8.584098294743631	-0.007637679682013617	7.41990599219797	10.142521409617068	-0.007637679682013617	0.10310183140653617	9.157098802778268	0.9777849271567851	7.148280650058458	1.4281799650031597	3	missed	0.0
259.3358004000038	6.141592599917658	go_punish	0.2553222000133246	259.3550603000913	260.7154743000865	263.273550400045	1.3604139999952167	260.3682081999725	262.238329899963	264.288817400113	0.34726610011398407	1.035220500082005	1.207835499895964	n/a	1.0	n/a	2	0	40	3	go_punish	1	0	-1	1	1	1	0	n/a	n/a	0	0.2553222000133246	1.0	1578.112085700035	1837.4671460001264	1838.4802939000076	1838.8275600001216	1840.350415599998	1841.38563610008	n/a	n/a	1842.400903100148	1843.608738600044	2020-02-08 12:22:29.731428	1.14318426789886	-3.14784812782735	-4.35580522890567	-3.66055886552162	-3.21262096100681	-4.35580522890567	-1.14318426789886	-3.14784812782735	-4.35580522890567	-3.21262096100681	-4.35580522890567	3.14784812782735	-2.453186019922759	-3.5982939273080685	-4.363442908587683	-5.275196967548	-4.8457837148328435	-4.363442908587683	3.0436596850954154	-5.831206321671642	-3.378020301748885	-5.034111571993241	-2.92762526390251	3	missed	0.0
265.50650059990585	7.0240361001342535	nogo_punish	1.0	265.52576049999334	268.112747200066	270.63761720014736	2.586986700072657	266.5397000000812	269.6290977001188	271.63710699998774	1.573047199984785	1.0085195000285694	0.9126896001398563	n/a	1.0	n/a	2	0	41	4	nogo_punish	1	-1	0	0	0	1	0	n/a	n/a	0	1.0	1.0	1578.112085700035	1843.6378462000284	1844.6517857001163	1846.224832900101	1847.741183400154	1848.7497029001825	n/a	n/a	1849.7491927000228	1850.6618823001627	2020-02-08 12:22:29.731428	1.6780873329657	-2.69807046029739	-0.449777667529964	-0.59567660214063	-2.12786500049566	-0.449777667529964	-1.6780873329657	-0.449777667529964	-2.69807046029739	-0.449777667529964	-2.12786500049566	0.449777667529964	-1.9182829548559193	-3.1485162597781087	-0.45741534721197763	-2.2103147041670095	-3.7610277543216935	-0.45741534721197763	0.3455892247980296	-3.068363028194796	-1.1500800733388747	-2.336041111695855	-1.2698904952942303	3	missed	0.0
272.5559254998809	7.4589454000813475	go_reward	0.2555826001334935	272.5751853999684	275.054309500149	277.6039913001009	2.47912410018057	273.57939760014415	276.58474610000894	278.6136293001473	1.4749119000048267	1.019245200091973	1.420501499902457	n/a	1.0	n/a	2	0	42	1	go_reward	1	1	0	1	1	1	0	n/a	n/a	1	0.2555826001334935	1.0	1578.112085700035	1850.6872711000035	1851.6914833001792	1853.166395200184	1854.696831800044	1855.716077000136	n/a	n/a	1856.7257150001824	1858.1462165000848	2020-02-08 12:22:29.731428	11.8405069051565	9.08808061903776	0.0	9.08808061903776	11.8405069051565	0.0	-11.8405069051565	9.08808061903776	0.0	11.8405069051565	0.0	0.1537537493250607	8.244136617334881	8.637634819557041	-0.007637679682013617	7.47344251701138	10.207344151330467	-0.007637679682013617	0.0495653065931263	9.221921544491668	0.9777849271567851	7.201817174871868	1.4281799650031597	3	missed	0.0
280.0672180999534	5.958869700087689	go_punish	0.375513199949637	280.08647800004087	281.6410886000376	284.19773930008523	1.5546105999967494	281.08997680014	283.17503680009395	285.2039715000428	0.551111799897626	1.0227024999912828	0.8413762000857332	n/a	1.0	n/a	2	0	43	3	go_punish	1	0	-1	1	1	1	0	n/a	n/a	0	0.375513199949637	1.0	1578.112085700035	1858.198563700076	1859.202062500175	1859.7531743000727	1861.287122500129	1862.3098250001203	n/a	n/a	1863.316057200078	1864.1574334001637	2020-02-08 12:22:29.731428	2.60993498275111	-1.96156511009493	-4.35580522890567	-2.31634444091322	-1.74587024615456	-4.35580522890567	-2.60993498275111	-1.96156511009493	-4.35580522890567	-1.74587024615456	-4.35580522890567	1.96156511009493	-0.9864353050705095	-2.412010909575649	-4.363442908587683	-3.9309825429395997	-3.379032999980594	-4.363442908587683	1.8573766673629957	-4.3644556068193925	-3.378020301748885	-3.847828554260821	-2.92762526390251	3	missed	0.0
286.109772399999	6.962202199967578	nogo_reward	1.0	286.12903230008646	288.65732140000887	291.1841405001469	2.5282890999224037	287.1195123000068	290.16159100015693	292.1865535001268	1.5378091000020504	1.0225494999899638	0.9046809999272227	n/a	1.0	n/a	2	0	44	2	nogo_reward	1	0	1	0	0	1	0	n/a	n/a	1	1.0	1.0	1578.112085700035	1864.2411180001216	1865.231598000042	1866.769407100044	1868.273676700192	1869.296226200182	n/a	n/a	1870.298639200162	1871.2033202000891	2020-02-08 12:22:29.731428	5.54475430167696	0.0	8.05710128714961	8.00977193604613	2.51234698547265	8.05710128714961	-5.54475430167696	8.05710128714961	0.0	8.05710128714961	2.51234698547265	1.18473308121321	1.9483840138553408	-0.4504457994807188	8.049463607467597	6.3951338340197506	0.8791842316466163	8.049463607467597	1.0805446384812756	5.4385159264847776	3.490131912629435	6.170837842983719	1.4281799650031597	3	missed	0.0
293.1155014999679	7.5553502000400385	go_punish	0.2998359999619424	293.13476140005537	295.89513129997044	298.4267545000182	2.7603698999150765	294.1300258000849	297.4169756001793	299.441701299977	1.7651054998855216	1.0097788998389206	1.248410300118394	n/a	1.0	n/a	2	0	45	3	go_punish	1	0	-1	1	1	1	1	n/a	n/a	0	0.2998359999619424	1.0	1578.112085700035	1871.2468471000905	1872.24211150012	1874.0072170000055	1875.5290613002144	1876.5388402000533	n/a	n/a	1877.553787000012	1878.8021973001305	2020-02-08 12:22:29.731428	3.48318255204046	-1.25672083158044	-4.35580522890567	-1.50600358596997	-0.872622676865215	-4.35580522890567	-3.48318255204046	-1.25672083158044	-4.35580522890567	-0.872622676865215	-4.35580522890567	1.25672083158044	-0.11318773578115948	-1.7071666310611586	-4.363442908587683	-3.1206416879963497	-2.505785430691249	-4.363442908587683	1.1525323888485055	-3.491208037530047	-3.378020301748885	-3.142984275746331	-2.92762526390251	3	missed	0.0
300.7169135999861	6.393875600072079	go_punish	0.356902299914509	300.7361735000736	302.09205590002216	304.6551407000518	1.3558823999485412	301.73303710017376	303.6318825001365	305.6647898000665	0.3590187998483998	1.0232581999152899	1.4652593000791967	n/a	1.0	n/a	2	0	46	3	go_punish	0	-1	0	1	1	1	0	n/a	n/a	-1	0.356902299914509	1.0	1578.112085700035	1878.8482592001087	1879.8451228002089	1880.2041416000573	1881.7439682001716	1882.7672264000869	n/a	n/a	1883.7768755001016	1885.2421348001808	2020-02-08 12:22:29.731428	4.01908706466905	-0.824903664465216	-4.35580522890567	-1.00251095813387	-0.336718164236619	-4.35580522890567	-4.01908706466905	-0.824903664465216	-4.35580522890567	-0.336718164236619	-4.35580522890567	-6.764192549304254	0.42271677684743114	-1.2753494639459348	-4.363442908587683	-2.6171490601602496	-1.9698809180626529	-4.363442908587683	-6.8683809920361885	-2.955303524901451	-3.378020301748885	-2.7111671086311073	-2.92762526390251	3	missed	0.0
307.1423959999813	7.16478039999447	go_reward	0.2423711000010371	307.1616559000688	309.77553990017645	312.32688369997777	2.613884000107646	308.1677459999919	311.31328700017184	313.3250118000433	1.6077939001845607	1.0135966998059303	1.0014245000199935	n/a	1.0	n/a	2	0	47	1	go_reward	1	1	0	1	1	1	0	n/a	n/a	1	0.2423711000010371	1.0	1578.112085700035	1885.273741600104	1886.279831700027	1887.8876256002115	1889.425372700207	1890.4389694000129	n/a	n/a	1891.4370975000784	1892.4385220000984	2020-02-08 12:22:29.731428	11.8871408581433	9.12667075986431	0.0	9.12667075986431	11.8871408581433	0.0	-11.8871408581433	9.12667075986431	0.0	11.8871408581433	0.0	0.11516360849850926	8.29077057032168	8.676224960383593	-0.007637679682013617	7.512032657837931	10.253978104317266	-0.007637679682013617	0.010975165766574868	9.268555497478467	0.9777849271567851	7.24040731569842	1.4281799650031597	3	missed	0.0
314.3318886999043	6.7893880000335685	nogo_punish	1.0	314.3511485999918	316.14229630003683	318.662619400071	1.7911477000450304	315.36187260015845	317.6472968000453	319.6700679999776	0.7804236998783836	1.0153226000256836	1.4704686000477523	n/a	1.0	n/a	2	0	48	4	nogo_punish	1	-1	0	0	0	1	0	n/a	n/a	0	1.0	1.0	1578.112085700035	1892.463234300027	1893.4739583001935	1894.254382000072	1895.7593825000804	1896.774705100106	n/a	n/a	1897.7821537000127	1899.2526223000605	2020-02-08 12:22:29.731428	1.78535956009444	-2.69807046029739	-0.30383034148665	-0.407214161265509	-2.08918990158109	-0.30383034148665	-1.78535956009444	-0.30383034148665	-2.69807046029739	-0.30383034148665	-2.08918990158109	0.30383034148665	-1.8110107277271792	-3.1485162597781087	-0.3114680211686636	-2.0218522632918887	-3.722352655407124	-0.3114680211686636	0.1996418987547156	-2.9224157021514823	-1.1114049744243049	-2.1900937856525413	-1.2698904952942303	3	missed	0.0
321.1665139000397	6.144312799907993	go_punish	0.775865700095892	321.1857738001272	322.51007010019384	325.03889990015887	1.324296300066635	322.1819252001585	324.0190958001185	326.040023300098	0.32814490003534047	1.0198041000403464	1.2900632999371737	n/a	1.0	n/a	2	0	49	3	go_punish	1	0	-1	1	1	1	0	n/a	n/a	0	0.775865700095892	1.0	1578.112085700035	1899.2978595001623	1900.2940109001936	1900.622155800229	1902.1311815001536	1903.150985600194	n/a	n/a	1904.1521090001331	1905.4421723000703	2020-02-08 12:22:29.731428	1.09758224760288	-3.25123194760621	-4.35580522890567	-3.37938535927328	-3.25822298130279	-4.35580522890567	-1.09758224760288	-3.25123194760621	-4.35580522890567	-3.25822298130279	-4.35580522890567	3.25123194760621	-2.4987880402187392	-3.701677747086929	-4.363442908587683	-4.99402346129966	-4.891385735128824	-4.363442908587683	3.1470435048742758	-5.876808341967623	-3.378020301748885	-5.137495391772101	-2.92762526390251	3	missed	0.0
327.3383508000986	7.06249849987239	nogo_punish	1.0	327.3576107001861	329.8725234000012	332.3881982001476	2.5149126998151132	328.36040330003016	331.3773390001154	333.4007673000449	1.5121200999710709	1.0108592000322005	1.0193419000136146	n/a	1.0	n/a	2	0	50	4	nogo_punish	1	-1	0	0	0	1	1	n/a	n/a	0	1.0	1.0	1578.112085700035	1905.4696964002212	1906.4724890000653	1907.9846091000363	1909.4894247001505	1910.5002839001827	n/a	n/a	1911.51285300008	1912.5321949000936	2020-02-08 12:22:29.731428	1.85501946032474	-2.69807046029739	-0.208880396207618	-0.283103870097417	-2.06389985653236	-0.208880396207618	-1.85501946032474	-0.208880396207618	-2.69807046029739	-0.208880396207618	-2.06389985653236	0.208880396207618	-1.7413508274968792	-3.1485162597781087	-0.21651807588963162	-1.8977419721237965	-3.697062610358394	-0.21651807588963162	0.10469195347568361	-2.82746575687245	-1.0861149293755747	-2.095143840373509	-1.2698904952942303	3	missed	0.0
334.4288880999661	6.677284700098198	go_reward	0.2389569000806659	334.4481480000536	336.71899960003793	339.2520846000409	2.2708515999843257	335.4463910001798	338.2396462000904	340.26652569998987	1.2726085998581311	1.0124383999504971	0.8589070001619348	n/a	1.0	n/a	2	0	51	1	go_reward	1	1	0	1	1	1	0	n/a	n/a	1	0.2389569000806659	1.0	1578.112085700035	1912.5602337000887	1913.558476700215	1914.831085300073	1916.3517319001255	1917.364170300076	n/a	n/a	1918.378611400025	1919.237518400187	2020-02-08 12:22:29.731428	11.9210586464949	9.15479420913986	0.0	9.15479420913986	11.9210586464949	0.0	-11.9210586464949	9.15479420913986	0.0	11.9210586464949	0.0	0.08704015922296016	8.324688358673281	8.704348409659142	-0.007637679682013617	7.54015610711348	10.287895892668868	-0.007637679682013617	-0.017148283508974238	9.302473285830068	0.9777849271567851	7.268530764973969	1.4281799650031597	3	missed	0.0
341.1322502999103	7.068791700061183	nogo_punish	1.0	341.1515101999978	343.48321139998734	346.009277600097	2.3317011999895385	342.16248960001394	344.9923525999768	347.01277799997456	1.3207217999733984	1.0169250001201817	1.207523900084425	n/a	1.0	n/a	2	0	52	4	nogo_punish	1	-1	0	0	0	1	1	n/a	n/a	0	1.0	1.0	1578.112085700035	1919.263595900033	1920.274575300049	1921.5952971000224	1923.104438300012	1924.121363300132	n/a	n/a	1925.1248637000097	1926.332387600094	2020-02-08 12:22:29.731428	1.90116136031851	-2.69807046029739	-0.145898934610666	-0.199828872387937	-2.04706029492918	-0.145898934610666	-1.90116136031851	-0.145898934610666	-2.69807046029739	-0.145898934610666	-2.04706029492918	0.145898934610666	-1.6952089275031093	-3.1485162597781087	-0.15353661429267962	-1.8144669744143167	-3.680223048755214	-0.15353661429267962	0.041710491878731604	-2.764484295275498	-1.0692753677723947	-2.0321623787765573	-1.2698904952942303	3	missed	0.0
348.22764599998504	6.132009400054812	nogo_punish	1.0	348.24690590007253	349.80350180016853	352.3212986001745	1.5565959000959992	349.2477292001713	351.3087691999974	353.3315803001169	0.5557725999972263	1.0125294001770726	1.0473350000104347	n/a	1.0	n/a	2	0	53	4	nogo_punish	1	-1	0	0	0	1	0	n/a	n/a	0	1.0	1.0	1578.112085700035	1926.3589916001076	1927.3598149002064	1927.9155875002036	1929.4208549000325	1930.4333843002096	n/a	n/a	1931.443666000152	1932.4910010001624	2020-02-08 12:22:29.731428	1.9322785909135	-2.69807046029739	-0.103383819778859	-0.143001438798698	-2.03566241069236	-0.103383819778859	-1.9322785909135	-0.103383819778859	-2.69807046029739	-0.103383819778859	-2.03566241069236	0.103383819778859	-1.6640916969081192	-3.1485162597781087	-0.11102149946087263	-1.7576395408250776	-3.6688251645183936	-0.11102149946087263	-0.0008046229530753873	-2.721969180443691	-1.0578774835355749	-1.9896472639447502	-1.2698904952942303	3	missed	0.0
354.3875716999173	6.816820700187236	go_reward	0.1820396000985056	354.4068316000048	356.1828658999873	358.7447183001784	1.7760342999824843	355.4026605000254	357.7221758000089	359.74324980005645	0.7802053999619147	1.022542500169493	1.4804025001355967	n/a	1.0	n/a	2	0	54	1	go_reward	1	1	0	1	1	1	0	n/a	n/a	1	0.1820396000985056	1.0	1578.112085700035	1932.51891730004	1933.5147462000605	1934.2949516000224	1935.834261500044	1936.8568040002135	n/a	n/a	1937.8553355000915	1939.3357380002271	2020-02-08 12:22:29.731428	11.9459782079835	9.17549851877772	0.0	9.17549851877772	11.9459782079835	0.0	-11.9459782079835	9.17549851877772	0.0	11.9459782079835	0.0	0.06633584958509964	8.349607920161882	8.725052719297002	-0.007637679682013617	7.560860416751341	10.312815454157468	-0.007637679682013617	-0.037852593146834757	9.327392847318668	0.9777849271567851	7.289235074611829	1.4281799650031597	3	missed	0.0
361.3048656999599	6.291264600120485	nogo_reward	1.0	361.3241256000474	362.8919608001597	365.4158226000145	1.567835200112313	362.3434906001205	364.39688580017537	366.42870480008446	0.548470200039219	1.018936799839139	1.1866854000834337	n/a	1.0	n/a	2	0	55	2	nogo_reward	0	1	0	0	0	1	0	n/a	n/a	0	1.0	1.0	1578.112085700035	1939.4362113000825	1940.4555763001556	1941.0040465001948	1942.5089715002105	1943.5279083000496	n/a	n/a	1944.5407905001196	1945.727475900203	2020-02-08 12:22:29.731428	5.84358484266699	0.0	8.4471743036793	8.41543078617272	2.60358946101231	8.4471743036793	-5.84358484266699	8.4471743036793	0.0	8.4471743036793	2.60358946101231	-8.4471743036793	2.247214554845371	-0.4504457994807188	8.439536623997288	6.800792684146341	0.9704267071862762	8.439536623997288	-8.551362746411236	5.828588943014468	3.5813743881690954	6.56091085951341	1.4281799650031597	3	missed	0.0
367.6404734000098	7.448154999874532	nogo_reward	1.0	367.6597333000973	370.10796870011814	372.6161499000152	2.448235400020849	368.66592930001207	371.61233830009587	373.6211841001641	1.4420394001060686	1.003811599919345	1.4867041998077184	n/a	1.0	n/a	2	0	56	2	nogo_reward	0	1	0	0	0	1	0	n/a	n/a	0	1.0	1.0	1578.112085700035	1945.7718190001324	1946.7780150000472	1948.2200544001532	1949.724424000131	1950.7282356000503	n/a	n/a	1951.7332698001992	1953.219974000007	2020-02-08 12:22:29.731428	3.3438425738837	0.0	5.20444830321346	5.18282199564045	1.86060572932976	5.20444830321346	-3.3438425738837	5.20444830321346	0.0	5.20444830321346	1.86060572932976	-5.20444830321346	-0.2525277139379192	-0.4504457994807188	5.196810623531446	3.56818389361407	0.22744297550372616	5.196810623531446	-5.308636745945394	2.5858629425486277	2.838390656486545	3.3181848590475687	1.4281799650031597	3	missed	0.0
375.1354223999663	6.714938000077154	go_punish	1.0	375.15468230005376	376.9646923001858	379.47075530001894	1.8100100001320243	376.1472912000024	378.4665269001853	380.48098200000845	0.8174011001833605	1.0042283998336643	1.3886383001224658	n/a	1.0	n/a	2	0	57	3	go_punish	0	-1	0	1	0	0	0	n/a	n/a	0	1.0	1.0	1578.112085700035	1953.2667680000889	1954.2593769000375	1955.0767780002209	1956.5786126002204	1957.582841000054	n/a	n/a	1958.5930677000435	1959.981706000166	2020-02-08 12:22:29.731428	-2.5739138120953	-2.03578858398473	-4.35580522890567	-2.12933614078184	-1.78189141681037	-4.35580522890567	2.5739138120953	-4.35580522890567	-2.03578858398473	-4.35580522890567	-1.78189141681037	4.35580522890567	-6.17028409991692	-2.486234383465449	-4.363442908587683	-3.7439742428082194	-3.415054170636404	-4.363442908587683	4.251616786173735	-6.974390589570502	-0.804106489653585	-6.242068673071561	-0.6076086189815704	3	missed	0.0
381.896825700067	7.278297399869189	go_punish	0.3699820002075284	381.9160856001545	384.66690940014087	387.2244567000305	2.7508237999863923	382.9322415001225	386.2057010000574	388.2415003001222	1.734667900018394	1.0187556999730987	0.9528826999014655	n/a	1.0	n/a	2	0	58	3	go_punish	1	0	-1	1	1	1	0	n/a	n/a	0	0.3699820002075284	1.0	1578.112085700035	1960.0281713001896	1961.0443272001576	1962.778995100176	1964.3177867000925	1965.3365424000656	n/a	n/a	1966.3535860001573	1967.3064687000588	2020-02-08 12:22:29.731428	1.07953034343985	-2.03578858398473	-2.70557520398111	-1.3796676094401	-1.62604486054126	-2.70557520398111	-1.07953034343985	-2.03578858398473	-2.70557520398111	-1.62604486054126	-2.70557520398111	2.03578858398473	-2.5168399443817693	-2.486234383465449	-2.7132128836631235	-2.9943057114664793	-3.259207614367294	-2.7132128836631235	1.9316001412527957	-4.2446302212060925	-1.7277902768243247	-3.9220520281506213	-1.2773952389779502	3	missed	0.0
389.22307739988946	6.302842900156747	go_punish	1.0	389.24233729997695	391.2476322001312	393.7764777999837	2.00529490015424	390.25382990017533	392.7530653001736	394.7861937000416	0.9938022999558598	1.0234124998100924	0.7589865000920781	n/a	1.0	n/a	2	0	59	3	go_punish	1	0	-1	1	0	0	1	n/a	n/a	-1	1.0	1.0	1578.112085700035	1967.354423000012	1968.3659156002104	1969.3597179001663	1970.8651510002087	1971.8885635000188	n/a	n/a	1972.8982794000767	1973.6572659001688	2020-02-08 12:22:29.731428	-1.9005670943758	-1.31065076935771	-2.70557520398111	-0.915941334788231	-0.805008109605312	-2.70557520398111	1.9005670943758	-2.70557520398111	-1.31065076935771	-2.70557520398111	-0.805008109605312	-4.88352100978836	-5.4969373821974195	-1.7610965688384288	-2.7132128836631235	-2.5305794368146106	-2.438170863431346	-2.7132128836631235	-4.987709452520295	-5.324160564645942	0.17277681755147312	-4.591838648147001	0.11752919564544961	3	missed	0.0
395.5501556999518	6.7445541000925004	nogo_punish	1.0	395.5694156000393	397.534340800019	400.05949170002737	1.9649251999796888	396.5743603999729	399.05029990011803	401.0750867000313	0.9599804000461063	1.0091917999093312	1.2388830001004862	n/a	1.0	n/a	2	0	60	4	nogo_punish	1	-1	0	0	0	1	0	n/a	n/a	0	1.0	1.0	1578.112085700035	1973.6815013000744	1974.686446100008	1975.646426500054	1977.1623856001531	1978.1715774000625	n/a	n/a	1979.1871724000664	1980.426055400167	2020-02-08 12:22:29.731428	1.95360858661338	-2.69807046029739	-0.0742234738897988	-0.103622694952349	-2.02783206050318	-0.0742234738897988	-1.95360858661338	-0.0742234738897988	-2.69807046029739	-0.0742234738897988	-2.02783206050318	0.0742234738897988	-1.6427617012082392	-3.1485162597781087	-0.08186115357181242	-1.7182607969787287	-3.6609948143292135	-0.08186115357181242	-0.029964968842135592	-2.692808834554631	-1.0500471333463948	-1.96048691805569	-1.2698904952942303	3	missed	0.0
