onset	duration	trial_type	response_time	cueOnset	targetOnset	fbOnset	cueRT	firstfixOnset	secondfixOnset	waitOnset	firstfixdur	secondfixdur	waitdur	nback_fbOnset	nback_response_time	nback_targetOnset	block	wm	trial	cue	cond	is_common	outcome_go	outcome_nogo	key_correct	key_pressed	is_correct	key_correct_nback	key_pressed_nback	is_correct_nback	outcome	rt	rt_nback	time_scan	time_onset	time_isi1	time_circle	time_isi2	time_feedback	time_same	time_correct	time_iti	time_done	timestamp_scan	DV	Qgo	Qnogo	SV	Wgo	Wnogo	mDV	Qchosen	Qunchosen	Wchosen	Wunchosen	PE	DVC	QgoC	QnogoC	SVC	WgoC	WnogoC	PEC	WchosenC	WunchosenC	QchosenC	QunchosenC	run	outcome_nback	nback_targetResp
0.0	8.154411099851131	go_punish	0.5085840001702309	0.12114900001324713	1.8518675998784033	4.473998700035736	1.7307185998651562	1.1361332000233233	3.4557485999539495	7.503371699946001	0.71573439985508	1.0182501000817865	0.7721883999183774	6.507083199918327	1.0	5.498665499966648	1	1	1	3	go_punish	1	0	-1	1	1	1	0	n/a	0.0	-1	0.5085840001702309	1.0	393.1484309001826	393.2695799001958	394.2845641002059	395.000298500061	396.6041795001365	397.6224296002183	398.6470964001492	399.6555141001009	400.6518026001286	401.42399100004695	2020-02-08 12:02:44.772634	0.690047736799606	0.0	0.0	0.0	0.690047736799606	0.0	-0.690047736799606	0.0	0.0	0.690047736799606	0.0	0.0	-2.906322551022013	-0.4504457994807188	-0.007637679682013617	-1.6146381020263796	-0.9431150170264279	-0.007637679682013617	-0.1041884427319344	-1.928537623865226	0.9777849271567851	-1.8862634441658912	1.4281799650031597	1	missed	0.0
8.249301899922955	8.490639100084138	go_reward	0.7380213998258114	8.370450899936202	9.820321699837223	12.36100779986009	1.4498707999010207	9.379191899905038	11.347500100033358	15.371370799839497	0.4411297999321846	1.0135076998267323	1.4897192001808435	14.377454499946907	1.0	13.367054400034249	1	1	2	1	go_reward	1	1	0	1	1	1	0	n/a	0.0	0	0.7380213998258114	1.0	393.1484309001826	401.5188818001188	402.5276228000876	402.9687526000198	404.49593100021593	405.50943870004267	406.5154853002168	407.5258854001295	408.5198017000221	410.0095209002029	2020-02-08 12:02:44.772634	0.690047736799606	0.0	0.0	0.0	0.690047736799606	0.0	-0.690047736799606	0.0	0.0	0.690047736799606	0.0	9.24183436836282	-2.906322551022013	-0.4504457994807188	-0.007637679682013617	-1.6146381020263796	-0.9431150170264279	-0.007637679682013617	9.137645925630885	-1.928537623865226	0.9777849271567851	-1.8862634441658912	1.4281799650031597	1	missed	0.0
16.774182699853554	8.231092000147328	go_reward	0.8959343999158591	16.8953316998668	18.405360299861	20.938516499940306	1.5100285999942002	17.902886199997738	19.926466800039634	23.99162640003493	0.5024740998632637	1.0120496999006718	1.1347972999791978	22.991105899913236	0.6159151999745518	21.957389399874955	1	1	3	1	go_reward	0	0	1	1	1	1	0	0.0	1.0	0	0.8959343999158591	0.6159151999745518	393.1484309001826	410.0437626000494	411.0513171001803	411.5537912000436	413.0748977002222	414.0869474001229	415.10582030005753	416.1395368000958	417.1400573002175	418.2748546001967	2020-02-08 12:02:44.772634	0.690047736799606	0.0	0.0	0.0	0.690047736799606	0.0	-0.690047736799606	0.0	0.0	0.690047736799606	0.0	0.0	-2.906322551022013	-0.4504457994807188	-0.007637679682013617	-1.6146381020263796	-0.9431150170264279	-0.007637679682013617	-0.1041884427319344	-1.928537623865226	0.9777849271567851	-1.8862634441658912	1.4281799650031597	1	correct	1.0
25.0404260999058	8.884097900008783	nogo_reward	0.6032597001176327	25.161575099919048	27.217087799916044	29.75663960003294	2.0555126999969957	26.16645579994656	28.73369379993528	32.81273170001805	1.0506319999694824	1.0229458000976592	1.2329412999097826	31.79586589988321	0.9177671999204904	30.772713399957922	1	1	4	2	nogo_reward	1	0	1	0	1	0	0	0.0	1.0	0	0.6032597001176327	0.9177671999204904	393.1484309001826	418.3100060001016	419.31488670012914	420.3655187000986	421.88212470011786	422.9050705002155	423.9211443001405	424.9442968000658	425.9611626002006	427.1941039001104	2020-02-08 12:02:44.772634	0.690047736799606	0.0	0.0	0.0	0.690047736799606	0.0	-0.690047736799606	0.0	0.0	0.690047736799606	0.0	0.0	-2.906322551022013	-0.4504457994807188	-0.007637679682013617	-1.6146381020263796	-0.9431150170264279	-0.007637679682013617	-0.1041884427319344	-1.928537623865226	0.9777849271567851	-1.8862634441658912	1.4281799650031597	1	correct	1.0
33.95798639999708	8.985351099865511	go_reward	0.4795151001308113	34.07913540001033	36.39692960004322	38.951425999868604	2.3177942000328926	35.08305089990614	37.9385428999085	42.02159160003072	1.3138787001370815	1.0128830999601064	1.0428948998451233	41.00303449993953	0.8771176999434829	39.9772731999401	1	1	5	1	go_reward	1	1	0	1	1	1	1	0.0	0.0	1	0.4795151001308113	0.8771176999434829	393.1484309001826	427.2275663001929	428.2314818000887	429.5453605002258	431.0869738000911	432.0998569000512	433.1257041001227	434.1514654001221	435.1700225002133	436.2129174000584	2020-02-08 12:02:44.772634	0.690047736799606	0.0	0.0	0.0	0.690047736799606	0.0	-0.690047736799606	0.0	0.0	0.690047736799606	0.0	9.24183436836282	-2.906322551022013	-0.4504457994807188	-0.007637679682013617	-1.6146381020263796	-0.9431150170264279	-0.007637679682013617	9.137645925630885	-1.928537623865226	0.9777849271567851	-1.8862634441658912	1.4281799650031597	1	wrong	1.0
42.97856159997178	8.339005099842268	go_reward	0.6345267998985946	43.09971059998503	44.46273529995233	47.018767999950796	1.3630246999672977	44.104191299993545	45.99747750000097	50.0478574000299	0.3585439999587834	1.0212904999498278	1.3908582997974008	49.0471085999161	0.7302919998764992	48.02997939987108	1	1	6	1	go_reward	0	0	1	1	1	1	0	0.0	1.0	0	0.6345267998985946	0.7302919998764992	393.1484309001826	436.2481415001676	437.2526222001761	437.6111662001349	439.14590840018354	440.16719890013337	441.17841030005366	442.1955395000987	443.1962883002125	444.5871466000099	2020-02-08 12:02:44.772634	3.28392587678323	1.86554596013734	0.0	1.86554596013734	3.28392587678323	0.0	-3.28392587678323	1.86554596013734	0.0	3.28392587678323	0.0	-1.86554596013734	-0.31244441103838927	1.4151001606566214	-0.007637679682013617	0.2509078581109605	1.6507631229571962	-0.007637679682013617	-1.9697344028692745	0.6653405161183978	0.9777849271567851	-0.020717484028551114	1.4281799650031597	1	correct	1.0
51.35756859998219	8.720074399840087	nogo_reward	0.5838512999471277	51.478717599995434	53.139445199863985	55.68445279984735	1.660727599868551	52.48915939987637	54.67150399996905	58.7274296998512	0.6502857999876142	1.012948799878302	1.471362299984321	57.72438559983857	0.7263285999651998	56.69892630004324	1	1	7	2	nogo_reward	0	1	0	0	1	0	0	0.0	1.0	1	0.5838512999471277	0.7263285999651998	393.1484309001826	444.627148500178	445.63759030005895	446.28787610004656	447.8199349001516	448.8328837000299	449.8473572002258	450.87281650002114	451.8758606000338	453.3472229000181	2020-02-08 12:02:44.772634	0.690047736799606	0.0	0.0	0.0	0.690047736799606	0.0	-0.690047736799606	0.0	0.0	0.690047736799606	0.0	9.24183436836282	-2.906322551022013	-0.4504457994807188	-0.007637679682013617	-1.6146381020263796	-0.9431150170264279	-0.007637679682013617	9.137645925630885	-1.928537623865226	0.9777849271567851	-1.8862634441658912	1.4281799650031597	1	correct	1.0
60.112158899893984	7.879345099907368	nogo_reward	0.5174221000634134	60.23330789990723	61.628927799873	64.17674759984948	1.3956198999657659	61.24086140003055	63.16794870002195	67.2290930999443	0.38806639984244384	1.008798899827525	0.8835598998703063	66.21659119985998	0.7301127999089658	65.19822969986126	1	1	8	2	nogo_reward	1	0	1	0	1	0	0	0.0	1.0	0	0.5174221000634134	0.7301127999089658	393.1484309001826	453.3817388000898	454.3892923002131	454.7773587000556	456.3163796002045	457.32517850003205	458.34666060004383	459.36502210004255	460.37752400012687	461.2610838999972	2020-02-08 12:02:44.772634	3.28392587678323	1.86554596013734	0.0	1.86554596013734	3.28392587678323	0.0	-3.28392587678323	1.86554596013734	0.0	3.28392587678323	0.0	-1.86554596013734	-0.31244441103838927	1.4151001606566214	-0.007637679682013617	0.2509078581109605	1.6507631229571962	-0.007637679682013617	-1.9697344028692745	0.6653405161183978	0.9777849271567851	-0.020717484028551114	1.4281799650031597	1	correct	1.0
68.0263958999422	9.309070300077963	nogo_punish	0.1525481999851763	68.14754489995545	70.63381289993413	73.1983682999853	2.486267999978679	69.1595438998192	72.17439879989251	76.24458579998463	1.47426900011493	1.0239695000927895	1.2120294000487775	75.2362690998707	0.9797982999589294	74.2095343999099	1	1	9	4	nogo_punish	1	-1	0	0	1	0	0	0.0	1.0	-1	0.1525481999851763	0.9797982999589294	393.1484309001826	461.295975800138	462.3079748000018	463.7822438001167	465.3228297000751	466.3467992001679	467.3579653000925	468.3847000000533	469.3930167001672	470.605046100216	2020-02-08 12:02:44.772634	0.690047736799606	0.0	0.0	0.0	0.690047736799606	0.0	-0.690047736799606	0.0	0.0	0.690047736799606	0.0	-7.58909621376947	-2.906322551022013	-0.4504457994807188	-0.007637679682013617	-1.6146381020263796	-0.9431150170264279	-0.007637679682013617	-7.693284656501405	-1.928537623865226	0.9777849271567851	-1.8862634441658912	1.4281799650031597	1	correct	1.0
77.40899569983594	8.426367700099945	go_punish	0.7444819000083953	77.53014469984919	79.0787047999911	81.6599393999204	1.5485601001419127	78.53891539992765	80.63871450000443	84.70939440000802	0.5397894000634551	1.0212248999159783	1.2471179999411106	83.70398360001855	0.7832535998895764	82.66387609997764	1	1	10	3	go_punish	1	0	-1	1	1	1	0	0.0	1.0	0	0.7444819000083953	0.7832535998895764	393.1484309001826	470.67857560003176	471.6873463001102	472.2271357001737	473.787145400187	474.808370300103	475.8123070001602	476.8524145002011	477.8578253001906	479.1049433001317	2020-02-08 12:02:44.772634	-1.31392281903953	-1.46749209505652	0.0	-1.46749209505652	-1.31392281903953	0.0	1.31392281903953	-1.46749209505652	0.0	-1.31392281903953	0.0	1.46749209505652	-4.9102931068611495	-1.9179378945372387	-0.007637679682013617	-3.0821301970828996	-2.947085572865564	-0.007637679682013617	1.3633036523245856	-3.932508179704362	0.9777849271567851	-3.353755539222411	1.4281799650031597	1	correct	1.0
85.8774663999211	9.741987399989739	go_punish	1.0	85.99861539993435	88.72170939994976	91.2424440998584	2.723094000015408	86.99551509995945	90.22745909984224	94.28175770002423	1.7261942999903113	1.0149850000161678	1.458845099899861	93.27083819988184	0.4728300001006573	92.247284800047	1	1	11	3	go_punish	0	-1	0	1	0	0	0	0.0	1.0	0	1.0	0.4728300001006573	393.1484309001826	479.1470463001169	480.143946000142	481.87014030013233	483.3758900000248	484.390875000041	485.3957157002296	486.4192691000644	487.4301886002068	488.88903370010667	2020-02-08 12:02:44.772634	0.88518955716006	-1.15588810068758	0.0	-1.15588810068758	-0.88518955716006	0.0	-0.88518955716006	0.0	-1.15588810068758	0.0	-0.88518955716006	0.0	-2.7111807306615594	-1.6063339001682988	-0.007637679682013617	-2.7705262027139597	-2.518352310986094	-0.007637679682013617	-0.1041884427319344	-2.618585360664832	0.09259536999672513	-1.8862634441658912	0.2722918643155796	1	correct	1.0
95.65671289991587	8.177806799998507	nogo_reward	0.8795835999771953	95.77786189992912	97.35973379993811	99.95742699992843	1.5818719000089914	96.79491189983673	98.94723279983742	103.00493439985439	0.5648219001013786	1.0101942000910071	0.9507343000732362	101.99203189997934	0.6318465999793261	100.97843999997713	1	1	12	2	nogo_reward	1	0	1	0	1	0	0	0.0	1.0	0	0.8795835999771953	0.6318465999793261	393.1484309001826	488.9262928001117	489.9433428000193	490.5081647001207	492.09566370002	493.105857900111	494.1268709001597	495.1404628001619	496.15336530003697	497.1040996001102	2020-02-08 12:02:44.772634	2.70591348140065	1.45298888798568	0.0	1.45298888798568	2.70591348140065	0.0	-2.70591348140065	1.45298888798568	0.0	2.70591348140065	0.0	-1.45298888798568	-0.8904568064209695	1.0025430885049613	-0.007637679682013617	-0.16164921404069954	1.072750727574616	-0.007637679682013617	-1.5571773307176144	0.08732812073581764	0.9777849271567851	-0.43327455618021116	1.4281799650031597	1	correct	1.0
103.88921679998748	8.491270599886775	go_punish	1.0	104.01036580000073	105.56553320004605	108.09835069999104	1.5551674000453204	105.01020079990855	107.07466679997742	111.1485138998832	0.5553324001375017	1.0236839000136229	1.3531225000043037	110.14332169992855	0.4487175000831485	109.10847259988077	1	1	13	3	go_punish	1	0	-1	1	0	0	1	1.0	1.0	-1	1.0	0.4487175000831485	393.1484309001826	497.1587967001833	498.1586317000911	498.7139641002286	500.22309770016	501.2467816001736	502.25690350006334	503.2917526001111	504.2969448000658	505.6500673000701	2020-02-08 12:02:44.772634	0.795902600586864	-1.15588810068758	0.0	-0.916541821224602	-0.795902600586864	0.0	-0.795902600586864	0.0	-1.15588810068758	0.0	-0.795902600586864	-7.58909621376947	-2.800467687234755	-1.6063339001682988	-0.007637679682013617	-2.5311799232509817	-2.4290653544128977	-0.007637679682013617	-7.693284656501405	-2.618585360664832	0.1818823265699211	-1.8862634441658912	0.2722918643155796	1	correct	1.0
112.42044989997521	8.019423000048846	nogo_punish	0.5080865998752415	112.54159889998846	114.00918479985557	116.59388359985314	1.4675858998671174	113.54306509997696	115.57620120001951	119.65727069997229	0.4661196998786181	1.0176823998336317	0.9037512000650167	118.63835299992934	0.5832204001490027	117.61497480003163	1	1	14	4	nogo_punish	0	0	-1	0	1	0	0	0.0	1.0	0	0.5080865998752415	0.5832204001490027	393.1484309001826	505.69002980017103	506.69149600015953	507.15761570003815	508.7246321002021	509.7423145000357	510.7634057002142	511.7867839001119	512.8057016001549	513.7094528002199	2020-02-08 12:02:44.772634	-1.31392281903953	-1.46749209505652	0.0	-1.46749209505652	-1.31392281903953	0.0	1.31392281903953	-1.46749209505652	0.0	-1.31392281903953	0.0	1.46749209505652	-4.9102931068611495	-1.9179378945372387	-0.007637679682013617	-3.0821301970828996	-2.947085572865564	-0.007637679682013617	1.3633036523245856	-3.932508179704362	0.9777849271567851	-3.353755539222411	1.4281799650031597	1	correct	1.0
120.47859229985625	8.57319559995085	nogo_reward	1.0	120.59974129986949	122.40154839982279	124.91200719983317	1.8018070999532938	121.61933649983257	123.89853339991532	127.97010999987833	0.7822118999902159	1.013473799917847	1.2028268999420106	126.95266319997609	0.918521999847144	125.92975470004603	1	1	15	2	nogo_reward	1	0	1	0	0	1	0	0.0	1.0	1	1.0	0.918521999847144	393.1484309001826	513.7481722000521	514.7677674000151	515.5499793000054	517.0469643000979	518.0604381000157	519.0781856002286	520.1010941001587	521.1185409000609	522.3213678000029	2020-02-08 12:02:44.772634	-2.26805690064127	1.13978618418179	0.0	1.13978618418179	2.26805690064127	0.0	2.26805690064127	0.0	1.13978618418179	0.0	2.26805690064127	9.24183436836282	-5.864427188462889	0.6893403847010713	-0.007637679682013617	-0.4748519178445896	0.6348941468152363	-0.007637679682013617	9.137645925630885	-2.618585360664832	3.2458418277980554	-1.8862634441658912	2.56796614918495	1	correct	1.0
129.08635280001909	8.851328799966723	nogo_punish	1.0	129.20750180003233	131.56249079992995	134.09664699994028	2.354988999897614	130.22330820001662	133.07594759995118	137.1437570999842	1.3391825999133289	1.0206993999890983	0.9150735000148416	136.13544179988094	0.590499599929899	135.11077589984052	1	1	16	4	nogo_punish	0	0	-1	0	0	1	1	0.0	0.0	-1	1.0	0.590499599929899	393.1484309001826	522.3559327002149	523.3717391001992	524.7109217001125	526.2243785001338	527.2450779001229	528.2592068000231	529.2838727000635	530.2921880001668	531.2072615001816	2020-02-08 12:02:44.772634	0.88518955716006	-1.15588810068758	0.0	-1.15588810068758	-0.88518955716006	0.0	-0.88518955716006	0.0	-1.15588810068758	0.0	-0.88518955716006	-7.58909621376947	-2.7111807306615594	-1.6063339001682988	-0.007637679682013617	-2.7705262027139597	-2.518352310986094	-0.007637679682013617	-7.693284656501405	-2.618585360664832	0.09259536999672513	-1.8862634441658912	0.2722918643155796	1	wrong	1.0
138.01228839997202	8.009288300061598	go_punish	0.7609122002031654	138.13343739998527	139.56925769988447	142.17128030001186	1.4358202998992056	139.1434939999599	141.12963599991053	145.22686269995756	0.4257636999245733	1.041644300101325	0.9158630000893027	144.20696889981627	0.911482699913904	143.18344769999385	1	1	17	3	go_punish	1	0	-1	1	1	1	0	0.0	1.0	0	0.7609122002031654	0.911482699913904	393.1484309001826	531.2818683001678	532.2919249001425	532.717688600067	534.2780669000931	535.3197112001944	536.3318786001764	537.3553997999988	538.3752936001401	539.2911566002294	2020-02-08 12:02:44.772634	0.203727359655993	-1.15588810068758	-1.46749209505652	-2.19873049458362	-1.26376473540052	-1.46749209505652	-0.203727359655993	-1.15588810068758	-1.46749209505652	-1.26376473540052	-1.46749209505652	1.15588810068758	-3.392642928165626	-1.6063339001682988	-1.4751297747385337	-3.8133685966099997	-2.8969274892265537	-1.4751297747385337	1.0516996579556457	-3.882350096065352	-0.4897071678997349	-3.0421515448534713	-0.03931213005336032	1	correct	1.0
146.0576979999896	9.186011899961159	go_reward	0.2411620998755097	146.17884700000286	148.79908919986337	151.35278169997036	2.620242199860513	147.18590449984185	150.33257259987295	154.40265329997055	1.6131847000215203	1.0202091000974178	0.9622055999934673	153.3924175000284	0.3351022999268025	152.3690919999499	1	1	18	1	go_reward	0	0	1	1	1	1	0	0.0	1.0	0	0.2411620998755097	0.3351022999268025	393.1484309001826	539.3272779001854	540.3343354000244	541.947520100046	543.4810035000555	544.5012126001529	545.5175229001325	546.540848400211	547.5510842001531	548.5132898001466	2020-02-08 12:02:44.772634	2.70591348140065	1.45298888798568	0.0	1.45298888798568	2.70591348140065	0.0	-2.70591348140065	1.45298888798568	0.0	2.70591348140065	0.0	-1.45298888798568	-0.8904568064209695	1.0025430885049613	-0.007637679682013617	-0.16164921404069954	1.072750727574616	-0.007637679682013617	-1.5571773307176144	0.08732812073581764	0.9777849271567851	-0.43327455618021116	1.4281799650031597	1	correct	1.0
155.28328209999017	9.209623500006273	nogo_punish	1.0	155.40443110000342	158.19313289993443	160.73012469988316	2.7887017999310046	156.41684519988485	159.71046569989994	163.78042729990557	1.7762877000495791	1.0196589999832213	0.8336273001041263	162.77081409981474	0.9490755998995156	161.74906249996275	1	1	19	4	nogo_punish	1	-1	0	0	0	1	0	0.0	1.0	0	1.0	0.9490755998995156	393.1484309001826	548.552862000186	549.5652761000674	551.341563800117	552.8588966000825	553.8785556000657	554.8974934001453	555.9192449999973	556.9288582000881	557.7624855001923	2020-02-08 12:02:44.772634	-0.135111033687039	-1.15588810068758	-1.46749209505652	-2.38403391628112	-1.33238106136948	-1.46749209505652	0.135111033687039	-1.46749209505652	-1.15588810068758	-1.46749209505652	-1.33238106136948	1.46749209505652	-3.7314813215086584	-1.6063339001682988	-1.4751297747385337	-3.9986720183074995	-2.965543815195514	-1.4751297747385337	1.3633036523245856	-4.086077455721352	-0.35459613421269487	-3.353755539222411	0.2722918643155796	1	correct	1.0
164.5301782998722	8.934952000156045	nogo_reward	0.4333035999443382	164.65132729988545	167.17095199995674	169.7546494998969	2.51962470007129	165.6583775000181	168.7324101999402	172.8059471999295	1.512574499938637	1.0222392999567091	0.7803321001119912	171.80258210003376	0.5493476998526603	170.76374570000917	1	1	20	2	nogo_reward	1	0	1	0	1	0	0	0.0	1.0	0	0.4333035999443382	0.5493476998526603	393.1484309001826	557.799758200068	558.8068084002007	560.3193829001393	561.8808411001228	562.9030804000795	563.9121766001917	564.9510130002163	565.9543781001121	566.7347102002241	2020-02-08 12:02:44.772634	1.03612324521164	1.13978618418179	1.86554596013734	2.76554452747931	2.90166920534898	1.86554596013734	-1.03612324521164	1.13978618418179	1.86554596013734	2.90166920534898	1.86554596013734	-1.13978618418179	-2.560247042609979	0.6893403847010713	1.8579082804553264	1.1509064254529302	1.2685064515229463	1.8579082804553264	-1.2439746269137244	0.28308384468414793	2.843330887294125	-0.7464772599841012	3.2937259251404996	1	correct	1.0
173.50077079981565	9.272097300039604	nogo_punish	1.0	173.6219197998289	176.39094819989987	178.90432059997693	2.7690284000709653	174.6302342999261	177.88956009992398	181.94207259989344	1.76071389997378	1.0147605000529438	0.9519444999750704	180.93308049999177	0.8627309000585228	179.91141760000028	1	1	21	4	nogo_punish	0	0	-1	0	0	1	1	0.0	0.0	-1	1.0	0.8627309000585228	393.1484309001826	566.7703507000115	567.7786652001087	569.5393791000824	571.0379910001066	572.0527515001595	573.0598485001829	574.0815114001743	575.090503500076	576.0424480000511	2020-02-08 12:02:44.772634	-0.0092526327975915	-1.15588810068758	-1.15588810068758	-1.88712650021468	-1.14663546788999	-1.15588810068758	0.0092526327975915	-1.15588810068758	-1.15588810068758	-1.15588810068758	-1.14663546788999	-6.43320811308189	-3.605622920619211	-1.6063339001682988	-1.1635257803695938	-3.5017646022410593	-2.7797982217160238	-1.1635257803695938	-6.5373965558138245	-3.7744734613524122	-0.16885054073320482	-3.0421515448534713	0.2722918643155796	1	wrong	1.0
182.84792109997943	8.631237800000235	go_punish	0.4408120000734925	182.96907009999268	184.46039909985848	187.06432979996316	1.4913289998658001	183.96454139985144	186.0365938998293	190.11444979999214	0.49585770000703633	1.0277359001338482	1.485858100000769	189.1001579000149	0.5055411998182535	188.07163769984618	1	1	22	3	go_punish	0	-1	0	1	1	1	0	0.0	1.0	-1	0.4408120000734925	0.5055411998182535	393.1484309001826	576.1175010001753	577.112972300034	577.608830000041	579.1850248000119	580.2127607001457	581.2200686000288	582.2485888001975	583.2628807001747	584.7487388001755	2020-02-08 12:02:44.772634	0.613325378279097	-0.916541821224602	-1.46749209505652	-1.74262837255397	-0.854166716777421	-1.46749209505652	-0.613325378279097	-0.916541821224602	-1.46749209505652	-0.854166716777421	-1.46749209505652	-6.6725543925448685	-2.983044909542522	-1.3669876207053209	-1.4751297747385337	-3.3572664745803493	-2.4873294706034548	-1.4751297747385337	-6.776742835276803	-3.4727520774422533	-0.4897071678997349	-2.8028052653904933	-0.03931213005336032	1	correct	1.0
191.51680459990166	8.019310400122777	go_reward	0.329680300084874	191.6379535999149	193.2904548998922	195.81584519986063	1.6525012999773026	192.6435725998599	194.8153560999781	198.86076009995304	0.6468823000323027	1.000489099882543	0.7965039000846446	197.852961699944	0.4406018999870866	196.8325525999535	1	1	23	1	go_reward	1	1	0	1	1	1	0	0.0	1.0	1	0.329680300084874	0.4406018999870866	393.1484309001826	584.7863845000975	585.7920035000425	586.4388858000748	587.9637870001607	588.9642761000432	589.9809835001361	591.0013926001266	592.0091910001356	592.8056949002203	2020-02-08 12:02:44.772634	2.26805690064127	1.13978618418179	0.0	1.13978618418179	2.26805690064127	0.0	-2.26805690064127	1.13978618418179	0.0	2.26805690064127	0.0	8.10204818418103	-1.3283133871803492	0.6893403847010713	-0.007637679682013617	-0.4748519178445896	0.6348941468152363	-0.007637679682013617	7.997859741449095	-0.3505284600235621	0.9777849271567851	-0.7464772599841012	1.4281799650031597	1	correct	1.0
199.5718484998215	8.585576800163835	go_reward	0.3367403000593185	199.69299749983475	201.6123407999985	204.22168049984612	1.9193433001637459	200.69816269981675	203.2034144999925	207.25502249994315	0.9141781001817435	1.018265999853611	1.0235518000554293	206.2531240999233	0.3870427999645471	205.22415239992552	1	1	24	1	go_reward	1	1	0	1	1	1	0	0.0	1.0	1	0.3367403000593185	0.3870427999645471	393.1484309001826	592.8414284000173	593.8465935999993	594.7607717001811	596.3518454001751	597.3701114000287	598.3725833001081	599.4015550001059	600.4034534001257	601.4270052001812	2020-02-08 12:02:44.772634	4.5274275486465	2.76554452747931	0.0	2.76554452747931	4.5274275486465	0.0	-4.5274275486465	2.76554452747931	0.0	4.5274275486465	0.0	6.47628984088351	0.9310572608248808	2.315098727998591	-0.007637679682013617	1.1509064254529302	2.894264794820466	-0.007637679682013617	6.3721013981515755	1.908842187981668	0.9777849271567851	0.8792810833134186	1.4281799650031597	1	correct	1.0
208.19093879987486	8.624142199987546	go_reward	0.3149214000441134	208.3120877998881	210.34416059986688	212.9107571998611	2.0320727999787778	209.30445159994997	211.894265800016	215.92868569982238	1.0397089999169111	1.0164913998451084	1.0075443000532687	214.92875329987146	0.4912707000039518	213.9148321999237	1	1	25	1	go_reward	1	1	0	1	1	1	1	1.0	1.0	1	0.3149214000441134	0.4912707000039518	393.1484309001826	601.4605187000707	602.4528825001325	603.4925915000495	605.0426967001986	606.0591881000437	607.0632631001063	608.077184200054	609.077116600005	610.0846609000582	2020-02-08 12:02:44.772634	6.28576747256089	4.03354563066562	0.0	4.03354563066562	6.28576747256089	0.0	-6.28576747256089	4.03354563066562	0.0	6.28576747256089	0.0	5.2082887376972	2.6893971847392706	3.5830998311849016	-0.007637679682013617	2.4189075286392407	4.652604718734856	-0.007637679682013617	5.104100294965265	3.6671821118960577	0.9777849271567851	2.147282186499729	1.4281799650031597	1	correct	1.0
216.85014729993418	8.276900399941951	nogo_punish	1.0	216.97129629994743	218.4571524998173	220.9758866999764	1.485856199869886	217.98714939993806	219.9657634999603	224.01923429989256	0.47000309987924993	1.0101232000160962	1.2289623999968171	223.0118128999602	0.8584886998869479	221.98866509995423	1	1	26	4	nogo_punish	1	-1	0	0	0	1	0	0.0	1.0	0	1.0	0.8584886998869479	393.1484309001826	610.11972720013	611.1355803001206	611.6055833999999	613.1141944001429	614.124317600159	615.1370960001368	616.1602438001428	617.1676652000751	618.396627600072	2020-02-08 12:02:44.772634	-0.843329415831299	-1.15588810068758	-2.38403391628112	-2.97077418814751	-1.54070450044982	-2.38403391628112	0.843329415831299	-2.38403391628112	-1.15588810068758	-2.38403391628112	-1.54070450044982	2.38403391628112	-4.439699703652918	-1.6063339001682988	-2.3916715959631336	-4.58541229017389	-3.173867254275854	-2.3916715959631336	2.2798454735491855	-5.002619276945952	-0.562919573293035	-4.270297360447011	0.2722918643155796	1	correct	1.0
225.16373289981857	8.640571700176224	nogo_punish	1.0	225.28488189983182	227.1146162999794	229.63130469992757	1.8297344001475722	226.29918039985932	228.61745020002127	232.68606480001472	0.8154359001200646	1.0138544999063015	1.2393887999933213	231.66879000002518	0.646669500041753	230.645492099924	1	1	27	4	nogo_punish	0	0	-1	0	0	1	0	0.0	1.0	-1	1.0	0.646669500041753	393.1484309001826	618.4333128000144	619.4476113000419	620.263047200162	621.7658811002038	622.7797356001101	623.7939230001066	624.8172209002078	625.8344957001973	627.0738845001906	2020-02-08 12:02:44.772634	-0.573576257340511	-1.15588810068758	-1.88712650021468	-2.36044009199	-1.31355024287417	-1.88712650021468	0.573576257340511	-1.88712650021468	-1.15588810068758	-1.88712650021468	-1.31355024287417	-5.70196971355479	-4.16994654516213	-1.6063339001682988	-1.8947641798966937	-3.9750781940163797	-2.946712996700204	-1.8947641798966937	-5.806158156286725	-4.505711860879512	-0.335765315717385	-3.773389944380571	0.2722918643155796	1	correct	1.0
233.8764451998286	10.092727900017053	go_punish	0.621268599992618	233.99759419984184	236.9916673998814	239.57881049998105	2.9940732000395656	235.00884339981712	238.56933169998229	242.6307065000292	1.9828240000642836	1.0094787999987602	1.4596155998297036	241.62713509984314	0.733483700081706	240.59563179989345	1	1	28	3	go_punish	1	0	-1	1	1	1	0	0.0	1.0	0	0.621268599992618	0.733483700081706	393.1484309001826	627.1460251000244	628.1572742999997	630.140098300064	631.7177626001649	632.7272414001636	633.744062700076	634.7755660000257	635.7791374002118	637.2387530000415	2020-02-08 12:02:44.772634	-1.07464613519317	-2.19873049458362	-1.46749209505652	-2.85734750805644	-2.54213823024969	-1.46749209505652	1.07464613519317	-2.19873049458362	-1.46749209505652	-2.54213823024969	-1.46749209505652	2.19873049458362	-4.671016423014789	-2.649176294064339	-1.4751297747385337	-4.47198561008282	-4.175300984075724	-1.4751297747385337	2.0945420518516857	-5.160723590914522	-0.4897071678997349	-4.084993938749511	-0.03931213005336032	1	correct	1.0
244.00904299994	8.448025899939239	go_punish	1.0	244.13019199995324	245.96801709989086	248.4921879998874	1.8378250999376178	245.13392669986933	247.48052449990064	251.53811259986833	0.8340904000215232	1.0116634999867529	1.0401053000241518	250.52263579983264	1.0	249.51285489997827	1	1	29	3	go_punish	1	0	-1	1	0	0	0	n/a	0.0	-1	1.0	1.0	393.1484309001826	637.2786229001358	638.2823576000519	639.1164480000734	640.6289554000832	641.64061890007	642.6612858001608	643.6710667000152	644.6865435000509	645.726648800075	2020-02-08 12:02:44.772634	0.400315388937992	-1.74262837255397	-1.46749209505652	-2.27085477437056	-1.86780748399451	-1.46749209505652	-0.400315388937992	-1.46749209505652	-1.74262837255397	-1.46749209505652	-1.86780748399451	-6.12160411871295	-3.1960548988836273	-2.193074172034689	-1.4751297747385337	-3.8854928763969396	-3.500970237820544	-1.4751297747385337	-6.225792561444885	-4.086077455721352	-0.8900225568377249	-3.353755539222411	-0.31444840755081027	1	missed	0.0
252.49373360001482	7.774848199915141	go_reward	0.6177254000212997	252.61488260002807	253.98028289992362	256.5766949998215	1.3654002998955548	253.618518400006	255.54176189983264	259.6307659999002	0.3617644999176264	1.034933099988848	0.7589648000430316	258.62145820003934	0.3267993000335991	257.5971490999218	1	1	30	1	go_reward	0	0	1	1	1	1	0	0.0	1.0	0	0.6177254000212997	0.3267993000335991	393.1484309001826	645.7633135002106	646.7669493001886	647.1287138001062	648.6901928000152	649.7251259000041	650.7455800001044	651.7698891002219	652.7791969000828	653.5381617001258	2020-02-08 12:02:44.772634	7.66410842251719	5.02961601345367	0.0	5.02961601345367	7.66410842251719	0.0	-7.66410842251719	5.02961601345367	0.0	7.66410842251719	0.0	-5.02961601345367	4.0677381346955706	4.579170213972951	-0.007637679682013617	3.4149779114272905	6.030945668691156	-0.007637679682013617	-5.133804456185604	5.045523061852357	0.9777849271567851	3.143352569287779	1.4281799650031597	1	correct	1.0
260.3395856998395	8.991435500094667	go_punish	0.8270197999663651	260.46073469985276	262.43909999984317	264.9960105998907	1.9783652999904007	261.4608230998274	263.9842548999004	268.03040379984304	0.9782769000157714	1.0117556999903172	1.4217664001043886	267.0178439000156	0.7077240000944585	266.0013498000335	1	1	31	3	go_punish	1	0	-1	1	1	1	1	0.0	0.0	0	0.8270197999663651	0.7077240000944585	393.1484309001826	653.6091656000353	654.60925400001	655.5875309000257	657.132685800083	658.1444415000733	659.1497807002161	660.1662748001982	661.1788347000256	662.60060110013	2020-02-08 12:02:44.772634	0.387136320536974	-1.74262837255397	-2.6233801957441	-3.28333997071546	-2.23624387520713	-2.6233801957441	-0.387136320536974	-1.74262837255397	-2.6233801957441	-2.23624387520713	-2.6233801957441	1.74262837255397	-3.2092339672846455	-2.193074172034689	-2.6310178754261138	-4.897978072741839	-3.869406629033164	-2.6310178754261138	1.6384399298220356	-4.8548292358719625	-1.645595268587315	-3.628891816719861	-1.1952002307409404	1	wrong	1.0
269.3666423999239	9.55767980008386	go_reward	0.4876300999894738	269.4877913999371	271.9724639998749	274.5157118998468	2.484672599937767	270.50251549994573	273.51864489982836	277.56662759999745	1.4699484999291599	0.9970670000184327	1.4788436000235379	276.55817350000143	0.816540899919346	275.5355995998252	1	1	32	1	go_reward	0	0	1	1	1	1	1	1.0	1.0	0	0.4876300999894738	0.816540899919346	393.1484309001826	662.6362223001197	663.6509464001283	665.1208949000575	666.6670758000109	667.6641428000294	668.6840305000078	669.706604400184	670.71505850018	672.1939021002036	2020-02-08 12:02:44.772634	6.15790251905586	3.95168830958357	0.0	3.95168830958357	6.15790251905586	0.0	-6.15790251905586	3.95168830958357	0.0	6.15790251905586	0.0	-3.95168830958357	2.5615322312342403	3.5012425101028515	-0.007637679682013617	2.3370502075571906	4.524739765229826	-0.007637679682013617	-4.055876752315505	3.5393171583910275	0.9777849271567851	2.065424865417679	1.4281799650031597	1	correct	1.0
278.96097509982064	9.1392804000061	nogo_reward	1.0	279.0821240998339	281.6651997999288	284.18527100002393	2.5830757000949234	280.08629559981637	283.16943629994057	287.2176484998781	1.5789042001124471	1.01583470008336	1.003755999961868	286.2051130000036	0.4600184999871999	285.19195869984105	1	1	33	2	nogo_reward	0	1	0	0	0	1	0	0.0	1.0	0	1.0	0.4600184999871999	393.1484309001826	672.2305550000165	673.2347264999989	674.8136307001114	676.3178672001231	677.3337019002065	678.3403896000236	679.3535439001862	680.3660794000607	681.3698354000226	2020-02-08 12:02:44.772634	-0.558342269253619	0.899998567341967	1.86554596013734	2.16799967052827	2.42388822939096	1.86554596013734	0.558342269253619	1.86554596013734	0.899998567341967	1.86554596013734	2.42388822939096	-1.86554596013734	-4.154712557075238	0.44955276786124826	1.8579082804553264	0.5533615685018902	0.790725475564926	1.8579082804553264	-1.9697344028692745	-0.7530394005274921	3.401673156547745	-0.020717484028551114	2.3281785323451265	1	correct	1.0
288.1321485999506	9.620869099861011	go_reward	0.3226711000315845	288.25329759996384	290.961025999859	293.53996480000205	2.7077283998951316	289.2556882998906	292.51390230003744	296.5893697999418	1.7053376999683678	1.0260624999646097	1.2847968998830765	295.5761225000024	0.5078522998373955	294.5527862999588	1	1	34	1	go_reward	1	1	0	1	1	1	1	1.0	1.0	1	0.3226711000315845	0.5078522998373955	393.1484309001826	681.4017285001464	682.4041192000732	684.1094569000416	685.66233320022	686.6883957001846	687.7012172001414	688.724553400185	689.7378007001244	691.0225976000074	2020-02-08 12:02:44.772634	5.00564838452048	3.12529783465635	0.0	3.12529783465635	5.00564838452048	0.0	-5.00564838452048	3.12529783465635	0.0	5.00564838452048	0.0	6.11653653370647	1.409278096698861	2.6748520351756313	-0.007637679682013617	1.5106597326299704	3.372485630694446	-0.007637679682013617	6.012348090974536	2.387063023855648	0.9777849271567851	1.2390343904904588	1.4281799650031597	1	correct	1.0
297.78819089988247	8.336599300149828	go_reward	0.4974098999518901	297.9093398998957	299.6875902998727	302.22482759994455	1.7782503999769688	298.91529110004194	301.2244096000213	305.2839879998937	0.7722991998307407	1.0004179999232292	0.961951200151816	304.2659988999367	0.4066626999992877	303.241330599878	1	1	35	1	go_reward	1	1	0	1	1	1	0	0.0	1.0	1	0.4974098999518901	0.4066626999992877	393.1484309001826	691.0577708000783	692.0637220002245	692.8360212000553	694.3728405002039	695.3732585001271	696.3897615000606	697.4144298001193	698.4324189000763	699.3943701002281	2020-02-08 12:02:44.772634	6.711184254017	4.35239894325838	0.0	4.35239894325838	6.711184254017	0.0	-6.711184254017	4.35239894325838	0.0	6.711184254017	0.0	4.88943542510444	3.1148139661953804	3.901953143777661	-0.007637679682013617	2.7377608412320003	5.078021500190966	-0.007637679682013617	4.785246982372506	4.092598893352168	0.9777849271567851	2.4661354990924886	1.4281799650031597	1	correct	1.0
306.1594579999801	8.20376900001429	nogo_punish	0.7957209998276085	306.2806069999933	307.9813591998536	310.54445309983566	1.7007521998602897	307.2844501999207	309.53520289994776	313.5884106999729	0.6969089999329299	1.0092501998879015	0.8959653000347316	312.58145519997925	0.8210810997989029	311.55908549996093	1	1	36	4	nogo_punish	1	-1	0	0	1	0	0	0.0	1.0	-1	0.7957209998276085	0.8210810997989029	393.1484309001826	699.4290379001759	700.4328811001033	701.1297901000362	702.6836338001303	703.6928840000182	704.7075164001435	705.7298861001618	706.7368416001555	707.6328069001902	2020-02-08 12:02:44.772634	1.29563794345956	-1.15588810068758	-2.97077418814751	-3.35450246230338	-1.67513624468795	-2.97077418814751	-1.29563794345956	-1.15588810068758	-2.97077418814751	-1.67513624468795	-2.97077418814751	-6.43320811308189	-2.3007323443620593	-1.6063339001682988	-2.9784118678295237	-4.969140564329759	-3.308298998513984	-2.9784118678295237	-6.5373965558138245	-4.293721605352783	-1.992989260990725	-3.0421515448534713	-1.5425942231443504	1	correct	1.0
314.39837289997377	9.027629500022158	nogo_punish	1.0	314.519521899987	317.0560695999302	319.57958299992606	2.536547699943185	315.53090419992805	318.5610837000422	322.61935829999857	1.5251654000021517	1.0184992998838425	0.9277931000106037	321.6064363999758	0.4144985000602901	320.5860319000203	1	1	37	4	nogo_punish	1	-1	0	0	0	1	0	0.0	1.0	0	1.0	0.4144985000602901	393.1484309001826	707.6679528001696	708.6793351001106	710.2045005001128	711.7095146002248	712.7280139001086	713.7344628002029	714.7548673001584	715.7677892001811	716.6955823001917	2020-02-08 12:02:44.772634	0.216199433993729	-2.38403391628112	-2.97077418814751	-4.14049796961447	-3.18697362214124	-2.97077418814751	-0.216199433993729	-2.97077418814751	-2.38403391628112	-2.97077418814751	-3.18697362214124	2.97077418814751	-3.3801708538278903	-2.8344797157618387	-2.9784118678295237	-5.75513607164085	-4.820136375967274	-2.9784118678295237	2.8665857454155756	-5.589359548812342	-2.209188694984455	-4.857037632313402	-0.9558539512779602	1	correct	1.0
323.45970009989105	8.3065514001064	go_reward	0.6717774998396635	323.5808490999043	324.9211476999335	327.47786859981716	1.3402986000292003	324.59196490002796	326.45408859988675	330.5303744999692	0.32918279990553856	1.0237799999304116	1.3570260000415146	329.5087707999628	0.5132647999562323	328.4817837998271	1	1	38	1	go_reward	1	1	0	1	1	1	0	0.0	1.0	1	0.6717774998396635	0.5132647999562323	393.1484309001826	716.7292800000869	717.7403958002105	718.0695786001161	719.6025195000693	720.6262994999997	721.6302147000097	722.6572017001454	723.6788054001518	725.0358314001933	2020-02-08 12:02:44.772634	8.03728655283864	5.30865735035045	0.0	5.30865735035045	8.03728655283864	0.0	-8.03728655283864	5.30865735035045	0.0	8.03728655283864	0.0	3.93317701801237	4.440916265017021	4.858211550869731	-0.007637679682013617	3.6940192483240706	6.4041237990126065	-0.007637679682013617	3.8289885752804356	5.418701192173808	0.9777849271567851	3.422393906184559	1.4281799650031597	1	correct	1.0
331.80595820001327	8.53400079999119	go_punish	0.7443544999696314	331.9271072000265	333.5006223998498	336.08367870002985	1.573515199823305	332.938580899965	335.0588575999718	339.1269294000231	0.5620414998847991	1.024821100058034	1.3341785999946296	338.1142571999226	0.5392897001001984	337.10067670000717	1	1	39	3	go_punish	1	0	-1	1	1	1	0	0.0	1.0	0	0.7443544999696314	0.5392897001001984	393.1484309001826	725.0755381002091	726.0870118001476	726.6490533000324	728.2072885001544	729.2321096002124	730.2491076001897	731.2626881001052	732.2753603002056	733.6095389002003	2020-02-08 12:02:44.772634	0.987403154832488	-1.38985541299992	-2.6233801957441	-2.61617240042173	-1.63597704091161	-2.6233801957441	-0.987403154832488	-1.38985541299992	-2.6233801957441	-1.63597704091161	-2.6233801957441	1.38985541299992	-2.6089671329891315	-1.8403012124806388	-2.6310178754261138	-4.23081050244811	-3.2691397947376437	-2.6310178754261138	1.2856669702679857	-4.254562401576442	-1.645595268587315	-3.2761188571658115	-1.1952002307409404	1	correct	1.0
340.37653689994477	8.230037099914625	nogo_punish	1.0	340.497685899958	342.2233257999178	344.7303442999255	1.7256398999597877	341.5128273998853	343.7179841999896	347.7807704999577	0.7104984000325203	1.0123600999359041	0.9469524999149144	346.7687568999827	0.5686274999752641	345.7431014999747	1	1	40	4	nogo_punish	1	-1	0	0	0	1	0	0.0	1.0	0	1.0	0.5686274999752641	393.1484309001826	733.6461168001406	734.6612583000679	735.3717567001004	736.8664151001722	737.8787752001081	738.8915324001573	739.9171878001653	740.9292014001403	741.8761539000552	2020-02-08 12:02:44.772634	0.514172186506055	-2.38403391628112	-2.36044009199	-3.29863077636618	-2.87461227849606	-2.36044009199	-0.514172186506055	-2.36044009199	-2.38403391628112	-2.36044009199	-2.87461227849606	2.36044009199	-3.0821981013155644	-2.8344797157618387	-2.368077771672014	-4.913268878392559	-4.507775032322094	-2.368077771672014	2.2562516492580658	-4.979025452654833	-1.8968273513392748	-4.246703536155891	-0.9558539512779602	1	correct	1.0
348.64183719991706	9.042916300008073	nogo_reward	0.8508743001148105	348.7629861999303	350.73412030003965	353.2880755998194	1.9711341001093388	349.7610901000444	352.27638739999384	356.32982539990917	0.9730301999952644	1.0116881998255849	1.4760771000292152	355.32599599985406	0.8559196998830885	354.30290480004624	1	1	41	2	nogo_reward	1	0	1	0	1	0	0	0.0	1.0	0	0.8508743001148105	0.8559196998830885	393.1484309001826	741.9114171001129	742.909521000227	743.8825512002222	745.4248183001764	746.436506500002	747.4513357002288	748.4744269000366	749.4782563000917	750.954333400121	2020-02-08 12:02:44.772634	0.79029305195815	0.899998567341967	1.45298888798568	1.71108116533065	2.24328193994383	1.45298888798568	-0.79029305195815	0.899998567341967	1.45298888798568	2.24328193994383	1.45298888798568	-0.899998567341967	-2.8060772358634694	0.44955276786124826	1.4453512083036664	0.09644306330427033	0.6101191861177961	1.4453512083036664	-1.0041870100739014	-0.3753034207210022	2.430773815142465	-0.9862648768239242	2.8811688529888397	1	correct	1.0
357.7207803998608	8.792303000111133	nogo_reward	0.4245068000163883	357.84192939987406	360.01541269989684	362.5675041000359	2.173483300022781	358.84441010002047	361.5474413000047	365.6096900999546	1.171002599876374	1.0200628000311553	1.024542300030589	364.60317400004715	0.414727299939841	363.58011079998687	1	1	42	2	nogo_reward	1	0	1	0	1	0	0	0.0	1.0	0	0.4245068000163883	0.414727299939841	393.1484309001826	750.9903603000566	751.992841000203	753.1638436000794	754.6958722001873	755.7159350002185	756.7285417001694	757.7516049002297	758.7581210001372	759.7826633001678	2020-02-08 12:02:44.772634	0.467136267753955	0.715010782542593	1.45298888798568	1.3589132374161	1.92012515573963	1.45298888798568	-0.467136267753955	0.715010782542593	1.45298888798568	1.92012515573963	1.45298888798568	-0.715010782542593	-3.1292340200676643	0.2645649830618742	1.4453512083036664	-0.25572486461027966	0.2869624019135961	1.4453512083036664	-0.8191992252745274	-0.6984602049252022	2.430773815142465	-1.1712526616232983	2.8811688529888397	1	correct	1.0
366.5520484999288	8.801730199949816	go_punish	0.3511183999944478	366.67319749994203	368.4637626998592	371.04485809989274	1.7905651999171823	367.68495070002973	370.02457059989683	374.08605529996566	0.778811999829486	1.0202874999959022	1.3888723999261856	373.08571849996224	0.8570040999911726	372.0620007000398	1	1	43	3	go_punish	1	0	-1	1	1	1	0	0.0	1.0	0	0.3511183999944478	0.8570040999911726	393.1484309001826	759.8216284001246	760.8333816002123	761.6121936000418	763.1730015000794	764.1932890000753	765.2104316002224	766.2341494001448	767.2344862001482	768.6233586000744	2020-02-08 12:02:44.772634	1.4534085516882	-1.11496667368297	-2.6233801957441	-2.09712227085797	-1.16997164405591	-2.6233801957441	-1.4534085516882	-1.11496667368297	-2.6233801957441	-1.16997164405591	-2.6233801957441	1.11496667368297	-2.1429617361334192	-1.5654124731636887	-2.6310178754261138	-3.7117603728843496	-2.803134397881944	-2.6310178754261138	1.0107782309510356	-3.788557004720742	-1.645595268587315	-3.001230117848861	-1.1952002307409404	1	correct	1.0
375.3883348000236	9.297537999926135	go_reward	0.2551243000198155	375.50948380003683	377.94763029995374	380.48748430004343	2.438146499916911	376.51525849988684	379.47344390000217	383.55173789989203	1.4323718000669032	1.0140404000412673	1.2552839000709355	382.5396447000094	0.4027609000913799	381.5110975999851	1	1	44	1	go_reward	1	1	0	1	1	1	0	0.0	1.0	1	0.2551243000198155	0.4027609000913799	393.1484309001826	768.6579147002194	769.6636894000694	771.0960612001363	772.6218748001847	773.635915200226	774.6595285001677	775.688075600192	776.7001688000746	777.9554527001455	2020-02-08 12:02:44.772634	9.07618347367211	6.0594444114688	0.0	6.0594444114688	9.07618347367211	0.0	-9.07618347367211	6.0594444114688	0.0	9.07618347367211	0.0	3.1823899568940197	5.479813185850491	5.608998611988081	-0.007637679682013617	4.444806309442421	7.443020719846076	-0.007637679682013617	3.0782015141620853	6.457598113007277	0.9777849271567851	4.173180967302909	1.4281799650031597	1	correct	1.0
384.72237219987437	8.638061500154436	nogo_reward	1.0	384.8435211998876	387.05846580001526	389.57052629999816	2.2149446001276374	385.83446799986996	388.56271700002253	392.6198789998889	1.2239978001452982	1.0078092999756336	0.8617037001531571	391.61220969981514	0.672190000070259	390.58774119988084	1	1	45	2	nogo_reward	0	1	0	0	0	1	0	0.0	1.0	0	1.0	0.672190000070259	393.1484309001826	777.9919521000702	778.9828989000525	780.2068967001978	781.7111479002051	782.7189572001807	783.7361721000634	784.7606405999977	785.7683099000715	786.6300136002246	2020-02-08 12:02:44.772634	-0.216930558846134	0.571294981148862	1.45298888798568	1.0855130831326	1.66991944683181	1.45298888798568	0.216930558846134	1.45298888798568	0.571294981148862	1.45298888798568	1.66991944683181	-1.45298888798568	-3.813300846667753	0.12084918166814324	1.4453512083036664	-0.5291250188937795	0.03675669300577611	1.4453512083036664	-1.5571773307176144	-1.1655964726791521	2.647704373988595	-0.43327455618021116	1.9994749461520218	1	correct	1.0
393.39727639988996	8.318265700014308	nogo_punish	1.0	393.5184253999032	394.8627815998625	397.37750789988786	1.344356199959293	394.5282232000027	396.3678680998273	400.43254599999636	0.33455839985981584	1.0096398000605404	1.404145099921152	399.43068369990215	0.734433599980548	398.39840119984	1	1	46	4	nogo_punish	1	-1	0	0	0	1	0	0.0	1.0	0	1.0	0.734433599980548	393.1484309001826	786.6668563000858	787.6766541001853	788.0112125000451	789.5162990000099	790.5259388000704	791.5468321000226	792.5791146000847	793.5809769001789	794.9851220001001	2020-02-08 12:02:44.772634	0.746433124693746	-2.38403391628112	-1.88701036724687	-2.64377149870608	-2.63344349194061	-1.88701036724687	-0.746433124693746	-1.88701036724687	-2.38403391628112	-1.88701036724687	-2.63344349194061	1.88701036724687	-2.849937163127873	-2.8344797157618387	-1.8946480469288838	-4.25840960073246	-4.266606245766644	-1.8946480469288838	1.7828219245149357	-4.505595727911702	-1.6556585647838247	-3.7732738114127615	-0.9558539512779602	1	correct	1.0
401.750705299899	9.175522800069302	go_reward	0.2949856000486761	401.87185429991223	404.30189360002987	406.865237099817	2.4300393001176417	402.88163259997964	405.8407823999878	409.89868189999834	1.4202610000502318	1.0244546998292208	1.1486951999831945	408.8904917000327	0.4229245998430997	407.8659200000111	1	1	47	1	go_reward	1	1	0	1	1	1	0	0.0	1.0	1	0.2949856000486761	0.4229245998430997	393.1484309001826	795.0202852000948	796.0300635001622	797.4503245002124	798.9892133001704	800.0136679999996	801.0143509001937	802.0389226002153	803.0471128001809	804.1958080001641	2020-02-08 12:02:44.772634	9.89572564075733	6.65295419536224	0.0	6.65295419536224	9.89572564075733	0.0	-9.89572564075733	6.65295419536224	0.0	9.89572564075733	0.0	2.5888801730005797	6.299355352935711	6.202508395881521	-0.007637679682013617	5.038316093335861	8.262562886931297	-0.007637679682013617	2.4846917302686453	7.277140280092498	0.9777849271567851	4.766690751196349	1.4281799650031597	1	correct	1.0
410.9634277999867	9.710488599957898	go_reward	0.5998082999140024	411.0845767999999	413.8650267999619	416.40348169999197	2.780449999962002	412.10317779984325	415.3866047000047	419.44793349993415	1.7618490001186728	1.0168769999872893	1.347131900023669	418.4454131999519	0.4392198999412358	417.4175863999408	1	1	48	1	go_reward	1	1	0	1	1	1	0	0.0	1.0	1	0.5998082999140024	0.4392198999412358	393.1484309001826	804.2330077001825	805.2516087000258	807.0134577001445	808.5350356001873	809.5519126001745	810.5660173001233	811.5938441001344	812.5963644001167	813.9434963001404	2020-02-08 12:02:44.772634	10.5463744642863	7.12510678084124	0.0	7.12510678084124	10.5463744642863	0.0	-10.5463744642863	7.12510678084124	0.0	10.5463744642863	0.0	2.11672758752158	6.950004176464681	6.674660981360521	-0.007637679682013617	5.510468678814861	8.913211710460267	-0.007637679682013617	2.0125391447896455	7.927789103621468	0.9777849271567851	5.238843336675349	1.4281799650031597	1	correct	1.0
420.7092973999679	8.351721599930897	go_reward	0.481152200140059	420.83044639998116	422.12865279987454	424.6891995999031	1.2982063998933882	421.8465652000159	423.6835721998941	427.73551169992425	0.2820875998586416	1.0056274000089616	1.4466562999878079	426.722537699854	0.3957781000062823	425.70896379998885	1	1	49	1	go_reward	1	1	0	1	1	1	1	1.0	1.0	1	0.481152200140059	0.3957781000062823	393.1484309001826	813.9788773001637	814.9949961001985	815.2770837000571	816.8320031000767	817.8376305000857	818.8573947001714	819.8709686000366	820.8839426001068	822.3305989000946	2020-02-08 12:02:44.772634	11.0660181724788	7.50293022605016	0.0	7.50293022605016	11.0660181724788	0.0	-11.0660181724788	7.50293022605016	0.0	11.0660181724788	0.0	1.73890414231266	7.469647884657181	7.052484426569441	-0.007637679682013617	5.88829212402378	9.432855418652768	-0.007637679682013617	1.6347156995807257	8.447432811813968	0.9777849271567851	5.616666781884269	1.4281799650031597	1	correct	1.0
429.0986359999515	8.604378799907863	nogo_reward	1.0	429.21978499996476	431.0570697998628	433.5832445998676	1.8372847998980433	430.2129027999472	432.5610970999114	436.62119269999675	0.8441669999156147	1.0221474999561906	1.2029710998758674	435.6144999000244	0.4257753998972475	434.5939757998567	1	1	50	2	nogo_reward	1	0	1	0	0	1	0	0.0	1.0	1	1.0	0.4257753998972475	393.1484309001826	822.3682159001473	823.3613337001298	824.2055007000454	825.709528000094	826.7316755000502	827.7424067000393	828.762930800207	829.7696236001793	830.9725947000552	2020-02-08 12:02:44.772634	-0.447493754724084	0.571294981148862	1.13978618418179	0.87184363323648	1.58727993890587	1.13978618418179	0.447493754724084	1.13978618418179	0.571294981148862	1.13978618418179	1.58727993890587	8.10204818418103	-4.043864042545703	0.12084918166814324	1.1321485044997763	-0.7427944687898996	-0.04588281492016377	1.1321485044997763	7.997859741449095	-1.4787991764830422	2.565064866062655	-0.7464772599841012	1.9994749461520218	1	correct	1.0
437.74286130000837	8.27667019981891	go_punish	0.5268955999054015	437.8640103000216	439.72588709997945	442.32657839986496	1.8618767999578267	438.8749601000454	441.2966897999868	445.3880945998244	0.8509269999340177	1.029888599878177	0.752585900016129	444.36912049981765	0.3140120001044124	443.3497383999638	1	1	51	3	go_punish	1	0	-1	1	1	1	0	0.0	1.0	0	0.5268955999054015	0.3140120001044124	393.1484309001826	831.0124412002042	832.023391000228	832.874318000162	834.4451207001694	835.4750093000475	836.4981693001464	837.5175514000002	838.536525500007	839.2891114000231	2020-02-08 12:02:44.772634	1.81773231347779	-0.899306054434342	-2.6233801957441	-1.69043433849343	-0.805647882266316	-2.6233801957441	-1.81773231347779	-0.899306054434342	-2.6233801957441	-0.805647882266316	-2.6233801957441	0.899306054434342	-1.7786379743438292	-1.3497518539150608	-2.6310178754261138	-3.3050724405198095	-2.4388106360923496	-2.6310178754261138	0.7951176117024076	-3.424233242931148	-1.645595268587315	-2.7855694986002333	-1.1952002307409404	1	correct	1.0
446.05777599988505	8.317356300074607	nogo_punish	1.0	446.1789249998983	447.52412969991565	450.05085380002856	1.345204700017348	447.19411699986085	449.0374451999087	453.1084018999245	0.33001270005479455	1.0134086001198739	1.387879400048405	452.0923225998413	0.4965213001705706	451.0700963998679	1	1	52	4	nogo_punish	0	0	-1	0	0	1	0	0.0	1.0	-1	1.0	0.4965213001705706	393.1484309001826	839.3273559000809	840.3425479000434	840.6725606000982	842.1858761000913	843.1992847002111	844.2185273000505	845.2407535000239	846.2568328001071	847.6447122001555	2020-02-08 12:02:44.772634	0.928758761411201	-2.38403391628112	-1.51711777387037	-2.13075581860415	-2.44587653528157	-1.51711777387037	-0.928758761411201	-1.51711777387037	-2.38403391628112	-1.51711777387037	-2.44587653528157	-6.0719784398991	-2.6676115264104183	-2.8344797157618387	-1.5247554535523837	-3.7453939206305296	-4.0790392891076035	-1.5247554535523837	-6.176166882631034	-4.135703134535202	-1.4680916081247848	-3.4033812180362615	-0.9558539512779602	1	correct	1.0
454.4185595999006	8.818352000089362	nogo_reward	1.0	454.53970859991387	456.4462898999918	458.9738598000258	1.90658130007796	455.5381479000207	457.9654130998533	462.03211789997295	0.9081419999711215	1.0084467001724988	1.3259427000302821	461.02277549984865	0.5961235000286251	459.99372989987023	1	1	53	2	nogo_reward	0	1	0	0	0	1	0	0.0	1.0	0	1.0	0.5961235000286251	393.1484309001826	847.6881395000964	848.6865788002033	849.5947208001744	851.1138440000359	852.1222907002084	853.1421608000528	854.1712064000312	855.1805488001555	856.5064915001858	2020-02-08 12:02:44.772634	0.514474925234029	0.571294981148862	2.76554452747931	2.56936269867331	2.25106960224528	2.76554452747931	-0.514474925234029	2.76554452747931	0.571294981148862	2.76554452747931	2.25106960224528	-2.76554452747931	-3.0818953625875904	0.12084918166814324	2.757906847797296	0.9547245966469302	0.6179068484192463	2.757906847797296	-2.869732970211244	0.14695916681447763	3.2288545294020654	0.8792810833134186	1.9994749461520218	1	correct	1.0
463.2731965999119	8.51877689990215	nogo_reward	1.0	463.39434559992515	464.95259159989655	467.46867379988544	1.5582459999714047	464.39925049990416	466.4552159998566	470.5306726999115	0.5533410999923944	1.0134578000288457	1.3824497999157757	469.5125670998823	0.8008787999860942	468.4889676999301	1	1	54	2	nogo_reward	1	0	1	0	0	1	0	0.0	1.0	1	1.0	0.8008787999860942	393.1484309001826	856.5427765001077	857.5476814000867	858.1010225000791	859.6036469000392	860.617104700068	861.6373986001126	862.6609980000649	863.6791036000941	865.0615534000099	2020-02-08 12:02:44.772634	0.133096974700778	0.571294981148862	2.16799967052827	2.02390261592668	2.03490269582749	2.16799967052827	-0.133096974700778	2.16799967052827	0.571294981148862	2.16799967052827	2.03490269582749	7.073834697834551	-3.4632733131208413	0.12084918166814324	2.160361990846256	0.4092645139003004	0.40173994200145624	2.160361990846256	6.969646255102616	-0.45058569013656236	3.0126876229842754	0.2817362263623786	1.9994749461520218	1	correct	1.0
471.8288558998611	8.70231240009889	nogo_punish	0.4796724000480026	471.95000489987433	473.81661879993044	476.4007627000101	1.8666139000561088	472.95558819989674	475.3883579999674	479.45538719999604	0.8610306000337005	1.01240470004268	1.1969300999771804	478.4427958999295	0.4834961998276412	477.41238739993423	1	1	55	4	nogo_punish	1	-1	0	0	1	0	0	0.0	1.0	-1	0.4796724000480026	0.4834961998276412	393.1484309001826	865.0984358000569	866.1040191000793	866.965049700113	868.53678890015	869.5491936001927	870.5608183001168	871.591226800112	872.6038181001786	873.8007482001558	2020-02-08 12:02:44.772634	-0.141799897622829	-2.38403391628112	-2.69369294951051	-3.19372804421083	-2.83549284713334	-2.69369294951051	0.141799897622829	-2.38403391628112	-2.69369294951051	-2.83549284713334	-2.69369294951051	-5.20506229748835	-3.7381701854444485	-2.8344797157618387	-2.701330629192524	-4.808366146237209	-4.468655600959374	-2.701330629192524	-5.309250740220285	-5.454078207798172	-1.715908022353725	-4.270297360447011	-1.2655129845073505	1	correct	1.0
480.5654988999013	7.974965099943802	go_reward	0.3569996000733226	480.68664789991453	482.0617914998438	484.63866829988547	1.375143599929288	481.70010089990683	483.62132849986665	487.68366499990225	0.36169059993699193	1.0173398000188172	0.9779479999560863	486.67137259989977	0.3181451999116689	485.6587187999394	1	1	56	1	go_reward	1	1	0	1	1	1	0	0.0	1.0	1	0.3569996000733226	0.3181451999116689	393.1484309001826	873.8350788000971	874.8485318000894	875.2102224000264	876.7697594000492	877.787099200068	878.807149700122	879.8198035000823	880.8320959000848	881.8100439000409	2020-02-08 12:02:44.772634	11.483349155841	7.80693574547473	0.0	7.80693574547473	11.483349155841	0.0	-11.483349155841	7.80693574547473	0.0	11.483349155841	0.0	1.43489862288809	7.88697886801938	7.356489945994011	-0.007637679682013617	6.1922976434483505	9.850186402014966	-0.007637679682013617	1.3307101801561556	8.864763795176167	0.9777849271567851	5.920672301308839	1.4281799650031597	1	correct	1.0
488.5779063999653	8.714384600054473	nogo_punish	0.6706112001556903	488.69905539997853	490.71326819993556	493.28738239989616	2.014212799957022	489.70413569989614	492.2649670999963	496.30484230001457	1.0091325000394136	1.0224152998998761	1.1085977000184357	495.29891489981674	1.0	494.2902341999579	1	1	57	4	nogo_punish	1	-1	0	0	1	0	1	n/a	0.0	0	0.6706112001556903	1.0	393.1484309001826	881.8474863001611	882.8525666000787	883.8616991001181	885.4133980001789	886.4358133000787	887.4386651001405	888.4473457999993	889.4532732001971	890.5618709002156	2020-02-08 12:02:44.772634	-1.41602399387592	-3.3546185952712	-2.69369294951051	-4.0287170951602	-4.10971694338644	-2.69369294951051	1.41602399387592	-3.3546185952712	-2.69369294951051	-4.10971694338644	-2.69369294951051	-4.2344776184982695	-5.0123942816975395	-3.805064394751919	-2.701330629192524	-5.64335519718658	-5.742879697212474	-2.701330629192524	-4.338666061230204	-6.728302304051272	-1.715908022353725	-5.240882039437091	-1.2655129845073505	1	missed	0.0
497.3737441999838	9.845974799944088	go_punish	0.2188844999764114	497.494893199997	500.33285819995217	502.88430029992014	2.8379649999551475	498.5001236998942	501.86065839999355	505.9349900998641	1.8327345000579953	1.023641899926588	1.40587790007703	504.9279136999976	0.4076314999256283	503.90211689984426	1	1	58	3	go_punish	1	0	-1	1	1	1	0	0.0	1.0	0	0.2188844999764114	0.4076314999256283	393.1484309001826	890.6433241001796	891.6485546000767	893.4812891001347	895.0090893001761	896.0327312001027	897.0505478000268	898.0763446001802	899.0834210000467	900.4892989001237	2020-02-08 12:02:44.772634	2.10441176053449	-0.729045900207052	-2.6233801957441	-1.36970525378754	-0.518968435209613	-2.6233801957441	-2.10441176053449	-0.729045900207052	-2.6233801957441	-0.518968435209613	-2.6233801957441	0.729045900207052	-1.4919585272871294	-1.1794916996877707	-2.6310178754261138	-2.9843433558139196	-2.152131189035647	-2.6310178754261138	0.6248574574751176	-3.137553795874445	-1.645595268587315	-2.6153093443729434	-1.1952002307409404	1	correct	1.0
507.25380289996974	9.090129799908027	go_reward	0.2270251000300049	507.374951899983	509.6675632998814	512.2120725000278	2.2926113998984192	508.3826967999338	511.1983935998286	515.2569941999391	1.2848664999476114	1.0136789001992383	1.2080874999519438	514.2559203000275	0.3300067998934537	513.2267046000343	1	1	59	1	go_reward	1	1	0	1	1	1	0	0.0	1.0	1	0.2270251000300049	0.3300067998934537	393.1484309001826	900.5233828001656	901.5311277001164	902.815994200064	904.3468245000112	905.3605034002104	906.3751355002169	907.40435120021	908.4054251001216	909.6135126000736	2020-02-08 12:02:44.772634	11.8202662969247	8.05281021384547	0.0	8.05281021384547	11.8202662969247	0.0	-11.8202662969247	8.05281021384547	0.0	11.8202662969247	0.0	1.1890241545173499	8.22389600910308	7.602364414364751	-0.007637679682013617	6.438172111819091	10.187103543098667	-0.007637679682013617	1.0848357117854155	9.201680936259867	0.9777849271567851	6.166546769679579	1.4281799650031597	1	correct	1.0
516.3964868998154	9.251650300109986	go_punish	0.2582008999306708	516.5176358998286	518.9545755998698	521.4886592999101	2.4369397000411936	517.5316234999336	520.478902099887	524.5335472999141	1.4229520999361966	1.0097572000230457	1.2357389000245576	523.5275027998722	0.3346653000917285	522.508194899885	1	1	60	3	go_punish	1	0	-1	1	1	1	1	1.0	1.0	0	0.2582008999306708	0.3346653000917285	393.1484309001826	909.6660668000112	910.6800544001162	912.1030065000524	913.6273330000696	914.6370902000926	915.6566258000676	916.6759337000548	917.6819782000966	918.9177171001212	2020-02-08 12:02:44.772634	2.33135593986027	-0.593840177766976	-2.6233801957441	-1.11523743838449	-0.29202425588383	-2.6233801957441	-2.33135593986027	-0.593840177766976	-2.6233801957441	-0.29202425588383	-2.6233801957441	0.593840177766976	-1.2650143479613494	-1.0442859772476947	-2.6310178754261138	-2.7298755404108697	-1.9251870097098638	-2.6310178754261138	0.48965173503504156	-2.9106096165486623	-1.645595268587315	-2.480103621932867	-1.1952002307409404	1	correct	1.0
