onset	duration	trial_type	response_time	cueOnset	targetOnset	fbOnset	cueRT	firstfixOnset	secondfixOnset	waitOnset	firstfixdur	secondfixdur	waitdur	nback_fbOnset	nback_response_time	nback_targetOnset	block	wm	trial	cue	cond	is_common	outcome_go	outcome_nogo	key_correct	key_pressed	is_correct	key_correct_nback	key_pressed_nback	is_correct_nback	outcome	rt	rt_nback	time_scan	time_onset	time_isi1	time_circle	time_isi2	time_feedback	time_same	time_correct	time_iti	time_done	timestamp_scan	DV	Qgo	Qnogo	SV	Wgo	Wnogo	mDV	Qchosen	Qunchosen	Wchosen	Wunchosen	PE	DVC	QgoC	QnogoC	SVC	WgoC	WnogoC	PEC	WchosenC	WunchosenC	QchosenC	QunchosenC	run	outcome_nback	nback_targetResp
0.0	9.214371600013692	go_punish	1.0	0.02942169999005273	2.7449831000412814	5.248783299990464	2.7155614000512287	1.0330955000245012	4.23820970003726	8.30774509999901	1.7118876000167802	1.0105735999532044	0.9360482000047341	7.297466200019699	0.4432954000076279	6.263950199994724	2	1	61	2	go_punish	1	0	-1	1	0	0	1	0.0	0.0	-1	1.0	0.4432954000076279	2069.2925789	2069.32200059999	2070.3256744000246	2072.0375620000414	2073.5307886000373	2074.5413621999905	2075.556529099995	2076.59004510002	2077.600323999999	2078.536372200004	2020-02-21 19:20:51.809342	-11.20390908468	-0.902068567690166	-12.6675649116378	-3.38362634962736	-1.4636558269577	-12.6675649116378	11.20390908468	-12.6675649116378	-0.902068567690166	-12.6675649116378	-1.4636558269577	-9.874097182051301	-20.64437775211043	-1.8327171698020803	-13.151110448871721	-8.26285669902217	-5.265398948261536	-13.151110448871721	-10.15504482252789	-19.5304435746219	1.113934177488635	-18.18180027286067	3.1979726541868665	4	wrong	1.0
9.243243300006725	8.25636110000778	nogo_punish	0.673123900021892	9.272664999996778	11.050214499991853	13.588104500027839	1.7775494999950752	10.270251300011296	12.587478100031149	16.629786500008777	0.779963199980557	1.0006263999966905	0.8992395999957807	15.616290800040588	0.5519152000197209	14.597453300026245	2	1	62	1	nogo_punish	0	0	-1	0	1	0	1	0.0	0.0	0	0.673123900021892	0.5519152000197209	2069.2925789	2078.565243899997	2079.5628302000114	2080.342793399992	2081.8800570000312	2082.880683400028	2083.8900322000263	2084.9088697000407	2085.922365400009	2086.8216050000046	2020-02-21 19:20:51.809342	-4.26849112690182	-7.84860640047165	-6.0513193306205	-6.54871943230467	-10.3198104575223	-6.0513193306205	4.26849112690182	-7.84860640047165	-6.0513193306205	-10.3198104575223	-6.0513193306205	7.84860640047165	-13.708959794332252	-8.779255002583565	-6.534864867854421	-11.427949781699478	-14.121553578826136	-6.534864867854421	7.567658759995061	-17.182689120506396	-3.473729326174165	-13.362841761694522	-1.9512781087434679	4	wrong	1.0
17.52427750005154	8.480673599988222	go_reward	0.6366186999948695	17.553699200041592	19.218722800025716	21.762640100030694	1.6650235999841243	18.565008100005798	20.73938869999256	24.80636729998514	0.6537147000199184	1.0232514000381343	1.2280055000446737	23.804847999999765	0.3406543999444693	22.766757200006396	2	1	63	4	go_reward	1	1	0	1	1	1	0	0.0	1.0	1	0.6366186999948695	0.3406543999444693	2069.2925789	2086.8462781000417	2087.857587000006	2088.511301700026	2090.0319675999926	2091.055219000031	2092.0593361000065	2093.0974269	2094.098946199985	2095.32695170003	2020-02-21 19:20:51.809342	30.2456844411512	17.8585699843656	0.0	16.3868155034061	30.2456844411512	0.0	-30.2456844411512	17.8585699843656	0.0	30.2456844411512	0.0	8.153629158315798	20.805215773720768	16.927921382253686	-0.483545537233921	11.507585154011291	26.443941319847365	-0.483545537233921	7.87268151783921	23.382805778167103	2.577590004446335	12.34433462314273	4.100041221877032	4	correct	1.0
26.0544430000009	8.42468220001274	go_punish	0.6219318999792449	26.083864699990954	27.526477400038857	30.067431600007694	1.4426127000479028	27.08874370000558	29.056808400026057	33.11091819999274	0.4377337000332773	1.0106231999816373	1.397628700010955	32.098797900020145	0.163194399967324	31.08544150000671	2	1	64	2	go_punish	1	0	-1	1	1	1	0	0.0	1.0	0	0.6219318999792449	0.163194399967324	2069.2925789	2095.376443599991	2096.3813226000057	2096.819056300039	2098.349387300026	2099.360010500008	2100.378020400007	2101.39137680002	2102.403497099993	2103.801125800004	2020-02-21 19:20:51.809342	10.6053331474839	-0.902068567690166	-14.3667172684937	-7.21058092685377	-3.76138412100985	-14.3667172684937	-10.6053331474839	-0.902068567690166	-14.3667172684937	-3.76138412100985	-14.3667172684937	0.902068567690166	1.1648644800534687	-1.8327171698020803	-14.85026280572762	-12.089811276248579	-7.563127242313686	-14.85026280572762	0.6211209272135774	-10.624262783993947	-11.789127264047364	-6.416303928913037	-10.266676046616666	4	correct	1.0
34.506335100042634	8.15036719996715	nogo_punish	1.0	34.535756800032686	36.20550410001306	38.73077500000409	1.6697472999803722	35.54324770002859	37.72061030002078	41.766386200033594	0.6622563999844715	1.0101646999833065	0.9197377999662422	40.75375420000637	0.3341072999755852	39.73933810001472	2	1	65	1	nogo_punish	1	-1	0	0	0	1	0	0.0	1.0	0	1.0	0.3341072999755852	2069.2925789	2103.8283357000328	2104.8358266000287	2105.498083000013	2107.013189200021	2108.023353900004	2109.031917000015	2110.0463331000064	2111.0589651000337	2111.9787029	2020-02-21 19:20:51.809342	1.75921664676921	-6.12000229517266	-6.0513193306205	-5.25312307317698	-7.81053597738971	-6.0513193306205	-1.75921664676921	-6.0513193306205	-6.12000229517266	-6.0513193306205	-7.81053597738971	6.0513193306205	-7.681252020661222	-7.050650897284575	-6.534864867854421	-10.13235342257179	-11.612279098693547	-6.534864867854421	5.770371690143912	-12.914197993604597	-5.232945972943375	-11.56555469184337	-2.0199610732956277	4	correct	1.0
42.701329400006216	9.568449800019152	nogo_reward	0.6000452999724075	42.73075109999627	45.45296439999993	48.00500780000584	2.7222133000036592	43.72782680002274	46.98374769999646	51.055877900042105	1.725137599977188	1.0212601000093855	1.2433229999733157	50.043356699985	0.2821628000237979	49.01215930003673	2	1	66	3	nogo_reward	1	0	1	0	1	0	0	0.0	1.0	0	0.6000452999724075	0.2821628000237979	2069.2925789	2112.0233299999963	2113.020405700023	2114.7455433	2116.2763265999965	2117.297586700006	2118.304738200037	2119.335935599985	2120.348456800042	2121.5917798000155	2020-02-21 19:20:51.809342	-5.07808979128761	0.0	18.3186659957233	17.7772298205471	13.2405762044356	18.3186659957233	5.07808979128761	0.0	18.3186659957233	13.2405762044356	18.3186659957233	0.0	-14.518558458718042	-0.9306486021119144	17.835120458489378	12.89799947115229	9.438833083131764	17.835120458489378	-0.2809476404765886	6.377697541451503	20.896256000169636	-5.514235361222871	22.418707217600332	4	correct	1.0
52.31353850005007	8.52645199996141	nogo_reward	1.0	52.342960200040125	53.80888309999136	56.34392760001356	1.465922899951238	53.34973690001061	55.32091569999466	59.391902500006836	0.4591461999807507	1.0230119000189006	1.4775096999946982	58.38869520003209	0.2910821000114083	57.35928770003375	2	1	67	3	nogo_reward	1	0	1	0	0	1	0	0.0	1.0	1	1.0	0.2910821000114083	2069.2925789	2121.63553910004	2122.6423158000107	2123.1014619999914	2124.6134945999947	2125.6365065000136	2126.651866600034	2127.681274100032	2128.684481400007	2130.1619911000016	2020-02-21 19:20:51.809342	7.51669172343178	0.0	18.3186659957233	13.9914413770314	10.8019742722915	18.3186659957233	-7.51669172343178	18.3186659957233	0.0	18.3186659957233	10.8019742722915	7.693533146958099	-1.9237769439986518	-0.9306486021119144	17.835120458489378	9.11221102763659	7.0002311509876645	17.835120458489378	7.412585506481511	11.455787332739202	13.379564276737836	12.804430634500429	4.100041221877032	4	correct	1.0
60.88321150001093	9.140908600006696	nogo_reward	1.0	60.91263320000098	63.08197160001146	65.61002030002419	2.1693384000104743	61.91979439998977	64.59394600003725	68.66358250001213	1.162177200021688	1.0160742999869399	1.389959299995553	67.64431060000788	0.3506152000045404	66.61479580000741	2	1	68	3	nogo_reward	1	0	1	0	0	1	1	1.0	1.0	1	1.0	0.3506152000045404	2069.2925789	2130.205212100001	2131.21237329999	2132.3745505000115	2133.8865249000373	2134.9025992000243	2135.9073747000075	2136.936889500008	2137.956161400012	2139.3461207000078	2020-02-21 19:20:51.809342	7.29254139286984	0.0	19.5921950199334	16.2858110446107	12.2996536270635	19.5921950199334	-7.29254139286984	19.5921950199334	0.0	19.5921950199334	12.2996536270635	6.420004122748001	-2.147927274560592	-0.9306486021119144	19.108649482699477	11.40658069521589	8.497910505759664	19.108649482699477	6.139056482271412	12.729316356949301	14.877243631509836	14.077959658710528	4.100041221877032	4	correct	1.0
70.05169520003255	7.965309699997306	nogo_punish	1.0	70.08111690002261	71.57953260000795	74.09830950002652	1.498415699985344	71.08901809999998	73.08628849999513	77.16275940003106	0.4905145000079756	1.0120210000313818	0.8836671999888495	76.15030510001816	0.252243599970825	75.1202110000304	2	1	69	1	nogo_punish	1	-1	0	0	0	1	0	0.0	1.0	0	1.0	0.252243599970825	2069.2925789	2139.3736958000227	2140.381597	2140.872111500008	2142.378867399995	2143.3908884000266	2144.4127899000305	2145.4428840000182	2146.455338300031	2147.33900550002	2020-02-21 19:20:51.809342	2.36805520867304	-6.12000229517266	-4.83292518947439	-4.24797878492281	-7.20098039814744	-4.83292518947439	-2.36805520867304	-4.83292518947439	-6.12000229517266	-4.83292518947439	-7.20098039814744	4.83292518947439	-7.072413458757392	-7.050650897284575	-5.316470726708311	-9.127209134317619	-11.002723519451276	-5.316470726708311	4.551977548997802	-11.695803852458488	-4.623390393701104	-10.34716055069726	-2.0199610732956277	4	correct	1.0
78.04237330000615	8.695068900007755	nogo_punish	1.0	78.0717949999962	80.42310449999059	82.94817500002682	2.351309499994386	79.07369980000658	81.92835360002891	85.991916900035	1.3494046999840066	1.0198213999979089	0.7749469999689609	84.9833683000179	0.5069175999960862	83.95653389999643	2	1	70	1	nogo_punish	1	-1	0	0	0	1	0	0.0	1.0	0	1.0	0.5069175999960862	2069.2925789	2147.3643738999963	2148.3662787000067	2149.7156833999907	2151.220932500029	2152.240753900027	2153.2491127999965	2154.275947200018	2155.284495800035	2156.059442800004	2020-02-21 19:20:51.809342	2.82909286123345	-6.12000229517266	-3.89153739031639	-3.46047210949579	-6.72063025154984	-3.89153739031639	-2.82909286123345	-3.89153739031639	-6.12000229517266	-3.89153739031639	-6.72063025154984	3.89153739031639	-6.611375806196982	-7.050650897284575	-4.375082927550311	-8.3397024588906	-10.522373372853677	-4.375082927550311	3.6105897498398014	-10.754416053300487	-4.143040247103505	-9.405772751539262	-2.0199610732956277	4	correct	1.0
86.78144000004977	7.856303899956401	nogo_reward	1.0	86.81086170003982	88.13671300001442	90.6669693000149	1.3258512999746017	87.80809100001352	89.64378570002737	93.71300690004091	0.32862200000090525	1.023183599987533	0.9541586999553147	92.7107137000421	0.4660035999841057	91.68032250000397	2	1	71	3	nogo_reward	1	0	1	0	0	1	0	0.0	1.0	1	1.0	0.4660035999841057	2069.2925789	2156.10344060004	2157.1006699000136	2157.4292919000145	2158.9363646000274	2159.959548200015	2160.972901400004	2162.003292600042	2163.005585800041	2163.9597444999963	2020-02-21 19:20:51.809342	7.15294066407927	0.0	20.6274948125238	18.0736487579707	13.4745541484445	20.6274948125238	-7.15294066407927	20.6274948125238	0.0	20.6274948125238	13.4745541484445	5.3847043301576	-2.287528003351162	-0.9306486021119144	20.143949275289877	13.194418408575892	9.672811027140664	20.143949275289877	5.103756689681012	13.764616149539702	16.052144152890836	15.113259451300928	4.100041221877032	4	correct	1.0
94.6649357000133	9.348279600031674	nogo_punish	1.0	94.69435740000335	97.18625540001085	99.71294260001696	2.4918980000074953	95.7025752000045	98.70187410002109	102.77205299999332	1.4836802000063471	1.0110684999958721	1.2705840000417084	101.75870000000577	0.2993972999975085	100.72996730002342	2	1	72	1	nogo_punish	1	-1	0	0	0	1	1	1.0	1.0	0	1.0	0.2993972999975085	2069.2925789	2163.9869363000034	2164.9951541000046	2166.478834300011	2167.994453000021	2169.005521500017	2170.0225462000235	2171.051278900006	2172.0646318999934	2173.335215900035	2020-02-21 19:20:51.809342	3.18200309800583	-6.12000229517266	-3.15693162217543	-2.83798118839597	-6.33893472018126	-3.15693162217543	-3.18200309800583	-3.15693162217543	-6.12000229517266	-3.15693162217543	-6.33893472018126	3.15693162217543	-6.258465569424602	-7.050650897284575	-3.6404771594093512	-7.717211537790779	-10.140677841485095	-3.6404771594093512	2.8759839816988415	-10.019810285159528	-3.7613447157349245	-8.671166983398301	-2.0199610732956277	4	correct	1.0
104.06279390002601	8.974616100022104	nogo_reward	1.0	104.09221560001606	106.01301870000316	108.5390311999945	1.920803099987097	105.100575199991	107.51872860000003	111.57332409999799	0.9124435000121593	1.0203025999944657	1.493507600040175	110.56142000004184	0.4425086000119336	109.54700469999807	2	1	73	3	nogo_reward	0	1	0	0	0	1	1	1.0	1.0	0	1.0	0.4425086000119336	2069.2925789	2173.384794500016	2174.393154099991	2175.3055976000032	2176.8113075	2177.8316100999946	2178.839583599998	2179.853998900042	2180.865902999998	2182.3594106000382	2020-02-21 19:20:51.809342	7.06838143134199	0.0	21.4741889821202	19.4825391456358	14.4058075507782	21.4741889821202	-7.06838143134199	21.4741889821202	0.0	21.4741889821202	14.4058075507782	-21.4741889821202	-2.3720872360884417	-0.9306486021119144	20.990643444886278	14.603308796240992	10.604064429474363	20.990643444886278	-21.75513662259679	14.611310319136102	16.983397555224535	15.959953620897329	4.100041221877032	4	correct	1.0
113.07963430002565	9.415031499986071	nogo_reward	1.0	113.1090560000157	115.72636630001944	118.2541271999944	2.617310300003737	114.10902660002466	117.2306729000411	121.3055175000336	1.6173396999947727	1.0234542999533005	1.2185699999681674	120.29186830000253	0.7158682000008412	119.26861160004046	2	1	74	3	nogo_reward	1	0	1	0	0	1	0	1.0	0.0	1	1.0	0.7158682000008412	2069.2925789	2182.401634900016	2183.4016055000247	2185.0189452000195	2186.523251800041	2187.5467060999945	2188.5611905000405	2189.5844472000026	2190.5980964000337	2191.816666400002	2020-02-21 19:20:51.809342	5.21152326291794	0.0	16.9965975992582	15.4299090813279	11.7850743363402	16.9965975992582	-5.21152326291794	16.9965975992582	0.0	16.9965975992582	11.7850743363402	9.015601543423198	-4.2289454045124915	-0.9306486021119144	16.51305206202428	10.55067873193309	7.983331215036364	16.51305206202428	8.73465390294661	10.133718936274104	14.362664340786536	11.48236223803533	4.100041221877032	4	wrong	1.0
122.54099790001055	8.160554100003083	go_punish	0.7428771000122651	122.5704196000006	123.91557060001651	126.47289880004246	1.3451510000159033	123.56535460002488	125.45183350000298	129.51242570002796	0.350215999991633	1.0210653000394814	1.2185479999757263	128.50297480000881	0.645620700030122	127.48875270003964	2	1	75	2	go_punish	1	0	-1	1	1	1	0	0.0	1.0	0	0.7428771000122651	0.645620700030122	2069.2925789	2191.8629985000007	2192.857933500025	2193.2081495000166	2194.744412400003	2195.7654777000425	2196.7813316000397	2197.795553700009	2198.805004600028	2200.0235526000038	2020-02-21 19:20:51.809342	11.6444709158044	-0.739750901326372	-14.3667172684937	-5.74626727184318	-2.72224635268936	-14.3667172684937	-11.6444709158044	-0.739750901326372	-14.3667172684937	-2.72224635268936	-14.3667172684937	0.739750901326372	2.2040022483739676	-1.6703995034382864	-14.85026280572762	-10.62549762123799	-6.523989473993196	-14.85026280572762	0.4588032608497834	-9.585125015673457	-11.789127264047364	-6.253986262549243	-10.266676046616666	4	correct	1.0
130.74772450001865	9.296842799988099	go_punish	0.2583499000174925	130.7771462000087	133.55706399999326	136.08118570002262	2.7799177999845597	131.78508910001256	135.0678898000042	139.12279580003815	1.7719748999807052	1.01329590001842	0.9511931999586523	138.11941510002407	0.345732300018426	137.08980350004276	2	1	76	2	go_punish	1	0	-1	1	1	1	0	0.0	1.0	0	0.2583499000174925	0.345732300018426	2069.2925789	2200.069725100009	2201.0776680000126	2202.8496428999933	2204.3604687000043	2205.3737646000227	2206.382382400043	2207.411994000024	2208.4153747000382	2209.366567899997	2020-02-21 19:20:51.809342	12.4528158271052	-0.610062941107804	-14.3667172684937	-4.62110784101304	-1.91390144138847	-14.3667172684937	-12.4528158271052	-0.610062941107804	-14.3667172684937	-1.91390144138847	-14.3667172684937	0.610062941107804	3.0123471596747677	-1.5407115432197185	-14.85026280572762	-9.500338190407849	-5.715644562692306	-14.85026280572762	0.3291153006312154	-8.776780104372568	-11.789127264047364	-6.124298302330676	-10.266676046616666	4	correct	1.0
140.07254590001003	9.16219930001489	nogo_punish	1.0	140.10196760000008	142.32862159999786	144.85875920002582	2.2266539999977795	141.11041830002796	143.83438170002773	147.9116675000405	1.2182032999699004	1.0243774999980815	1.3524993999744765	146.90849880001042	0.4073852999717928	145.87908949999837	2	1	77	1	nogo_punish	0	0	-1	0	0	1	0	0.0	1.0	-1	1.0	0.4073852999717928	2069.2925789	2209.3945465	2210.402997200028	2211.621200499998	2213.126960600028	2214.151338100026	2215.1716683999985	2216.2010777000105	2217.2042464000406	2218.556745800015	2020-02-21 19:20:51.809342	3.45479433040945	-6.12000229517266	-2.57853020291929	-2.34194341806242	-6.03332453332874	-2.57853020291929	-3.45479433040945	-2.57853020291929	-6.12000229517266	-2.57853020291929	-6.03332453332874	-19.963131890769812	-5.985674337020981	-7.050650897284575	-3.062075740153211	-7.221173767457229	-9.835067654632576	-3.062075740153211	-20.244079531246403	-9.441408865903387	-3.4557345288824046	-8.092765564142162	-2.0199610732956277	4	correct	1.0
149.27923600003123	8.138890300004277	go_punish	1.0	149.30865770002129	150.8600592000289	153.3798136000405	1.5514015000076142	150.30610360001447	152.3661301000393	156.4225262000109	0.553955600014433	1.013683500001207	1.025021800014656	155.41270450002094	0.8436877999920398	154.38968200003728	2	1	78	2	go_punish	1	0	-1	1	0	0	1	0.0	0.0	-1	1.0	0.8436877999920398	2069.2925789	2218.6012366000214	2219.5986825000145	2220.152638100029	2221.6587090000394	2222.6723925000406	2223.6822609000374	2224.705283400021	2225.715105100011	2226.7401269000256	2020-02-21 19:20:51.809342	-13.0879604893567	-0.505770210904008	-14.3667172684937	-3.74673889581464	-1.27875677913699	-14.3667172684937	13.0879604893567	-14.3667172684937	-0.505770210904008	-14.3667172684937	-1.27875677913699	-8.174944825195402	-22.528429156787134	-1.4364188130159223	-14.85026280572762	-8.625969245209449	-5.0804999004408256	-14.85026280572762	-8.45589246567199	-21.229595931477796	1.298833225309345	-19.88095262971657	3.5942710109730243	4	wrong	1.0
157.44837030000053	8.411311900010332	go_reward	0.3977182999951765	157.4777919999906	159.0485989000299	161.60586250002962	1.5708069000393152	158.48630859999685	160.58512440003688	164.6546961000422	0.5622903000330552	1.020738099992741	1.234407799958717	163.6387384000118	0.289925699995365	162.6235306999879	2	1	79	4	go_reward	0	0	1	1	1	1	0	0.0	1.0	0	0.3977182999951765	0.289925699995365	2069.2925789	2226.7703708999907	2227.778887499997	2228.34117780003	2229.877703300037	2230.8984414000297	2231.916109599988	2232.931317300012	2233.9472750000423	2235.181682800001	2020-02-21 19:20:51.809342	32.9756333972523	19.3930916636733	0.0	18.2109760932208	32.9756333972523	0.0	-32.9756333972523	19.3930916636733	0.0	32.9756333972523	0.0	-19.3930916636733	23.535164729821872	18.462443061561384	-0.483545537233921	13.33174574382599	29.173890275948466	-0.483545537233921	-19.67403930414989	26.112754734268204	2.577590004446335	13.878856302450428	4.100041221877032	4	correct	1.0
165.88735299999826	8.48099609999963	go_reward	0.5135310999467038	165.9167746999883	167.3237802000367	169.87563020002563	1.407005500048399	166.93317560001697	168.8609945999924	172.91389810002875	0.39060460001974207	1.0146356000332162	1.4838726999591927	171.90187020000303	0.2884641999844461	170.88602149998815	2	1	80	4	go_reward	1	1	0	1	1	1	0	0.0	1.0	1	0.5135310999467038	0.2884641999844461	2069.2925789	2235.2093535999884	2236.225754500017	2236.616359100037	2238.1535734999925	2239.1682091000257	2240.178600399988	2241.194449100003	2242.206477000029	2243.690349699988	2020-02-21 19:20:51.809342	26.5810757899687	15.422118599643	0.0	14.466549349661	26.5810757899687	0.0	-26.5810757899687	15.422118599643	0.0	26.5810757899687	0.0	10.5900805430384	17.14060712253827	14.491469997531086	-0.483545537233921	9.587319000266191	22.779332668664864	-0.483545537233921	10.309132902561812	19.718197126984602	2.577590004446335	9.907883238420128	4.100041221877032	4	correct	1.0
174.41154709999682	8.471162000030745	nogo_reward	1.0	174.44096879998688	176.44220940000378	178.97197180002695	2.0012406000168994	175.4431648000027	177.95833590003895	182.0126090000267	0.9990446000010706	1.013635899988003	0.8995217999909073	180.99821019999217	0.3860527999931946	179.98638419999043	2	1	81	3	nogo_reward	1	0	1	0	0	1	0	1.0	0.0	1	1.0	0.3860527999931946	2069.2925789	2243.733547699987	2244.735743700003	2245.734788300004	2247.250914800039	2248.264550700027	2249.2789630999905	2250.2907890999923	2251.305187900027	2252.2047097000177	2020-02-21 19:20:51.809342	5.61270287470519	0.0	18.7434732926476	17.5013827321023	13.1307704179424	18.7434732926476	-5.61270287470519	18.7434732926476	0.0	18.7434732926476	13.1307704179424	7.2687258500338	-3.827765792725242	-0.9306486021119144	18.259927755413678	12.62215238270749	9.329027296638564	18.259927755413678	6.987778209557211	11.880594629663502	15.708360422388736	13.229237931424729	4.100041221877032	4	wrong	1.0
182.9248822000227	8.313115100027062	nogo_reward	1.0	182.95430390001275	184.790130999987	187.31390599999577	1.8358270999742672	183.95911679998972	186.28957339999033	190.3518269000342	0.8310141999972984	1.0243326000054367	0.9155921000055969	189.34814790001838	0.2790473999921232	188.31849800003693	2	1	82	3	nogo_reward	1	0	1	0	0	1	0	0.0	1.0	1	1.0	0.2790473999921232	2069.2925789	2252.246882800013	2253.25169569999	2254.082709899987	2255.5821522999904	2256.606484899996	2257.611076900037	2258.6407268000185	2259.6444058000343	2260.55999790004	2020-02-21 19:20:51.809342	5.91612305415377	0.0	20.0949328849029	19.1031125265304	14.1788098307491	20.0949328849029	-5.91612305415377	20.0949328849029	0.0	20.0949328849029	14.1788098307491	5.9172662577785005	-3.5243456132766617	-0.9306486021119144	19.611387347668977	14.22388217713559	10.377066709445264	19.611387347668977	5.636318617301912	13.232054221918801	16.756399835195435	14.580697523680028	4.100041221877032	4	correct	1.0
191.28032680001388	8.442104200017184	go_punish	0.7726651999983005	191.30974850000393	193.0989314999897	195.6376198999933	1.7891829999857691	192.3181956000044	194.6260406000074	198.696228899993	0.7807358999853022	1.0115792999858968	1.0556238000281155	197.68429030000698	0.2689086000318639	196.65551410004264	2	1	83	2	go_punish	1	0	-1	1	1	1	0	0.0	1.0	0	0.7726651999983005	0.2689086000318639	2069.2925789	2260.602327400004	2261.6107745000045	2262.39151039999	2263.9186195000075	2264.9301987999934	2265.9480930000427	2266.976869200007	2267.988807799993	2269.044431600021	2020-02-21 19:20:51.809342	12.2107952638896	-0.505770210904008	-15.7331835136484	-7.47893665165755	-3.52238824975874	-15.7331835136484	-12.2107952638896	-0.505770210904008	-15.7331835136484	-3.52238824975874	-15.7331835136484	0.505770210904008	2.7703265964591672	-1.4364188130159223	-16.21672905088232	-12.358167001052358	-7.324131371062576	-16.21672905088232	0.22482257042741938	-10.385266912742837	-13.155593509202065	-6.0200055721268795	-11.633142291771367	4	correct	1.0
199.76751590002095	7.894123499980651	nogo_reward	1.0	199.796937600011	201.11813130002702	203.64686869998695	1.3211937000160106	200.79337269999087	202.63105100003304	206.69769400003133	0.324758600036148	1.0158176999539137	0.9933670999603237	205.68995810003253	0.5127518000081182	204.66664790001232	2	1	84	3	nogo_reward	1	0	1	0	0	1	1	1.0	1.0	1	1.0	0.5127518000081182	2069.2925789	2269.089516500011	2270.085951599991	2270.410710200027	2271.923629900033	2272.939447599987	2273.9592268000124	2274.9825370000326	2275.9902729000314	2276.9836399999917	2020-02-21 19:20:51.809342	6.14966952968914	0.0	21.1537194491042	20.3565030665512	15.004049919415	21.1537194491042	-6.14966952968914	21.1537194491042	0.0	21.1537194491042	15.004049919415	4.858479693577198	-3.290799137741292	-0.9306486021119144	20.67017391187028	15.477272717156389	11.202306798111163	20.67017391187028	4.57753205310061	14.290840786120103	17.581639923861335	15.63948408788133	4.100041221877032	4	correct	1.0
207.7048023000243	8.5129643999976	nogo_reward	1.0	207.73422400001436	209.30385820002994	211.83277470001485	1.569634200015571	208.74186830001418	210.8093344999943	214.88820159999887	0.5619899000157602	1.0234402000205591	1.3589868000130991	213.87431990000186	0.3120249999919906	212.84637500002282	2	1	85	3	nogo_reward	1	0	1	0	0	1	0	0.0	1.0	1	1.0	0.3120249999919906	2069.2925789	2277.0268029000144	2278.0344472000143	2278.59643710003	2280.1019133999944	2281.125353600015	2282.138953900023	2283.166898800002	2284.180780499999	2285.539767300012	2020-02-21 19:20:51.809342	6.33220693211019	0.0	21.992404114597	21.3476806936138	15.6601971824868	21.992404114597	-6.33220693211019	21.992404114597	0.0	21.992404114597	15.6601971824868	4.019795028084399	-3.1082617353202417	-0.9306486021119144	21.50885857736308	16.46845034421899	11.858454061182963	21.50885857736308	3.7388473876078105	15.129525451612903	18.237787186933133	16.478168753374128	4.100041221877032	4	correct	1.0
216.24183390004328	8.54095229995437	go_reward	0.3682161999749951	216.27125560003333	218.1412633000291	220.66338829998858	1.8700076999957673	217.28235669998685	219.66389190003974	223.71933540003374	0.8589066000422463	0.9994963999488391	1.0928724999539554	222.70649640000192	0.2827904000296257	221.67684299999382	2	1	86	4	go_reward	1	1	0	1	1	1	0	0.0	1.0	1	0.3682161999749951	0.2827904000296257	2069.2925789	2285.5638345000334	2286.574935599987	2287.433842200029	2288.95647080004	2289.9559671999887	2290.969421899994	2291.999075300002	2293.011914300034	2294.104786799988	2020-02-21 19:20:51.809342	30.1984162919517	17.5455768151313	0.0	16.7685428171303	30.1984162919517	0.0	-30.1984162919517	17.5455768151313	0.0	30.1984162919517	0.0	8.466622327550098	20.757947624521265	16.614928213019386	-0.483545537233921	11.88931246773549	26.396673170647862	-0.483545537233921	8.18567468707351	23.3355376289676	2.577590004446335	12.03134145390843	4.100041221877032	4	correct	1.0
224.82769040000858	8.904023300041445	nogo_reward	1.0	224.85711209999863	226.9001023999881	229.43900690000737	2.0429902999894693	225.85356860002503	228.41556280001532	232.4708374000038	1.046533799963072	1.023444099992048	1.2902980000362732	231.46531910001067	0.5382435999927111	230.44335570000112	2	1	87	3	nogo_reward	1	0	1	0	0	1	1	1.0	1.0	1	1.0	0.5382435999927111	2069.2925789	2294.1496909999987	2295.146147500025	2296.192681299988	2297.7081417000154	2298.7315858000075	2299.735934600001	2300.7578980000108	2301.763416300004	2303.05371430004	2020-02-21 19:20:51.809342	6.47680260882776	0.0	22.6632499427905	22.1388722888417	16.1864473339627	22.6632499427905	-6.47680260882776	22.6632499427905	0.0	22.6632499427905	16.1864473339627	3.3489491998908996	-2.963666058602672	-0.9306486021119144	22.179704405556578	17.25964193944689	12.384704212658864	22.179704405556578	3.068001559414311	15.800371279806402	18.764037338409036	17.149014581567627	4.100041221877032	4	correct	1.0
233.77358750003623	7.917999099998269	go_punish	0.683627099962905	233.80300920002628	235.1557856000145	237.72650829999475	1.3527763999882154	234.80760270002065	236.7027056000079	240.7651614000206	0.34818289999384433	1.0238026999868453	0.9558469000039622	239.76262019999604	0.46604379999917	238.7334687000257	2	1	88	2	go_punish	0	-1	0	1	1	1	0	0.0	1.0	-1	0.683627099962905	0.46604379999917	2069.2925789	2303.0955881000264	2304.1001816000207	2304.4483645000146	2305.995284500008	2307.019087199995	2308.026047600026	2309.055199099996	2310.0577403000207	2311.0135872000246	2020-02-21 19:20:51.809342	13.2110130743242	-0.421390435841273	-15.7331835136484	-5.94675619920228	-2.52217043932418	-15.7331835136484	-13.2110130743242	-0.421390435841273	-15.7331835136484	-2.52217043932418	-15.7331835136484	-22.12027165784783	3.7705444068937677	-1.3520390379531873	-16.21672905088232	-10.82598654859709	-6.323913560628016	-16.21672905088232	-22.40121929832442	-9.385049102308278	-13.155593509202065	-5.935625797064144	-11.633142291771367	4	correct	1.0
241.7188424000051	8.097755499999039	nogo_punish	1.0	241.74826409999514	243.52204850001726	246.03682520001894	1.773784400022123	242.75652340002125	245.02681240002858	249.08694800001103	0.7655250999960117	1.0100127999903634	0.7590715999831446	248.07456540002022	0.3032077000243589	247.0602160000126	2	1	89	1	nogo_punish	1	-1	0	0	0	1	0	0.0	1.0	0	1.0	0.3032077000243589	2069.2925789	2311.040842999995	2312.0491023000213	2312.8146274000173	2314.3193913000287	2315.329404100019	2316.3527949000127	2317.3671443000203	2318.379526900011	2319.1385984999943	2020-02-21 19:20:51.809342	1.91177721184532	-6.12000229517266	-6.53794895297316	-6.36229824150168	-8.44972616481848	-6.53794895297316	-1.91177721184532	-6.53794895297316	-6.12000229517266	-6.53794895297316	-8.44972616481848	6.53794895297316	-7.528691455585112	-7.050650897284575	-7.021494490207081	-11.24152859089649	-12.251469286122317	-7.021494490207081	6.2570013124965715	-13.400827615957258	-5.872136160372145	-12.052184314196031	-2.0199610732956277	4	correct	1.0
249.86135280004237	9.257743800000753	go_punish	0.2503387000178918	249.89077450003242	252.22094490000745	254.75328210002044	2.3301703999750316	250.8871640000143	253.7427849000087	257.79602440004237	1.333780899993144	1.0104972000117414	1.3524938999908045	256.79146700003184	0.2046971999807283	255.76271079998696	2	1	90	2	go_punish	1	0	-1	1	1	1	1	1.0	1.0	0	0.2503387000178918	0.2046971999807283	2069.2925789	2319.1833534000325	2320.1797429000144	2321.5135238000075	2323.035363800009	2324.0458610000205	2325.055289699987	2326.084045900032	2327.0886033000425	2328.4410972000333	2020-02-21 19:20:51.809342	6.90541481999922	-4.77128877131052	-15.7331835136484	-9.19100836352094	-8.82776869364915	-15.7331835136484	-6.90541481999922	-4.77128877131052	-15.7331835136484	-8.82776869364915	-15.7331835136484	4.77128877131052	-2.535053847431212	-5.701937373422434	-16.21672905088232	-14.07023871291575	-12.629511814952986	-16.21672905088232	4.490341130833931	-15.690647356633246	-13.155593509202065	-10.285524132533391	-11.633142291771367	4	correct	1.0
259.16093569999794	7.969272400020145	go_punish	0.6457672999822535	259.190357399988	260.5327111000079	263.0774046999868	1.3423537000198849	260.1994631999987	262.0564142999938	266.15071310003987	0.3332479000091553	1.0209903999930248	1.0089166999682675	265.1319160000421	0.420809100032784	264.093535099993	2	1	91	2	go_punish	1	0	-1	1	1	1	0	0.0	1.0	0	0.6457672999822535	0.420809100032784	2069.2925789	2328.482936299988	2329.492042099999	2329.825290000008	2331.348993199994	2332.369983599987	2333.386113999993	2334.424494900042	2335.44329200004	2336.452208700008	2020-02-21 19:20:51.809342	9.08391156215182	-3.72662227946426	-15.7331835136484	-7.29218317129216	-6.64927195149656	-15.7331835136484	-9.08391156215182	-3.72662227946426	-15.7331835136484	-6.64927195149656	-15.7331835136484	3.72662227946426	-0.3565571052786112	-4.657270881576174	-16.21672905088232	-12.171413520686968	-10.451015072800397	-16.21672905088232	3.4456746389876716	-13.512150614480657	-13.155593509202065	-9.240857640687132	-11.633142291771367	4	correct	1.0
267.17295120004565	8.685212899988983	go_punish	0.2966385000036098	267.2023729000357	269.48387160000857	272.0252841000329	2.2814986999728717	268.2014003000222	271.0054914000211	275.09128990001045	1.282471299986355	1.0197927000117488	0.7962959000142291	274.07802220003214	0.1526192000019364	273.0439081999939	2	1	92	2	go_punish	1	0	-1	1	1	1	1	1.0	1.0	0	0.2966385000036098	0.1526192000019364	2069.2925789	2336.494951800036	2337.4939792000223	2338.7764505000087	2340.298070300021	2341.317863000033	2342.336487099994	2343.370601100032	2344.3838688000105	2345.1801647000248	2020-02-21 19:20:51.809342	10.7441413565023	-2.94034981376083	-15.7331835136484	-5.83917032835338	-4.98904215714609	-15.7331835136484	-10.7441413565023	-2.94034981376083	-15.7331835136484	-4.98904215714609	-15.7331835136484	2.94034981376083	1.3036726890718686	-3.8709984158727444	-16.21672905088232	-10.718400677748189	-8.790785278449926	-16.21672905088232	2.6594021732842417	-11.851920820130188	-13.155593509202065	-8.454585174983702	-11.633142291771367	4	correct	1.0
275.9032830000506	9.531977099948563	nogo_reward	1.0	275.93270470004063	278.7030867999997	281.2329725000309	2.770382099959079	276.93836500000907	280.2186061000102	284.2639929000288	1.7647217999906388	1.0143664000206627	1.2006888999603689	283.2610424000304	0.2888744999654591	282.2465451000021	2	1	93	3	nogo_reward	1	0	1	0	0	1	0	0.0	1.0	1	1.0	0.2888744999654591	2069.2925789	2345.2252836000407	2346.230943900009	2347.9956657	2349.5111850000103	2350.525551400031	2351.539124000002	2352.5536213000305	2353.556571800029	2354.7572606999893	2020-02-21 19:20:51.809342	6.59270422860537	0.0	23.2045402963843	22.7757637513009	16.6118360677789	23.2045402963843	-6.59270422860537	23.2045402963843	0.0	23.2045402963843	16.6118360677789	2.807658846297098	-2.8477644388250622	-0.9306486021119144	22.72099475915038	17.89653340190609	12.810092946475063	22.72099475915038	2.5267112058205097	16.341661633400204	19.189426072225235	17.69030493516143	4.100041221877032	4	correct	1.0
285.48035630001687	8.846367600025133	nogo_reward	1.0	285.5097780000069	287.4807039999869	290.0200513000018	1.9709259999799542	286.5223842000123	288.99649410002166	293.0435669000144	0.9583197999745607	1.0235571999801323	1.3125787000176388	292.03801880002766	0.3165232000174001	291.0249011000269	2	1	94	3	nogo_reward	1	0	1	0	0	1	0	0.0	1.0	1	1.0	0.3165232000174001	2069.2925789	2354.802356900007	2355.8149631000124	2356.773282899987	2358.2890730000217	2359.312630200002	2360.317480000027	2361.3305977000277	2362.3361458000145	2363.648724500032	2020-02-21 19:20:51.809342	6.68658373060995	0.0	23.6447402766172	23.2923731606853	16.9581565460072	23.6447402766172	-6.68658373060995	23.6447402766172	0.0	23.6447402766172	16.9581565460072	2.367458866064201	-2.753884936820482	-0.9306486021119144	23.161194739383276	18.41314281129049	13.156413424703363	23.161194739383276	2.0865112255876124	16.7818616136331	19.535746550453535	18.130504915394326	4.100041221877032	4	correct	1.0
294.3692095000297	9.454647100006696	nogo_reward	1.0	294.39863120001974	296.81516140000895	299.3456416000263	2.416530199989211	295.40775930002565	298.3212918000063	302.3756347000017	1.407402099983301	1.0243498000199907	1.4776436000247486	301.3630533000105	0.4740515999728814	300.3484404000337	2	1	95	3	nogo_reward	1	0	1	0	0	1	1	1.0	1.0	1	1.0	0.4740515999728814	2069.2925789	2363.69121010002	2364.7003382000257	2366.107740300009	2367.6138707000064	2368.6382205000264	2369.641019300034	2370.6556322000106	2371.6682136000018	2373.1458572000265	2020-02-21 19:20:51.809342	6.76333876681512	0.0	24.0052956510886	23.7143485726135	17.2419568842735	24.0052956510886	-6.76333876681512	24.0052956510886	0.0	24.0052956510886	17.2419568842735	2.0069034915928015	-2.677129900615312	-0.9306486021119144	23.521750113854676	18.83511822321869	13.440213762969663	23.521750113854676	1.725955851116213	17.1424169881045	19.819546888719834	18.49106028986573	4.100041221877032	4	correct	1.0
303.86611210001865	9.053134499991302	go_punish	0.7888642000034451	303.8955338000087	305.9488044999889	308.4983687000349	2.053270699980203	304.91002320003463	307.4777353000245	311.5634345000144	1.0387812999542803	1.0206334000104107	1.385233799985599	310.5484737000079	0.3374756000121124	309.5146499000257	2	1	96	2	go_punish	1	0	-1	1	1	1	0	1.0	0.0	0	0.7888642000034451	0.3374756000121124	2069.2925789	2373.188112700009	2374.2026021000347	2375.241383399989	2376.7703142000246	2377.790947600035	2378.8072288000258	2379.841052600008	2380.8560134000145	2382.2412472	2020-02-21 19:20:51.809342	12.0240026091519	-2.34126544255093	-15.7331835136484	-4.71475610914414	-3.70918090449644	-15.7331835136484	-12.0240026091519	-2.34126544255093	-15.7331835136484	-3.70918090449644	-15.7331835136484	2.34126544255093	2.583533941721468	-3.2719140446628443	-16.21672905088232	-9.59398645853895	-7.510924025800276	-16.21672905088232	2.0603178020743416	-10.572059567480537	-13.155593509202065	-7.855500803773801	-11.633142291771367	4	wrong	1.0
312.9600193000515	8.412660499976482	go_punish	0.5608676000265405	312.98944100004155	314.5535426000133	317.1053254000144	1.5641015999717638	313.9991609000135	316.09065090003423	320.1521736000436	0.5543816999997944	1.014674499980174	1.2499278999744092	319.1392978000222	0.2839841999812051	318.1145317000337	2	1	97	2	go_punish	1	0	-1	1	1	1	0	0.0	1.0	0	0.5608676000265405	0.2839841999812051	2069.2925789	2382.2820199000416	2383.2917398000136	2383.8461215000134	2385.3832298000343	2386.3979043000145	2387.407110600034	2388.4318767000223	2389.4447525000437	2390.694680400018	2020-02-21 19:20:51.809342	13.0208398678292	-1.87976293767151	-15.7331835136484	-3.83581498986099	-2.7123436458192	-15.7331835136484	-13.0208398678292	-1.87976293767151	-15.7331835136484	-2.7123436458192	-15.7331835136484	1.87976293767151	3.5803712003987673	-2.8104115397834244	-16.21672905088232	-8.715045339255798	-6.514086767123036	-16.21672905088232	1.5988152971949212	-9.575222308803298	-13.155593509202065	-7.393998298894381	-11.633142291771367	4	correct	1.0
321.417467900028	8.090628299978562	go_punish	0.3541987999924458	321.44688960001804	322.92138790001627	325.467529200017	1.4744982999982312	322.4529930999852	324.4583898000419	328.5131567000062	0.468394800031092	1.0091393999750835	1.0243611999903806	327.50025640003196	0.2408382999710738	326.4856876000413	2	1	98	2	go_punish	1	0	-1	1	1	1	1	1.0	1.0	0	0.3541987999924458	0.2408382999710738	2069.2925789	2390.739468500018	2391.7455719999853	2392.2139668000164	2393.750968700042	2394.760108100017	2395.7782665000414	2396.792835300032	2397.8057356000063	2398.8300967999967	2020-02-21 19:20:51.809342	13.8044804221672	-1.5207043554654	-15.7331835136484	-3.14246796828159	-1.9287030914812	-15.7331835136484	-13.8044804221672	-1.5207043554654	-15.7331835136484	-1.9287030914812	-15.7331835136484	1.5207043554654	4.364011754736769	-2.4513529575773143	-16.21672905088232	-8.0216983176764	-5.730446212785036	-16.21672905088232	1.2397567149888116	-8.791581754465298	-13.155593509202065	-7.034939716688271	-11.633142291771367	4	correct	1.0
329.53713710000693	9.379149200045958	nogo_punish	1.0	329.566558799997	332.328112000017	334.86046880000504	2.761553200019989	330.5623337000143	333.8369008000009	337.90562470001214	1.7657783000026939	1.0235680000041611	1.0400833000308012	336.8932375999866	0.2876521999714896	335.8777820999967	2	1	99	1	nogo_punish	1	-1	0	0	0	1	0	0.0	1.0	0	1.0	0.2876521999714896	2069.2925789	2398.859137699997	2399.8549126000144	2401.620690900017	2403.129479700001	2404.153047700005	2405.170360999997	2406.1858164999867	2407.198203600012	2408.238286900043	2020-02-21 19:20:51.809342	2.48549879333464	-6.12000229517266	-5.18225318715	-5.05195452731484	-7.66775198048464	-5.18225318715	-2.48549879333464	-5.18225318715	-6.12000229517266	-5.18225318715	-7.66775198048464	5.18225318715	-6.9549698740957915	-7.050650897284575	-5.6657987243839205	-9.931184876709649	-11.469495101788477	-5.6657987243839205	4.901305546673411	-12.045131850134098	-5.090161976038305	-10.696488548372871	-2.0199610732956277	4	correct	1.0
338.96185710001737	9.94442600000184	go_punish	1.0	338.9912788000074	341.9550026000361	344.47939930000575	2.9637238000286743	339.99661989999004	343.4609061999945	347.5206940000062	1.9583827000460587	1.0184931000112556	1.415010800003074	346.516491100017	0.8016998000093736	345.49384449998615	2	1	100	2	go_punish	0	-1	0	1	0	0	1	1.0	1.0	0	1.0	0.8016998000093736	2069.2925789	2408.2838577000075	2409.28919879999	2411.247581500036	2412.7534850999946	2413.771978200006	2414.7864233999862	2415.809070000017	2416.8132729000063	2418.2282837000093	2020-02-21 19:20:51.809342	-14.4257390401225	-1.2388237646022	-15.7331835136484	-2.59097098860507	-1.3074444735259	-15.7331835136484	14.4257390401225	-15.7331835136484	-1.2388237646022	-15.7331835136484	-1.3074444735259	15.7331835136484	-23.86620770755293	-2.1694723667141145	-16.21672905088232	-7.470201337999878	-5.109187594829736	-16.21672905088232	15.452235873171812	-22.596062176632497	1.270145530920435	-21.247418874871272	2.861217457274832	4	correct	1.0
348.9309855000465	8.646241199981887	go_reward	0.2894391999579966	348.96040720003657	350.7799918000237	353.3193511000136	1.819584599987138	349.96190980001165	352.29965950001497	356.3635329999961	0.8180820000120548	1.0196915999986231	1.2431154000223614	355.3447464000201	0.3369322000071406	354.3275649000425	2	1	101	4	go_reward	0	0	1	1	1	1	0	0.0	1.0	0	0.2894391999579966	0.3369322000071406	2069.2925789	2418.2529861000367	2419.2544887000117	2420.072570700024	2421.592238400015	2422.6119300000137	2423.6201438000426	2424.63732530002	2425.656111899996	2426.8992273000185	2020-02-21 19:20:51.809342	32.9921802107087	19.1792184834167	0.0	18.5438596744837	32.9921802107087	0.0	-32.9921802107087	19.1792184834167	0.0	32.9921802107087	0.0	-19.1792184834167	23.551711543278273	18.248569881304785	-0.483545537233921	13.664629325088889	29.190437089404867	-0.483545537233921	-19.46016612389329	26.129301547724605	2.577590004446335	13.66498312219383	4.100041221877032	4	correct	1.0
357.6252250000257	8.496685500023887	nogo_reward	1.0	357.65464670001575	359.3512984000263	361.88299529999495	1.6966517000105341	358.6575104999938	360.8632526000147	364.94835990003776	0.6937879000324756	1.0197426999802701	1.2029723000018748	363.92988710000645	0.3223162000067532	362.9011929000262	2	1	102	3	nogo_reward	0	1	0	0	0	1	0	0.0	1.0	0	1.0	0.3223162000067532	2069.2925789	2426.947225600016	2427.950089399994	2428.6438773000264	2430.1558315000148	2431.175574199995	2432.1937718000263	2433.2224660000065	2434.240938800038	2435.4439111000397	2020-02-21 19:20:51.809342	6.82662081560938	0.0	24.3025541560255	24.0612435500771	17.4759333404161	24.3025541560255	-6.82662081560938	24.3025541560255	0.0	24.3025541560255	17.4759333404161	-24.3025541560255	-2.6138478518210517	-0.9306486021119144	23.819008618791578	19.18201320068229	13.674190219112262	23.819008618791578	-24.58350179650209	17.439675493041403	20.053523344862434	18.788318794802628	4.100041221877032	4	correct	1.0
366.1644948000321	8.892997100017965	nogo_reward	1.0	366.19391650002217	368.04151800001273	370.5711590999849	1.8476014999905601	367.19102940004086	369.5579871000373	373.6177463000058	0.8504885999718681	1.0131719999476445	1.4691673000343144	372.599627699994	0.2719168000039644	371.5856260000146	2	1	103	3	nogo_reward	1	0	1	0	0	1	0	0.0	1.0	1	1.0	0.2719168000039644	2069.2925789	2435.4864954000222	2436.483608300041	2437.334096900013	2438.8505660000374	2439.863737999985	2440.8782049000147	2441.892206599994	2442.910325200006	2444.37949250004	2020-02-21 19:20:51.809342	5.07089567908157	0.0	19.375189923291	19.1741960797624	14.3042942442094	19.375189923291	-5.07089567908157	19.375189923291	0.0	19.375189923291	14.3042942442094	6.6370092193904	-4.369572988348862	-0.9306486021119144	18.891644386057077	14.29496573036759	10.502551122905563	18.891644386057077	6.3560615789138115	12.512311260306902	16.881884248655734	13.860954562068128	4.100041221877032	4	correct	1.0
375.0983516999986	8.607056700042449	go_punish	0.4498673000489361	375.12777339998866	376.6756039999891	379.23239590000594	1.5478306000004523	376.12834930000827	378.2117177000041	382.27267490001395	0.5472546999808401	1.0206782000018393	1.4621552000171505	381.2692179000005	0.2930892000440508	380.250689700013	2	1	104	2	go_punish	1	0	-1	1	1	1	0	0.0	1.0	0	0.4498673000489361	0.2930892000440508	2069.2925789	2444.4203522999887	2445.4209282000083	2445.968182899989	2447.504296600004	2448.524974800006	2449.543268600013	2450.5617968000006	2451.565253800014	2453.027409000031	2020-02-21 19:20:51.809342	11.3870552084311	-1.2388237646022	-12.421280047093	-2.14895958844735	-1.03422483866197	-12.421280047093	-11.3870552084311	-1.2388237646022	-12.421280047093	-1.03422483866197	-12.421280047093	1.2388237646022	1.9465865410006682	-2.1694723667141145	-12.90482558432692	-7.028189937842159	-4.835967959965806	-12.90482558432692	0.9578761241256114	-7.897103501646067	-9.843690042646664	-6.753059125825072	-8.321238825215968	4	correct	1.0
383.75092850002693	9.43595259997528	nogo_reward	1.0	383.780350200017	386.222022300004	388.76102149998815	2.441672099987045	384.77709889999824	387.73750410002003	391.81661800004076	1.4449234000057913	1.0235173999681138	1.3996847999515012	390.8023497000104	0.2660520999925211	389.7743595000361	2	1	105	3	nogo_reward	1	0	1	0	0	1	1	1.0	1.0	1	1.0	0.2660520999925211	2069.2925789	2453.072929100017	2454.0696777999983	2455.514601200004	2457.03008300002	2458.053600399988	2459.066938400036	2460.0949286000105	2461.109196900041	2462.5088816999923	2020-02-21 19:20:51.809342	5.54106956661262	0.0	20.7520405984878	20.5839504772902	15.2109710318751	20.7520405984878	-5.54106956661262	20.7520405984878	0.0	20.7520405984878	15.2109710318751	5.260158544193601	-3.8993991008178117	-0.9306486021119144	20.268495061253876	15.704720127895392	11.409227910571264	20.268495061253876	4.9792109037170125	13.8891619355037	17.788561036321436	15.237805237264928	4.100041221877032	4	correct	1.0
393.23270940000657	8.614403400046285	go_punish	0.2609776999452151	393.2621310999966	395.11355360003654	397.6715087000048	1.8514225000399165	394.25629520002985	396.65050019999035	400.710056200041	0.8572584000066854	1.0210085000144318	1.166478300001927	399.70860810001614	0.2431125000002794	398.67951009998797	2	1	106	2	go_punish	1	0	-1	1	1	1	1	1.0	1.0	0	0.2609776999452151	0.2431125000002794	2069.2925789	2462.5547099999967	2463.54887410003	2464.4061325000366	2465.9430790999904	2466.964087600005	2467.972088999988	2469.001187000016	2470.002635100041	2471.169113400043	2020-02-21 19:20:51.809342	11.8315878162202	-1.01570562102477	-12.421280047093	-1.7922123838765	-0.589692230872787	-12.421280047093	-11.8315878162202	-1.01570562102477	-12.421280047093	-0.589692230872787	-12.421280047093	1.01570562102477	2.391119148789768	-1.9463542231366842	-12.90482558432692	-6.671442733271309	-4.391435352176623	-12.90482558432692	0.7347579805481813	-7.452570893856884	-9.843690042646664	-6.529940982247641	-8.321238825215968	4	correct	1.0
401.8921424000291	8.064906699990388	nogo_reward	1.0	401.92156410001917	403.660922200012	406.1770327000413	1.7393580999928417	402.9270172000397	405.16640560003	409.2285397000378	0.7339049999723102	1.0106271000113338	0.7579310999717563	408.215574100032	0.2292350999778136	407.18625259998953	2	1	107	3	nogo_reward	0	1	0	0	0	1	1	1.0	1.0	0	1.0	0.2292350999778136	2069.2925789	2471.2141430000192	2472.21959610004	2472.953501100012	2474.45898450003	2475.4696116000414	2476.4788314999896	2477.508153000032	2478.521118600038	2479.2790497000096	2020-02-21 19:20:51.809342	5.89121369237031	0.0	21.7976503798238	21.6565359092455	15.9064366874535	21.7976503798238	-5.89121369237031	21.7976503798238	0.0	21.7976503798238	15.9064366874535	-21.7976503798238	-3.549254975060122	-0.9306486021119144	21.314104842589877	16.77730555985069	12.104693566149663	21.314104842589877	-22.07859802030039	14.934771716839702	18.484026691899835	16.283415018600927	4.100041221877032	4	correct	1.0
409.98766360001173	9.623387400002684	nogo_punish	1.0	410.0170853000018	412.6035441000131	415.1230519000087	2.5864588000113145	411.0264763000305	414.1190320000169	418.1785183000029	1.5770677999826148	1.0040198999918175	1.4619544000015594	417.16557000001194	0.2758594999904744	416.1296905000345	2	1	108	1	nogo_punish	0	0	-1	0	0	1	0	0.0	1.0	-1	1.0	0.2758594999904744	2069.2925789	2479.309664200002	2480.3190552000306	2481.896123000013	2483.411610900017	2484.415630800009	2485.4222694000346	2486.458148900012	2487.471097200003	2488.9330516000045	2020-02-21 19:20:51.809342	2.91884917783143	-6.12000229517266	-4.14647121272908	-4.0500923116381	-7.06532039056051	-4.14647121272908	-2.91884917783143	-4.14647121272908	-6.12000229517266	-4.14647121272908	-7.06532039056051	-18.395190880960023	-6.5216194895990025	-7.050650897284575	-4.6300167499630005	-8.92932266103291	-10.867063511864346	-4.6300167499630005	-18.676138521436613	-11.009349875713177	-4.487730386114174	-9.660706573951952	-2.0199610732956277	4	correct	1.0
419.63822600001004	8.918943000026047	go_reward	0.2446993999765254	419.6676477000001	421.576869200042	424.1307794000022	1.9092215000418946	420.6802616000059	423.10688410000876	427.1741969999857	0.8966076000360772	1.0238952999934554	1.4123937000404112	426.17028170003323	0.281143800006248	425.1513288000133	2	1	109	4	go_reward	1	1	0	1	1	1	0	0.0	1.0	1	0.2446993999765254	0.281143800006248	2069.2925789	2488.9602266	2489.972840500006	2490.869448100042	2492.399463000009	2493.4233583000023	2494.4439077000134	2495.4628606000333	2496.466775899986	2497.879169600026	2020-02-21 19:20:51.809342	26.6348518220657	15.2770336278044	0.0	14.7548215115391	26.6348518220657	0.0	-26.6348518220657	15.2770336278044	0.0	26.6348518220657	0.0	10.735165514877	17.19438315463527	14.346385025692486	-0.483545537233921	9.875591162144293	22.833108700761862	-0.483545537233921	10.454217874400412	19.7719731590816	2.577590004446335	9.762798266581528	4.100041221877032	4	correct	1.0
428.60365130001446	7.9764891000236275	nogo_reward	1.0	428.6330730000045	430.05961890000617	432.5927268000087	1.4265459000016563	429.6388134000008	431.571693600039	435.6414659000002	0.42080550000537187	1.0210331999696791	0.9680962000279578	434.6304762000218	0.2721445999923162	433.6084687000257	2	1	110	3	nogo_reward	0	1	0	0	0	1	0	0.0	1.0	0	1.0	0.2721445999923162	2069.2925789	2497.9256519000046	2498.931392300001	2499.3521978000063	2500.864272500039	2501.8853057000088	2502.901047600026	2503.923055100022	2504.9340448000003	2505.902141000028	2020-02-21 19:20:51.809342	4.34768142414025	0.0	17.4285875708247	17.3096841671379	13.0809061466844	17.4285875708247	-4.34768142414025	17.4285875708247	0.0	17.4285875708247	13.0809061466844	-17.4285875708247	-5.092787243290182	-0.9306486021119144	16.945042033590777	12.43045381774309	9.279163025380564	16.945042033590777	-17.70953521130129	10.565708907840602	15.658496151130736	11.914352209601828	4.100041221877032	4	correct	1.0
436.6245804000064	9.246048800006974	nogo_reward	1.0	436.65400209999643	439.1223231999902	441.63551839999855	2.468321099993773	437.65467020002006	440.6281345000025	444.6826101000188	1.4676529999701415	1.0073838999960572	1.2174407999846153	443.67945380002493	0.3276922000222839	442.6508881000336	2	1	111	3	nogo_reward	1	0	1	0	0	1	0	0.0	1.0	1	1.0	0.3276922000222839	2069.2925789	2505.9465809999965	2506.94724910002	2508.4149020999903	2509.9207134000026	2510.9280972999986	2511.9434670000337	2512.972032700025	2513.975189000019	2515.1926298000035	2020-02-21 19:20:51.809342	3.16851475215547	0.0	14.0528454785709	13.9523053122756	10.8843307264154	14.0528454785709	-3.16851475215547	14.0528454785709	0.0	14.0528454785709	10.8843307264154	11.9593536641105	-6.2719539152749615	-0.9306486021119144	13.569299941336979	9.073074962880792	7.082587605111563	13.569299941336979	11.678406023633912	7.189966815586803	13.461920730861735	8.538610117348028	4.100041221877032	4	correct	1.0
445.89581080002245	9.556824499974027	go_reward	0.2936825000215322	445.9252325000125	448.7699059000006	451.30863039998803	2.844673399988096	446.93671360000735	450.2940939000109	454.347045100003	1.833192299993243	1.0145364999771118	1.1350118999835104	453.33678300003567	0.2702527999645099	452.3223142999923	2	1	112	4	go_reward	1	1	0	1	1	1	0	0.0	1.0	1	0.2936825000215322	0.2702527999645099	2069.2925789	2515.2178114000126	2516.2292925000074	2518.0624848000007	2519.586672800011	2520.601209299988	2521.6148931999924	2522.6293619000357	2523.639624000003	2524.7746358999866	2020-02-21 19:20:51.809342	30.2727386698006	17.4486328170574	0.0	17.0173230405934	30.2727386698006	0.0	-30.2727386698006	17.4486328170574	0.0	30.2727386698006	0.0	8.563566325623999	20.832270002370166	16.517984214945486	-0.483545537233921	12.13809269119859	26.470995548496763	-0.483545537233921	8.28261868514741	23.4098600068165	2.577590004446335	11.93439745583453	4.100041221877032	4	correct	1.0
455.4784579999978	9.524909400031902	go_reward	0.2389830999891273	455.5078796999878	458.045521299995	460.573686800024	2.5376416000071913	456.50738389999606	459.5610841999878	463.6424668999971	1.5381373999989592	1.012602600036189	1.3903222000226378	462.6271873000078	0.2449068999849259	461.5986632000422	2	1	113	4	go_reward	0	0	1	1	1	1	0	0.0	1.0	0	0.2389830999891273	0.2449068999849259	2069.2925789	2524.800458599988	2525.799962799996	2527.338100199995	2528.853663099988	2529.866265700024	2530.8912421000423	2531.919766200008	2532.935045799997	2534.32536800002	2020-02-21 19:20:51.809342	33.076549284608	19.1161523468495	0.0	18.7582813858321	33.076549284608	0.0	-33.076549284608	19.1161523468495	0.0	33.076549284608	0.0	-19.1161523468495	23.63608061717757	18.185503744737584	-0.483545537233921	13.87905103643729	29.274806163304163	-0.483545537233921	-19.39709998732609	26.2136706216239	2.577590004446335	13.601916985626628	4.100041221877032	4	correct	1.0
465.03013280005007	8.92575449997048	nogo_punish	1.0	465.0595545000401	467.581869799993	470.09971580002457	2.5223152999528793	466.06661750003695	469.0789317000308	473.1537380000227	1.515252299956046	1.0207840999937616	0.8315709999878891	472.13972530001774	0.0588892999803647	471.10774330003187	2	1	114	1	nogo_punish	1	-1	0	0	0	1	0	0.0	1.0	0	1.0	0.0588892999803647	2069.2925789	2534.35213340004	2535.359196400037	2536.874448699993	2538.371510600031	2539.3922947000246	2540.400322200032	2541.432304200018	2542.446316900023	2543.2778879000107	2020-02-21 19:20:51.809342	1.49438327519829	-6.12000229517266	-7.76446554423589	-7.69355563021066	-9.25884881943418	-7.76446554423589	-1.49438327519829	-7.76446554423589	-6.12000229517266	-7.76446554423589	-9.25884881943418	7.76446554423589	-7.946085392232142	-7.050650897284575	-8.24801108146981	-12.572785979605468	-13.060591940738016	-8.24801108146981	7.483517903759301	-14.627344207219988	-6.681258814987844	-13.278700905458761	-2.0199610732956277	4	correct	1.0
473.9847942000488	8.321081699978095	nogo_punish	1.0	474.01421590003883	475.97240160004003	478.5081760000321	1.958185700001195	475.01114970003255	477.48816750000697	481.56063910003286	0.9612519000074826	1.020008500025142	0.7746584999840707	480.557897199993	0.2685760000022128	479.52602260001004	2	1	115	1	nogo_punish	1	-1	0	0	0	1	0	0.0	1.0	0	1.0	0.2685760000022128	2069.2925789	2543.306794800039	2544.3037286000326	2545.26498050004	2546.780746400007	2547.800754900032	2548.81860150001	2549.850476099993	2550.853218000033	2551.627876500017	2020-02-21 19:20:51.809342	2.1568651763558	-6.12000229517266	-6.15077228163781	-6.09904245905216	-8.30763745799361	-6.15077228163781	-2.1568651763558	-6.15077228163781	-6.12000229517266	-6.15077228163781	-8.30763745799361	6.15077228163781	-7.283603491074632	-7.050650897284575	-6.634317818871731	-10.978272808446969	-12.109380579297447	-6.634317818871731	5.869824641161221	-13.013650944621908	-5.730047453547275	-11.665007642860681	-2.0199610732956277	4	correct	1.0
482.35111250000773	8.68060930003412	nogo_reward	1.0	482.3805341999978	484.04217490000883	486.5681551999878	1.6616407000110485	483.3860240000067	485.54695739998715	489.6250076000001	0.6561509000021033	1.0211978000006638	1.4361359000317862	488.61170830001356	0.2141101000015624	487.58148679998703	2	1	116	3	nogo_reward	1	0	1	0	0	1	0	0.0	1.0	1	1.0	0.2141101000015624	2069.2925789	2551.673113099998	2552.678602900007	2553.334753800009	2554.8395362999872	2555.860734099988	2556.874065699987	2557.9042872000136	2558.9175865	2560.353722400032	2020-02-21 19:20:51.809342	4.06527253589248	0.0	16.5908686226466	16.5055700563424	12.5255960867541	16.5908686226466	-4.06527253589248	16.5908686226466	0.0	16.5908686226466	12.5255960867541	9.4213305200348	-5.375196131537952	-0.9306486021119144	16.107323085412677	11.62633970694759	8.723852965450263	16.107323085412677	9.140382879558212	9.727989959662501	15.103186091200435	11.076633261423728	4.100041221877032	4	correct	1.0
491.06016250001267	8.04842380003538	go_reward	0.3750905999913811	491.0895842000027	492.601452500036	495.164797800011	1.5118683000332567	492.1068302000058	494.13751540001294	498.19785230001435	0.49462230003018703	1.0272823999980574	0.9401557000237517	497.1940661999979	0.2886316000367515	496.1700740000233	2	1	117	4	go_reward	1	1	0	1	1	1	0	0.0	1.0	1	0.3750905999913811	0.2886316000367515	2069.2925789	2560.382163100003	2561.399409100006	2561.894031400036	2563.430094300013	2564.457376700011	2565.4626529000234	2566.486645099998	2567.4904312000144	2568.430586900038	2020-02-21 19:20:51.809342	26.7226849979146	15.2378713883579	0.0	14.9396416518352	26.7226849979146	0.0	-26.7226849979146	15.2378713883579	0.0	26.7226849979146	0.0	10.7743277543235	17.282216330484168	14.307222786245987	-0.483545537233921	10.060411302440393	22.920941876610765	-0.483545537233921	10.49338011384691	19.859806334930504	2.577590004446335	9.72363602713503	4.100041221877032	4	correct	1.0
499.1531368000433	8.879217199980758	nogo_reward	1.0	499.18255850003334	501.61736490001203	504.15369730000384	2.4348063999786973	500.18880200001877	503.13280429999577	507.1932808000129	1.428562899993267	1.0208930000080727	0.8684949000012239	506.1805859000301	0.3012568000121973	505.1613408999983	2	1	118	3	nogo_reward	0	1	0	0	0	1	1	1.0	1.0	0	1.0	0.3012568000121973	2069.2925789	2568.4751374000334	2569.481380900019	2570.909943800012	2572.425383199996	2573.446276200004	2574.4539197999984	2575.47316480003	2576.485859700013	2577.354354600014	2020-02-21 19:20:51.809342	4.73529643842285	0.0	18.5160335677728	18.4434331054404	13.7807371293499	18.5160335677728	-4.73529643842285	18.5160335677728	0.0	18.5160335677728	13.7807371293499	-18.5160335677728	-4.705172229007582	-0.9306486021119144	18.03248803053888	13.564202756045589	9.978994008046064	18.03248803053888	-18.79698120824939	11.653154904788703	16.358327133796234	13.00179820654993	4.100041221877032	4	correct	1.0
508.0595161000383	7.917389899957925	go_reward	0.3464535999810323	508.08893780002836	509.4559985999949	512.00175580004	1.3670607999665663	509.0973349999981	510.976853900007	515.038868600037	0.35866359999681663	1.0249019000330009	0.9674590999493375	514.035655500018	0.2259303000173531	513.0046928999941	2	1	119	4	go_reward	1	1	0	1	1	1	1	1.0	1.0	1	0.3464535999810323	0.2259303000173531	2069.2925789	2577.3815167000284	2578.389913899998	2578.748577499995	2580.269432800007	2581.29433470004	2582.297271799994	2583.328234400018	2584.331447500037	2585.2989065999864	2020-02-21 19:20:51.809342	30.3599629569889	17.4263302813844	0.0	17.1767757187726	30.3599629569889	0.0	-30.3599629569889	17.4263302813844	0.0	30.3599629569889	0.0	8.585868861297001	20.919494289558465	16.495681679272483	-0.483545537233921	12.29754536937779	26.558219835685062	-0.483545537233921	8.304921220820413	23.4970842940048	2.577590004446335	11.912094920161527	4.100041221877032	4	correct	1.0
516.0206484000082	8.239283500006422	go_punish	0.6742628999636509	516.0500700999983	517.3393894000328	519.8911329000257	1.289319300034549	517.0585386999883	518.8704991000122	522.9364925000118	0.2808507000445388	1.0206338000134565	1.3528610999928787	521.9243560000323	0.2485535999876447	520.9060492000426	2	1	120	2	go_punish	1	0	-1	1	1	1	0	0.0	1.0	0	0.6742628999636509	0.2485535999876447	2069.2925789	2585.3426489999983	2586.3511175999884	2586.631968300033	2588.1630780000123	2589.183711800026	2590.1986281000427	2591.2169349000324	2592.229071400012	2593.5819325000048	2020-02-21 19:20:51.809342	12.1900656093793	-0.837761528904425	-12.421280047093	-1.50241232704839	-0.231214437713709	-12.421280047093	-12.1900656093793	-0.837761528904425	-12.421280047093	-0.231214437713709	-12.421280047093	0.837761528904425	2.7495969419488677	-1.7684101310163394	-12.90482558432692	-6.381642676443199	-4.032957559017545	-12.90482558432692	0.5568138884278364	-7.0940931006978065	-9.843690042646664	-6.351996890127296	-8.321238825215968	4	correct	1.0
