onset	duration	trial_type	response_time	cueOnset	targetOnset	fbOnset	cueRT	firstfixOnset	secondfixOnset	waitOnset	firstfixdur	secondfixdur	waitdur	nback_fbOnset	nback_response_time	nback_targetOnset	block	wm	trial	cue	cond	is_common	outcome_go	outcome_nogo	key_correct	key_pressed	is_correct	key_correct_nback	key_pressed_nback	is_correct_nback	outcome	rt	rt_nback	time_scan	time_onset	time_isi1	time_circle	time_isi2	time_feedback	time_same	time_correct	time_iti	time_done	timestamp_scan	DV	Qgo	Qnogo	SV	Wgo	Wnogo	mDV	Qchosen	Qunchosen	Wchosen	Wunchosen	PE	DVC	QgoC	QnogoC	SVC	WgoC	WnogoC	PEC	WchosenC	WunchosenC	QchosenC	QunchosenC	run	outcome_nback	nback_targetResp
0.0	7.306805100000702	go_punish	1.0	0.046631200006231666	2.8064627000130713	5.332490400003735	2.7598315000068396	1.041855100018438	4.316113299981225	6.335213100013789	1.7646075999946333	1.0163771000225097	1.0182231999931446	n/a	1.0	n/a	2	0	1	4	go_punish	1	0	-1	1	0	0	0	n/a	n/a	-1	1.0	1.0	1771.2590074000182	1771.3056386000244	1772.3008625000366	1774.0654701000312	1775.5751206999994	1776.591497800022	n/a	n/a	1777.594220500032	1778.612443700025	2020-09-22 11:16:14.924605	-1.01767011139959	0.0	0.0	0.0	1.01767011139959	0.0	1.01767011139959	0.0	0.0	0.0	1.01767011139959	-11.5823969364914	-4.645300022652487	0.1334450656003594	1.3657104061660152	-0.3771326027561443	0.18598997296264008	1.3657104061660152	-11.20441920530333	-1.546799821761916	3.098500200890573	-0.6396833642578222	2.1388388360241994	3	missed	0.0
7.383667699992657	5.932299099978991	nogo_punish	0.9804204999818468	7.430298899998888	8.775901000015438	11.33456320001278	1.3456021000165492	8.422109599981923	10.310060899995733	12.34486160002416	0.35379140003351495	1.0245023000170477	1.0177363999537192	n/a	1.0	n/a	2	0	2	3	nogo_punish	1	-1	0	0	1	0	0	n/a	n/a	-1	0.9804204999818468	1.0	1771.2590074000182	1778.689306300017	1779.681117	1780.0349084000336	1781.569068300014	1782.593570600031	n/a	n/a	1783.6038690000423	1784.621605399996	2020-09-22 11:16:14.924605	1.01767011139959	0.0	0.0	0.0	1.01767011139959	0.0	-1.01767011139959	0.0	0.0	1.01767011139959	0.0	-11.5823969364914	-2.609959799853307	0.1334450656003594	1.3657104061660152	-0.3771326027561443	0.18598997296264008	1.3657104061660152	-11.20441920530333	-0.529129710362326	2.080830089490983	-0.6396833642578222	2.1388388360241994	3	missed	0.0
13.373881899984553	6.310188899980858	nogo_reward	0.3924571999814361	13.420513099990785	15.201840900001116	17.73980769998161	1.781327800010331	14.42240879999008	16.73475950001739	18.738442200003192	0.7794321000110358	1.0050481999642216	0.9922597999684513	n/a	1.0	n/a	2	0	3	1	nogo_reward	1	0	1	0	1	0	0	n/a	n/a	0	0.3924571999814361	1.0	1771.2590074000182	1784.679520500009	1785.6814162000082	1786.4608483000193	1787.9937669000356	1788.9988150999998	n/a	n/a	1789.9974496000214	1790.9897093999898	2020-09-22 11:16:14.924605	1.01767011139959	0.0	0.0	0.0	1.01767011139959	0.0	-1.01767011139959	0.0	0.0	1.01767011139959	0.0	0.0	-2.609959799853307	0.1334450656003594	1.3657104061660152	-0.3771326027561443	0.18598997296264008	1.3657104061660152	0.3779777311880689	-0.529129710362326	2.080830089490983	-0.6396833642578222	2.1388388360241994	3	missed	0.0
19.71303149999585	6.303531899990048	go_punish	0.4763153999811038	19.75966270000208	21.26593100000173	23.80465549998894	1.5062682999996468	20.76831850002054	22.78460830001859	24.81907600001432	0.4976124999811873	1.0200471999703495	1.24411859997781	n/a	1.0	n/a	2	0	4	4	go_punish	1	0	-1	1	1	1	0	n/a	n/a	0	0.4763153999811038	1.0	1771.2590074000182	1791.0186701000202	1792.0273259000387	1792.52493840002	1794.0436157000368	1795.063662900007	n/a	n/a	1796.0780834000325	1797.3222020000103	2020-09-22 11:16:14.924605	6.75061825858014	0.0	-7.00143012658279	-7.00143012658279	-0.250811868002645	-7.00143012658279	-6.75061825858014	0.0	-7.00143012658279	-0.250811868002645	-7.00143012658279	0.0	3.122988347327243	0.1334450656003594	-5.635719720416774	-7.378562729338934	-1.0824920064395949	-5.635719720416774	0.3779777311880689	-1.797611689764561	-4.920600037091807	-0.6396833642578222	-4.862591290558591	3	missed	0.0
26.045227899972815	6.146766100020386	go_punish	0.2727174999890849	26.091859099979047	27.75358620000793	30.309207700018305	1.6617271000288838	27.099680999992415	29.2874747000169	31.32273830001941	0.6539052000155152	1.0217330000014044	0.9158868999800234	n/a	1.0	n/a	2	0	5	4	go_punish	1	0	-1	1	1	1	0	n/a	n/a	0	0.2727174999890849	1.0	1771.2590074000182	1797.3508664999972	1798.3586884000106	1799.012593600026	1800.546482100035	1801.5682151000365	n/a	n/a	1802.5817457000376	1803.4976326000176	2020-09-22 11:16:14.924605	7.5287673728204	0.0	-7.00143012658279	-2.63209525787103	0.527337246237617	-7.00143012658279	-7.5287673728204	0.0	-7.00143012658279	0.527337246237617	-7.00143012658279	0.0	3.9011374615675027	0.1334450656003594	-5.635719720416774	-3.009227860627174	-0.30434289219933297	-5.635719720416774	0.3779777311880689	-1.0194625755242992	-4.920600037091807	-0.6396833642578222	-4.862591290558591	3	missed	0.0
32.27641270001209	6.615432099963073	go_reward	0.717665699950885	32.32304390001832	34.60961460002022	37.159902999992255	2.286570700001903	33.32988729997305	36.13591210002778	38.17085549997864	1.2797273000471705	1.023990899964474	0.7676205000027494	n/a	1.0	n/a	2	0	6	2	go_reward	1	1	0	1	1	1	0	n/a	n/a	1	0.717665699950885	1.0	1771.2590074000182	1803.5820513000365	1804.5888946999912	1805.8686220000384	1807.394919500046	1808.4189104000104	n/a	n/a	1809.4298628999968	1810.1974833999996	2020-09-22 11:16:14.924605	1.01767011139959	0.0	0.0	0.0	1.01767011139959	0.0	-1.01767011139959	0.0	0.0	1.01767011139959	0.0	9.9867276958069	-2.609959799853307	0.1334450656003594	1.3657104061660152	-0.3771326027561443	0.18598997296264008	1.3657104061660152	10.36470542699497	-0.529129710362326	2.080830089490983	-0.6396833642578222	2.1388388360241994	3	missed	0.0
38.9183700999713	6.843331100011483	go_punish	0.2915481999516487	38.96500129997753	40.791297600022745	43.33037089998834	1.8262963000452146	39.98018439998873	42.31072339997627	44.345575399987865	0.8111132000340149	1.01964750001207	1.4627570000011474	n/a	1.0	n/a	2	0	7	4	go_punish	1	0	-1	1	1	1	1	n/a	n/a	0	0.2915481999516487	1.0	1771.2590074000182	1810.2240086999957	1811.239191800007	1812.050305000041	1813.5697307999944	1814.5893783000065	n/a	n/a	1815.604582800006	1817.0673398000072	2020-09-22 11:16:14.924605	7.8148915390522	0.0	-7.00143012658279	-1.07222981529043	0.813461412469414	-7.00143012658279	-7.8148915390522	0.0	-7.00143012658279	0.813461412469414	-7.00143012658279	0.0	4.187261627799303	0.1334450656003594	-5.635719720416774	-1.4493624180465743	-0.018218725967536042	-5.635719720416774	0.3779777311880689	-0.7333384092925022	-4.920600037091807	-0.6396833642578222	-4.862591290558591	3	missed	0.0
45.8048404000001	6.303843799978495	go_reward	0.2957630999735556	45.851471600006334	47.85760460002348	50.38330659997882	2.006133000017144	46.8592761000034	49.376852400018834	51.39656229998218	0.9983285000200794	1.0064541999599896	0.7587531000026502	n/a	1.0	n/a	2	0	8	2	go_reward	0	0	1	1	1	1	1	n/a	n/a	0	0.2957630999735556	1.0	1771.2590074000182	1817.1104790000245	1818.1182835000216	1819.1166120000416	1820.635859800037	1821.642313999997	n/a	n/a	1822.6555697000003	1823.414322800003	2020-09-22 11:16:14.924605	8.19587476913641	6.03877995597204	0.0	6.03877995597204	8.19587476913641	0.0	-8.19587476913641	6.03877995597204	0.0	8.19587476913641	0.0	-6.03877995597204	4.568244857883513	6.1722250215724	1.3657104061660152	5.661647353215896	7.364194630699459	1.3657104061660152	-5.660802224783971	6.649074947374493	2.080830089490983	5.399096591714218	2.1388388360241994	3	missed	0.0
52.15344959998038	6.32626679999521	nogo_punish	0.7881161000113934	52.20008079998661	53.63618029997474	56.17136729997583	1.4360994999881314	53.207015599997476	55.16068750002887	57.17963620001683	0.4291646999772638	1.0106797999469563	1.3467113999649882	n/a	1.0	n/a	2	0	9	3	nogo_punish	1	-1	0	0	1	0	0	n/a	n/a	-1	0.7881161000113934	1.0	1771.2590074000182	1823.4590882000048	1824.4660230000156	1824.895187699993	1826.419694900047	1827.430374699994	n/a	n/a	1828.438643600035	1829.785355	2020-09-22 11:16:14.924605	-7.25224199458543	-7.00143012658279	0.0	-7.00143012658279	-7.25224199458543	0.0	7.25224199458543	-7.00143012658279	0.0	-7.25224199458543	0.0	-4.58096680990861	-10.879871905838327	-6.867985060982431	1.3657104061660152	-7.378562729338934	-8.08392213302238	1.3657104061660152	-4.202989078720541	-8.799041816347346	2.080830089490983	-7.6411134908406115	2.1388388360241994	3	missed	0.0
58.52257339999801	6.984317299968097	nogo_punish	1.0	58.56920460000424	60.78777330002072	63.310390099999495	2.218568700016476	59.570731899992325	62.28994500002591	64.31709889997751	1.2170414000283927	1.0204450999735855	1.2364229999948293	n/a	1.0	n/a	2	0	10	3	nogo_punish	1	-1	0	0	0	1	0	n/a	n/a	0	1.0	1.0	1771.2590074000182	1829.8282120000224	1830.8297393000105	1832.0467807000389	1833.548952400044	1834.5693975000177	n/a	n/a	1835.5761062999957	1836.8125292999905	2020-09-22 11:16:14.924605	10.3746701176184	-9.63352538445382	0.0	-9.63352538445382	-10.3746701176184	0.0	-10.3746701176184	0.0	-9.63352538445382	0.0	-10.3746701176184	0.0	6.7470402063655035	-9.500080318853461	1.3657104061660152	-10.010657987209965	-11.20635025605535	1.3657104061660152	0.3779777311880689	-1.546799821761916	-8.293840028127418	-0.6396833642578222	-7.4946865484296215	3	missed	0.0
65.53745259996481	6.267914900032338	nogo_reward	0.5827562000486068	65.58408379997104	66.9301716000191	69.45298860000935	1.3460878000480534	66.58913470001426	68.44816329999594	70.4678630999988	0.34103690000483766	1.0048253000134082	1.3841356000045835	n/a	1.0	n/a	2	0	11	1	nogo_reward	1	0	1	0	1	0	0	n/a	n/a	0	0.5827562000486068	1.0	1771.2590074000182	1836.8430911999892	1837.8481421000324	1838.1891790000373	1839.707170700014	1840.7119960000275	n/a	n/a	1841.726870500017	1843.1110061000215	2020-09-22 11:16:14.924605	1.01767011139959	0.0	0.0	0.0	1.01767011139959	0.0	-1.01767011139959	0.0	0.0	1.01767011139959	0.0	0.0	-2.609959799853307	0.1334450656003594	1.3657104061660152	-0.3771326027561443	0.18598997296264008	1.3657104061660152	0.3779777311880689	-0.529129710362326	2.080830089490983	-0.6396833642578222	2.1388388360241994	3	missed	0.0
71.85108110000124	5.911259700020764	nogo_punish	1.0	71.89771230000747	73.37036689999513	75.8946437999839	1.4726545999876635	72.9043417000214	74.87394650001079	76.90860730002191	0.4660251999737284	1.0206972999731079	0.9003647000063211	n/a	1.0	n/a	2	0	12	3	nogo_punish	1	-1	0	0	0	1	1	n/a	n/a	0	1.0	1.0	1771.2590074000182	1843.1567197000256	1844.1633491000396	1844.6293743000133	1846.132953900029	1847.153651200002	n/a	n/a	1848.16761470004	1849.0679794000464	2020-09-22 11:16:14.924605	9.31039683714637	-9.63352538445382	0.0	-3.70432507316146	-9.31039683714637	0.0	-9.31039683714637	0.0	-9.63352538445382	0.0	-9.31039683714637	0.0	5.682766925893474	-9.500080318853461	1.3657104061660152	-4.081457675917604	-10.14207697558332	1.3657104061660152	0.3779777311880689	-1.546799821761916	-7.229566747655388	-0.6396833642578222	-7.4946865484296215	3	missed	0.0
77.80465040000854	7.071306099998992	nogo_punish	1.0	77.85128160001477	80.62252979999175	83.13263429998187	2.7712481999769807	78.8622861999902	82.12697580002714	84.14899840002181	1.7602436000015587	1.005658499954734	0.7735892999919542	n/a	1.0	n/a	2	0	13	3	nogo_punish	1	-1	0	0	0	1	0	n/a	n/a	0	1.0	1.0	1771.2590074000182	1849.110289000033	1850.1212936000084	1851.88153720001	1853.3859832000453	1854.3916417	n/a	n/a	1855.40800580004	1856.181595100032	2020-09-22 11:16:14.924605	8.91010467742237	-9.63352538445382	0.0	-1.53658593637237	-8.91010467742237	0.0	-8.91010467742237	0.0	-9.63352538445382	0.0	-8.91010467742237	0.0	5.282474766169472	-9.500080318853461	1.3657104061660152	-1.9137185391285143	-9.741784815859319	1.3657104061660152	0.3779777311880689	-1.546799821761916	-6.829274587931387	-0.6396833642578222	-7.4946865484296215	3	missed	0.0
84.90188339998713	6.055283399997279	go_punish	0.2970375000149943	84.94851459999336	86.69022270000983	89.2315220999883	1.7417081000164671	85.95870339998532	88.21085819997825	90.2441499999843	0.7315193000245017	1.0206639000100495	0.7596480000063366	n/a	1.0	n/a	2	0	14	4	go_punish	1	0	-1	1	1	1	0	n/a	n/a	0	0.2970375000149943	1.0	1771.2590074000182	1856.2075220000115	1857.2177108000035	1857.949230100028	1859.4698655999964	1860.4905295000065	n/a	n/a	1861.5031574000025	1862.2628054000088	2020-09-22 11:16:14.924605	7.92905953254441	0.0	-7.00143012658279	-0.46435612108194	0.927629405961622	-7.00143012658279	-7.92905953254441	0.0	-7.00143012658279	0.927629405961622	-7.00143012658279	0.0	4.301429621291513	0.1334450656003594	-5.635719720416774	-0.8414887238380844	0.09594926752467203	-5.635719720416774	0.3779777311880689	-0.6191704158002941	-4.920600037091807	-0.6396833642578222	-4.862591290558591	3	missed	0.0
90.98684399999911	6.412130100012519	nogo_reward	0.5067324000410736	91.03347520000534	92.53739419998578	95.07724780001467	1.503918999980442	92.04001840000274	94.05872359999898	96.09202129999176	0.4973757999830468	1.0185242000156904	1.3535840000261032	n/a	1.0	n/a	2	0	15	1	nogo_reward	1	0	1	0	1	0	0	n/a	n/a	0	0.5067324000410736	1.0	1771.2590074000182	1862.2924826000235	1863.299025800021	1863.796401600004	1865.3177310000171	1866.3362552000328	n/a	n/a	1867.35102870001	1868.704612700036	2020-09-22 11:16:14.924605	1.01767011139959	0.0	0.0	0.0	1.01767011139959	0.0	-1.01767011139959	0.0	0.0	1.01767011139959	0.0	0.0	-2.609959799853307	0.1334450656003594	1.3657104061660152	-0.3771326027561443	0.18598997296264008	1.3657104061660152	0.3779777311880689	-0.529129710362326	2.080830089490983	-0.6396833642578222	2.1388388360241994	3	missed	0.0
97.4260667000201	6.3567966999835335	go_punish	0.6791418000357226	97.47269790002633	99.04304369998863	101.5807107000146	1.570345799962297	98.4817699000123	100.56008889997634	102.59553499997105	0.561273799976334	1.0206218000382705	1.2339596000388156	n/a	1.0	n/a	2	0	16	4	go_punish	1	0	-1	1	1	1	1	n/a	n/a	0	0.6791418000357226	1.0	1771.2590074000182	1868.7317053000445	1869.7407773000305	1870.3020511000068	1871.8190962999945	1872.8397181000328	n/a	n/a	1873.8545423999892	1875.088502000028	2020-09-22 11:16:14.924605	7.97754013985876	0.0	-7.00143012658279	-0.211096291837668	0.976110013275975	-7.00143012658279	-7.97754013985876	0.0	-7.00143012658279	0.976110013275975	-7.00143012658279	0.0	4.3499102286058635	0.1334450656003594	-5.635719720416774	-0.5882288945938123	0.14442987483902503	-5.635719720416774	0.3779777311880689	-0.5706898084859411	-4.920600037091807	-0.6396833642578222	-4.862591290558591	3	missed	0.0
103.81289160001324	6.085916999960318	nogo_reward	0.4284566999995149	103.85952280001948	105.20169329998294	107.73895219998667	1.3421704999634585	104.87497830000984	106.71928760001856	108.74710009997943	0.32671499997309184	1.0196645999681095	1.1983397000003606	n/a	1.0	n/a	2	0	17	1	nogo_reward	1	0	1	0	1	0	1	n/a	n/a	0	0.4284566999995149	1.0	1771.2590074000182	1875.1185302000376	1876.133985700028	1876.460700700001	1877.9782950000367	1878.9979596000048	n/a	n/a	1880.0061074999976	1881.204447199998	2020-09-22 11:16:14.924605	1.01767011139959	0.0	0.0	0.0	1.01767011139959	0.0	-1.01767011139959	0.0	0.0	1.01767011139959	0.0	0.0	-2.609959799853307	0.1334450656003594	1.3657104061660152	-0.3771326027561443	0.18598997296264008	1.3657104061660152	0.3779777311880689	-0.529129710362326	2.080830089490983	-0.6396833642578222	2.1388388360241994	3	missed	0.0
109.92808689997764	6.3394278000339455	go_punish	0.3577175000100396	109.97471809998387	111.90644619998056	114.46216809999873	1.9317280999966897	110.98747860000026	113.44140230002813	115.47832619998348	0.9189675999803057	1.0207657999706043	0.8358197000343353	n/a	1.0	n/a	2	0	18	4	go_punish	1	0	-1	1	1	1	1	n/a	n/a	0	0.3577175000100396	1.0	1771.2590074000182	1881.233725500002	1882.2464860000184	1883.1654535999987	1884.7004097000463	1885.721175500017	n/a	n/a	1886.7373336000016	1887.573153300036	2020-09-22 11:16:14.924605	7.99917076772428	0.0	-7.00143012658279	-0.0998598861052554	0.997740641141492	-7.00143012658279	-7.99917076772428	0.0	-7.00143012658279	0.997740641141492	-7.00143012658279	0.0	4.371540856471383	0.1334450656003594	-5.635719720416774	-0.47699248886139967	0.16606050270454198	-5.635719720416774	0.3779777311880689	-0.5490591806204241	-4.920600037091807	-0.6396833642578222	-4.862591290558591	3	missed	0.0
116.29334969999036	7.103413100005355	go_punish	0.259267000015825	116.33998089999659	118.39586789999134	120.94975349999754	2.0558869999947547	117.35043940000469	119.93011409998871	121.9638736000054	1.0454284999866559	1.0196394000088276	1.4795203999965452	n/a	1.0	n/a	2	0	19	4	go_punish	1	0	-1	1	1	1	0	n/a	n/a	0	0.259267000015825	1.0	1771.2590074000182	1887.5989883000148	1888.6094468000229	1889.6548753000095	1891.1891215000069	1892.2087609000157	n/a	n/a	1893.2228810000236	1894.70240140002	2020-09-22 11:16:14.924605	8.00922299376761	0.0	-7.00143012658279	-0.0488553947983324	1.00779286718482	-7.00143012658279	-8.00922299376761	0.0	-7.00143012658279	1.00779286718482	-7.00143012658279	0.0	4.381593082514713	0.1334450656003594	-5.635719720416774	-0.4259879975544767	0.17611272874786998	-5.635719720416774	0.3779777311880689	-0.5390069545770961	-4.920600037091807	-0.6396833642578222	-4.862591290558591	3	missed	0.0
123.42695679998769	6.867177099978335	nogo_reward	0.2614564999821596	123.47358799999392	125.8376419999986	128.3772674999782	2.3640540000046713	124.47956060001138	127.35689370002342	129.39101429999573	1.3580813999872134	1.0203737999547684	0.9497507999765276	n/a	1.0	n/a	2	0	20	1	nogo_reward	1	0	1	0	1	0	0	n/a	n/a	0	0.2614564999821596	1.0	1771.2590074000182	1894.732595400012	1895.7385680000295	1897.0966494000168	1898.6159011000416	1899.6362748999964	n/a	n/a	1900.650021700014	1901.5997724999904	2020-09-22 11:16:14.924605	1.01767011139959	0.0	0.0	0.0	1.01767011139959	0.0	-1.01767011139959	0.0	0.0	1.01767011139959	0.0	0.0	-2.609959799853307	0.1334450656003594	1.3657104061660152	-0.3771326027561443	0.18598997296264008	1.3657104061660152	0.3779777311880689	-0.529129710362326	2.080830089490983	-0.6396833642578222	2.1388388360241994	3	missed	0.0
130.3216307999685	6.046458300028007	go_punish	0.4037990000215359	130.36826199997472	131.90531150001334	134.44195369997783	1.53704950003862	131.36214410001435	133.42606339999475	135.45561609999277	0.5431673999989926	1.0158902999830843	0.9591042000099606	n/a	1.0	n/a	2	0	21	4	go_punish	1	0	-1	1	1	1	1	n/a	n/a	0	0.4037990000215359	1.0	1771.2590074000182	1901.6272693999929	1902.6211515000325	1903.1643189000315	1904.685070800013	1905.700961099996	n/a	n/a	1906.714623500011	1907.673727700021	2020-09-22 11:16:14.924605	8.01405920448928	0.0	-7.00143012658279	-0.0246105296297892	1.0126290779065	-7.00143012658279	-8.01405920448928	0.0	-7.00143012658279	1.0126290779065	-7.00143012658279	0.0	4.386429293236383	0.1334450656003594	-5.635719720416774	-0.4017431323859335	0.18094893946954993	-5.635719720416774	0.3779777311880689	-0.5341707438554162	-4.920600037091807	-0.6396833642578222	-4.862591290558591	3	missed	0.0
136.3985982000013	7.242406899982825	nogo_reward	0.2367516999947838	136.44522940000752	138.93040559999622	141.47610829997575	2.4851761999887003	137.45516339997994	140.45585520000895	142.49062019999815	1.4752422000162824	1.0202530999667943	1.1970160999921973	n/a	1.0	n/a	2	0	22	1	nogo_reward	1	0	1	0	1	0	1	n/a	n/a	0	0.2367516999947838	1.0	1771.2590074000182	1907.7042368000257	1908.714170799998	1910.1894130000144	1911.7148626000271	1912.735115699994	n/a	n/a	1913.7496276000163	1914.9466437000085	2020-09-22 11:16:14.924605	1.01767011139959	0.0	0.0	0.0	1.01767011139959	0.0	-1.01767011139959	0.0	0.0	1.01767011139959	0.0	0.0	-2.609959799853307	0.1334450656003594	1.3657104061660152	-0.3771326027561443	0.18598997296264008	1.3657104061660152	0.3779777311880689	-0.529129710362326	2.080830089490983	-0.6396833642578222	2.1388388360241994	3	missed	0.0
143.6854865999776	7.647104200033937	go_reward	0.2780964000266976	143.73211779998383	146.56600849999813	149.13631219998933	2.833890700014308	144.73919689998706	148.11042639997345	150.1354673000169	1.8268116000110695	1.0258858000158853	1.2437547000008635	n/a	1.0	n/a	2	0	23	2	go_reward	1	1	0	1	1	1	0	n/a	n/a	1	0.2780964000266976	1.0	1771.2590074000182	1914.991125200002	1915.9982043000052	1917.8250159000163	1919.3694337999916	1920.3953196000075	n/a	n/a	1921.394474700035	1922.638229400036	2020-09-22 11:16:14.924605	3.72552803509073	2.27061268199096	0.0	2.27061268199096	3.72552803509073	0.0	-3.72552803509073	2.27061268199096	0.0	3.72552803509073	0.0	7.716115013815941	0.09789812383783314	2.4040577475913194	1.3657104061660152	1.8934800792348156	2.89384789665378	1.3657104061660152	8.09409274500401	2.1787282133288137	2.080830089490983	1.6309293177331377	2.1388388360241994	3	missed	0.0
151.37627740000607	6.601594900013879	go_reward	0.3426908000255935	151.4229086000123	153.0704371000179	155.61269149999112	1.647528500005592	152.42453199997544	154.59773939999286	156.62332519999472	0.6459051000424552	1.0149520999982542	1.4011783000314608	n/a	1.0	n/a	2	0	24	2	go_reward	1	1	0	1	1	1	0	n/a	n/a	1	0.3426908000255935	1.0	1771.2590074000182	1922.6819160000305	1923.6835393999936	1924.329444500036	1925.856746800011	1926.8716989000093	n/a	n/a	1927.882332600013	1929.2835109000443	2020-09-22 11:16:14.924605	9.30143985630972	6.96340561597971	0.0	6.96340561597971	9.30143985630972	0.0	-9.30143985630972	6.96340561597971	0.0	9.30143985630972	0.0	3.0233220798271905	5.673809945056823	7.096850681580069	1.3657104061660152	6.586273013223566	8.46975971787277	1.3657104061660152	3.4012998110152592	7.754640034547804	2.080830089490983	6.323722251721888	2.1388388360241994	3	missed	0.0
158.02173520001793	7.2263621999884435	nogo_punish	1.0	158.06836640002416	160.6056757000042	163.1495714000191	2.537309299980052	159.0694124000147	162.12431779998587	164.15361470001494	1.536263299989514	1.0252536000332384	1.1411138999976629	n/a	1.0	n/a	2	0	25	3	nogo_punish	0	0	-1	0	0	1	0	n/a	n/a	-1	1.0	1.0	1771.2590074000182	1929.3273738000423	1930.3284198000329	1931.8646831000224	1933.383325200004	1934.4085788000373	n/a	n/a	1935.412622100033	1936.5537360000308	2020-09-22 11:16:14.924605	8.74745607661581	-9.63352538445382	0.0	-0.675452412919608	-8.74745607661581	0.0	-8.74745607661581	0.0	-9.63352538445382	0.0	-8.74745607661581	-11.5823969364914	5.119826165362913	-9.500080318853461	1.3657104061660152	-1.0525850156757524	-9.57913621505276	1.3657104061660152	-11.20441920530333	-1.546799821761916	-6.666625987124828	-0.6396833642578222	-7.4946865484296215	3	missed	0.0
165.27567709999857	6.14812929998152	go_punish	0.5445486000389792	165.3223083000048	166.75049369997578	169.29910559998825	1.428185399970971	166.3306872000103	168.2851380999782	170.30482040002266	0.4198064999654889	1.0139675000100397	1.1656171999636626	n/a	1.0	n/a	2	0	26	4	go_punish	1	0	-1	1	1	1	0	n/a	n/a	0	0.5445486000389792	1.0	1771.2590074000182	1936.581315700023	1937.5896946000285	1938.009501099994	1939.5441454999964	1940.5581130000064	n/a	n/a	1941.5638278000408	1942.7294450000045	2020-09-22 11:16:14.924605	8.01645761049198	0.0	-7.00143012658279	-0.0127234753192961	1.01502748390919	-7.00143012658279	-8.01645761049198	0.0	-7.00143012658279	1.01502748390919	-7.00143012658279	0.0	4.388827699239083	0.1334450656003594	-5.635719720416774	-0.38985607807544037	0.18334734547223996	-5.635719720416774	0.3779777311880689	-0.5317723378527262	-4.920600037091807	-0.6396833642578222	-4.862591290558591	3	missed	0.0
171.46694710000838	6.617472899961513	go_reward	0.3869717000052333	171.51357830001461	173.36409950000234	175.90193029999455	1.8505211999877247	172.52272270002868	174.89245679997862	176.91748060000828	0.8413767999736592	1.009473500015929	1.213570599967852	n/a	1.0	n/a	2	0	27	2	go_reward	0	0	1	1	1	1	0	n/a	n/a	0	0.3869717000052333	1.0	1771.2590074000182	1942.7725857000328	1943.7817301000468	1944.6231069000205	1946.1514641999968	1947.1609377000127	n/a	n/a	1948.1764880000264	1949.3900585999943	2020-09-22 11:16:14.924605	11.3829454051801	8.70933632664891	0.0	8.70933632664891	11.3829454051801	0.0	-11.3829454051801	8.70933632664891	0.0	11.3829454051801	0.0	-8.70933632664891	7.7553154939272035	8.842781392249268	1.3657104061660152	8.332203723892764	10.551265266743151	1.3657104061660152	-8.33135859546084	9.836145583418185	2.080830089490983	8.069652962391087	2.1388388360241994	3	missed	0.0
178.12627659999998	7.555193900014501	go_reward	0.2743884999654256	178.17290780000621	180.94167760002892	183.50464960001432	2.76876980002271	179.1758210000114	182.48163769999496	184.5104673000169	1.7658566000175142	1.0230119000193554	1.217634400003817	n/a	1.0	n/a	2	0	28	2	go_reward	1	1	0	1	1	1	0	n/a	n/a	1	0.2743884999654256	1.0	1771.2590074000182	1949.4319152000244	1950.4348284000296	1952.200685000047	1953.7406451000131	1954.7636570000325	n/a	n/a	1955.769474700035	1956.9871091000389	2020-09-22 11:16:14.924605	5.04885008120566	3.37666029784551	0.0	3.37666029784551	5.04885008120566	0.0	-5.04885008120566	3.37666029784551	0.0	5.04885008120566	0.0	6.610067397961391	1.421220169952763	3.510105363445869	1.3657104061660152	2.9995276950893657	4.2171699427687095	1.3657104061660152	6.98804512914946	3.5020502594437435	2.080830089490983	2.7369769335876875	2.1388388360241994	3	missed	0.0
185.72446709999326	6.929360300011467	nogo_punish	1.0	185.7710982999995	187.74755400000186	190.27358029998186	1.9764557000023615	186.78016770002432	189.24948370002676	191.28479830001015	0.9673862999775338	1.0240965999551008	1.415660300000809	n/a	1.0	n/a	2	0	29	3	nogo_punish	0	0	-1	0	0	1	0	n/a	n/a	-1	1.0	1.0	1771.2590074000182	1957.0301057000177	1958.0391751000425	1959.00656140002	1960.508491100045	1961.5325877	n/a	n/a	1962.5438057000283	1963.9594660000291	2020-09-22 11:16:14.924605	2.94439669425538	-9.63352538445382	-7.00143012658279	-7.31238630452571	-9.94582682083817	-7.00143012658279	-2.94439669425538	-7.00143012658279	-9.63352538445382	-7.00143012658279	-9.94582682083817	-4.58096680990861	-0.6832332169975168	-9.500080318853461	-5.635719720416774	-7.689518907281854	-10.777506959275119	-5.635719720416774	-4.202989078720541	-8.548229948344705	-7.864996731347187	-7.6411134908406115	-7.4946865484296215	3	missed	0.0
192.69609889999265	7.681448200018849	nogo_punish	1.0	192.74273009999888	195.45434140000702	197.96552570001222	2.711611300008144	193.7525140999935	196.94965570000954	198.97664539999073	1.7018273000135196	1.0158700000026784	1.4475329000269994	n/a	1.0	n/a	2	0	30	3	nogo_punish	0	0	-1	0	0	1	0	n/a	n/a	-1	1.0	1.0	1771.2590074000182	1964.001737500017	1965.0115215000117	1966.7133488000252	1968.2086631000277	1969.2245331000304	n/a	n/a	1970.235652800009	1971.683185700036	2020-09-22 11:16:14.924605	0.770951447637473	-9.63352538445382	-9.63352538445382	-9.7822406653574	-10.4044768320913	-9.63352538445382	-0.770951447637473	-9.63352538445382	-9.63352538445382	-9.63352538445382	-10.4044768320913	-1.9488715520375788	-2.856678463615424	-9.500080318853461	-8.267814978287806	-10.159373268113544	-11.23615697052825	-8.267814978287806	-1.57089382084951	-11.180325206215736	-8.323646742600317	-10.273208748711642	-7.4946865484296215	3	missed	0.0
200.42035339999688	6.946328999998741	nogo_punish	1.0	200.46698460000312	202.91149530000985	205.42142979998584	2.444510700006731	201.47621079999954	204.40825849998555	206.4326208999846	1.4352845000103116	1.0131713000002947	0.9806927000172436	n/a	1.0	n/a	2	0	31	3	nogo_punish	1	-1	0	0	0	1	1	n/a	n/a	0	1.0	1.0	1771.2590074000182	1971.7259920000213	1972.7352182000177	1974.170502700028	1975.6672659000037	1976.680437200004	n/a	n/a	1977.6916283000028	1978.67232100002	2020-09-22 11:16:14.924605	-0.111958105487789	-9.63352538445382	-10.7057551997442	-10.7792211241724	-10.5937970942565	-10.7057551997442	0.111958105487789	-10.7057551997442	-9.63352538445382	-10.7057551997442	-10.5937970942565	10.7057551997442	-3.739588016740686	-9.500080318853461	-9.340044793578185	-11.156353726928545	-11.42547723269345	-9.340044793578185	11.08373293093227	-12.252555021506115	-8.512967004765517	-11.345438564002022	-7.4946865484296215	3	missed	0.0
207.41492040001322	6.768428199982736	go_reward	0.2746882999781519	207.46155160001945	209.2612171000219	211.81420459999913	1.7996655000024475	208.48132399999304	210.79514499998186	212.8287860000271	0.7798931000288576	1.0190596000172718	1.4011937999750899	n/a	1.0	n/a	2	0	32	2	go_reward	0	0	1	1	1	1	0	n/a	n/a	0	0.2746882999781519	1.0	1771.2590074000182	1978.7205590000376	1979.7403314000112	1980.52022450004	1982.0541524	1983.0732120000173	n/a	n/a	1984.0877934000453	1985.4889872000203	2020-09-22 11:16:14.924605	9.88349465178562	7.44890251829274	0.0	7.44890251829274	9.88349465178562	0.0	-9.88349465178562	7.44890251829274	0.0	9.88349465178562	0.0	-7.44890251829274	6.255864740532723	7.5823475838931	1.3657104061660152	7.071769915536596	9.05181451334867	1.3657104061660152	-7.070924787104671	8.336694830023704	2.080830089490983	6.809219154034918	2.1388388360241994	3	missed	0.0
214.21349069999997	6.908436099998653	nogo_reward	0.289018000010401	214.2601219000062	216.11794379999628	218.66154340002686	1.8578218999900855	215.26707629999146	217.65061980002793	219.6713538999902	0.8508675000048243	1.0109235999989323	1.4972041000146419	n/a	1.0	n/a	2	0	33	1	nogo_reward	1	0	1	0	1	0	0	n/a	n/a	0	0.289018000010401	1.0	1771.2590074000182	1985.5191293000244	1986.5260837000096	1987.3769512000144	1988.909627200046	1989.920550800045	n/a	n/a	1990.9303613000084	1992.427565400023	2020-09-22 11:16:14.924605	1.01767011139959	0.0	0.0	0.0	1.01767011139959	0.0	-1.01767011139959	0.0	0.0	1.01767011139959	0.0	0.0	-2.609959799853307	0.1334450656003594	1.3657104061660152	-0.3771326027561443	0.18598997296264008	1.3657104061660152	0.3779777311880689	-0.529129710362326	2.080830089490983	-0.6396833642578222	2.1388388360241994	3	missed	0.0
221.1511218000087	7.567568900005199	nogo_reward	0.2789484999957494	221.19775300001493	223.718079300015	226.27319199999351	2.520326300000079	222.20493509998778	225.2530413999923	227.28800120000983	1.5131442000272273	1.020150600001216	1.4773207000102957	n/a	1.0	n/a	2	0	34	1	nogo_reward	1	0	1	0	1	0	0	n/a	n/a	0	0.2789484999957494	1.0	1771.2590074000182	1992.456760400033	1993.463942500006	1994.9770867000332	1996.5120488000105	1997.5321994000117	n/a	n/a	1998.547008600028	2000.0243293000383	2020-09-22 11:16:14.924605	1.01767011139959	0.0	0.0	0.0	1.01767011139959	0.0	-1.01767011139959	0.0	0.0	1.01767011139959	0.0	0.0	-2.609959799853307	0.1334450656003594	1.3657104061660152	-0.3771326027561443	0.18598997296264008	1.3657104061660152	0.3779777311880689	-0.529129710362326	2.080830089490983	-0.6396833642578222	2.1388388360241994	3	missed	0.0
228.7617840999735	5.647037799993996	go_reward	0.3845318999956362	228.80841529997974	230.09754970000336	232.63051769998856	1.2891344000236131	229.81756449997192	231.62474810000276	233.64831509999908	0.2799852000314331	1.005769599985797	0.8071379999746569	n/a	1.0	n/a	2	0	35	2	go_reward	1	1	0	1	1	1	0	n/a	n/a	1	0.3845318999956362	1.0	1771.2590074000182	2000.067422699998	2001.07657189999	2001.3565571000215	2002.883755500021	2003.8895251000067	n/a	n/a	2004.9073225000172	2005.714460499992	2020-09-22 11:16:14.924605	4.47267289971133	2.89366067997229	0.0	2.89366067997229	4.47267289971133	0.0	-4.47267289971133	2.89366067997229	0.0	4.47267289971133	0.0	7.09306701583461	0.8450429884584327	3.0271057455726496	1.3657104061660152	2.516528077216146	3.6409927612743798	1.3657104061660152	7.471044747022678	2.9258730779494133	2.080830089490983	2.253977315714468	2.1388388360241994	3	missed	0.0
234.4542820000206	6.043541499995854	go_reward	0.4706109999679029	234.50091320002684	236.06822150002654	238.61026430001948	1.567308299999695	235.50780299998587	237.59477500000503	239.61357149999822	0.5604185000406687	1.0154893000144511	0.930883200024482	n/a	1.0	n/a	2	0	36	2	go_reward	1	1	0	1	1	1	0	n/a	n/a	1	0.4706109999679029	1.0	1771.2590074000182	2005.759920600045	2006.766810400004	2007.3272289000447	2008.8537824000232	2009.8692717000376	n/a	n/a	2010.8725789000164	2011.8034621000409	2020-09-22 11:16:14.924605	9.64721710234277	7.25126848930229	0.0	7.25126848930229	9.64721710234277	0.0	-9.64721710234277	7.25126848930229	0.0	9.64721710234277	0.0	2.7354592065046104	6.019587191089873	7.38471355490265	1.3657104061660152	6.874135886546146	8.81553696390582	1.3657104061660152	3.113436937692679	8.100417280580855	2.080830089490983	6.611585125044468	2.1388388360241994	3	missed	0.0
240.5432943999765	6.046992700023111	nogo_punish	1.0	240.58992559998273	242.07197059999453	244.59122619999061	1.4820450000117944	241.59819709998578	243.5749260999728	245.59401010000192	0.47377350000874685	1.0163001000178156	1.0429082000039216	n/a	1.0	n/a	2	0	37	3	nogo_punish	0	0	-1	0	0	1	0	n/a	n/a	-1	1.0	1.0	1771.2590074000182	2011.848933000001	2012.857204500004	2013.3309780000127	2014.833933499991	2015.8502336000088	n/a	n/a	2016.85301750002	2017.895925700024	2020-09-22 11:16:14.924605	5.23944000932442	-9.63352538445382	-4.1686811942434	-4.20601519919249	-9.40812120356783	-4.1686811942434	-5.23944000932442	-4.1686811942434	-9.63352538445382	-4.1686811942434	-9.40812120356783	-7.413715742247999	1.6118100980715226	-9.500080318853461	-2.802970788077385	-4.583147801948634	-10.23980134200478	-2.802970788077385	-7.03573801105993	-5.715481016005317	-7.327291114076848	-4.808364558501222	-7.4946865484296215	3	missed	0.0
246.6329676000164	6.849516899965693	go_reward	0.2661903999978676	246.67959880002263	248.65381410002033	251.1971674999802	1.9742152999976952	247.681607700011	250.17302440002095	252.20836930000223	0.9722064000093269	1.0241430999592467	1.320746399986092	n/a	1.0	n/a	2	0	38	2	go_reward	1	1	0	1	1	1	1	n/a	n/a	1	0.2661903999978676	1.0	1771.2590074000182	2017.9386062000408	2018.9406151000292	2019.9128215000385	2021.432031800039	2022.4561748999984	n/a	n/a	2023.4673767000204	2024.7881231000065	2020-09-22 11:16:14.924605	11.5489159022316	8.84730214968759	0.0	8.84730214968759	11.5489159022316	0.0	-11.5489159022316	8.84730214968759	0.0	11.5489159022316	0.0	1.1394255461193108	7.921285990978704	8.980747215287948	1.3657104061660152	8.470169546931444	10.717235763794651	1.3657104061660152	1.5174032773073796	10.002116080469685	2.080830089490983	8.207618785429768	2.1388388360241994	3	missed	0.0
253.50871989998268	6.581946899998002	go_punish	0.3630659999907948	253.5553510999889	255.3148790000123	257.8537765999786	1.7595279000233859	254.56601730000693	256.83322740002745	258.86143629997946	0.7488617000053637	1.0205491999511196	1.2758617000074537	n/a	1.0	n/a	2	0	39	4	go_punish	1	0	-1	1	1	1	0	n/a	n/a	0	0.3630659999907948	1.0	1771.2590074000182	2024.814358500007	2025.825024700025	2026.5738864000305	2028.0922348000456	2029.1127839999967	n/a	n/a	2030.1204436999976	2031.396305400005	2020-09-22 11:16:14.924605	8.0176798842538	0.0	-7.00143012658279	-0.0067346908299637	1.01624975767102	-7.00143012658279	-8.0176798842538	0.0	-7.00143012658279	1.01624975767102	-7.00143012658279	0.0	4.390049973000903	0.1334450656003594	-5.635719720416774	-0.383867293586108	0.18456961923407011	-5.635719720416774	0.3779777311880689	-0.530550064090896	-4.920600037091807	-0.6396833642578222	-4.862591290558591	3	missed	0.0
260.1208574000043	6.871216100000538	nogo_reward	0.3440937999985181	260.16748860001053	262.0228349000099	264.5443650999807	1.8553462999993826	261.17903040000215	263.54029219999234	265.5595063000219	0.8438045000077636	1.0040728999883868	1.4791983999891727	n/a	1.0	n/a	2	0	40	1	nogo_reward	1	0	1	0	1	0	0	n/a	n/a	0	0.3440937999985181	1.0	1771.2590074000182	2031.4264960000287	2032.4380378000203	2033.281842300028	2034.7992996000105	2035.8033724999989	n/a	n/a	2036.81851370004	2038.2977121000292	2020-09-22 11:16:14.924605	1.01767011139959	0.0	0.0	0.0	1.01767011139959	0.0	-1.01767011139959	0.0	0.0	1.01767011139959	0.0	0.0	-2.609959799853307	0.1334450656003594	1.3657104061660152	-0.3771326027561443	0.18598997296264008	1.3657104061660152	0.3779777311880689	-0.529129710362326	2.080830089490983	-0.6396833642578222	2.1388388360241994	3	missed	0.0
267.01886690000515	6.571982099966135	go_punish	0.3268968000193126	267.0654981000114	268.7591491999917	271.2903907999862	1.6936510999803431	268.06883389997506	270.28561339998873	272.28821109997784	0.690315300016664	1.0047773999974652	1.349269099999674	n/a	1.0	n/a	2	0	41	4	go_punish	1	0	-1	1	1	1	1	n/a	n/a	0	0.3268968000193126	1.0	1771.2590074000182	2038.3245055000295	2039.3278412999932	2040.01815660001	2041.544620800007	2042.5493982000044	n/a	n/a	2043.547218499996	2044.8964875999957	2020-09-22 11:16:14.924605	8.01831854398796	0.0	-7.00143012658279	-0.0036430598679027	1.01688841740517	-7.00143012658279	-8.01831854398796	0.0	-7.00143012658279	1.01688841740517	-7.00143012658279	0.0	4.3906886327350625	0.1334450656003594	-5.635719720416774	-0.380775662624047	0.18520827896822	-5.635719720416774	0.3779777311880689	-0.5299114043567461	-4.920600037091807	-0.6396833642578222	-4.862591290558591	3	missed	0.0
273.6372215999877	7.316037699987646	nogo_punish	1.0	273.68385279999393	276.2579298000203	278.7884848000249	2.5740770000263637	274.68745670001954	277.76666209998075	279.79529839998577	1.5704731000007541	1.0218227000441402	1.204592099995807	n/a	1.0	n/a	2	0	42	3	nogo_punish	1	-1	0	0	0	1	0	n/a	n/a	0	1.0	1.0	1771.2590074000182	2044.942860200012	2045.9464641000377	2047.5169372000385	2049.025669499999	2050.047492200043	n/a	n/a	2051.054305800004	2052.2588978999997	2020-09-22 11:16:14.924605	1.47509738137436	-9.63352538445382	-8.74911235479282	-8.76857052094208	-10.2242097361672	-8.74911235479282	-1.47509738137436	-8.74911235479282	-9.63352538445382	-8.74911235479282	-10.2242097361672	8.74911235479282	-2.152532529878537	-9.500080318853461	-7.383401948626804	-9.145703123698224	-11.05588987460415	-7.383401948626804	9.127090085980889	-10.295912176554735	-8.143379646676218	-9.388795719050641	-7.4946865484296215	3	missed	0.0
280.9809639999876	7.4136403999877984	go_punish	0.5878405999974348	281.0275951999938	283.5060721000186	286.0429352999781	2.478476900024816	282.0354250000096	285.0324839000241	287.05718720000004	1.470647100009046	1.0104513999540359	1.384048399981566	n/a	1.0	n/a	2	0	43	4	go_punish	1	0	-1	1	1	1	1	n/a	n/a	0	0.5878405999974348	1.0	1771.2590074000182	2052.286602600012	2053.2944324000277	2054.765079500037	2056.2914913000423	2057.3019426999963	n/a	n/a	2058.316194600018	2059.700243	2020-09-22 11:16:14.924605	8.01866014577877	0.0	-7.00143012658279	-0.0020111713169755	1.01723001919598	-7.00143012658279	-8.01866014577877	0.0	-7.00143012658279	1.01723001919598	-7.00143012658279	0.0	4.391030234525872	0.1334450656003594	-5.635719720416774	-0.3791437740731198	0.18554988075903	-5.635719720416774	0.3779777311880689	-0.5295698025659361	-4.920600037091807	-0.6396833642578222	-4.862591290558591	3	missed	0.0
288.4387602999923	6.907848200004082	nogo_punish	1.0	288.4853914999985	290.36076589999766	292.89070460002404	1.8753743999991457	289.49367489997485	291.8698298999807	293.9049645999912	0.8670910000228105	1.0208747000433505	1.4882751000113785	n/a	1.0	n/a	2	0	44	3	nogo_punish	1	-1	0	0	0	1	1	n/a	n/a	0	1.0	1.0	1771.2590074000182	2059.7443989000167	2060.752682299993	2061.619773300016	2063.128837299999	2064.149712000042	n/a	n/a	2065.1639720000094	2066.6522471000208	2020-09-22 11:16:14.924605	5.85251290286296	-9.63352538445382	-3.40740755689589	-3.41778530759376	-9.25992045975886	-3.40740755689589	-5.85251290286296	-3.40740755689589	-9.63352538445382	-3.40740755689589	-9.25992045975886	3.40740755689589	2.2248829916100634	-9.500080318853461	-2.041697150729875	-3.7949179103499042	-10.091600598195809	-2.041697150729875	3.7853852880839587	-4.954207378657806	-7.179090370267877	-4.047090921153712	-7.4946865484296215	3	missed	0.0
295.3738437999855	5.946217800024897	go_punish	0.3360231000115163	295.4204749999917	296.8198661999777	299.34970630001044	1.3993911999859847	296.429533099988	298.33796269999584	300.3639959000284	0.39033309998967525	1.0117436000145972	1.0026968999882229	n/a	1.0	n/a	2	0	45	4	go_punish	1	0	-1	1	1	1	1	n/a	n/a	0	0.3360231000115163	1.0	1771.2590074000182	2066.67948240001	2067.688540500006	2068.078873599996	2069.596970100014	2070.6087137000286	n/a	n/a	2071.6230033000465	2072.6257002000348	2020-09-22 11:16:14.924605	8.01884695882596	0.0	-7.00143012658279	-0.001131879898076	1.01741683224317	-7.00143012658279	-8.01884695882596	0.0	-7.00143012658279	1.01741683224317	-7.00143012658279	0.0	4.391217047573064	0.1334450656003594	-5.635719720416774	-0.3782644826542203	0.18573669380622004	-5.635719720416774	0.3779777311880689	-0.5293829895187461	-4.920600037091807	-0.6396833642578222	-4.862591290558591	3	missed	0.0
301.3631327999756	6.490729700017255	go_reward	0.453949199989438	301.4097639999818	302.9510391000076	305.4933838999709	1.541275100025814	302.40899079997325	304.4839368999819	306.5064462000155	0.5420483000343665	1.0094469999889952	1.3940474999835715	n/a	1.0	n/a	2	0	46	2	go_reward	0	0	1	1	1	1	0	n/a	n/a	0	0.453949199989438	1.0	1771.2590074000182	2072.6687714	2073.6679981999914	2074.210046500026	2075.7429443	2076.752391299989	n/a	n/a	2077.7654536000337	2079.159501100017	2020-09-22 11:16:14.924605	12.3092236838237	9.48364699732406	0.0	9.48364699732406	12.3092236838237	0.0	-12.3092236838237	9.48364699732406	0.0	12.3092236838237	0.0	-9.48364699732406	8.681593772570803	9.617092062924419	1.3657104061660152	9.106514394567915	11.47754354538675	1.3657104061660152	-9.10566926613599	10.762423862061784	2.080830089490983	8.843963633066238	2.1388388360241994	3	missed	0.0
307.8841409999877	7.144656700023916	nogo_reward	0.5638471000129357	307.93077219999395	310.09799350000685	312.65578570001526	2.1672213000128977	308.9366706999717	311.63206520001404	313.66726900002686	1.1613228000351228	1.0237205000012182	1.4081598999910057	n/a	1.0	n/a	2	0	47	1	nogo_reward	0	1	0	0	1	0	0	n/a	n/a	1	0.5638471000129357	1.0	1771.2590074000182	2079.189779600012	2080.19567809999	2081.357000900025	2082.891072600032	2083.9147931000334	n/a	n/a	2084.926276400045	2086.334436300036	2020-09-22 11:16:14.924605	1.01767011139959	0.0	0.0	0.0	1.01767011139959	0.0	-1.01767011139959	0.0	0.0	1.01767011139959	0.0	9.9867276958069	-2.609959799853307	0.1334450656003594	1.3657104061660152	-0.3771326027561443	0.18598997296264008	1.3657104061660152	10.36470542699497	-0.529129710362326	2.080830089490983	-0.6396833642578222	2.1388388360241994	3	missed	0.0
315.072282899986	5.765539999993052	go_reward	0.5522510000155307	315.11891409999225	316.46171040000627	318.9871349000023	1.3427963000140153	316.13511809997726	317.9750120000099	319.99795980000636	0.32659230002900586	1.0121228999923915	0.8864942999789491	n/a	1.0	n/a	2	0	48	2	go_reward	1	1	0	1	1	1	1	n/a	n/a	1	0.5522510000155307	1.0	1771.2590074000182	2086.3779215000104	2087.3941254999954	2087.7207178000244	2089.234019400028	2090.2461423000204	n/a	n/a	2091.2569672000245	2092.1434615000035	2020-09-22 11:16:14.924605	5.45494035145364	3.71537525312149	0.0	3.71537525312149	5.45494035145364	0.0	-5.45494035145364	3.71537525312149	0.0	5.45494035145364	0.0	6.27135244268541	1.8273104402007432	3.8488203187218493	1.3657104061660152	3.3382426503653457	4.62326021301669	1.3657104061660152	6.649330173873479	3.9081405296917238	2.080830089490983	3.0756918888636675	2.1388388360241994	3	missed	0.0
320.87974339997163	6.132767300005071	go_reward	0.3307915999903343	320.92637459997786	322.60411160002695	325.1379656000063	1.6777370000490919	321.93508770002563	324.13148440001487	326.1445929000038	0.6690239000013207	1.0064811999914127	0.9145489999791607	n/a	1.0	n/a	2	0	49	2	go_reward	1	1	0	1	1	1	0	n/a	n/a	1	0.3307915999903343	1.0	1771.2590074000182	2092.185381999996	2093.194095100044	2093.863119000045	2095.390491800033	2096.3969730000244	n/a	n/a	2097.403600300022	2098.318149300001	2020-09-22 11:16:14.924605	10.0703582955599	7.60447176178593	0.0	7.60447176178593	10.0703582955599	0.0	-10.0703582955599	7.60447176178593	0.0	10.0703582955599	0.0	2.3822559340209706	6.442728384307004	7.7379168273862895	1.3657104061660152	7.2273391590297855	9.238678157122951	1.3657104061660152	2.7602336652090393	8.523558473797985	2.080830089490983	6.964788397528108	2.1388388360241994	3	missed	0.0
327.04228449997026	6.66124350001337	nogo_reward	0.2900774999870918	327.0889156999765	328.99882370000705	331.5222819999908	1.9099080000305548	328.08931680000387	330.5181015999988	332.521777499991	0.9095069000031799	1.0041803999920376	1.228381699998863	n/a	1.0	n/a	2	0	50	1	nogo_reward	1	0	1	0	1	0	0	n/a	n/a	0	0.2900774999870918	1.0	1771.2590074000182	2098.3479230999947	2099.348324200022	2100.257831100025	2101.777109000017	2102.781289400009	n/a	n/a	2103.780784900009	2105.009166600008	2020-09-22 11:16:14.924605	8.19587476913641	6.03877995597204	0.0	6.03877995597204	8.19587476913641	0.0	-8.19587476913641	6.03877995597204	0.0	8.19587476913641	0.0	-6.03877995597204	4.568244857883513	6.1722250215724	1.3657104061660152	5.661647353215896	7.364194630699459	1.3657104061660152	-5.660802224783971	6.649074947374493	2.080830089490983	5.399096591714218	2.1388388360241994	3	missed	0.0
333.73286779999034	6.26420259999577	nogo_reward	0.3892384999780915	333.7794989999966	335.13963890000014	337.68354140000883	1.3601399000035599	334.7826657000114	336.66217600001255	338.69729500001995	0.35697319998871535	1.0213653999962844	1.346406599972397	n/a	1.0	n/a	2	0	51	1	nogo_reward	1	0	1	0	1	0	0	n/a	n/a	0	0.3892384999780915	1.0	1771.2590074000182	2105.0385064000147	2106.0416731000296	2106.3986463000183	2107.9211834000307	2108.942548800027	n/a	n/a	2109.956302400038	2111.3027090000105	2020-09-22 11:16:14.924605	3.72552803509073	2.27061268199096	0.0	2.27061268199096	3.72552803509073	0.0	-3.72552803509073	2.27061268199096	0.0	3.72552803509073	0.0	-2.27061268199096	0.09789812383783314	2.4040577475913194	1.3657104061660152	1.8934800792348156	2.89384789665378	1.3657104061660152	-1.8926349508028912	2.1787282133288137	2.080830089490983	1.6309293177331377	2.1388388360241994	3	missed	0.0
340.0424990999745	7.590604400029406	nogo_punish	1.0	340.08913029998075	342.69483430002583	345.21327010000823	2.6057040000450797	341.0978187000146	344.19819560000906	346.22694199997886	1.5970156000112183	1.015074499999173	1.4527927000312957	n/a	1.0	n/a	2	0	52	3	nogo_punish	1	-1	0	0	0	1	0	n/a	n/a	0	1.0	1.0	1771.2590074000182	2111.348137699999	2112.356826100033	2113.953841700044	2115.457203000027	2116.4722775000264	n/a	n/a	2117.485949399997	2118.9387421000283	2020-09-22 11:16:14.924605	7.46061118274721	-9.63352538445382	-1.43204138803169	-1.43769561921657	-8.89265257077889	-1.43204138803169	-7.46061118274721	-1.43204138803169	-9.63352538445382	-1.43204138803169	-8.89265257077889	1.43204138803169	3.8329812714943134	-9.500080318853461	-0.06633098186567477	-1.8148282219727143	-9.72433270921584	-0.06633098186567477	1.810019119219759	-2.978841209793606	-6.8118224812879085	-2.071724752289512	-7.4946865484296215	3	missed	0.0
347.6619885999826	6.195270600030199	go_punish	0.317384599999059	347.7086197999888	349.07252629997674	351.60643619997427	1.3639064999879338	348.7155373999849	350.5908225000021	352.6106063000043	0.3569888999918476	1.0156136999721639	1.2932841000147164	n/a	1.0	n/a	2	0	53	4	go_punish	1	0	-1	1	1	1	0	n/a	n/a	0	0.317384599999059	1.0	1771.2590074000182	2118.967627200007	2119.974544800003	2120.331533699995	2121.8498299000203	2122.8654435999924	n/a	n/a	2123.8696137000225	2125.162897800037	2020-09-22 11:16:14.924605	8.01895132381679	0.0	-7.00143012658279	-0.0006488646245143	1.01752119723401	-7.00143012658279	-8.01895132381679	0.0	-7.00143012658279	1.01752119723401	-7.00143012658279	0.0	4.391321412563893	0.1334450656003594	-5.635719720416774	-0.3777814673806586	0.18584105879705992	-5.635719720416774	0.3779777311880689	-0.5292786245279062	-4.920600037091807	-0.6396833642578222	-4.862591290558591	3	missed	0.0
353.8843604999711	7.016710500000045	go_punish	0.3181091999867931	353.9309916999773	356.27380500000436	358.8237809999846	2.3428133000270464	354.93874690000666	357.799901099992	359.83622090000426	1.3350580999976955	1.0238798999926075	1.111481299973093	n/a	1.0	n/a	2	0	54	4	go_punish	0	-1	0	1	1	1	0	n/a	n/a	-1	0.3181091999867931	1.0	1771.2590074000182	2125.1899990999955	2126.197754300025	2127.5328124000225	2129.05890850001	2130.0827884000028	n/a	n/a	2131.0952283000224	2132.2067095999955	2020-09-22 11:16:14.924605	8.01901084626809	0.0	-7.00143012658279	-0.0003786299147199	1.0175807196853	-7.00143012658279	-8.01901084626809	0.0	-7.00143012658279	1.0175807196853	-7.00143012658279	-11.5823969364914	4.391380935015193	0.1334450656003594	-5.635719720416774	-0.37751123267086417	0.18590058124834996	-5.635719720416774	-11.20441920530333	-0.5292191020766162	-4.920600037091807	-0.6396833642578222	-4.862591290558591	3	missed	0.0
360.93167879997054	6.510318500048015	nogo_reward	0.2015183999901637	360.9783099999768	363.01934190001384	365.5748472000123	2.041031900037069	361.9737747000181	364.5535041000112	366.5900763000245	1.0455671999957303	1.0213431000011042	0.8985522000002675	n/a	1.0	n/a	2	0	55	1	nogo_reward	1	0	1	0	1	0	0	n/a	n/a	0	0.2015183999901637	1.0	1771.2590074000182	2132.237317399995	2133.2327821000363	2134.278349300032	2135.8125115000294	2136.8338546000305	n/a	n/a	2137.8490837000427	2138.747635900043	2020-09-22 11:16:14.924605	2.1232351985729	0.924625660007669	0.0	0.924625660007669	2.1232351985729	0.0	-2.1232351985729	0.924625660007669	0.0	2.1232351985729	0.0	-0.924625660007669	-1.5043947126799968	1.0580707256080284	1.3657104061660152	0.5474930572515246	1.2915550601359502	1.3657104061660152	-0.5466479288196001	0.576435376810984	2.080830089490983	0.28494229574984675	2.1388388360241994	3	missed	0.0
367.48925009998493	6.832682200009003	nogo_punish	1.0	367.53588129999116	369.96039999998175	372.48384679999435	2.4245186999905854	368.54060890001756	371.463570300024	373.49926740001	1.4197910999641863	1.0202764999703504	0.8692960999901516	n/a	1.0	n/a	2	0	56	3	nogo_punish	1	-1	0	0	0	1	0	n/a	n/a	0	1.0	1.0	1771.2590074000182	2138.7948887000093	2139.7996163000357	2141.2194074	2142.722577700042	2143.7428542000125	n/a	n/a	2144.758274800028	2145.6275709000183	2020-09-22 11:16:14.924605	8.10375516620285	-9.63352538445382	-0.637681931615317	-0.640824982830368	-8.74143709781817	-0.637681931615317	-8.10375516620285	-0.637681931615317	-9.63352538445382	-0.637681931615317	-8.74143709781817	0.637681931615317	4.476125254949953	-9.500080318853461	0.7280284745506982	-1.0179575855865124	-9.57311723625512	0.7280284745506982	1.0156596628033858	-2.1844817533772334	-6.660607008327188	-1.2773652958731394	-7.4946865484296215	3	missed	0.0
374.3653871999704	7.430517200031318	nogo_punish	1.0	374.41201839997666	377.3714372999966	379.898473299982	2.959418900019955	375.4142860000138	378.8751187999733	380.90891009999905	1.9571512999827974	1.023354500008736	0.9336255000089295	n/a	1.0	n/a	2	0	57	3	nogo_punish	0	0	-1	0	0	1	0	n/a	n/a	-1	1.0	1.0	1771.2590074000182	2145.671025799995	2146.673293400032	2148.630444700015	2150.1341261999914	2151.1574807	n/a	n/a	2152.167917500017	2153.101543000026	2020-09-22 11:16:14.924605	8.37809277811301	-9.63352538445382	-0.297285691585086	-0.299066436107676	-8.67537846969809	-0.297285691585086	-8.37809277811301	-0.297285691585086	-9.63352538445382	-0.297285691585086	-8.67537846969809	-11.285111244906313	4.750462866860112	-9.500080318853461	1.0684247145809294	-0.6761990388638204	-9.50705860813504	1.0684247145809294	-10.907133513718243	-1.844085513347002	-6.594548380207108	-0.9369690558429082	-7.4946865484296215	3	missed	0.0
381.8404227999854	7.003456500009634	nogo_punish	1.0	381.8870539999916	384.3123064999818	386.8231711999979	2.4252524999901652	382.89130610000575	385.81470809999155	387.83487269998295	1.4210003999760374	1.0084631000063382	1.055637800018303	n/a	1.0	n/a	2	0	58	3	nogo_punish	1	-1	0	0	0	1	1	n/a	n/a	0	1.0	1.0	1771.2590074000182	2153.14606140001	2154.150313500024	2155.5713139	2157.0737155000097	2158.082178600016	n/a	n/a	2159.093880100001	2160.1495179000194	2020-09-22 11:16:14.924605	2.76825033483939	-9.63352538445382	-7.14535870846709	-7.14638620300633	-9.91360904330648	-7.14535870846709	-2.76825033483939	-7.14535870846709	-9.63352538445382	-7.14535870846709	-9.91360904330648	7.14535870846709	-0.8593795764135068	-9.500080318853461	-5.779648302301075	-7.523518805762474	-10.745289181743429	-5.779648302301075	7.523336439655159	-8.692158530229007	-7.832778953815497	-7.785042072724912	-7.4946865484296215	3	missed	0.0
388.88749429996824	7.251989700016566	go_reward	0.2090712999925017	388.93412549997447	391.6757381000207	394.2178824999719	2.74161260004621	389.9421653000172	393.19402260001516	395.22853670001496	1.7335728000034578	1.023859899956733	0.9575784999760799	n/a	1.0	n/a	2	0	59	2	go_reward	1	1	0	1	1	1	0	n/a	n/a	1	0.2090712999925017	1.0	1771.2590074000182	2160.1931328999926	2161.2011727000354	2162.934745500039	2164.4530300000333	2165.47688989999	n/a	n/a	2166.487544100033	2167.445122600009	2020-09-22 11:16:14.924605	11.7403172303458	9.00677631601257	0.0	9.00677631601257	11.7403172303458	0.0	-11.7403172303458	9.00677631601257	0.0	11.7403172303458	0.0	0.9799513797943309	8.112687319092903	9.140221381612928	1.3657104061660152	8.629643713256424	10.908637091908851	1.3657104061660152	1.3579291109823997	10.193517408583885	2.080830089490983	8.367092951754747	2.1388388360241994	3	missed	0.0
396.1734577000025	6.073506799992174	nogo_reward	0.5503295999951661	396.2200889000087	397.7884845000226	400.3275675000041	1.5683956000139005	397.23795330000576	399.3070267000003	401.3361843000166	0.5505312000168487	1.0205408000038005	0.9574113999842666	n/a	1.0	n/a	2	0	60	1	nogo_reward	1	0	1	0	1	0	0	n/a	n/a	0	0.5503295999951661	1.0	1771.2590074000182	2167.479096300027	2168.496960700024	2169.0474919000408	2170.5660341000184	2171.5865749000222	n/a	n/a	2172.595191700035	2173.552603100019	2020-09-22 11:16:14.924605	1.49688282375215	0.399943688685909	0.0	0.399943688685909	1.49688282375215	0.0	-1.49688282375215	0.399943688685909	0.0	1.49688282375215	0.0	-0.399943688685909	-2.1307470875007466	0.5333887542862684	1.3657104061660152	0.02281108592976472	0.6652026853152001	1.3657104061660152	-0.02196595749784014	-0.04991699800976601	2.080830089490983	-0.23973967557191322	2.1388388360241994	3	missed	0.0
