onset	duration	trial_type	response_time	cueOnset	targetOnset	fbOnset	cueRT	firstfixOnset	secondfixOnset	waitOnset	firstfixdur	secondfixdur	waitdur	nback_fbOnset	nback_response_time	nback_targetOnset	block	wm	trial	cue	cond	is_common	outcome_go	outcome_nogo	key_correct	key_pressed	is_correct	key_correct_nback	key_pressed_nback	is_correct_nback	outcome	rt	rt_nback	time_scan	time_onset	time_isi1	time_circle	time_isi2	time_feedback	time_same	time_correct	time_iti	time_done	timestamp_scan	DV	Qgo	Qnogo	SV	Wgo	Wnogo	mDV	Qchosen	Qunchosen	Wchosen	Wunchosen	PE	DVC	QgoC	QnogoC	SVC	WgoC	WnogoC	PEC	WchosenC	WunchosenC	QchosenC	QunchosenC	run	outcome_nback	nback_targetResp
0.0	10.053544899972621	nogo_punish	0.3287617000169121	0.07420760003151372	3.041587400017306	5.599407600006089	2.9673797999857925	1.0868326000054367	4.572352700051852	8.638824500027113	1.9547548000118695	1.027054899954237	1.4889279999770224	7.627857200044673	1.0	6.618720500031486	1	1	1	3	nogo_punish	1	-1	0	0	1	0	0	n/a	0.0	0	0.3287617000169121	1.0	596.5125046999892	596.5867123000207	597.5993372999947	599.5540921000065	601.0848574000411	602.1119122999953	603.1312252000207	604.1403619000339	605.1513292000163	606.6402571999934	2020-09-22 10:56:40.188450	1.01767011139959	0.0	0.0	0.0	1.01767011139959	0.0	-1.01767011139959	0.0	0.0	1.01767011139959	0.0	-11.5823969364914	-2.609959799853307	0.1334450656003594	1.3657104061660152	-0.3771326027561443	0.18598997296264008	1.3657104061660152	-11.20441920530333	-0.529129710362326	2.080830089490983	-0.6396833642578222	2.1388388360241994	1	missed	0.0
10.120183199993335	8.008731700014323	go_punish	0.5788121999939904	10.194390800024848	11.653542800049763	14.207335300045088	1.4591520000249147	11.200782600033563	13.186978300043847	17.23157760000322	0.45276020001620054	1.0203570000012405	0.9715449000359513	16.22684640000807	1.0	15.21802910004044	1	1	2	4	go_punish	1	0	-1	1	1	1	0	n/a	0.0	-1	0.5788121999939904	1.0	596.5125046999892	606.7068955000141	607.7132873000228	608.166047500039	609.6994830000331	610.7198400000343	611.7305338000297	612.7393510999973	613.7440822999924	614.7156272000284	2020-09-22 10:56:40.188450	1.01767011139959	0.0	0.0	0.0	1.01767011139959	0.0	-1.01767011139959	0.0	0.0	1.01767011139959	0.0	0.0	-2.609959799853307	0.1334450656003594	1.3657104061660152	-0.3771326027561443	0.18598997296264008	1.3657104061660152	0.3779777311880689	-0.529129710362326	2.080830089490983	-0.6396833642578222	2.1388388360241994	1	missed	0.0
18.21288760000607	9.387440899969079	go_reward	0.3743490000488236	18.287095200037584	21.065046300005633	23.61799310002243	2.7779510999680497	19.291767200047616	22.5973212000099	26.71281810000073	1.7732790999580175	1.0206719000125304	0.9617180000059307	25.69682080001803	0.8254153999732807	24.636890700028744	1	1	3	2	go_reward	0	0	1	1	1	1	0	1.0	0.0	0	0.3743490000488236	0.8254153999732807	596.5125046999892	614.7995999000268	615.8042719000368	617.5775509999949	619.1098258999991	620.1304978000117	621.149395400018	622.2093255000073	623.22532279999	624.1870407999959	2020-09-22 10:56:40.188450	1.01767011139959	0.0	0.0	0.0	1.01767011139959	0.0	-1.01767011139959	0.0	0.0	1.01767011139959	0.0	0.0	-2.609959799853307	0.1334450656003594	1.3657104061660152	-0.3771326027561443	0.18598997296264008	1.3657104061660152	0.3779777311880689	-0.529129710362326	2.080830089490983	-0.6396833642578222	2.1388388360241994	1	wrong	1.0
27.66356870002346	8.691344899998512	nogo_reward	0.4653691000421531	27.737776300054975	29.887874400010332	32.43561640003463	2.1500980999553576	28.73810890002642	31.41495050000958	35.49258150003152	1.1497654999839142	1.020665900025051	0.9365397000219673	34.48117410001578	0.9120078000123611	33.45432920003077	1	1	4	1	nogo_reward	1	0	1	0	1	0	0	0.0	1.0	0	0.4653691000421531	0.9120078000123611	596.5125046999892	624.2502810000442	625.2506136000156	626.4003790999996	627.9274551999988	628.9481211000239	629.96683390002	630.993678800005	632.0050862000207	632.9416259000427	2020-09-22 10:56:40.188450	1.01767011139959	0.0	0.0	0.0	1.01767011139959	0.0	-1.01767011139959	0.0	0.0	1.01767011139959	0.0	0.0	-2.609959799853307	0.1334450656003594	1.3657104061660152	-0.3771326027561443	0.18598997296264008	1.3657104061660152	0.3779777311880689	-0.529129710362326	2.080830089490983	-0.6396833642578222	2.1388388360241994	1	correct	1.0
36.39062449999619	9.095081600011326	nogo_reward	0.4298843999858945	36.46483210002771	38.52742430003127	41.048086200025864	2.0625922000035644	37.480808400025126	40.04473910003435	44.09528410003986	1.0466159000061452	1.0033470999915153	1.4646295999991708	43.07566170004429	0.8533673000056297	42.053997300041374	1	1	5	1	nogo_reward	0	1	0	0	1	0	0	0.0	1.0	1	0.4298843999858945	0.8533673000056297	596.5125046999892	632.9773368000169	633.9933131000143	635.0399290000205	636.5572438000236	637.5605909000151	638.5665020000306	639.5881664000335	640.6077888000291	642.0724184000283	2020-09-22 10:56:40.188450	1.01767011139959	0.0	0.0	0.0	1.01767011139959	0.0	-1.01767011139959	0.0	0.0	1.01767011139959	0.0	9.9867276958069	-2.609959799853307	0.1334450656003594	1.3657104061660152	-0.3771326027561443	0.18598997296264008	1.3657104061660152	10.36470542699497	-0.529129710362326	2.080830089490983	-0.6396833642578222	2.1388388360241994	1	correct	1.0
45.52246920001926	8.418752399971709	go_reward	0.144494499952998	45.59667680005077	47.45279960002517	50.01034970005276	1.8561227999744006	46.60420400003204	48.9857874000445	53.05306550004752	0.848595599993132	1.024562300008256	0.9623636999749579	52.03544830001192	1.0	51.026800900057424	1	1	6	2	go_reward	1	1	0	1	1	1	0	n/a	0.0	0	0.144494499952998	1.0	596.5125046999892	642.10918150004	643.1167087000213	643.9653043000144	645.4982921000337	646.522854400042	647.5393056000466	648.5479530000011	649.5655702000367	650.5279339000117	2020-09-22 10:56:40.188450	1.01767011139959	0.0	0.0	0.0	1.01767011139959	0.0	-1.01767011139959	0.0	0.0	1.01767011139959	0.0	9.9867276958069	-2.609959799853307	0.1334450656003594	1.3657104061660152	-0.3771326027561443	0.18598997296264008	1.3657104061660152	10.36470542699497	-0.529129710362326	2.080830089490983	-0.6396833642578222	2.1388388360241994	1	missed	0.0
53.97553659998812	8.565802600001916	nogo_reward	0.2965398000087589	54.04974420001963	56.04780820000451	58.60656200000085	1.998063999984879	55.052003400051035	57.585202200047206	61.66076260001864	0.9958047999534756	1.0213597999536432	0.954784200002905	60.65569470002083	0.5314189000055194	59.624799700046424	1	1	7	1	nogo_reward	1	0	1	0	1	0	1	0.0	0.0	0	0.2965398000087589	0.5314189000055194	596.5125046999892	650.5622489000089	651.5645081000403	652.5603128999937	654.0977069000364	655.1190666999901	656.1373044000356	657.16819940001	658.1732673000079	659.1280515000108	2020-09-22 10:56:40.188450	1.58852123823294	0.315976714531645	0.0	0.315976714531645	1.58852123823294	0.0	-1.58852123823294	0.315976714531645	0.0	1.58852123823294	0.0	-0.315976714531645	-2.039108673019957	0.4494217801320044	1.3657104061660152	-0.0611558882244993	0.7568410997959899	1.3657104061660152	0.06200101665642388	0.04172141647102379	2.080830089490983	-0.32370664972617724	2.1388388360241994	1	wrong	1.0
62.581276800017804	8.259470099990722	nogo_punish	0.3767575999954715	62.65548440004932	64.22852840000996	66.78577700001188	1.573043999960646	63.667610900010914	65.76338490005583	69.85897090000799	0.56091749999905	1.0223920999560505	1.0559836000320502	68.8446390000172	0.7573425999726169	67.80100090004271	1	1	8	3	nogo_punish	1	-1	0	0	1	0	0	0.0	1.0	-1	0.3767575999954715	0.7573425999726169	596.5125046999892	659.1679891000385	660.1801156000001	660.7410330999992	662.275889600045	663.2982817000011	664.3135056000319	665.3571437000064	666.3714755999972	667.4274592000293	2020-09-22 10:56:40.188450	1.01767011139959	0.0	0.0	0.0	1.01767011139959	0.0	-1.01767011139959	0.0	0.0	1.01767011139959	0.0	-11.5823969364914	-2.609959799853307	0.1334450656003594	1.3657104061660152	-0.3771326027561443	0.18598997296264008	1.3657104061660152	-11.20441920530333	-0.529129710362326	2.080830089490983	-0.6396833642578222	2.1388388360241994	1	correct	1.0
70.87745490000816	9.328714300005231	go_reward	0.2876206000219099	70.95166250003967	73.43659960001241	75.99361220002174	2.48493709997274	71.96729010000126	74.96895690000383	79.04522320005344	1.4693095000111498	1.024655300017912	1.2351535999914631	78.03350020002108	0.6660774999763817	77.00815360003617	1	1	9	2	go_reward	1	1	0	1	1	1	0	0.0	1.0	1	0.2876206000219099	0.6660774999763817	596.5125046999892	667.4641672000289	668.4797947999905	669.9491043000016	671.481461599993	672.506116900011	673.5206583000254	674.5460049000103	675.5577279000427	676.7928815000341	2020-09-22 10:56:40.188450	1.01767011139959	0.0	0.0	0.0	1.01767011139959	0.0	-1.01767011139959	0.0	0.0	1.01767011139959	0.0	9.9867276958069	-2.609959799853307	0.1334450656003594	1.3657104061660152	-0.3771326027561443	0.18598997296264008	1.3657104061660152	10.36470542699497	-0.529129710362326	2.080830089490983	-0.6396833642578222	2.1388388360241994	1	correct	1.0
80.24524189997464	7.666586100007407	nogo_punish	1.0	80.31944950000616	81.67474840005161	84.19599490001565	1.3552989000454545	81.31726260000141	83.17708270001458	87.2265312000527	0.35748580005019903	1.0189122000010684	0.7595043999608606	86.21332110004732	0.7428459000075236	85.19925840001088	1	1	10	3	nogo_punish	0	0	-1	0	0	1	1	1.0	1.0	-1	1.0	0.7428459000075236	596.5125046999892	676.8319541999954	677.8297672999906	678.1872531000408	679.6895874000038	680.7084996000049	681.7117631000001	682.7258258000365	683.7390359000419	684.4985403000028	2020-09-22 10:56:40.188450	-0.403199858636172	-0.33939232822196	0.0	-0.33939232822196	0.403199858636172	0.0	0.403199858636172	0.0	-0.33939232822196	0.0	0.403199858636172	-11.5823969364914	-4.030829769889069	-0.20594726262160062	1.3657104061660152	-0.7165249309781043	-0.42848027980077796	1.3657104061660152	-11.20441920530333	-1.546799821761916	2.484029948127155	-0.6396833642578222	1.7994465078022395	1	correct	1.0
87.95322399999714	8.744405000004917	go_punish	0.4019388000015169	88.02743160002865	90.00729950005189	92.55959330004407	1.9798679000232369	89.03743070003111	91.53819840005599	95.61322910001036	0.9698688000207767	1.0213948999880813	1.1586075000232086	94.60033280000789	0.450451000011526	93.57681840000441	1	1	11	4	go_punish	1	0	-1	1	1	1	0	0.0	1.0	0	0.4019388000015169	0.450451000011526	596.5125046999892	684.5399363000179	685.5499354000203	686.5198042000411	688.0507031000452	689.0720980000333	690.0893230999936	691.1128374999971	692.1257337999996	693.2843413000228	2020-09-22 10:56:40.188450	0.403199858636172	-0.33939232822196	0.0	-0.33939232822196	0.403199858636172	0.0	-0.403199858636172	-0.33939232822196	0.0	0.403199858636172	0.0	0.33939232822196	-3.224430052616725	-0.20594726262160062	1.3657104061660152	-0.7165249309781043	-0.42848027980077796	1.3657104061660152	0.717370059410029	-1.143599963125744	2.080830089490983	-0.9790756924797823	2.1388388360241994	1	correct	1.0
96.73818899999605	8.339289200026542	nogo_punish	1.0	96.81239660002757	98.57271670002956	101.11048110004049	1.7603201000019908	97.82248780003283	100.08976800000528	104.17286130000139	0.7502288999967277	1.0207131000352092	0.978824500052724	103.15762880002148	0.3897485000197775	102.13048410002375	1	1	12	3	nogo_punish	1	-1	0	0	0	1	1	0.0	0.0	0	1.0	0.3897485000197775	596.5125046999892	693.3249013000168	694.334992500022	695.0852214000188	696.6022726999945	697.6229858000297	698.642988800013	699.6701335000107	700.6853659999906	701.6641905000433	2020-09-22 10:56:40.188450	-0.478059984434812	-0.33939232822196	-0.33939232822196	-0.665545912394423	0.138667656212852	-0.33939232822196	0.478059984434812	-0.33939232822196	-0.33939232822196	-0.33939232822196	0.138667656212852	0.33939232822196	-4.105689895687709	-0.20594726262160062	1.0263180779440553	-1.0426785151505673	-0.693012482224098	1.0263180779440553	0.717370059410029	-1.886192149983876	2.2194977457038347	-0.9790756924797823	1.7994465078022395	1	wrong	1.0
105.11632059997646	8.445579099992756	go_reward	1.0	105.19052820000798	106.85847550001927	109.38124380004592	1.667947300011292	106.20297170005506	108.36094200005755	112.43066280003404	0.6555037999642082	1.0203017999883741	1.2054444999666885	111.43011980003212	0.5626602999982424	110.39955480000935	1	1	13	2	go_reward	1	1	0	1	0	0	0	0.0	1.0	0	1.0	0.5626602999982424	596.5125046999892	701.7030328999972	702.7154764000443	703.3709802000085	704.8734467000468	705.8937485000351	706.9120594999986	707.9426245000213	708.9431675000233	710.14861199999	2020-09-22 10:56:40.188450	-1.58852123823294	0.315976714531645	0.0	0.315976714531645	1.58852123823294	0.0	1.58852123823294	0.0	0.315976714531645	0.0	1.58852123823294	0.0	-5.216151149485837	0.4494217801320044	1.3657104061660152	-0.0611558882244993	0.7568410997959899	1.3657104061660152	0.3779777311880689	-1.546799821761916	3.6693513277239225	-0.6396833642578222	2.4548155505558444	1	correct	1.0
113.59827349998523	9.301214700040873	go_reward	1.0	113.67248110001674	116.25535880000098	118.79255100002047	2.5828776999842376	114.677317600057	117.77177790005226	121.83901680004783	1.578041199943982	1.0207730999682099	1.1346790000097826	120.8325319000287	0.7228936000028625	119.81123600003775	1	1	14	2	go_reward	1	1	0	1	0	0	0	1.0	0.0	0	1.0	0.7228936000028625	596.5125046999892	710.184985800006	711.1898223000462	712.7678634999902	714.2842826000415	715.3050557000097	716.323740700027	717.3450366000179	718.351521500037	719.4862005000468	2020-09-22 10:56:40.188450	-1.57710486594036	0.315976714531645	0.0	0.301839386789063	1.57710486594036	0.0	1.57710486594036	0.0	0.315976714531645	0.0	1.57710486594036	0.0	-5.204734777193257	0.4494217801320044	1.3657104061660152	-0.07529321596708127	0.7454247275034099	1.3657104061660152	0.3779777311880689	-1.546799821761916	3.657934955431343	-0.6396833642578222	2.4548155505558444	1	wrong	1.0
122.93814919999568	9.217079900030512	go_punish	0.6681556000257842	123.01235680002719	125.38495420000982	127.90837500005728	2.3725973999826238	124.02446070004953	126.91046250000363	130.9486291000503	1.3604934999602847	0.9979125000536442	1.2808076000073925	129.9401817000471	0.5046046000206843	128.9265880000312	1	1	15	4	go_punish	1	0	-1	1	1	1	0	0.0	1.0	0	0.6681556000257842	0.5046046000206843	596.5125046999892	719.5248615000164	720.5369654000388	721.897458899999	723.4229671999929	724.4208797000465	725.4390927000204	726.4526864000363	727.4611338000395	728.7419414000469	2020-09-22 10:56:40.188450	0.426984324803804	-0.326153584172463	0.0	-0.326153584172463	0.426984324803804	0.0	-0.426984324803804	-0.326153584172463	0.0	0.426984324803804	0.0	0.326153584172463	-3.200645586449093	-0.19270851857210358	1.3657104061660152	-0.7032861869286073	-0.404695813633146	1.3657104061660152	0.7041313153605319	-1.119815496958112	2.080830089490983	-0.9658369484302852	2.1388388360241994	1	correct	1.0
132.19112849998055	8.541032400040422	nogo_reward	0.372616900014691	132.26533610001206	133.7806490000221	136.32721980003407	1.5153129000100307	133.2809181000339	135.31395230005728	139.36523190001026	0.49973089998820797	1.0132674999767914	1.4411366000422277	138.36073530005524	0.521507500030566	137.33866570005193	1	1	16	1	nogo_reward	1	0	1	0	1	0	0	0.0	1.0	0	0.372616900014691	0.521507500030566	596.5125046999892	728.7778408000013	729.7934228000231	730.2931537000113	731.8264570000465	732.8397245000233	733.8511704000412	734.8732400000445	735.8777365999995	737.3188732000417	2020-09-22 10:56:40.188450	1.56296753819777	0.301839386789063	0.0	0.301839386789063	1.56296753819777	0.0	-1.56296753819777	0.301839386789063	0.0	1.56296753819777	0.0	-0.301839386789063	-2.064662373055127	0.4352844523894224	1.3657104061660152	-0.07529321596708127	0.7312873997608199	1.3657104061660152	0.07613834439900585	0.016167716435853796	2.080830089490983	-0.3378439774687592	2.1388388360241994	1	correct	1.0
140.77208710002014	8.362498099973891	nogo_punish	0.9461054999846964	140.84629470005166	142.26965900004143	144.81260470004054	1.423364299989771	141.84971300000325	143.78901080001378	147.8552098000073	0.4199460000381805	1.0235939000267535	1.3535830000182614	146.8407809000346	0.4778890999732539	145.82154880004236	1	1	17	3	nogo_punish	1	-1	0	0	1	0	0	0.0	1.0	-1	0.9461054999846964	0.4778890999732539	596.5125046999892	737.3587994000409	738.3622176999925	738.7821637000307	740.301515500003	741.3251094000298	742.3340535000316	743.3532856000238	744.3677144999965	745.7212975000148	2020-09-22 10:56:40.188450	0.485329846851943	-0.33939232822196	-0.326153584172463	-0.639804641850723	0.15917626267948	-0.326153584172463	-0.485329846851943	-0.33939232822196	-0.326153584172463	0.15917626267948	-0.326153584172463	-11.24300460826944	-3.142300064400954	-0.20594726262160062	1.0395568219935523	-1.0169372446068674	-0.67250387575747	1.0395568219935523	-10.86502687708137	-1.3876235590824362	1.7546765053185198	-0.9790756924797823	1.8126852518517365	1	correct	1.0
149.16968920000363	8.955847200006247	go_punish	0.7145423999754712	149.24389680003515	151.6925788000226	154.23667270003352	2.448681999987457	150.26074120000703	153.21681230003014	157.28343970002607	1.4318376000155695	1.019860400003381	0.9163043000153266	156.27649520005798	0.4698681999580003	155.2553184000426	1	1	18	4	go_punish	1	0	-1	1	1	1	0	1.0	0.0	0	0.7145423999754712	0.4698681999580003	596.5125046999892	745.7564015000244	746.7732458999963	748.2050835000118	749.7293170000194	750.7491774000227	751.7678231000318	752.7889999000472	753.7959444000153	754.7122487000306	2020-09-22 10:56:40.188450	0.449449735646501	-0.31365105767826	0.0	-0.31365105767826	0.449449735646501	0.0	-0.449449735646501	-0.31365105767826	0.0	0.449449735646501	0.0	0.31365105767826	-3.178180175606396	-0.1802059920779006	1.3657104061660152	-0.6907836604344043	-0.382230402790449	1.3657104061660152	0.6916287888663288	-1.097350086115415	2.080830089490983	-0.9533344219360822	2.1388388360241994	1	wrong	1.0
158.16599299997324	9.533725800050888	nogo_punish	0.27823769999668	158.24020060000475	160.6729265000322	163.23066700005438	2.4327259000274353	159.25093510001898	162.2058313000016	166.28971020004246	1.4219914000132121	1.0248357000527903	1.4842162000131793	165.27517520001857	0.4992400999763049	164.24475340003846	1	1	19	3	nogo_punish	1	-1	0	0	1	0	1	1.0	1.0	-1	0.27823769999668	0.4992400999763049	596.5125046999892	754.752705299994	755.7634398000082	757.1854312000214	758.7183359999908	759.7431717000436	760.7572581000277	761.7876799000078	762.8022149000317	764.2864311000449	2020-09-22 10:56:40.188450	-0.0965088506134338	-0.665545912394423	-0.326153584172463	-0.954864664870357	-0.422662434785896	-0.326153584172463	0.0965088506134338	-0.665545912394423	-0.326153584172463	-0.422662434785896	-0.326153584172463	-10.916851024096976	-3.724138761866331	-0.5321008467940636	1.0395568219935523	-1.3319972676265013	-1.254342573222846	1.0395568219935523	-10.538873292908907	-1.9694622565478122	1.7546765053185198	-1.3052292766522453	1.8126852518517365	1	correct	1.0
167.73781489999965	9.586775199975818	go_reward	1.0	167.81202250003116	170.5782259000116	173.10858420003206	2.7662033999804407	168.8200147000025	172.08948920003604	176.15532270004041	1.7582112000091001	1.019094999996014	1.2434749999665655	175.14104300003964	0.3333023999584839	174.1268090000376	1	1	20	2	go_reward	1	1	0	1	0	0	0	0.0	1.0	0	1.0	0.3333023999584839	596.5125046999892	764.3245272000204	765.3325193999917	767.0907306000008	768.6019939000253	769.6210889000213	770.6393137000268	771.6535477000289	772.6678274000296	773.9113023999962	2020-09-22 10:56:40.188450	-1.56650304598566	0.315976714531645	0.0	0.288695287408991	1.56650304598566	0.0	1.56650304598566	0.0	0.315976714531645	0.0	1.56650304598566	0.0	-5.194132957238557	0.4494217801320044	1.3657104061660152	-0.08843731534715332	0.7348229075487099	1.3657104061660152	0.3779777311880689	-1.546799821761916	3.647333135476643	-0.6396833642578222	2.4548155505558444	1	correct	1.0
177.36107410001568	8.499260599957779	go_punish	1.0	177.4352817000472	178.99886620003963	181.5345607000054	1.5635844999924302	178.4522720000241	180.5133997000521	184.58179700002074	0.5465942000155337	1.0211609999532811	1.3527452999842353	183.56202540005324	0.9516752999625168	182.53748720005387	1	1	21	4	go_punish	1	0	-1	1	0	0	0	0.0	1.0	-1	1.0	0.9516752999625168	596.5125046999892	773.9477864000364	774.9647767000133	775.5113709000289	777.0259044000413	778.0470653999946	779.0499919000431	780.0745301000425	781.09430170001	782.4470469999942	2020-09-22 10:56:40.188450	-0.47070944125467	-0.301821278970137	0.0	-0.301821278970137	0.47070944125467	0.0	0.47070944125467	0.0	-0.301821278970137	0.0	0.47070944125467	-11.5823969364914	-4.098339352507567	-0.1683762133697776	1.3657104061660152	-0.6789538817262812	-0.36097069718228	1.3657104061660152	-11.20441920530333	-1.546799821761916	2.5515395307456528	-0.6396833642578222	1.8370175570540623	1	correct	1.0
185.89853020000737	8.607657500018831	go_reward	1.0	185.97273780003889	187.95448690000921	190.49453100003302	1.9817490999703296	186.9707313000108	189.47289500001352	193.53945740003837	0.9837555999984033	1.0216360000194982	1.040937900019344	192.5344008000102	0.946906300028786	191.51218850002624	1	1	22	2	go_reward	1	1	0	1	0	0	1	1.0	1.0	0	1.0	0.946906300028786	596.5125046999892	782.4852425000281	783.483236	784.4669915999984	785.9853997000027	787.0070357000222	788.0246932000155	789.0469054999994	790.0519621000276	791.0929000000469	2020-09-22 10:56:40.188450	-1.5566250382629	0.315976714531645	0.0	0.276433081815169	1.5566250382629	0.0	1.5566250382629	0.0	0.315976714531645	0.0	1.5566250382629	0.0	-5.184254949515797	0.4494217801320044	1.3657104061660152	-0.10069952094097528	0.7249448998259501	1.3657104061660152	0.3779777311880689	-1.546799821761916	3.637455127753883	-0.6396833642578222	2.4548155505558444	1	correct	1.0
194.54388209996978	9.719143600028474	go_punish	1.0	194.6180897000013	197.3713124000351	199.90721720003057	2.7532227000338025	195.63343180000084	198.88404890004313	202.95152000000235	1.7378806000342593	1.0231682999874465	1.3857133000274189	201.93154950003373	1.0	200.9209904000163	1	1	23	4	go_punish	1	0	-1	1	0	0	1	n/a	0.0	-1	1.0	1.0	596.5125046999892	791.1305943999905	792.1459364999901	793.8838171000243	795.3965536000323	796.4197219000198	797.4334951000055	798.444054200023	799.4640246999916	800.849738000019	2020-09-22 10:56:40.188450	-0.543964306301093	-0.301821278970137	-0.33939232822196	-0.630001459335448	0.204571978079133	-0.33939232822196	0.543964306301093	-0.33939232822196	-0.301821278970137	-0.33939232822196	0.204571978079133	-11.24300460826944	-4.17159421755399	-0.1683762133697776	1.0263180779440553	-1.0071340620915923	-0.627108160357817	1.0263180779440553	-10.86502687708137	-1.886192149983876	2.2854020675701157	-0.9790756924797823	1.8370175570540623	1	missed	0.0
204.29880140000023	8.497725200024433	go_reward	1.0	204.37300900003174	206.41154710005503	208.9331521000131	2.0385381000232883	205.38039220002247	207.9189540000516	211.97033320000628	1.0311549000325613	1.0141980999615043	0.9004010000498965	210.9690848000464	0.5686568000237457	209.9421581000206	1	1	24	2	go_reward	1	1	0	1	0	0	1	0.0	0.0	0	1.0	0.5686568000237457	596.5125046999892	800.885513700021	801.8928969000117	802.9240518000443	804.4314587000408	805.4456568000023	806.4546628000098	807.4815895000356	808.4828378999955	809.3832389000454	2020-09-22 10:56:40.188450	-1.54739375709293	0.315976714531645	0.0	0.264958931412579	1.54739375709293	0.0	1.54739375709293	0.0	0.315976714531645	0.0	1.54739375709293	0.0	-5.175023668345827	0.4494217801320044	1.3657104061660152	-0.11217367134356532	0.7157136186559799	1.3657104061660152	0.3779777311880689	-1.546799821761916	3.6282238465839125	-0.6396833642578222	2.4548155505558444	1	wrong	1.0
212.83649890002562	8.974523699958809	go_reward	1.0	212.91070650005713	215.40073410002515	217.92859680001857	2.490027599968016	213.92311930004507	216.90795650001382	220.99091790005332	1.4776147999800742	1.020640300004743	0.8943122999626212	219.97548140003346	0.2580842999741435	218.9468910000287	1	1	25	2	go_reward	1	1	0	1	0	0	0	1.0	0.0	0	1.0	0.2580842999741435	596.5125046999892	809.4232112000464	810.4356240000343	811.9132388000144	813.420461200003	814.4411015000078	815.4593957000179	816.4879861000227	817.5034226000425	818.3977349000052	2020-09-22 10:56:40.188450	-1.53874331842477	0.315976714531645	0.0	0.254193137527071	1.53874331842477	0.0	1.53874331842477	0.0	0.315976714531645	0.0	1.53874331842477	0.0	-5.166373229677667	0.4494217801320044	1.3657104061660152	-0.12293946522907329	0.7070631799878201	1.3657104061660152	0.3779777311880689	-1.546799821761916	3.6195734079157527	-0.6396833642578222	2.4548155505558444	1	wrong	1.0
221.84950309997657	8.049708700040355	go_punish	1.0	221.9237107000081	223.39488580002217	225.92208910000045	1.4711751000140794	222.92781000002287	224.91297570004826	228.96369870001217	0.46707579999929294	1.0091133999521844	1.0097207000362687	227.9466561000445	1.0	226.9380506000016	1	1	26	4	go_punish	1	0	-1	1	0	0	0	n/a	0.0	-1	1.0	1.0	596.5125046999892	818.4362153999973	819.4403147000121	819.9073905000114	821.4254804000375	822.4345937999897	823.4505552999908	824.4591608000337	825.4762034000014	826.4859241000377	2020-09-22 10:56:40.188450	-0.614074866280367	-0.301821278970137	-0.665545912394423	-0.945512287220067	-0.0514710461140562	-0.665545912394423	0.614074866280367	-0.665545912394423	-0.301821278970137	-0.665545912394423	-0.0514710461140562	-10.916851024096976	-4.241704777533264	-0.1683762133697776	0.7001644937715923	-1.3226448899762113	-0.8831511845510062	0.7001644937715923	-10.538873292908907	-2.2123457341563393	2.0293590433769264	-1.3052292766522453	1.8370175570540623	1	missed	0.0
229.93562040000688	9.31293449999066	go_punish	1.0	230.0098280000384	232.44599230005406	234.97340280003846	2.436164300015662	231.02530280000065	233.949261700036	238.03188850003062	1.4206895000534132	1.0241411000024527	1.290873999998439	237.01799250004115	0.5858863000175916	235.98819340002956	1	1	27	4	go_punish	1	0	-1	1	0	0	0	1.0	0.0	-1	1.0	0.5858863000175916	596.5125046999892	826.5223327000276	827.5378074999899	828.9584970000433	830.4617664000252	831.4859075000277	832.5006981000188	833.5304972000304	834.5443932000198	835.8352672000183	2020-09-22 10:56:40.188450	-0.681228237760662	-0.301821278970137	-0.979196970072683	-1.24904745195838	-0.297968732312022	-0.979196970072683	0.681228237760662	-0.979196970072683	-0.301821278970137	-0.979196970072683	-0.297968732312022	-10.603199966418716	-4.308858149013559	-0.1683762133697776	0.3865134360933322	-1.6261800547145244	-1.129648870748972	0.3865134360933322	-10.225222235230646	-2.525996791834599	1.7828613571789609	-1.6188803343305054	1.8370175570540623	1	wrong	1.0
239.28343900002073	8.391976499988232	go_punish	1.0	239.35764660005225	240.81094110000413	243.33844240003964	1.4532944999518804	240.37498490000144	242.31495010002982	246.40649830002803	0.43595620000269264	1.0234923000098206	1.343124800012447	245.38141810003435	0.5287023999844678	244.35328210005537	1	1	28	4	go_punish	1	0	-1	1	0	0	1	0.0	0.0	-1	1.0	0.5287023999844678	596.5125046999892	835.8701513000415	836.8874895999907	837.3234457999934	838.827454800019	839.8509471000289	840.8657868000446	841.8939228000236	842.9190030000173	844.2621278000297	2020-09-22 10:56:40.188450	-0.745594198530764	-0.301821278970137	-1.28101824904282	-1.54124195514762	-0.535424050512056	-1.28101824904282	0.745594198530764	-1.28101824904282	-0.301821278970137	-1.28101824904282	-0.535424050512056	-10.30137868744858	-4.373224109783661	-0.1683762133697776	0.08469215712319533	-1.9183745579037643	-1.367104188949006	0.08469215712319533	-9.92340095626051	-2.827818070804736	1.5454060389789268	-1.920701613300642	1.8370175570540623	1	wrong	1.0
247.71487540000817	8.724861399969086	nogo_punish	0.2648697000113316	247.78908300003968	249.59240600001067	252.1310309000546	1.8033229999709874	248.80234900000505	251.11482160002925	255.19701300002635	0.7900570000056177	1.0162093000253662	1.3169313999824226	254.1832147000241	0.4777725000167265	253.15514910005732	1	1	29	3	nogo_punish	0	0	-1	0	1	0	0	0.0	1.0	0	0.2648697000113316	0.4777725000167265	596.5125046999892	844.3015877000289	845.3148536999943	846.1049106999999	847.6273263000185	848.6435356000438	849.6676538000465	850.6957194000133	851.7095177000156	853.026449099998	2020-09-22 10:56:40.188450	-0.656321722449052	-0.979196970072683	-0.326153584172463	-1.25797632247805	-0.982475306621515	-0.326153584172463	0.656321722449052	-0.979196970072683	-0.326153584172463	-0.982475306621515	-0.326153584172463	0.979196970072683	-4.283951633701949	-0.8457519044723236	1.0395568219935523	-1.6351089252341944	-1.8141554450584652	1.0395568219935523	1.3571747012607518	-2.529275128383431	1.7546765053185198	-1.6188803343305054	1.8126852518517365	1	correct	1.0
256.4772941999836	8.083756300038658	go_punish	0.4158795000403188	256.5515018000151	257.8270870000124	260.3763048000401	1.2755851999972947	257.5570450000232	259.3553780000075	263.4224902000278	0.2700419999891892	1.020926800032612	1.2127679000259377	262.41712550004013	0.990143299975898	261.3938495000475	1	1	30	4	go_punish	1	0	-1	1	1	1	1	1.0	1.0	0	0.4158795000403188	0.990143299975898	596.5125046999892	853.0640065000043	854.0695497000124	854.3395917000016	855.8678826999967	856.8888095000293	857.9063542000367	858.9296302000294	859.934994900017	861.147762800043	2020-09-22 10:56:40.188450	0.807327716935109	-0.301821278970137	-1.57162738015631	-1.82267971828677	-0.764299663221199	-1.57162738015631	-0.807327716935109	-0.301821278970137	-1.57162738015631	-0.764299663221199	-1.57162738015631	0.301821278970137	-2.820302194317788	-0.1683762133697776	-0.20591697399029485	-2.199812321042914	-1.595979801658149	-0.20591697399029485	0.6797990101582059	-2.311099484983115	0.5092027093346727	-0.9415046432279592	0.5672114558678893	1	correct	1.0
264.5992342000245	8.3735862999456	go_reward	0.6333233999903314	264.673441800056	266.0136871000286	268.5686478000134	1.3402452999725938	265.68702740001027	267.5482960000518	271.6320170000545	0.32665970001835376	1.0203517999616452	1.4150110999471508	270.61714490002487	0.2918356999871321	269.5871691000066	1	1	31	2	go_reward	0	0	1	1	1	1	0	0.0	1.0	0	0.6333233999903314	0.2918356999871321	596.5125046999892	861.1859465000452	862.1995320999995	862.5261918000178	864.060800700041	865.0811525000026	866.0996737999958	867.1296496000141	868.1445217000437	869.5595327999908	2020-09-22 10:56:40.188450	1.53061708077208	0.315976714531645	0.0	0.244067510459545	1.53061708077208	0.0	-1.53061708077208	0.315976714531645	0.0	1.53061708077208	0.0	-0.315976714531645	-2.097012830480817	0.4494217801320044	1.3657104061660152	-0.1330650922965993	0.69893694233513	1.3657104061660152	0.06200101665642388	-0.016182740989836075	2.080830089490983	-0.32370664972617724	2.1388388360241994	1	correct	1.0
273.01415820000693	9.292348499991931	go_reward	1.0	273.08836580003845	275.4200826000306	277.9483652000199	2.3317167999921367	274.0917172000045	276.9291894000489	280.9947781000519	1.3283654000260867	1.0191757999709807	1.3859361999784596	279.9817311000079	0.2693788000033237	278.9626127000083	1	1	32	2	go_reward	1	1	0	1	0	0	0	0.0	1.0	0	1.0	0.2693788000033237	596.5125046999892	869.6008705000277	870.6042218999937	871.9325873000198	873.4416941000381	874.4608699000091	875.4751173999975	876.4942357999971	877.5072828000411	878.8932190000196	2020-09-22 10:56:40.188450	-1.50882874425338	0.301839386789063	0.0	0.234523294517012	1.50882874425338	0.0	1.50882874425338	0.0	0.301839386789063	0.0	1.50882874425338	0.0	-5.136458655506277	0.4352844523894224	1.3657104061660152	-0.1426093082391323	0.6771486058164301	1.3657104061660152	0.3779777311880689	-1.546799821761916	3.589658833744363	-0.6396833642578222	2.4406782228132626	1	correct	1.0
282.34840570000233	8.430465699988417	nogo_punish	0.4394362000166438	282.42261330003385	284.21152000001166	286.76946360000875	1.7889066999778152	283.4320305000292	285.74720690003596	289.8280220000306	0.7794894999824464	1.022256699972786	1.025056999991648	288.8138161000097	0.5775053999968804	287.78436860005604	1	1	33	3	nogo_punish	1	-1	0	0	1	0	0	0.0	1.0	-1	0.4394362000166438	0.5775053999968804	596.5125046999892	878.9351180000231	879.9445352000184	880.7240247000009	882.2597116000252	883.281968299998	884.2968733000453	885.3263207999989	886.3405267000198	887.3655837000115	2020-09-22 10:56:40.188450	-0.580812427134551	-0.94162592082086	-0.326153584172463	-1.21038014778985	-0.906966011307013	-0.326153584172463	0.580812427134551	-0.94162592082086	-0.326153584172463	-0.906966011307013	-0.326153584172463	-10.64077101567054	-4.208442338387448	-0.8081808552205006	1.0395568219935523	-1.5875127505459943	-1.7386461497439631	1.0395568219935523	-10.26279328448247	-2.453765833068929	1.7546765053185198	-1.5813092850786823	1.8126852518517365	1	correct	1.0
290.81651759997476	8.46732900000643	nogo_punish	1.0	290.8907252000063	292.40473480004584	294.9427568000392	1.5140096000395715	291.90485400002217	293.9221537000267	298.0036069000489	0.49988080002367496	1.0206031000125222	1.3544472999637946	296.9912124000257	0.360860800021328	295.96116060001077	1	1	34	3	nogo_punish	1	-1	0	0	0	1	0	0.0	1.0	0	1.0	0.360860800021328	596.5125046999892	887.4032298999955	888.4173587000114	888.9172395000351	890.4346584000159	891.4552615000284	892.4736653	893.5037171000149	894.5161116000381	895.8705589000019	2020-09-22 10:56:40.188450	1.12378460548346	-1.24547379598385	-0.326153584172463	-1.5046815215817	-1.44993818965592	-0.326153584172463	-1.12378460548346	-0.326153584172463	-1.24547379598385	-0.326153584172463	-1.44993818965592	0.326153584172463	-2.503845305769437	-1.1120287303834906	1.0395568219935523	-1.8818141243378443	-2.28161832809287	1.0395568219935523	0.7041313153605319	-1.872953405934379	0.6308918998350628	-0.9658369484302852	0.8933650400403494	1	correct	1.0
299.32174779998604	7.9346211000228095	go_reward	1.0	299.39595540001756	300.75210490002064	303.2795370000531	1.3561495000030845	300.41000810003607	302.25455890002195	306.32554280001193	0.3420967999845743	1.0249781000311486	1.0050337000284344	305.32289890001994	0.609002800018061	304.29298650001874	1	1	35	2	go_reward	0	0	1	1	0	0	0	0.0	1.0	1	1.0	0.609002800018061	596.5125046999892	895.9084601000068	896.9225128000253	897.2646096000099	898.7670636000112	899.7920417000423	900.805491200008	901.8354036000092	902.8380475000012	903.8430812000296	2020-09-22 10:56:40.188450	-1.50161039137559	0.301839386789063	0.0	0.225509521409256	1.50161039137559	0.0	1.50161039137559	0.0	0.301839386789063	0.0	1.50161039137559	9.9867276958069	-5.129240302628487	0.4352844523894224	1.3657104061660152	-0.1516230813468883	0.6699302529386401	1.3657104061660152	10.36470542699497	-1.546799821761916	3.582440480866573	-0.6396833642578222	2.4406782228132626	1	correct	1.0
307.29261539998686	9.234395400039034	go_punish	0.344082800031174	307.36682300001837	310.1319059000234	312.67224430001795	2.7650829000050408	308.37804170005256	311.66581680002855	315.73238300002413	1.7538641999708489	1.0064274999893996	0.8688354000332765	314.7180134000372	0.5597997999866493	313.69015980005497	1	1	36	4	go_punish	1	0	-1	1	1	1	0	0.0	1.0	0	0.344082800031174	0.5597997999866493	596.5125046999892	903.8793277000076	904.8905464000418	906.6444106000126	908.1783215000178	909.1847490000072	910.2026645000442	911.2305181000264	912.2448877000134	913.1137231000466	2020-09-22 10:56:40.188450	0.872894678947026	-0.290609131113488	-1.57162738015631	-1.75450753005604	-0.698732701209282	-1.57162738015631	-0.872894678947026	-0.290609131113488	-1.57162738015631	-0.698732701209282	-1.57162738015631	0.290609131113488	-2.7547352323058707	-0.15716406551312861	-0.20591697399029485	-2.1316401328121843	-1.530412839646232	-0.20591697399029485	0.668586862301557	-2.245532522971198	0.5092027093346727	-0.9302924953713103	0.5672114558678893	1	correct	1.0
316.56475179997506	8.170015700045042	go_punish	0.462916899996344	316.63895940000657	317.9879403000232	320.5338124000118	1.3489809000166133	317.6371202000299	319.51301250001416	323.5979714000132	0.3508200999932569	1.0207998999976553	1.2110037000384182	322.5819026000099	0.4260882000089623	321.55278500000713	1	1	37	4	go_punish	1	0	-1	1	1	1	0	0.0	1.0	0	0.462916899996344	0.4260882000089623	596.5125046999892	913.1514640999958	914.1496249000191	914.5004450000124	916.0255172000034	917.046317100001	918.0652896999964	919.0944072999991	920.1104761000024	921.3214798000408	2020-09-22 10:56:40.188450	0.935103219446184	-0.279966374825644	-1.57162738015631	-1.6898559958976	-0.636524160710124	-1.57162738015631	-0.935103219446184	-0.279966374825644	-1.57162738015631	-0.636524160710124	-1.57162738015631	0.279966374825644	-2.692526691806713	-0.1465213092252846	-0.20591697399029485	-2.066988598653744	-1.4682042991470738	-0.20591697399029485	0.6579441060137129	-2.1833239824720403	0.5092027093346727	-0.9196497390834663	0.5672114558678893	1	correct	1.0
324.77475240000047	8.073346999997852	nogo_reward	0.7760815999936312	324.848960000032	326.54682990000583	329.0998182000476	1.6978698999738526	325.8601807000232	328.0807646000176	332.15619910002	0.6866491999826394	1.0190536000300199	0.7661079000098425	331.1468867000076	0.4283536999719217	330.1174910000408	1	1	38	1	nogo_reward	1	0	1	0	1	0	0	0.0	1.0	0	0.7760815999936312	0.4283536999719217	596.5125046999892	921.3614647000212	922.3726854000124	923.059334599995	924.5932693000068	925.6123229000368	926.62999570003	927.6593913999968	928.6687038000092	929.434811700019	2020-09-22 10:56:40.188450	1.53922161886301	0.288695287408991	0.0	0.288695287408991	1.53922161886301	0.0	-1.53922161886301	0.288695287408991	0.0	1.53922161886301	0.0	-0.288695287408991	-2.088408292389887	0.4221403530093504	1.3657104061660152	-0.08843731534715332	0.7075414804260599	1.3657104061660152	0.0892824437790779	-0.007578202898906206	2.080830089490983	-0.35098807684883127	2.1388388360241994	1	correct	1.0
332.88665629999	8.607339199981652	go_reward	0.2827042000135407	332.96086390002154	334.78423950000433	337.322231500002	1.8233755999827963	333.9732526000008	336.3119954000575	340.372373900027	0.8109869000035133	1.01023609994445	1.195829199976174	339.3558957000496	0.5049350999761373	338.3420111000304	1	1	39	2	go_reward	1	1	0	1	1	1	0	0.0	1.0	1	0.2827042000135407	0.5049350999761373	596.5125046999892	929.4733686000108	930.48575729999	931.2967441999936	932.8245001000467	933.8347361999912	934.8545158000196	935.8684004000388	936.8848786000162	938.0807077999924	2020-09-22 10:56:40.188450	1.43368518735068	0.301839386789063	0.315976714531645	0.532958409904711	1.74966190188233	0.315976714531645	-1.43368518735068	0.301839386789063	0.315976714531645	1.74966190188233	0.315976714531645	9.684888309017838	-2.193944723902217	0.4352844523894224	1.6816871206976602	0.1558258071485667	0.9179817634453801	1.6816871206976602	10.062866040205908	0.20286208012041396	2.396806804022628	-0.3378439774687592	2.4548155505558444	1	correct	1.0
341.5370275999885	9.40028090000851	go_reward	0.8035501000122167	341.61123520002	344.1523857000284	346.70980360003875	2.5411505000083707	342.6199081000524	345.68483710003795	349.7673461000086	1.532477599976005	1.0249665000008008	1.244170000019949	348.7535505000268	0.4701500000082887	347.7237132000156	1	1	40	2	go_reward	1	1	0	1	1	1	0	0.0	1.0	1	0.8035501000122167	0.4701500000082887	596.5125046999892	938.1237399000092	939.1324128000416	940.6648904000176	942.1973418000272	943.222308300028	944.2362179000048	945.266055200016	946.2798507999978	947.5240208000178	2020-09-22 10:56:40.188450	1.97351571390354	0.604672001940636	0.315976714531645	0.826716837871401	2.28949242843518	0.315976714531645	-1.97351571390354	0.604672001940636	0.315976714531645	2.28949242843518	0.315976714531645	9.382055693866263	-1.654114197349357	0.7381170675409954	1.6816871206976602	0.44958423511525675	1.45781228999823	1.6816871206976602	9.760033425054333	0.7426926066732638	2.396806804022628	-0.03501136231718627	2.4548155505558444	1	correct	1.0
350.97204760002205	8.830339699983597	nogo_reward	0.4447326000081375	351.04625520005357	352.8902455000208	355.4299253000064	1.8439902999672313	352.0563557000132	354.40847750002274	358.4874811000192	0.8338898000075687	1.0214477999836618	1.3891138000179808	357.4714579000138	0.3218392999842763	356.44204230001196	1	1	41	1	nogo_reward	1	0	1	0	1	0	0	0.0	1.0	0	0.4447326000081375	0.3218392999842763	596.5125046999892	947.5587599000428	948.5688604000024	949.40275020001	950.920982200012	951.9424299999956	952.9545470000012	953.983962600003	954.9999858000084	956.3890996000264	2020-09-22 10:56:40.188450	1.51708140554643	0.276433081815169	0.0	0.276433081815169	1.51708140554643	0.0	-1.51708140554643	0.276433081815169	0.0	1.51708140554643	0.0	-0.276433081815169	-2.110548505706467	0.4098781474155284	1.3657104061660152	-0.10069952094097528	0.6854012671094799	1.3657104061660152	0.10154464937289986	-0.02971841621548621	2.080830089490983	-0.3632502824426532	2.1388388360241994	1	correct	1.0
359.84268160001363	8.981640000012817	nogo_reward	0.8034354000119492	359.91688920004515	362.14442330005113	364.6699213000247	2.2275341000059825	360.9287481000064	363.67143790004775	367.7006849000463	1.2156752000447568	0.9984833999769762	1.1978443000116386	366.7003375000204	0.132583099999465	365.6871766000404	1	1	42	1	nogo_reward	1	0	1	0	1	0	0	1.0	0.0	0	0.8034354000119492	0.132583099999465	596.5125046999892	956.4293939000344	957.4412527999956	958.6569280000404	960.183942600037	961.182426000014	962.1996813000296	963.2128422000096	964.2131896000355	965.4110339000472	2020-09-22 10:56:40.188450	1.49637597397387	0.264958931412579	0.0	0.264958931412579	1.49637597397387	0.0	-1.49637597397387	0.264958931412579	0.0	1.49637597397387	0.0	-0.264958931412579	-2.131253937279027	0.3984039970129384	1.3657104061660152	-0.11217367134356532	0.66469583553692	1.3657104061660152	0.1130187997754899	-0.050423847788046094	2.080830089490983	-0.37472443284524326	2.1388388360241994	1	wrong	1.0
368.86564789997647	8.039753600023573	nogo_punish	0.5743186000036076	368.939855500008	370.27651960001094	372.82900220004376	1.336664100002963	369.9504027000512	371.8096656000124	375.8763278000406	0.326116899959743	1.0193366000313517	1.1032812999909538	374.863020400051	0.701564299990423	373.8422598000034	1	1	43	3	nogo_punish	1	-1	0	0	1	0	0	0.0	1.0	-1	0.5743186000036076	0.701564299990423	596.5125046999892	965.4523601999972	966.4629074000404	966.7890243000002	968.3221703000016	969.341506900033	970.3547644999926	971.3755251000402	972.3888325000298	973.4921138000208	2020-09-22 10:56:40.188450	-1.09161531674196	-1.24547379598385	-0.31365105767826	-1.44865818224659	-1.40526637442022	-0.31365105767826	1.09161531674196	-1.24547379598385	-0.31365105767826	-1.40526637442022	-0.31365105767826	-10.33692314050755	-4.719245227994857	-1.1120287303834906	1.0520593484877552	-1.8257907850027344	-2.23694651285717	1.0520593484877552	-9.95894540931948	-2.952066196182136	1.7671790318127227	-1.8851571602416723	1.8251877783459394	1	correct	1.0
376.94228529999964	8.422687300015241	go_punish	0.3621312000323087	377.01649290003115	378.593727200001	381.14871810004115	1.5772342999698594	378.0343237000052	380.1269368000212	384.19292250002036	0.559403499995824	1.0217813000199385	1.2462577000260353	383.1800577000248	0.5466347999754362	382.159356500022	1	1	44	4	go_punish	1	0	-1	1	1	1	0	0.0	1.0	0	0.3621312000323087	0.5466347999754362	596.5125046999892	973.5289976000204	974.5468283999944	975.1062318999902	976.6394415000104	977.6612228000304	978.6718612000112	979.692562400014	980.7054272000096	981.9516849000356	2020-09-22 10:56:40.188450	0.994210851831398	-0.269850481885696	-1.57162738015631	-1.62845322768365	-0.57741652832491	-1.57162738015631	-0.994210851831398	-0.269850481885696	-1.57162738015631	-0.57741652832491	-1.57162738015631	0.269850481885696	-2.633419059421499	-0.1364054162853366	-0.20591697399029485	-2.005585830439794	-1.4090966667618599	-0.20591697399029485	0.6478282130737649	-2.124216350086826	0.5092027093346727	-0.9095338461435183	0.5672114558678893	1	correct	1.0
385.4027716999989	7.960191300022416	nogo_reward	0.3432574000325985	385.4769793000304	387.0514330000152	389.60669030004635	1.574453699984815	386.49097270000493	388.5936758000172	392.6687198000144	0.560460300010277	1.0130145000291577	0.7684508000384085	391.6547694000184	0.4011251999763772	390.62568580004154	1	1	45	1	nogo_reward	1	0	1	0	1	0	0	0.0	1.0	0	0.3432574000325985	0.4011251999763772	596.5125046999892	981.9894840000196	983.0034773999942	983.5639377000044	985.1061805000064	986.1191950000356	987.1381905000308	988.1672741000076	989.1812245000036	989.949675300042	2020-09-22 10:56:40.188450	1.47695974142019	0.254193137527071	0.0	0.254193137527071	1.47695974142019	0.0	-1.47695974142019	0.254193137527071	0.0	1.47695974142019	0.0	-0.254193137527071	-2.150670169832707	0.3876382031274304	1.3657104061660152	-0.12293946522907329	0.64527960298324	1.3657104061660152	0.12378459366099787	-0.06984008034172606	2.080830089490983	-0.38549022673075123	2.1388388360241994	1	correct	1.0
393.40382459998364	8.642789400008041	nogo_punish	1.0	393.47803220001515	395.1349385000068	397.6797312000416	1.6569062999916468	394.48062650003715	396.65298160002556	400.7201146000298	0.6543119999696501	1.0267496000160463	1.4007069999934174	399.7149229000206	0.8455832000472583	398.69221650005795	1	1	46	3	nogo_punish	0	0	-1	0	0	1	0	0.0	1.0	-1	1.0	0.8455832000472583	596.5125046999892	989.9905369000044	990.9931312000264	991.647443199996	993.1654863000148	994.1922359000308	995.2047212000472	996.2274276000098	997.232619300019	998.6333263000124	2020-09-22 10:56:40.188450	1.61676222858425	-1.53794269730369	-0.31365105767826	-1.73489493607462	-1.93041328626251	-0.31365105767826	-1.61676222858425	-0.31365105767826	-1.53794269730369	-0.31365105767826	-1.93041328626251	-11.268745878813139	-2.010867682668647	-1.4044976317033306	1.0520593484877552	-2.1120275388307643	-2.76209342469946	1.0520593484877552	-10.890768147625069	-1.8604508794401762	0.15041680322847273	-0.9533344219360822	0.6008961387205094	1	correct	1.0
402.0833312000033	8.59297509997839	nogo_reward	0.261302999977488	402.1575388000348	403.7174364000092	406.25764370005356	1.5598975999744198	403.15627680002956	405.2453652000404	409.288310700038	0.5611595999796464	1.012278500013167	1.4622031999751925	408.2813659000094	0.2813950999989174	407.25852490001114	1	1	47	1	nogo_reward	1	0	1	0	1	0	1	1.0	1.0	0	0.261302999977488	0.2813950999989174	596.5125046999892	998.670043500024	999.6687815000188	1000.2299410999984	1001.7578699000296	1002.7701484000428	1003.7710296000004	1004.7938705999986	1005.8008154000272	1007.2630186000024	2020-09-22 10:56:40.188450	1.45870787669998	0.244067510459545	0.0	0.244067510459545	1.45870787669998	0.0	-1.45870787669998	0.244067510459545	0.0	1.45870787669998	0.0	-0.244067510459545	-2.168922034552917	0.3775125760599044	1.3657104061660152	-0.1330650922965993	0.6270277382630299	1.3657104061660152	0.13391022072852388	-0.08809194506193618	2.080830089490983	-0.39561585379827724	2.1388388360241994	1	correct	1.0
410.71408240002347	7.840406999981383	go_reward	1.0	410.788290000055	412.15984410000954	414.6707557000336	1.371554099954551	411.80258800002036	413.6505899000332	417.7074098000304	0.35725609998917207	1.0201658000004272	0.9212872000059633	416.7072181000258	0.7148727000458166	415.68559040001117	1	1	48	2	go_reward	0	0	1	1	0	0	0	0.0	1.0	1	1.0	0.7148727000458166	596.5125046999892	1007.3007947000442	1008.3150927000096	1008.6723487999988	1010.1630946000224	1011.1832604000228	1012.1980951000004	1013.219722800015	1014.2199145000196	1015.1412017000256	2020-09-22 10:56:40.188450	-2.48982291881637	0.894249183135877	0.315976714531645	1.10774351525464	2.80579963334802	0.315976714531645	2.48982291881637	0.315976714531645	0.894249183135877	0.315976714531645	2.80579963334802	9.670750981275255	-6.117452830069267	1.0276942487362364	1.6816871206976602	0.7306109124984956	1.9741194949110703	1.6816871206976602	10.048728712463324	-1.230823107230271	4.886629722839003	-0.32370664972617724	3.0330880191600764	1	correct	1.0
418.59596100001363	8.053529699973183	nogo_punish	1.0	418.67016860004514	420.3520398000255	422.87756440002715	1.6818711999803782	419.6807952000528	421.8548792000512	425.92268390004756	0.6712445999727379	1.0226851999759674	0.801014399970768	424.91513220005436	0.9115547999972478	423.89422530005675	1	1	49	3	nogo_punish	1	-1	0	0	0	1	0	1.0	0.0	0	1.0	0.9115547999972478	596.5125046999892	1015.1826733000344	1016.193299900042	1016.8645445000147	1018.3673839000404	1019.3900691000164	1020.406730000046	1021.4276369000436	1022.4351886000368	1023.2362030000075	2020-09-22 10:56:40.188450	1.51343118619443	-1.53794269730369	-0.641213607192097	-2.01054248950241	-2.15464479338653	-0.641213607192097	-1.51343118619443	-0.641213607192097	-1.53794269730369	-0.641213607192097	-2.15464479338653	0.641213607192097	-2.1141987250584666	-1.4044976317033306	0.7244967989739183	-2.3876750922585543	-2.98632493182348	0.7244967989739183	1.0191913383801658	-2.188013428954013	-0.07381470389554723	-1.2808969714499192	0.6008961387205094	1	wrong	1.0
426.6862237000023	8.926207799988333	nogo_reward	0.3874396000173874	426.7604313000338	428.65323490003357	431.2090071000275	1.892803599999752	427.75820430001477	430.1872772000497	434.27286530000856	0.8950306000187993	1.0217298999777995	1.4137738000135869	433.2571072000428	0.494796100014355	432.227001900028	1	1	50	1	nogo_reward	1	0	1	0	1	0	0	0.0	1.0	0	0.3874396000173874	0.494796100014355	596.5125046999892	1023.272936000023	1024.270709000004	1025.1657396000228	1026.699781900039	1027.7215118000167	1028.7395066000172	1029.769611900032	1030.7853699999978	1032.1991438000114	2020-09-22 10:56:40.188450	1.44151265198133	0.234523294517012	0.0	0.234523294517012	1.44151265198133	0.0	-1.44151265198133	0.234523294517012	0.0	1.44151265198133	0.0	-0.234523294517012	-2.186117259271567	0.36796836011737144	1.3657104061660152	-0.1426093082391323	0.60983251354438	1.3657104061660152	0.14345443667105687	-0.10528716978058617	2.080830089490983	-0.4051600697408102	2.1388388360241994	1	correct	1.0
435.6549219000153	8.852709500002675	nogo_punish	1.0	435.72912950004684	438.25439280003775	440.7753867000574	2.525263299990911	436.7384032000555	439.75730550003937	443.8225938000253	1.5159895999822766	1.0180812000180595	0.7592452000242247	442.81877430004533	0.2381601000088267	441.79361680004513	1	1	51	3	nogo_punish	1	-1	0	0	0	1	1	1.0	1.0	0	1.0	0.2381601000088267	596.5125046999892	1032.241634200036	1033.2509079000447	1034.766897500027	1036.2698102000286	1037.2878914000466	1038.3061215000344	1039.3312790000346	1040.3350985000145	1041.0943437000387	2020-09-22 10:56:40.188450	1.47901896273401	-1.53794269730369	-0.616762715285951	-1.93675173567513	-2.09578167801997	-0.616762715285951	-1.47901896273401	-0.616762715285951	-1.53794269730369	-0.616762715285951	-2.09578167801997	0.616762715285951	-2.148610948518887	-1.4044976317033306	0.7489476908800643	-2.3138843384312744	-2.92746181645692	0.7489476908800643	0.9947404464740198	-2.1635625370478673	-0.014951588528987259	-1.2564460795437733	0.6008961387205094	1	correct	1.0
444.54376710002543	9.939285499975085	nogo_reward	0.3793128000106662	444.61797470005695	447.46538980002515	450.0155528000323	2.8474150999682024	445.6337514000479	448.9963891000373	453.07261300005484	1.831638399977237	1.0191636999950333	1.4846471999771893	452.06332780001685	0.5605602000141516	451.0340991000412	1	1	52	1	nogo_reward	1	0	1	0	1	0	1	0.0	0.0	0	0.3793128000106662	0.5605602000141516	596.5125046999892	1041.1304794000462	1042.1462561000371	1043.9778945000144	1045.5088938000265	1046.5280575000215	1047.5466038000304	1048.575832500006	1049.585117700044	1051.0697649000213	2020-09-22 10:56:40.188450	1.42528052599578	0.225509521409256	0.0	0.225509521409256	1.42528052599578	0.0	-1.42528052599578	0.225509521409256	0.0	1.42528052599578	0.0	-0.225509521409256	-2.2023493852571168	0.3589545870096154	1.3657104061660152	-0.1516230813468883	0.5936003875588299	1.3657104061660152	0.15246820977881287	-0.12151929576613618	2.080830089490983	-0.41417384284856623	2.1388388360241994	1	wrong	1.0
454.52117580000777	8.366491299995687	go_punish	1.0	454.5953834000393	456.5298883000503	459.0525761000463	1.9345049000110066	455.6038276000179	458.0402527000406	462.1143335000379	0.9260607000323944	1.0123234000056982	0.8475411999970675	461.1008569000403	0.3438250999897718	460.0719492000062	1	1	53	4	go_punish	0	-1	0	1	0	0	0	0.0	1.0	0	1.0	0.3438250999897718	596.5125046999892	1051.1078881000285	1052.1163323000071	1053.0423930000395	1054.5527574000298	1055.5650808000355	1056.5844538999954	1057.6133616000295	1058.6268382000271	1059.4743794000242	2020-09-22 10:56:40.188450	-1.05044546168397	-0.260223706104802	-1.57162738015631	-1.57005930795248	-0.521181918472336	-1.57162738015631	1.05044546168397	-1.57162738015631	-0.260223706104802	-1.57162738015631	-0.521181918472336	1.57162738015631	-4.678075372936867	-0.1267786405044426	-0.20591697399029485	-1.9471919107086244	-1.352862056909286	-0.20591697399029485	1.949605111344379	-3.118427201918226	1.559648171018647	-2.2113107444141322	1.8786151299193974	1	correct	1.0
462.9224721000064	9.1016321000061	nogo_reward	0.2808208999922499	462.99667970003793	465.6129274000414	468.16088240005774	2.6162477000034414	464.00377370003844	467.1462854000274	471.2001618000211	1.6091537000029348	1.014597000030335	0.8981500000229516	470.1983466000527	0.3855363999609835	469.1801670000423	1	1	54	1	nogo_reward	1	0	1	0	1	0	1	0.0	0.0	0	0.2808208999922499	0.3855363999609835	596.5125046999892	1059.5091844000272	1060.5162784000277	1062.1254321000306	1063.6587901000166	1064.673387100047	1065.6926717000315	1066.710851300042	1067.7126665000103	1068.6108165000333	2020-09-22 10:56:40.188450	1.40992979816462	0.216981695373066	0.0	0.216981695373066	1.40992979816462	0.0	-1.40992979816462	0.216981695373066	0.0	1.40992979816462	0.0	-0.216981695373066	-2.217700113088277	0.3504267609734254	1.3657104061660152	-0.1601509073830783	0.57824965972767	1.3657104061660152	0.16099603581500288	-0.13687002359729616	2.080830089490983	-0.42270166888475624	2.1388388360241994	1	wrong	1.0
472.06983499997295	8.458103000011988	nogo_punish	1.0	472.14404260000447	474.0093450000277	476.54655740002636	1.8653024000232108	473.14475730003323	475.5259588000479	479.6076051000273	0.8645876999944448	1.0205985999784843	0.9945404999891707	478.5946061000577	0.5174123999895528	477.56534790003207	1	1	55	3	nogo_punish	1	-1	0	0	0	1	0	0.0	1.0	0	1.0	0.5174123999895528	596.5125046999892	1068.6565472999937	1069.6572620000225	1070.521849700017	1072.038463500037	1073.0590621000156	1074.0778526000213	1075.107110800047	1076.1201098000165	1077.1146503000057	2020-09-22 10:56:40.188450	1.44622669637549	-1.53794269730369	-0.593617432503904	-1.86665468191757	-2.0398441288794	-0.593617432503904	-1.44622669637549	-0.593617432503904	-1.53794269730369	-0.593617432503904	-2.0398441288794	0.593617432503904	-2.181403214877407	-1.4044976317033306	0.7720929736621113	-2.243787284673714	-2.87152426731635	0.7720929736621113	0.9715951636919729	-2.14041725426582	0.04098596061158277	-1.2333007967617262	0.6008961387205094	1	correct	1.0
480.56430139997974	8.220726400031708	nogo_reward	0.3757412999984808	480.63850900001125	482.0308349000409	484.56659530004254	1.3923259000296184	481.645098900015	483.5522115000058	487.6159666000167	0.38573600002587227	1.0143838000367396	1.2432688000262715	486.5982728000379	0.395718100015074	485.5859843000071	1	1	56	1	nogo_reward	1	0	1	0	1	0	1	0.0	0.0	0	0.3757412999984808	0.395718100015074	596.5125046999892	1077.1510137000005	1078.1576036000042	1078.54333960003	1080.064716199995	1081.0791000000318	1082.0984889999963	1083.110777500027	1084.128471300006	1085.3717401000322	2020-09-22 10:56:40.188450	1.3953887107344	0.208900736550693	0.0	0.208900736550693	1.3953887107344	0.0	-1.3953887107344	0.208900736550693	0.0	1.3953887107344	0.0	-0.208900736550693	-2.232241200518497	0.34234580215105237	1.3657104061660152	-0.1682318662054513	0.5637085722974501	1.3657104061660152	0.16907699463737588	-0.15141111102751603	2.080830089490983	-0.4307826277071293	2.1388388360241994	1	wrong	1.0
488.8229687999701	8.356672400026582	go_reward	1.0	488.8971764000016	490.75549340003636	493.2805384000533	1.8583170000347309	489.9113544000427	492.26463270001113	496.3398194000474	0.8441389999936746	1.0159057000421399	0.9140293999807909	495.33221350004897	0.7026710000354797	494.29416890005814	1	1	57	2	go_reward	0	0	1	1	0	0	0	0.0	1.0	1	1.0	0.7026710000354797	596.5125046999892	1085.4096810999908	1086.423859100032	1087.2679981000256	1088.7771374000004	1089.7930431000425	1090.8066736000474	1091.8447182000382	1092.8523241000366	1093.7663535000174	2020-09-22 10:56:40.188450	-2.4051439076682	0.894249183135877	0.617816101320708	1.37688968353334	3.02296000898891	0.617816101320708	2.4051439076682	0.617816101320708	0.894249183135877	0.617816101320708	3.02296000898891	9.368911594486192	-6.032773818921097	1.0276942487362364	1.9835265074867232	0.9997570807771956	2.19127987055196	1.9835265074867232	9.746889325674262	-0.9289837204412081	5.103790098479893	-0.021867262937114273	3.0330880191600764	1	correct	1.0
497.21482970000943	9.782521499960922	nogo_reward	0.3118466000305488	497.28903730004095	500.0078529000166	502.5640201000497	2.718815599975642	498.3076525000506	501.54207680001855	505.60912390000885	1.7002003999659792	1.0219433000311255	1.4624348999930135	504.60334350005724	0.2673088999581523	503.58250300004147	1	1	58	1	nogo_reward	1	0	1	0	1	0	1	1.0	1.0	0	0.3118466000305488	0.2673088999581523	596.5125046999892	1093.8015420000302	1094.8201572000398	1096.5203576000058	1098.0545815000078	1099.076524800039	1100.0950077000307	1101.1158482000465	1102.121628599998	1103.584063499991	2020-09-22 10:56:40.188450	1.38159390437182	0.201232126524946	0.0	0.201232126524946	1.38159390437182	0.0	-1.38159390437182	0.201232126524946	0.0	1.38159390437182	0.0	-0.201232126524946	-2.246036006881077	0.3346771921253054	1.3657104061660152	-0.1759004762311983	0.54991376593487	1.3657104061660152	0.1767456046631229	-0.16520591739009616	2.080830089490983	-0.43845123773287625	2.1388388360241994	1	correct	1.0
507.0352872000076	9.234477599966567	go_reward	1.0	507.1094948000391	509.37259860004997	511.8956065000384	2.2631038000108674	508.1087905000311	510.8761366000399	514.9577105000499	1.2638081000188777	1.0194698999985121	1.386261899955798	513.944441700005	0.23096210003132	512.914714100014	1	1	59	2	go_reward	1	1	0	1	0	0	1	1.0	1.0	0	1.0	0.23096210003132	596.5125046999892	1103.6219995000283	1104.6212952000203	1105.8851033000392	1107.3886413000291	1108.4081112000276	1109.4272188000032	1110.4569463999942	1111.470215200039	1112.856477099995	2020-09-22 10:56:40.188450	-2.32466329900905	0.894249183135877	0.906511388729699	1.63491604235497	3.23117468773875	0.906511388729699	2.32466329900905	0.906511388729699	0.894249183135877	0.906511388729699	3.23117468773875	-0.906511388729699	-5.9522932102619475	1.0276942487362364	2.272221794895714	1.2577834395988257	2.3994945493018003	2.272221794895714	-0.5285336575416302	-0.640288433032217	5.312004777229733	0.2668280244718768	3.0330880191600764	1	correct	1.0
516.3110323000001	8.77467670000624	nogo_punish	1.0	516.3852399000316	518.1224121000268	520.6508781000157	1.737172199995257	517.3959585000412	519.6304650000529	523.6817403000314	0.7264535999856889	1.0204130999627523	1.478176300006453	522.6696414000471	0.3842824999592267	521.6542365000353	1	1	60	3	nogo_punish	1	-1	0	0	0	1	0	0.0	1.0	0	1.0	0.3842824999592267	596.5125046999892	1112.8977446000208	1113.9084632000304	1114.634916800016	1116.1429697000422	1117.163382800005	1118.1667412000245	1119.1821461000363	1120.1942450000206	1121.672421300027	2020-09-22 10:56:40.188450	1.41494474896661	-1.53794269730369	-0.571671760855833	-1.79997886407211	-1.98661650982244	-0.571671760855833	-1.41494474896661	-0.571671760855833	-1.53794269730369	-0.571671760855833	-1.98661650982244	0.571671760855833	-2.212685162286287	-1.4044976317033306	0.7940386453101822	-2.1771114668282543	-2.81829664825939	0.7940386453101822	0.9496494920439019	-2.118471582617749	0.09421357966854282	-1.2113551251136552	0.6008961387205094	1	correct	1.0
