onset	duration	trial_type	response_time	cueOnset	targetOnset	fbOnset	cueRT	firstfixOnset	secondfixOnset	waitOnset	firstfixdur	secondfixdur	waitdur	nback_fbOnset	nback_response_time	nback_targetOnset	block	wm	trial	cue	cond	is_common	outcome_go	outcome_nogo	key_correct	key_pressed	is_correct	key_correct_nback	key_pressed_nback	is_correct_nback	outcome	rt	rt_nback	time_scan	time_onset	time_isi1	time_circle	time_isi2	time_feedback	time_same	time_correct	time_iti	time_done	timestamp_scan	DV	Qgo	Qnogo	SV	Wgo	Wnogo	mDV	Qchosen	Qunchosen	Wchosen	Wunchosen	PE	DVC	QgoC	QnogoC	SVC	WgoC	WnogoC	PEC	WchosenC	WunchosenC	QchosenC	QunchosenC	run	outcome_nback	nback_targetResp
0.0	8.345605599984765	go_reward	1.0	0.025070599978789687	1.4026944999930038	3.9396958000140785	1.377623900014214	1.0200216000082492	2.9181367999985923	6.993644699977949	0.3826728999847546	1.0215590000154862	1.3770314999856055	5.971397599961847	1.0	4.9630459999896175	1	1	61	2	go_reward	1	1	0	1	0	0	1	n/a	0.0	0	1.0	1.0	1184.860678300029	1184.8857489000077	1185.8806999000371	1186.263372800022	1187.7788151000275	1188.800374100043	1189.8237243000185	1190.8320758999907	1191.8543230000068	1193.2313544999924	2020-09-22 11:06:28.535979	-2.30916197367871	0.894249183135877	0.866967756013222	1.56652970589524	3.17612972969193	0.866967756013222	2.30916197367871	0.866967756013222	0.894249183135877	0.866967756013222	3.17612972969193	-0.866967756013222	-5.936791884931607	1.0276942487362364	2.232678162179237	1.1893971031390957	2.34444959125498	2.232678162179237	-0.4889900248251531	-0.6798320657486941	5.256959819182913	0.22728439175539972	3.0330880191600764	2	missed	0.0
8.38200819998724	8.647989300021436	nogo_reward	0.4247836000286042	8.40707879996603	9.96068999997783	12.522840899997163	1.553611200011801	9.423053900012519	11.501234399969462	15.569056099979207	0.5376360999653116	1.0216065000277013	1.4860120000082588	14.550040300003957	1.0	13.541625600016914	1	1	62	1	nogo_reward	1	0	1	0	1	0	0	n/a	0.0	1	0.4247836000286042	1.0	1184.860678300029	1193.267757099995	1194.2837322000414	1194.8213683000067	1196.3619126999984	1197.383519200026	1198.4023039000458	1199.4107186000329	1200.429734400008	1201.9157464000164	2020-09-22 11:06:28.535979	1.36848915414457	0.193945212988477	0.0	0.193945212988477	1.36848915414457	0.0	-1.36848915414457	0.193945212988477	0.0	1.36848915414457	0.0	-0.193945212988477	-2.2591407571083266	0.3273902785888364	1.3657104061660152	-0.1831873897676673	0.5368090157076201	1.3657104061660152	0.18403251819959188	-0.17831066761734604	2.080830089490983	-0.44573815126934524	2.1388388360241994	2	missed	0.0
17.066723900032002	8.334172200004105	nogo_reward	0.3610304999747313	17.091794500010792	18.43335040000943	20.962825099995598	1.3415558999986388	18.09306330000959	19.955500999989	24.025100899976223	0.3402870999998413	1.007324100006599	1.4008658000386731	23.014087299990706	0.3379826999735087	21.981391799985204	1	1	63	1	nogo_reward	1	0	1	0	1	0	0	0.0	1.0	0	0.3610304999747313	0.3379826999735087	1184.860678300029	1201.9524728000397	1202.9537416000385	1203.2940287000383	1204.816179300018	1205.8235034000245	1206.842070100014	1207.8747656000196	1208.8857792000051	1210.2866450000438	2020-09-22 11:06:28.535979	1.92687545597512	0.502989354929165	0.0	0.502989354929165	1.92687545597512	0.0	-1.92687545597512	0.502989354929165	0.0	1.92687545597512	0.0	-0.502989354929165	-1.700754455277777	0.6364344205295244	1.3657104061660152	0.12585675217302067	1.09519531753817	1.3657104061660152	-0.1250116237410961	0.3800756342132039	2.080830089490983	-0.13669400932865727	2.1388388360241994	2	correct	1.0
25.436699700017698	9.063284999981988	go_punish	0.2991958999773487	25.461770299996488	27.91418459999818	30.468576500017434	2.452414300001692	26.478329800010897	29.447903199994244	33.4872191000029	1.4358547999872826	1.0206733000231907	1.0378361999755725	32.48223570000823	0.7403384000062943	31.46506039996143	1	1	64	4	go_punish	1	0	-1	1	1	1	0	0.0	1.0	0	0.2991958999773487	0.7403384000062943	1184.860678300029	1210.3224486000254	1211.3390081000398	1212.774862900027	1214.3085815000231	1215.3292548000463	1216.3257386999903	1217.3429140000371	1218.3478974000318	1219.3857336000074	2020-09-22 11:06:28.535979	1.03541261501968	-0.260223706104802	-1.51220142675999	-1.51446109526464	-0.476788811740315	-1.51220142675999	-1.03541261501968	-0.260223706104802	-1.51220142675999	-0.476788811740315	-1.51220142675999	0.260223706104802	-2.592217296233217	-0.1267786405044426	-0.14649102059397467	-1.8915936980207844	-1.308468950177265	-0.14649102059397467	0.6382014372928708	-2.0235886335022313	0.5686286627309929	-0.8999070703626242	0.6266374092642095	2	correct	1.0
34.53502479998838	8.312817000027053	nogo_reward	0.5683308999869041	34.56009539996717	36.01300619996596	38.554595800000016	1.45291079999879	35.577717699983396	37.53012929996453	41.597173299989436	0.4352884999825619	1.0244665000354871	1.2757391000047846	40.585739700007025	0.2828019000007771	39.56050329998811	1	1	65	1	nogo_reward	0	1	0	0	1	0	1	1.0	1.0	1	0.5683308999869041	0.2828019000007771	1184.860678300029	1219.420773699996	1220.4383960000123	1220.8736844999949	1222.3908075999934	1223.415274100029	1224.421181600017	1225.446418000036	1226.4578516000183	1227.7335907000231	2020-09-22 11:06:28.535979	1.88945195824615	0.48224926773143	0.0	0.48224926773143	1.88945195824615	0.0	-1.88945195824615	0.48224926773143	0.0	1.88945195824615	0.0	9.50447842807547	-1.738177953006747	0.6156943333317895	1.3657104061660152	0.10511666497528571	1.0577718198091999	1.3657104061660152	9.88245615926354	0.34265213648423387	2.080830089490983	-0.15743409652639223	2.1388388360241994	2	correct	1.0
42.88971010001842	8.869879900011938	nogo_punish	0.3395757999969646	42.91478069999721	44.829712899983406	47.37872099998617	1.9149321999861968	43.924692699976504	46.36359039996728	50.39916570001492	0.9050202000069021	1.0151306000188924	1.385494899994228	49.400429599976405	0.2420757000218145	48.38629310001829	1	1	66	3	nogo_punish	0	0	-1	0	1	0	0	0.0	1.0	0	0.3395757999969646	0.2420757000218145	1184.860678300029	1227.775459000026	1228.7853710000054	1229.6903912000123	1231.2242686999962	1232.239399300015	1233.2469714000472	1234.2611079000053	1235.2598440000438	1236.645338900038	2020-09-22 11:06:28.535979	-1.38507417946862	-1.53794269730369	-0.55083283721829	-1.73648235367874	-1.93590701668691	-0.55083283721829	1.38507417946862	-1.53794269730369	-0.55083283721829	-1.93590701668691	-0.55083283721829	1.53794269730369	-5.012704090721517	-1.4044976317033306	0.8148775689477252	-2.1136149564348843	-2.7675871551238598	0.8148775689477252	1.9159204284917588	-3.4827068384488262	1.5299972522726928	-2.1776260615615124	1.5880059988059094	2	correct	1.0
51.79943250003248	7.815547299978789	go_punish	0.7543174999882467	51.82450310001127	53.163017899961915	55.68894729996077	1.3385147999506444	52.837755999993306	54.67251160001592	58.748345999978255	0.3252618999686092	1.01643569994485	0.891704400011804	57.7370292000121	0.499943999981042	56.70335989998398	1	1	67	4	go_punish	0	-1	0	1	1	1	0	1.0	0.0	-1	0.7543174999882467	0.499943999981042	1184.860678300029	1236.6851814000402	1237.6984343000222	1238.0236961999908	1239.5331899000448	1240.5496255999897	1241.5640382000129	1242.597707500041	1243.6090243000071	1244.500728700019	2020-09-22 11:06:28.535979	1.0869137295493	-0.251052338130463	-1.51220142675999	-1.46146805925766	-0.425287697210694	-1.51220142675999	-1.0869137295493	-0.251052338130463	-1.51220142675999	-0.425287697210694	-1.51220142675999	-11.331344598360936	-2.540716181703597	-0.11760727253010361	-0.14649102059397467	-1.8386006620138045	-1.256967835647644	-0.14649102059397467	-10.953366867172866	-1.9720875189726101	0.5686286627309929	-0.8907357023882853	0.6266374092642095	2	wrong	1.0
59.6559599000027	8.31537720002234	nogo_punish	0.3724231999949552	59.68103049998149	61.182760700001154	63.73577139998065	1.501730200019665	60.6867087999708	62.717106099996954	66.78414419997694	0.49605190003035204	1.0186652999836951	1.2122635000268929	65.77473860001169	0.5189826999558136	64.7483583000137	1	1	68	3	nogo_punish	1	-1	0	0	1	0	1	1.0	1.0	-1	0.3724231999949552	0.5189826999558136	1184.860678300029	1244.5417088000104	1245.5473870999997	1246.04343900003	1247.5777844000258	1248.5964497000095	1249.6090366000426	1250.6354169000406	1251.6448225000058	1252.8570860000327	2020-09-22 11:06:28.535979	-1.27899916776678	-1.48023062967555	-0.55083283721829	-1.67594897048834	-1.82983200498507	-0.55083283721829	1.27899916776678	-1.48023062967555	-0.55083283721829	-1.82983200498507	-0.55083283721829	-10.10216630681585	-4.906629079019677	-1.3467855640751907	0.8148775689477252	-2.053081573244484	-2.66151214342202	0.8148775689477252	-9.72418857562778	-3.376631826746986	1.5299972522726928	-2.1199139939333724	1.5880059988059094	2	correct	1.0
68.01138480001782	8.262580699986074	nogo_punish	0.8630604000063613	68.03645539999661	69.80616149998946	72.35631329996954	1.7697060999928453	69.04897770000366	71.33091779996153	75.39872309996281	0.7571837999857962	1.0253955000080168	0.900313000019878	74.40013339999109	0.3060989000368863	73.37122839997733	1	1	69	3	nogo_punish	1	-1	0	0	1	0	0	1.0	0.0	-1	0.8630604000063613	0.3060989000368863	1184.860678300029	1252.8971337000255	1253.9096560000326	1254.6668398000184	1256.1915960999904	1257.2169915999984	1258.2319067000062	1259.26081170002	1260.2594013999917	1261.1597144000116	2020-09-22 11:06:28.535979	-1.79258100749345	-1.7649052276865	-0.55083283721829	-1.95757675123864	-2.34341384471174	-0.55083283721829	1.79258100749345	-1.7649052276865	-0.55083283721829	-2.34341384471174	-0.55083283721829	-9.8174917088049	-5.420210918746347	-1.6314601620861406	0.8148775689477252	-2.3347093539947843	-3.17509398314869	0.8148775689477252	-9.43951397761683	-3.890213666473656	1.5299972522726928	-2.4045885919443224	1.5880059988059094	2	wrong	1.0
76.31375020003156	7.855173899966758	nogo_punish	1.0	76.33882080001035	77.70801030000416	80.2320520000062	1.3691894999938086	77.35076870000921	79.21181539999066	83.2945926999671	0.35724159999494987	1.0202366000155507	0.8994020000100136	82.2811559999825	0.3544331000302918	81.25090739998222	1	1	70	3	nogo_punish	1	-1	0	0	0	1	1	1.0	1.0	0	1.0	0.3544331000302918	1184.860678300029	1261.1994991000392	1262.211447000038	1262.568688600033	1264.0724937000195	1265.092730300035	1266.1115857000111	1267.1418343000114	1268.155270999996	1269.054673000006	2020-09-22 11:06:28.535979	2.28719299913073	-2.03910284859901	-0.55083283721829	-2.22855908591059	-2.83802583634902	-0.55083283721829	-2.28719299913073	-0.55083283721829	-2.03910284859901	-0.55083283721829	-2.83802583634902	0.55083283721829	-1.340436912122167	-1.9056577829986505	0.8148775689477252	-2.605691688666734	-3.6697059747859697	0.8148775689477252	0.9288105684063589	-2.0976326589802063	-0.757195746858037	-1.1905162014761124	0.09973598742518952	2	correct	1.0
84.20962909999048	8.589918000041507	nogo_punish	1.0	84.23469969996927	85.90040589997079	88.42439780000109	1.665706200001523	85.23953069996742	87.40406709996728	91.47115110000573	0.6608752000033746	1.02033070003381	1.3534666000050493	90.45712370000501	0.2972290000179782	89.44305980001786	1	1	71	3	nogo_punish	1	-1	0	0	0	1	1	0.0	0.0	0	1.0	0.2972290000179782	1184.860678300029	1269.0953779999982	1270.1002089999963	1270.7610841999997	1272.2647453999962	1273.28507610003	1274.3037381000468	1275.317802000034	1276.3318294000346	1277.6852960000397	2020-09-22 11:06:28.535979	2.24430701161413	-2.03910284859901	-0.531018712956107	-2.15008051370024	-2.77532572457023	-0.531018712956107	-2.24430701161413	-0.531018712956107	-2.03910284859901	-0.531018712956107	-2.77532572457023	0.531018712956107	-1.3833228996387668	-1.9056577829986505	0.8346916932099082	-2.5272131164563842	-3.60700586300718	0.8346916932099082	0.9089964441441759	-2.0778185347180234	-0.6944956350792473	-1.1707020772139294	0.09973598742518952	2	wrong	1.0
92.83554840000556	8.250332600029651	nogo_reward	0.3539960000198334	92.86061899998435	94.2342271999803	96.78984969999851	1.3736081999959424	93.876186900015	95.76889020000795	99.83033570001112	0.35804029996529607	1.0209594999905676	1.2806159000028856	98.82241469999985	0.3835171000100672	97.80873509997014	1	1	72	1	nogo_reward	1	0	1	0	1	0	0	0.0	1.0	0	0.3539960000198334	0.3835171000100672	1184.860678300029	1277.7212973000132	1278.736865200044	1279.0949055000092	1280.6295685000368	1281.6505280000274	1282.669413399999	1283.6830930000287	1284.69101400004	1285.971629900043	2020-09-22 11:06:28.535979	2.42524201403177	0.778786847800052	0.0	0.778786847800052	2.42524201403177	0.0	-2.42524201403177	0.778786847800052	0.0	2.42524201403177	0.0	-0.778786847800052	-1.202387897221127	0.9122319134004114	1.3657104061660152	0.40165424504390773	1.59356187559482	1.3657104061660152	-0.40080911661198315	0.8784421922698538	2.080830089490983	0.1391034835422298	2.1388388360241994	2	correct	1.0
101.12717180000595	9.729346800013445	nogo_punish	1.0	101.15224239998474	103.89661509997654	106.42060279997509	2.7443726999918	102.16319940000517	105.40714869997441	109.46600969997212	1.7334156999713741	1.013454100000672	1.4155795000260696	108.45203009998636	0.2889062999747693	107.43739390000678	1	1	73	3	nogo_punish	1	-1	0	0	0	1	1	1.0	1.0	0	1.0	0.2889062999747693	1184.860678300029	1286.0129207000136	1287.023877700034	1288.7572934000054	1290.2678270000033	1291.281281100004	1292.2980722000357	1293.3127084000153	1294.326688000001	1295.742267500027	2020-09-22 11:06:28.535979	2.20339585278978	-2.03910284859901	-0.512156585181743	-2.07529957560461	-2.71555243797152	-0.512156585181743	-2.20339585278978	-0.512156585181743	-2.03910284859901	-0.512156585181743	-2.71555243797152	0.512156585181743	-1.4242340584631168	-1.9056577829986505	0.8535538209842722	-2.452432178360754	-3.54723257640847	0.8535538209842722	0.8901343163698119	-2.058956406943659	-0.6347223484805373	-1.1518399494395652	0.09973598742518952	2	correct	1.0
110.894863400026	9.570245300012402	go_punish	0.2632695999927819	110.91993400000479	113.69779569999059	116.23963909997815	2.777861699985806	111.93324400001416	115.22500550001837	119.28216989996122	1.7645516999764368	1.0146335999597795	1.2080094000559711	118.26799399999413	0.2558347000158392	117.25436279998371	1	1	74	4	go_punish	0	-1	0	1	1	1	0	0.0	1.0	-1	0.2632695999927819	0.2558347000158392	1184.860678300029	1295.7806123000337	1296.793922300043	1298.5584740000195	1300.0856838000473	1301.100317400007	1302.1150411000126	1303.128672300023	1304.14284819999	1305.350857600046	2020-09-22 11:06:28.535979	0.5215922267129	-0.581698431518006	-1.51220142675999	-1.75030124459912	-0.990609200047092	-1.51220142675999	-0.5215922267129	-0.581698431518006	-1.51220142675999	-0.990609200047092	-1.51220142675999	-11.000698504973393	-3.106037684539997	-0.44825336591764664	-0.14649102059397467	-2.127433847355264	-1.822289338484042	-0.14649102059397467	-10.622720773785323	-2.537409021809008	0.5686286627309929	-1.2213817957758284	0.6266374092642095	2	correct	1.0
120.5005593000094	9.180205299984436	nogo_reward	0.2510339000145904	120.52562989998819	122.85913100000448	125.41734280000651	2.333501100016292	121.53182889998402	124.39463469997281	128.4761963000053	1.3273021000204608	1.0227081000336966	1.2296388999673127	127.4625567999899	0.3256078999838792	126.43262899998786	1	1	75	1	nogo_reward	1	0	1	0	1	0	0	0.0	1.0	0	0.2510339000145904	0.3256078999838792	1184.860678300029	1305.386308200017	1306.392507200013	1307.7198093000334	1309.2553130000017	1310.2780211000354	1311.2933073000167	1312.3232351000188	1313.3368746000342	1314.5665135000015	2020-09-22 11:06:28.535979	2.36675113103114	0.746380030062845	0.0	0.746380030062845	2.36675113103114	0.0	-2.36675113103114	0.746380030062845	0.0	2.36675113103114	0.0	-0.746380030062845	-1.260878780221757	0.8798250956632044	1.3657104061660152	0.36924742730670074	1.53507099259419	1.3657104061660152	-0.36840229887477616	0.8199513092692239	2.080830089490983	0.1066966658050228	2.1388388360241994	2	correct	1.0
129.73603480000725	8.042303800000582	go_punish	1.0	129.76110539998604	131.4263491000163	133.954891000001	1.6652437000302598	130.773370700015	132.9298053999662	136.99647199996957	0.6529784000013024	1.0250856000347994	0.806937200017046	135.99095349997492	0.3739713000250049	134.96831909997832	1	1	76	4	go_punish	1	0	-1	1	0	0	1	1.0	1.0	-1	1.0	0.3739713000250049	1184.860678300029	1314.621783700015	1315.634049000044	1316.2870274000452	1317.790483699995	1318.81556930003	1319.8289974000072	1320.8516318000038	1321.8571502999985	1322.6640875000155	2020-09-22 11:06:28.535979	0.0221468395934737	-0.899503583818799	-1.51220142675999	-2.02817480422614	-1.53434826635347	-1.51220142675999	-0.0221468395934737	-1.51220142675999	-0.899503583818799	-1.51220142675999	-1.53434826635347	-10.070195509731409	-3.6054830716594233	-0.7660585182184396	-0.14649102059397467	-2.405307406982284	-2.36602840479042	-0.14649102059397467	-9.69221777854334	-3.059001248521906	0.5464818231375128	-2.151884791017812	1.2393352522054004	2	correct	1.0
137.81526689999714	8.214087200001813	go_punish	0.4643991999910213	137.84033749997593	139.41579679999222	141.97495379997395	1.5754593000162913	138.8553784000103	140.95849290001183	145.0366262000166	0.560418399981927	1.0164608999621123	1.0177984999611454	144.01429459999758	0.9651136000175028	142.99015259998828	1	1	77	4	go_punish	0	-1	0	1	1	1	0	0.0	1.0	-1	0.4643991999910213	0.9651136000175028	1184.860678300029	1322.7010158000048	1323.7160567000392	1324.2764751000211	1325.8191712000407	1326.8356321000028	1327.8508309000172	1328.8749729000265	1329.8973045000455	1330.9151030000066	2020-09-22 11:06:28.535979	0.0432787605582161	-0.899503583818799	-1.79529065269519	-2.29568444438766	-1.75201189213697	-1.79529065269519	-0.0432787605582161	-0.899503583818799	-1.79529065269519	-1.75201189213697	-1.79529065269519	-10.6828933526726	-3.584351150694681	-0.7660585182184396	-0.4295802465291747	-2.672817047143804	-2.58369203057392	-0.4295802465291747	-10.30491562148453	-3.2988117138988864	0.28553943679579286	-1.5391869480766212	0.3435481833290095	2	correct	1.0
146.0680364000143	8.984980300010648	go_reward	0.376391900004819	146.0931069999931	147.99287309998158	150.55880260001823	1.899766099988483	147.09025010000892	149.53505199996266	153.6013817999626	0.9026229999726638	1.023750600055564	1.4767055000411347	152.59527089999733	0.9476367000024766	151.57359029998747	1	1	78	2	go_reward	1	1	0	1	1	1	0	0.0	1.0	1	0.376391900004819	0.9476367000024766	1184.860678300029	1330.953785300022	1331.9509284000378	1332.8535514000105	1334.3957302999916	1335.4194809000471	1336.4342686000164	1337.4559492000262	1338.4620600999915	1339.9387656000326	2020-09-22 11:06:28.535979	2.29453452725691	0.894249183135877	0.830087300636738	1.50246279448277	3.12462182789364	0.830087300636738	-2.29453452725691	0.894249183135877	0.830087300636738	3.12462182789364	0.830087300636738	9.092478512671024	-1.3330953839959867	1.0276942487362364	2.195797706802753	1.1253301917266256	2.2929416894566903	2.195797706802753	9.470456243859093	1.577822006131724	2.9109173901277208	0.25456581887805474	2.9689261366609374	2	correct	1.0
155.08973110001511	9.702905100013595	nogo_reward	0.2813962000072934	155.1148016999939	157.8790333999782	160.43526930001076	2.7642316999842933	156.12602339999262	159.41327630000865	163.4967844999628	1.7530099999855793	1.0219930000021122	1.3209223000446855	162.48211049998622	0.7236502999439836	161.44752360001416	1	1	79	1	nogo_reward	1	0	1	0	1	0	0	0.0	1.0	0	0.2813962000072934	0.7236502999439836	1184.860678300029	1339.9754800000228	1340.9867017000215	1342.739711700007	1344.2739546000375	1345.2959476000397	1346.308201900043	1347.3427888000151	1348.3574627999917	1349.6783851000364	2020-09-22 11:06:28.535979	2.3119879423888	0.716024116398713	0.0	0.716024116398713	2.3119879423888	0.0	-2.3119879423888	0.716024116398713	0.0	2.3119879423888	0.0	-0.716024116398713	-1.3156419688640968	0.8494691819990724	1.3657104061660152	0.3388915136425687	1.4803078039518502	1.3657104061660152	-0.3380463852106441	0.765188120626884	2.080830089490983	0.07634075214089076	2.1388388360241994	2	correct	1.0
164.82839690003289	8.547368499974255	nogo_reward	0.296945699956268	164.85346750001167	166.83620690001385	169.3910947999682	1.982739400002174	165.86135560000503	168.37245630001394	172.43769920000318	0.9748513000088224	1.0186384999542497	0.9631367999827489	171.4300962999696	0.4780814999830909	170.410148900002	1	1	80	1	nogo_reward	1	0	1	0	1	0	0	1.0	0.0	0	0.296945699956268	0.4780814999830909	1184.860678300029	1349.7141458000406	1350.722033900034	1351.6968852000427	1353.2331346000428	1354.251773099997	1355.270827200031	1356.2907745999985	1357.298377500032	1358.2615143000148	2020-09-22 11:06:28.535979	2.26057472891344	0.687511558084852	0.0	0.687511558084852	2.26057472891344	0.0	-2.26057472891344	0.687511558084852	0.0	2.26057472891344	0.0	-0.687511558084852	-1.367055182339457	0.8209566236852114	1.3657104061660152	0.3103789553287077	1.42889459047649	1.3657104061660152	-0.3095338268967831	0.7137749071515238	2.080830089490983	0.04782819382702974	2.1388388360241994	2	wrong	1.0
173.41604129999155	8.99593969999114	nogo_reward	0.2536986999912187	173.44111189997034	175.43549359997246	177.98345369996946	1.9943817000021227	174.44737830001372	176.96962320001307	181.03012479998847	0.9881152999587357	1.0138304999563843	1.4069267999730073	180.0236632999729	0.3430628000060096	178.99408019997622	1	1	81	1	nogo_reward	1	0	1	0	1	0	1	1.0	1.0	0	0.2536986999912187	0.3430628000060096	1184.860678300029	1358.3017901999992	1359.3080566000426	1360.2961719000014	1361.830301500042	1362.8441319999984	1363.8547585000051	1364.8843416000018	1365.8908031000174	1367.2977298999904	2020-09-22 11:06:28.535979	2.21218830073218	0.660665232193237	0.0	0.660665232193237	2.21218830073218	0.0	-2.21218830073218	0.660665232193237	0.0	2.21218830073218	0.0	-0.660665232193237	-1.415441610520717	0.7941102977935964	1.3657104061660152	0.28353262943709273	1.38050816229523	1.3657104061660152	-0.28268750100516815	0.6653884789702638	2.080830089490983	0.02098186793541479	2.1388388360241994	2	correct	1.0
182.44840230001114	8.421363200002816	nogo_reward	0.4918578999931924	182.47347289998993	183.9873121000128	186.52460860001133	1.5138392000228578	183.48882729996672	185.5050716999683	189.5564104999646	0.49848480004607154	1.0195369000430219	1.3384256000281312	188.5419232000129	0.3160032000159845	187.52922319999175	1	1	82	1	nogo_reward	0	1	0	0	1	0	1	0.0	0.0	1	0.4918578999931924	0.3160032000159845	1184.860678300029	1367.3341512000188	1368.3495055999956	1368.8479904000417	1370.3657499999972	1371.3852869000402	1372.3899015000206	1373.4026015000418	1374.4170887999935	1375.7555144000216	2020-09-22 11:06:28.535979	2.16655023251752	0.635332845520231	0.0	0.635332845520231	2.16655023251752	0.0	-2.16655023251752	0.635332845520231	0.0	2.16655023251752	0.0	9.351394850286669	-1.461079678735377	0.7687779111205904	1.3657104061660152	0.25820024276408665	1.33487009408057	1.3657104061660152	9.729372581474738	0.6197504107556038	2.080830089490983	-0.004350518737591291	2.1388388360241994	2	wrong	1.0
190.9103246000011	8.821825299994089	go_punish	1.0	190.9353951999799	193.20961590000638	195.7363702	2.27422070002649	191.93100829998707	194.71961420000275	198.7955214999963	1.2786076000193134	1.0167559999972582	0.9616989999776706	197.78765949996864	0.5140070000197738	196.752113799972	1	1	83	4	go_punish	1	0	-1	1	0	0	0	0.0	1.0	-1	1.0	0.5140070000197738	1184.860678300029	1375.7960735000088	1376.791686600016	1378.0702942000353	1379.5802925000316	1380.597048500029	1381.612792100001	1382.6483377999975	1383.6561998000252	1384.6178988000029	2020-09-22 11:06:28.535979	0.472221461908306	-1.20517922485657	-1.79529065269519	-2.553374809975	-2.26751211460349	-1.79529065269519	-0.472221461908306	-1.79529065269519	-1.20517922485657	-1.79529065269519	-2.26751211460349	-9.78710628379621	-3.155408449344591	-1.0717341592562106	-0.4295802465291747	-2.9305074127311443	-3.0991922530404397	-0.4295802465291747	-9.40912855260814	-3.3420904744571063	-0.18668202511250698	-2.4349740169530123	0.9336596111676294	2	correct	1.0
199.773460199998	8.197521199996118	go_reward	0.3788384999497793	199.7985307999768	201.62227340001823	204.16386699996633	1.8237426000414416	200.81096450000746	203.13922189996788	207.221488800016	0.811308900010772	1.0246450999984518	0.7745631999569014	206.20757899997966	0.4475047999876551	205.17857270000945	1	1	84	2	go_reward	1	1	0	1	1	1	0	0.0	1.0	1	0.3788384999497793	0.4475047999876551	1184.860678300029	1384.6592091000057	1385.6716428000364	1386.4829517000471	1387.9999001999968	1389.0245452999952	1390.0392510000383	1391.0682573000086	1392.082167100045	1392.8567303000018	2020-09-22 11:06:28.535979	2.77830341732724	1.17147032014228	0.830087300636738	1.75826023172163	3.60839071796398	0.830087300636738	-2.77830341732724	1.17147032014228	0.830087300636738	3.60839071796398	0.830087300636738	8.81525737566462	-0.8493264939256568	1.3049153857426394	2.195797706802753	1.3811276289654857	2.77671057952703	2.195797706802753	9.19323510685269	2.0615908962020635	2.9109173901277208	0.5317869558844578	2.9689261366609374	2	correct	1.0
208.00839989999054	9.188342100009322	nogo_reward	0.3428229999844916	208.03347049996933	210.51540949998866	213.07033479999495	2.481939000019338	209.04773290001322	212.05118209996704	216.125245700008	1.467676599975448	1.0191527000279166	1.0965668999706395	215.1192411999798	0.3194837999762967	214.08989840000822	1	1	85	1	nogo_reward	1	0	1	0	1	0	0	0.0	1.0	0	0.3428229999844916	0.3194837999762967	1184.860678300029	1392.8941487999982	1393.908411200042	1395.3760878000176	1396.911860399996	1397.9310131000238	1398.9505767000371	1399.9799195000087	1400.985924000037	1402.0824909000075	2020-09-22 11:06:28.535979	2.69427022005488	0.92735923037758	0.0	0.92735923037758	2.69427022005488	0.0	-2.69427022005488	0.92735923037758	0.0	2.69427022005488	0.0	-0.92735923037758	-0.9333596911980169	1.0608042959779393	1.3657104061660152	0.5502266276214356	1.8625900816179302	1.3657104061660152	-0.5493814991895111	1.147470398292964	2.080830089490983	0.2876758661197577	2.1388388360241994	2	correct	1.0
217.2351493000167	8.54344869998772	go_punish	1.0	217.2602198999955	219.29171079996718	221.82258029998025	2.0314908999716863	218.25974359997758	220.8059481999951	224.87167949997797	1.0319671999895945	1.016632099985145	0.9319891000052394	223.8576139999784	0.7373306999797933	222.82767510000826	1	1	86	4	go_punish	1	0	-1	1	0	0	0	0.0	1.0	-1	1.0	0.7373306999797933	1184.860678300029	1402.1208982000244	1403.1204219000065	1404.152389099996	1405.666626500024	1406.6832586000091	1407.6883534000372	1408.7182923000073	1409.7323578000069	1410.664346900012	2020-09-22 11:06:28.535979	0.401877213807572	-1.20517922485657	-2.06801688529419	-2.80174629328265	-2.46989409910176	-2.06801688529419	-0.401877213807572	-2.06801688529419	-1.20517922485657	-2.06801688529419	-2.46989409910176	-9.51438005119721	-3.225752697445325	-1.0717341592562106	-0.7023064791281748	-3.178878896038794	-3.30157423753871	-0.7023064791281748	-9.13640232000914	-3.6148167070561064	-0.38906400961077736	-2.7077002495520124	0.9336596111676294	2	correct	1.0
225.81726400001185	8.027996200020425	go_punish	0.2823851999710314	225.84233459999064	227.39570170000638	229.95805379998615	1.5533671000157483	226.84707909997064	228.9338863000155	233.00145350000798	0.5486226000357419	1.0241674999706447	0.8688773000030778	231.99506659997837	0.6056520999991335	230.97347069997318	1	1	87	4	go_punish	0	-1	0	1	1	1	0	0.0	1.0	-1	0.2823851999710314	0.6056520999991335	1184.860678300029	1410.7030129000195	1411.7077573999995	1412.2563800000353	1413.7945646000444	1414.818732100015	1415.834149000002	1416.8557449000073	1417.8621318000369	1418.73100910004	2020-09-22 11:06:28.535979	-0.334300414789379	-1.20517922485657	-2.33089900213278	-3.04126061710514	-2.66519941692216	-2.33089900213278	0.334300414789379	-1.20517922485657	-2.33089900213278	-2.66519941692216	-2.33089900213278	-10.37721771163483	-3.961930326042276	-1.0717341592562106	-0.9651885959667645	-3.4183932198612843	-3.4968795553591097	-0.9651885959667645	-9.99923998044676	-4.211999238684076	-0.250068912641797	-1.8448625891143924	-0.19206016610858034	2	correct	1.0
233.88478230003943	8.051305499975797	go_reward	0.4306194999953732	233.90985290001822	235.3883939000077	237.91773669997906	1.478540999989491	234.9218344999822	236.8996022999636	240.9588181999859	0.4665594000255169	1.0181344000154695	1.0023402000081205	239.94460679998133	0.394025599991437	238.9311370999783	1	1	88	2	go_reward	1	1	0	1	1	1	0	1.0	0.0	1	0.4306194999953732	0.394025599991437	1184.860678300029	1418.7705312000471	1419.782512800011	1420.2490722000366	1421.7602805999925	1422.778415000008	1423.7918154000072	1424.8052851000102	1425.8194965000148	1426.821836700023	2020-09-22 11:06:28.535979	3.24197725226774	1.43713760807194	0.830087300636738	2.00343839422331	4.07206455290448	0.830087300636738	-3.24197725226774	1.43713760807194	0.830087300636738	4.07206455290448	0.830087300636738	8.54959008773496	-0.385652658985157	1.5705826736722994	2.195797706802753	1.6263057914671657	3.24038441446753	2.195797706802753	8.92756781892303	2.5252647311425633	2.9109173901277208	0.7974542438141178	2.9689261366609374	2	wrong	1.0
241.97596810001392	8.269892900018021	go_reward	0.4596910999971442	242.0010386999927	243.4805418999747	246.0319209999866	1.4795031999819912	243.00559929996962	245.0055428000046	249.07376890000864	0.47494260000507893	1.0263781999819912	1.1971627000020817	248.06021259998647	0.399597099982202	247.0375721000014	1	1	89	2	go_reward	1	1	0	1	1	1	0	1.0	0.0	1	0.4596910999971442	0.399597099982202	1184.860678300029	1426.8617170000216	1427.8662775999985	1428.3412202000036	1429.8662211000335	1430.8925993000155	1431.8982504000303	1432.9208909000154	1433.9344472000375	1435.1316099000396	2020-09-22 11:06:28.535979	3.68682562812691	1.69197091241699	0.830087300636738	2.23867188675826	4.51691292876365	0.830087300636738	-3.68682562812691	1.69197091241699	0.830087300636738	4.51691292876365	0.830087300636738	8.29475678338991	0.05919571687401293	1.8254159780173493	2.195797706802753	1.8615392840021154	3.6852327903266997	2.195797706802753	8.67273451457798	2.9701131070017333	2.9109173901277208	1.0522875481591676	2.9689261366609374	2	wrong	1.0
250.28884799999628	8.853486200037878	go_reward	0.3104149000137113	250.31391859997507	252.1097471999817	254.66117420000933	1.7958286000066437	251.322742899996	253.63645099999826	257.6969491000052	0.7870042999857105	1.024723200011067	1.470455700007733	256.68950049998216	0.271703600010369	255.6743092999675	1	1	90	2	go_reward	1	1	0	1	1	1	1	1.0	1.0	1	0.3104149000137113	0.271703600010369	1184.860678300029	1435.174596900004	1436.183421200025	1436.9704255000106	1438.4971293000272	1439.5218525000382	1440.5349875999964	1441.550178800011	1442.557627400034	1444.0280831000418	2020-09-22 11:06:28.535979	4.11399154886673	1.93661983400153	0.830087300636738	2.46456601917555	4.94407884950347	0.830087300636738	-4.11399154886673	1.93661983400153	0.830087300636738	4.94407884950347	0.830087300636738	8.05010786180537	0.48636163761383333	2.0700648996018893	2.195797706802753	2.087433416419406	4.11239871106652	2.195797706802753	8.42808559299344	3.397279027741554	2.9109173901277208	1.2969364697437076	2.9689261366609374	2	correct	1.0
259.1831169000359	9.494719299953431	go_punish	1.0	259.2081875000147	261.7026082999653	264.23032699996816	2.4944207999506034	260.2203586999676	263.2060055999898	267.29077949997713	1.4822495999976582	1.024321399978362	1.4121272999909706	266.2739941999896	0.3097534000407904	265.2442015999693	1	1	91	4	go_punish	1	0	-1	1	0	0	0	0.0	1.0	-1	1.0	0.3097534000407904	1184.860678300029	1444.0688658000436	1445.0810369999965	1446.5632865999942	1448.0666839000187	1449.091005299997	1450.1048798999982	1451.1346725000185	1452.151457800006	1453.563585099997	2020-09-22 11:06:28.535979	0.817064350527379	-1.49937552493521	-2.33089900213278	-3.27234545278196	-3.14796335266016	-2.33089900213278	-0.817064350527379	-2.33089900213278	-1.49937552493521	-2.33089900213278	-3.14796335266016	-9.25149793435862	-2.810565560725518	-1.3659304593348507	-0.9651885959667645	-3.649478055538104	-3.97964349109711	-0.9651885959667645	-8.87352020317055	-3.877698823894696	-1.0671332631691772	-2.970582366390602	0.6394633110889894	2	correct	1.0
268.71594359999267	8.435500300023705	go_punish	0.608328599948436	268.74101419997146	270.59874370001467	273.1535429999926	1.857729500043206	269.75575750000985	272.1319217999694	276.21656299999427	0.842986200004816	1.021621200023219	0.9599515000008978	275.19633289997	0.8805007000337355	274.1715190999673	1	1	92	4	go_punish	1	0	-1	1	1	1	0	1.0	0.0	0	0.608328599948436	0.8805007000337355	1184.860678300029	1453.6016925000004	1454.6164358000387	1455.4594220000436	1456.9926000999983	1458.0142213000215	1459.0321973999962	1460.057011199999	1461.0772413000232	1462.037192800024	2020-09-22 11:06:28.535979	-0.745691094912902	-1.49937552493521	-2.58441725328547	-3.49539827309672	-3.33010834819837	-2.58441725328547	0.745691094912902	-1.49937552493521	-2.58441725328547	-3.33010834819837	-2.58441725328547	1.49937552493521	-4.373321006165799	-1.3659304593348507	-1.2187068471194549	-3.8725308758528643	-4.16178848663532	-1.2187068471194549	1.8773532561232789	-4.876908169960286	-0.5035871637944873	-2.1390588891930324	-0.4455784172612707	2	wrong	1.0
277.1976667999986	9.45901380002033	nogo_punish	1.0	277.2227373999774	279.7454744999993	282.2669066999804	2.5227371000219136	278.229573999997	281.2617508000112	285.32853439997393	1.5159005000023171	1.0051558999691679	1.3532168000238016	284.3141474999718	0.3058552999864332	283.2871435999982	1	1	93	3	nogo_punish	1	-1	0	0	0	1	0	0.0	1.0	0	1.0	0.3058552999864332	1184.860678300029	1462.0834157000063	1463.090252300026	1464.6061528000282	1466.12242910004	1467.1275850000093	1468.147821900027	1469.1748258000007	1470.1892127000028	1471.5424295000266	2020-09-22 11:06:28.535979	2.1643257714533	-2.03910284859901	-0.494181377529178	-2.00396471802349	-2.65850714898248	-0.494181377529178	-2.1643257714533	-0.494181377529178	-2.03910284859901	-0.494181377529178	-2.65850714898248	0.494181377529178	-1.4633041397995967	-1.9056577829986505	0.8715290286368372	-2.381097320779634	-3.4901872874194297	0.8715290286368372	0.8721591087172469	-2.0409811992910942	-0.5776770594914971	-1.1338647417870003	0.09973598742518952	2	correct	1.0
286.6931772000387	8.906140099978074	nogo_reward	0.2687146000098437	286.7182478000175	288.778348599968	291.3337172999743	2.0601007999505327	287.734695299994	290.311570499965	294.3791145000139	1.0436532999740393	1.0221468000092955	1.24527339998167	293.3697038000098	0.3171253000036813	292.34381679998455	1	1	94	1	nogo_reward	1	0	1	0	1	0	0	0.0	1.0	0	0.2687146000098437	0.3171253000036813	1184.860678300029	1471.5789261000464	1472.5953736000229	1473.639026899997	1475.172248799994	1476.1943956000032	1477.2044951000134	1478.2303821000387	1479.2397928000428	1480.4850662000244	2020-09-22 11:06:28.535979	2.62788165229056	0.890538647528822	0.0	0.890538647528822	2.62788165229056	0.0	-2.62788165229056	0.890538647528822	0.0	2.62788165229056	0.0	-0.890538647528822	-0.9997482589623368	1.0239837131291813	1.3657104061660152	0.5134060447726776	1.7962015138536103	1.3657104061660152	-0.5125609163407531	1.081081830528644	2.080830089490983	0.2508552832709997	2.1388388360241994	2	correct	1.0
295.6371205000321	8.826648199988995	go_punish	1.0	295.6621911000109	297.45615320000775	299.97931749996474	1.793962099996861	296.67589519999433	298.9587196999928	303.0262712999827	0.7802580000134185	1.020597799971938	1.4625680000171997	302.02718259999506	0.3282344000181183	300.99785390001466	1	1	95	4	go_punish	0	-1	0	1	0	0	0	1.0	0.0	0	1.0	0.3282344000181183	1184.860678300029	1480.5228694000398	1481.5365735000232	1482.3168315000366	1483.8193980000217	1484.8399957999936	1485.8585322000436	1486.887860900024	1487.8869496000116	1489.3495176000288	2020-09-22 11:06:28.535979	0.590550787496936	-1.44329714295634	-2.58441725328547	-3.3713972659208	-3.17496804078241	-2.58441725328547	-0.590550787496936	-2.58441725328547	-1.44329714295634	-2.58441725328547	-3.17496804078241	2.58441725328547	-3.037079123755961	-1.3098520773559805	-1.2187068471194549	-3.748529868676944	-4.0066481792193605	-1.2187068471194549	2.962394984473539	-4.1312170750473864	-1.0941379512914273	-3.2241006175432925	0.6955416930678595	2	wrong	1.0
304.50778949999926	8.383275900036097	nogo_punish	1.0	304.53286009997805	305.8531071000032	308.3742410999837	1.3202470000251196	305.52846309996653	307.36318759998517	311.43711479997705	0.32464400003664196	1.0110534999985248	1.4790212000370957	310.42255289998116	0.4521911999909207	309.38786339998455	1	1	96	3	nogo_punish	1	-1	0	0	0	1	0	1.0	0.0	0	1.0	0.4521911999909207	1184.860678300029	1489.393538400007	1490.3891413999954	1490.713785400032	1492.223865900014	1493.2349194000126	1494.2485417000134	1495.28323120001	1496.297793100006	1497.776814300043	2020-09-22 11:06:28.535979	2.12697680741233	-2.03910284859901	-0.47703459291435	-1.93585045745713	-2.60401140032668	-0.47703459291435	-2.12697680741233	-0.47703459291435	-2.03910284859901	-0.47703459291435	-2.60401140032668	0.47703459291435	-1.500653103840567	-1.9056577829986505	0.8886758132516652	-2.3129830602132744	-3.43569153876363	0.8886758132516652	0.8550123241024189	-2.023834414676266	-0.5231813108356973	-1.1167179571721721	0.09973598742518952	2	wrong	1.0
312.92842160002306	8.138587399967946	nogo_reward	0.3806447000242769	312.95349220000185	314.2474557000096	316.789280699973	1.2939635000077487	313.96867009997345	315.76595909998264	319.8487366999616	0.2787856000361444	1.0233215999903678	1.2433429000082015	318.83587830001466	0.3083581000100821	317.80551809997974	1	1	97	1	nogo_reward	0	1	0	0	1	0	0	0.0	1.0	1	0.3806447000242769	0.3083581000100821	1184.860678300029	1497.8141705000307	1498.8293484000023	1499.1081340000385	1500.6266374000115	1501.649959000002	1502.6661964000086	1503.6965566000436	1504.7094149999905	1505.9527578999987	2020-09-22 11:06:28.535979	2.56541224292706	0.855877476982218	0.0	0.855877476982218	2.56541224292706	0.0	-2.56541224292706	0.855877476982218	0.0	2.56541224292706	0.0	9.130850218824682	-1.0622176683258369	0.9893225425825775	1.3657104061660152	0.47874487422607376	1.7337321044901102	1.3657104061660152	9.508827950012751	1.018612421165144	2.080830089490983	0.21619411272439581	2.1388388360241994	2	correct	1.0
321.1098464000388	7.898957799945265	go_reward	0.428330700029619	321.1349170000176	322.69772489997536	325.2392987000055	1.562807899957761	322.144380100013	324.2232619000131	328.27578189998144	0.5533447999623604	1.0160367999924347	0.7580928999814205	327.2755845999925	0.4530530000338331	326.2449727999626	1	1	98	2	go_reward	1	1	0	1	1	1	0	1.0	0.0	1	0.428330700029619	0.4530530000338331	1184.860678300029	1505.9955953000465	1507.005058400042	1507.5584032000042	1509.083940200042	1510.0999770000344	1511.1056510999915	1512.1362629000214	1513.1364602000103	1513.8945530999918	2020-09-22 11:06:28.535979	4.52450939488928	2.17167357135332	0.830087300636738	2.68166718980857	5.35459669552602	0.830087300636738	-4.52450939488928	2.17167357135332	0.830087300636738	5.35459669552602	0.830087300636738	7.81505412445358	0.8968794836363827	2.3051186369536794	2.195797706802753	2.304534587052426	4.5229165570890695	2.195797706802753	8.19303185564165	3.8077968737641035	2.9109173901277208	1.5319902070954976	2.9689261366609374	2	wrong	1.0
329.0458097000371	8.383302599948365	nogo_reward	0.2889733000192791	329.0708803000159	330.6389384999636	333.17058009997686	1.5680581999477	330.0699702000127	332.15588599996386	336.2338491000114	0.5689682999509387	1.0146941000130028	1.2203337999528685	335.2188230999743	0.2947615000302903	334.188284999982	1	1	99	1	nogo_reward	1	0	1	0	1	0	1	0.0	0.0	0	0.2889733000192791	0.2947615000302903	1184.860678300029	1513.9315586000448	1514.9306485000416	1515.4996167999925	1517.0165642999928	1518.0312584000058	1519.0489633000109	1520.0795014000032	1521.0945274000403	1522.3148611999932	2020-09-22 11:06:28.535979	3.0773478539661	1.13915203969526	0.0	1.13915203969526	3.0773478539661	0.0	-3.0773478539661	1.13915203969526	0.0	3.0773478539661	0.0	-1.13915203969526	-0.5502820572867968	1.2725971052956193	1.3657104061660152	0.7620194369391156	2.2456677155291502	1.3657104061660152	-0.761174308507191	1.530548032204184	2.080830089490983	0.49946867543743767	2.1388388360241994	2	wrong	1.0
337.4717601999871	8.907635800016578	nogo_punish	1.0	337.4968307999659	339.3393665999754	341.8564337000132	1.8425358000095002	338.4965535000081	340.8420626000152	344.9092098000108	0.8428130999673158	1.0143710999980158	1.4952567999716848	343.8947880999765	0.3826192999840714	342.87626889999933	1	1	100	3	nogo_punish	1	-1	0	0	0	1	0	0.0	1.0	0	1.0	0.3826192999840714	1184.860678300029	1522.3575090999948	1523.357231800037	1524.2000449000043	1525.702740900044	1526.717112000042	1527.7369472000282	1528.7554664000054	1529.7698881000397	1531.2651449000114	2020-09-22 11:06:28.535979	2.09124079234242	-2.03910284859901	-0.460663379188435	-1.87075349704084	-2.55190417153086	-0.460663379188435	-2.09124079234242	-0.460663379188435	-2.03910284859901	-0.460663379188435	-2.55190417153086	0.460663379188435	-1.5363891189104768	-1.9056577829986505	0.9050470269775803	-2.2478860997969843	-3.38358430996781	0.9050470269775803	0.8386411103765039	-2.007463200950351	-0.47107408203987733	-1.1003467434462573	0.09973598742518952	2	correct	1.0
346.4200779999953	8.385256999987178	nogo_punish	1.0	346.4451485999741	348.28284349996807	350.8052730999766	1.8376948999939486	347.4555517999688	349.7856439999882	353.85234370001103	0.8272916999992503	1.0196290999883786	0.9780618999502622	352.8463536999768	0.2457699000369757	351.82508629997005	1	1	101	3	nogo_punish	1	-1	0	0	0	1	0	1.0	0.0	0	1.0	0.2457699000369757	1184.860678300029	1531.305826900003	1532.3162300999977	1533.143521799997	1534.6463223000171	1535.6659514000055	1536.685764599999	1537.7070320000057	1538.71302200004	1539.6910838999902	2020-09-22 11:06:28.535979	2.05701971150012	-2.03910284859901	-0.445019762446369	-1.8084895766147	-2.50203947394649	-0.445019762446369	-2.05701971150012	-0.445019762446369	-2.03910284859901	-0.445019762446369	-2.50203947394649	0.445019762446369	-1.5706101997527768	-1.9056577829986505	0.9206906437196463	-2.1856221793708444	-3.33371961238344	0.9206906437196463	0.8229974936344379	-1.991819584208285	-0.42120938445550715	-1.0847031267041913	0.09973598742518952	2	wrong	1.0
354.8448272999956	8.37997730000643	go_reward	0.2020268000196665	354.8698978999744	356.8488242999881	359.3705189999889	1.9789264000137337	355.8820587999651	358.365712700004	362.4182931999676	0.9667655000230297	1.0048062999849208	0.8315820000132135	361.40377659996716	0.2903527000453323	360.3906440999708	1	1	102	2	go_reward	1	1	0	1	1	1	0	0.0	1.0	1	0.2020268000196665	0.2903527000453323	1184.860678300029	1539.7305762000033	1540.742737099994	1541.709502600017	1543.226391000033	1544.2311973000178	1545.2513223999997	1546.264454899996	1547.2789714999965	1548.1105535000097	2020-09-22 11:06:28.535979	4.9193197204642	2.39766903983414	0.830087300636738	2.89047131630809	5.74940702110094	0.830087300636738	-4.9193197204642	2.39766903983414	0.830087300636738	5.74940702110094	0.830087300636738	7.58905865597276	1.2916898092113032	2.5311141054344994	2.195797706802753	2.513338713551946	4.91772688266399	2.195797706802753	7.967036387160829	4.202607199339024	2.9109173901277208	1.7579856755763177	2.9689261366609374	2	correct	1.0
363.2610359000389	9.56285739998566	nogo_reward	0.7625157000147738	363.2861065000177	365.86940769996704	368.418342199991	2.5833011999493465	364.2928764999958	367.40344829997025	371.45481839997205	1.576531199971214	1.014893900020752	1.3941455000313	370.4408923999872	0.2740458999760449	369.4270419999955	1	1	103	1	nogo_reward	1	0	1	0	1	0	0	0.0	1.0	0	0.7625157000147738	0.2740458999760449	1184.860678300029	1548.1467848000466	1549.1535548000247	1550.730085999996	1552.2641265999991	1553.27902050002	1554.2877203000244	1555.301570700016	1556.315496700001	1557.7096422000322	2020-09-22 11:06:28.535979	2.99611681165542	1.09409868186993	0.0	1.09409868186993	2.99611681165542	0.0	-2.99611681165542	1.09409868186993	0.0	2.99611681165542	0.0	-1.09409868186993	-0.6315130995974769	1.2275437474702895	1.3657104061660152	0.7169660791137857	2.16443667321847	1.3657104061660152	-0.7161209506818612	1.4493169898935039	2.080830089490983	0.45441531761210785	2.1388388360241994	2	correct	1.0
372.86188029998425	7.989667800022289	go_reward	0.7828675999771804	372.88695089996304	374.2540534000143	376.80359369999474	1.36710250005126	373.9015089999882	375.78439559997037	379.8505217999916	0.35254440002609044	1.0191981000243686	1.0260968999937177	378.836443600012	0.4547702000127174	377.8142220000152	1	1	104	2	go_reward	0	0	1	1	1	1	1	1.0	1.0	0	0.7828675999771804	0.4547702000127174	1184.860678300029	1557.747629199992	1558.762187300017	1559.1147317000432	1560.6450738999993	1561.6642720000236	1562.674900300044	1563.6971219000409	1564.7112001000205	1565.7372970000142	2020-09-22 11:06:28.535979	5.29928151999776	2.61509760242102	0.830087300636738	3.09143073262845	6.1293688206345	0.830087300636738	-5.29928151999776	2.61509760242102	0.830087300636738	6.1293688206345	0.830087300636738	-2.61509760242102	1.6716516087448632	2.7485426680213796	2.195797706802753	2.7142981298723057	5.29768868219755	2.195797706802753	-2.2371198712329514	4.582568998872584	2.9109173901277208	1.9754142381631978	2.9689261366609374	2	correct	1.0
380.88809500000184	8.685141300025862	go_punish	1.0	380.91316559998063	383.1006883999796	385.6410542000083	2.1875227999989875	381.9275854000002	384.6159850999827	388.68554360000394	1.1731029999793918	1.0250691000255756	0.9127633000025526	387.6694032999801	0.4462944000260904	386.6548009999674	1	1	105	4	go_punish	1	0	-1	1	0	0	0	0.0	1.0	-1	1.0	0.4462944000260904	1184.860678300029	1565.7738439000095	1566.7882637000291	1567.9613667000085	1569.4766634000116	1570.5017325000372	1571.5154792999963	1572.530081600009	1573.5462219000328	1574.4589852000354	2020-09-22 11:06:28.535979	0.590971904180336	-1.44329714295634	-2.48962535277573	-3.25331981320616	-3.08059725695607	-2.48962535277573	-0.590971904180336	-2.48962535277573	-1.44329714295634	-2.48962535277573	-3.08059725695607	-9.092771583715669	-3.036658007072561	-1.3098520773559805	-1.123914946609715	-3.630452415962304	-3.9122773953930197	-1.123914946609715	-8.714793852527599	-4.036425174537646	-0.999767167465087	-3.1293087170335525	0.6955416930678595	2	correct	1.0
389.61622510000575	9.510389400005806	go_punish	1.0	389.64129569998454	392.61903200001666	395.1457873000179	2.97773630003212	390.66116899996973	394.12190049997275	398.2061100999706	1.9578630000469275	1.0238868000451475	0.945575000019744	397.19058439997	0.4050472000380978	396.160785899963	1	1	106	4	go_punish	1	0	-1	1	0	0	0	0.0	1.0	-1	1.0	0.4050472000380978	1184.860678300029	1574.5019740000134	1575.5218472999986	1577.4797103000456	1578.9825788000016	1580.0064656000468	1581.021464199992	1582.051262699999	1583.0667883999995	1584.0123634000192	2020-09-22 11:06:28.535979	0.526707509767059	-1.44329714295634	-2.73896224454906	-3.48014648067872	-3.26566975431612	-2.73896224454906	-0.526707509767059	-2.73896224454906	-1.44329714295634	-2.73896224454906	-3.26566975431612	-8.843434691942338	-3.100922401485838	-1.3098520773559805	-1.3732518383830448	-3.857279083434864	-4.09734989275307	-1.3732518383830448	-8.465456960754269	-4.285762066310976	-1.1848396648251374	-3.3786456088068824	0.6955416930678595	2	correct	1.0
399.1689831999827	9.649619100033306	nogo_punish	1.0	399.19405379996147	401.9065824999702	404.4341999000169	2.712528700008761	400.2037049999924	403.40871469996614	407.4905741999971	1.7028774999778307	1.0254852000507526	1.3530986999976449	406.47901989996876	0.5417202999815345	405.44915619998915	1	1	107	3	nogo_punish	0	0	-1	0	0	1	0	0.0	1.0	-1	1.0	0.5417202999815345	1184.860678300029	1584.0547320999904	1585.0643833000213	1586.7672607999991	1588.269392999995	1589.2948782000458	1590.309834500018	1591.3396981999977	1592.351252500026	1593.7043512000237	2020-09-22 11:06:28.535979	2.02422435186145	-2.03910284859901	-0.430060013200165	-1.74889089732027	-2.45428436506162	-0.430060013200165	-2.02422435186145	-0.430060013200165	-2.03910284859901	-0.430060013200165	-2.45428436506162	-11.152336923291234	-1.603405559391447	-1.9056577829986505	0.9356503929658502	-2.126023500076414	-3.28596450349857	0.9356503929658502	-10.774359192103164	-1.9768598349620812	-0.37345427557063715	-1.0697433774579872	0.09973598742518952	2	correct	1.0
408.8569417999822	8.62439800001448	go_punish	1.0	408.882012399961	410.7551785999674	413.277971400006	1.8731662000063807	409.8895185000142	412.2726049000048	416.339963199978	0.8656600999531747	1.0053665000011733	1.1664471999974921	415.325505100016	0.3412991999648511	414.29563780000876	1	1	108	4	go_punish	0	-1	0	1	0	0	1	0.0	0.0	0	1.0	0.3412991999648511	1184.860678300029	1593.74269069999	1594.750196800043	1595.6158568999963	1597.1332832000337	1598.1386497000349	1599.1563161000377	1600.186183400045	1601.200641500007	1602.3670887000044	2020-09-22 11:06:28.535979	0.464821408063165	-1.44329714295634	-2.97944882271655	-3.69887807502605	-3.44427023077971	-2.97944882271655	-0.464821408063165	-2.97944882271655	-1.44329714295634	-2.97944882271655	-3.44427023077971	2.97944882271655	-3.1628085031897317	-1.3098520773559805	-1.6137384165505348	-4.076010677782194	-4.27595036921666	-1.6137384165505348	3.357426553904619	-4.526248644478466	-1.3634401412887271	-3.6191321869743724	0.6955416930678595	2	wrong	1.0
417.52020989998687	9.403664100042079	go_reward	0.3140765000134706	417.54528049996566	420.1047693999715	422.6628491000156	2.5594889000058174	418.559275600011	421.63702359999274	425.7054480999939	1.545493799960468	1.0258255000228473	1.2434965000138618	424.69098559999816	0.4394095999887213	423.6734160999765	1	1	109	2	go_reward	1	1	0	1	1	1	0	0.0	1.0	1	0.3140765000134706	0.4394095999887213	1184.860678300029	1602.4059587999946	1603.41995390004	1604.9654477000004	1606.4977019000216	1607.5235274000445	1608.5340944000054	1609.551663900027	1610.5661264000228	1611.8096229000366	2020-09-22 11:06:28.535979	5.09433133491393	2.5084339732367	0.830087300636738	2.96898315894671	5.92441863555067	0.830087300636738	-5.09433133491393	2.5084339732367	0.830087300636738	5.92441863555067	0.830087300636738	7.4782937225702	1.466701423661033	2.641879038837059	2.195797706802753	2.591850556190566	5.09273849711372	2.195797706802753	7.856271453758269	4.377618813788754	2.9109173901277208	1.8687506089788775	2.9689261366609374	2	correct	1.0
426.97024370002305	9.662426499999356	go_reward	0.4358671000227332	426.99531430000184	429.5939669999641	432.15331819996914	2.5986526999622583	427.9878020000176	431.127913700009	435.1940827000069	1.6061649999464862	1.025404499960132	1.4636580999942908	434.18075890000887	0.5472932999837212	433.1594656999803	1	1	110	2	go_reward	1	1	0	1	1	1	0	0.0	1.0	1	0.4358671000227332	0.5472932999837212	1184.860678300029	1611.8559926000307	1612.8484803000465	1614.454645299993	1615.988592000038	1617.013996499998	1618.0201440000092	1619.0414372000378	1620.0547610000358	1621.51841910003	2020-09-22 11:06:28.535979	5.47245005272098	2.7241851239935	0.830087300636738	3.16960060724443	6.30253735335772	0.830087300636738	-5.47245005272098	2.7241851239935	0.830087300636738	6.30253735335772	0.830087300636738	7.2625425718134	1.844820141468083	2.8576301895938596	2.195797706802753	2.7924680044882857	5.47085721492077	2.195797706802753	7.640520303001469	4.755737531595804	2.9109173901277208	2.084501759735678	2.9689261366609374	2	correct	1.0
436.671393700002	9.88861269998597	go_punish	1.0	436.6964642999808	439.536698199983	442.0762463000135	2.840233900002204	437.7106933000032	441.0539663999805	445.1389840999616	1.8260048999798073	1.022279900033027	1.4460929000051692	444.1226359999853	0.4027636999962851	443.0941341000141	1	1	111	4	go_punish	0	-1	0	1	0	0	0	0.0	1.0	0	1.0	0.4027636999962851	1184.860678300029	1621.5571426000097	1622.571371600032	1624.397376500012	1625.9146447000094	1626.9369246000424	1627.954812400043	1628.9833143000142	1629.9996623999905	1631.4457552999957	2020-09-22 11:06:28.535979	0.469521355997643	-1.44329714295634	-2.87211973219904	-3.57052741157971	-3.34164108819669	-2.87211973219904	-0.469521355997643	-2.87211973219904	-1.44329714295634	-2.87211973219904	-3.34164108819669	2.87211973219904	-3.1581085552552537	-1.3098520773559805	-1.506409326033025	-3.9476600143358542	-4.17332122663364	-1.506409326033025	3.250097463387109	-4.418919553960956	-1.2608109987057072	-3.5118030964568625	0.6955416930678595	2	correct	1.0
446.6016537999965	8.072486600023922	nogo_punish	1.0	446.6267243999753	448.33131019998086	450.86275039997395	1.7045858000055887	447.6381106000042	449.84207379998384	453.9247066999667	0.6931995999766514	1.0206765999901108	0.774504300032504	452.9109140000071	0.3259301999933086	451.88187440001616	1	1	112	3	nogo_punish	1	-1	0	0	0	1	0	0.0	1.0	0	1.0	0.3259301999933086	1184.860678300029	1631.4874027000042	1632.498788900033	1633.1919885000098	1634.7027521000127	1635.7234287000028	1636.742552700045	1637.771592300036	1638.7853849999956	1639.559889300028	2020-09-22 11:06:28.535979	1.92845877528444	-2.03910284859901	-0.755136446751933	-2.03119632728873	-2.68359522203637	-0.755136446751933	-1.92845877528444	-0.755136446751933	-2.03910284859901	-0.755136446751933	-2.68359522203637	0.755136446751933	-1.699171135968457	-1.9056577829986505	0.6105739594140822	-2.408328930044874	-3.51527536047332	0.6105739594140822	1.1331141779400018	-2.301936268513849	-0.6027651325453873	-1.3948198110097554	0.09973598742518952	2	correct	1.0
454.71159860002786	9.070699599978752	go_punish	1.0	454.73666920000665	457.0939625999888	459.62047700001835	2.3572933999821544	455.75015549996147	458.60454570001434	462.67871840001294	1.343807100027334	1.0159313000040129	1.1286503999724573	461.66942779999204	0.5583124999538995	460.63551160000475	1	1	113	4	go_punish	1	0	-1	1	0	0	1	0.0	0.0	-1	1.0	0.5583124999538995	1184.860678300029	1639.5973475000355	1640.6108337999904	1641.9546409000177	1643.4652240000432	1644.4811553000472	1645.4961899000336	1646.530106100021	1647.5393967000418	1648.6680471000143	2020-09-22 11:06:28.535979	0.473699192604398	-1.44329714295634	-2.77000228913392	-3.44809894204713	-3.24370148173832	-2.77000228913392	-0.473699192604398	-2.77000228913392	-1.44329714295634	-2.77000228913392	-3.24370148173832	-8.812394647357479	-3.153930718648499	-1.3098520773559805	-1.404291882967905	-3.825231544803274	-4.07538162017527	-1.404291882967905	-8.43441691616941	-4.3168021108958365	-1.1628713922473373	-3.4096856533917426	0.6955416930678595	2	wrong	1.0
463.8196675000361	9.223567099950742	nogo_reward	0.3129332999815233	463.84473810001487	466.27092400001106	468.82167500001356	2.4261858999961987	464.84947979997355	467.805878599989	471.85630779998587	1.421444200037513	1.0157964000245556	1.2119973999797367	470.8427303999774	0.2229855000041425	469.828851900005	1	1	114	1	nogo_reward	1	0	1	0	1	0	0	0.0	1.0	0	0.3129332999815233	0.2229855000041425	1184.860678300029	1648.7054164000438	1649.7101581000024	1651.13160230004	1652.666556900018	1653.6823533000425	1654.689530200034	1655.7034087000063	1656.7169861000148	1657.9289834999945	2020-09-22 11:06:28.535979	2.9196570258802	1.05167442474216	0.0	1.05167442474216	2.9196570258802	0.0	-2.9196570258802	1.05167442474216	0.0	2.9196570258802	0.0	-1.05167442474216	-0.7079728853726968	1.1851194903425195	1.3657104061660152	0.6745418219860158	2.0879768874432503	1.3657104061660152	-0.6736966935540912	1.372857204118284	2.080830089490983	0.41199106048433787	2.1388388360241994	2	correct	1.0
473.08577220002144	8.275799700000789	nogo_punish	1.0	473.1108428000002	474.8394714000167	477.3611991999785	1.7286286000164637	474.12180809996767	476.340704699978	480.4238773999966	0.7176633000490256	1.0204945000004955	0.9627651000043898	479.4095185999754	0.3288540000212379	478.3739267999772	1	1	115	3	nogo_punish	1	-1	0	0	0	1	0	0.0	1.0	0	1.0	0.3288540000212379	1184.860678300029	1657.9715211000291	1658.9824863999966	1659.7001497000456	1661.201383000007	1662.2218775000074	1663.234605100006	1664.2701969000043	1665.2845557000255	1666.24732080003	2020-09-22 11:06:28.535979	1.90097001573029	-2.03910284859901	-0.728188923499014	-1.96324158151914	-2.6291589392293	-0.728188923499014	-1.90097001573029	-0.728188923499014	-2.03910284859901	-0.728188923499014	-2.6291589392293	0.728188923499014	-1.726659895522607	-1.9056577829986505	0.6375214826670013	-2.340374184275284	-3.46083907766625	0.6375214826670013	1.1061666546870828	-2.27498874526093	-0.5483288497383172	-1.3678722877568363	0.09973598742518952	2	correct	1.0
481.40170729998476	9.011307500011753	nogo_punish	1.0	481.42677789996355	483.86748949997104	486.38159140001494	2.4407116000074893	482.4387526999924	485.3666502999838	489.44560440001055	1.428736799978651	1.0149411000311375	0.992480999964755	488.4376877999748	0.4510908999945968	487.39968949998706	1	1	116	3	nogo_punish	1	-1	0	0	0	1	0	0.0	1.0	0	1.0	0.4510908999945968	1184.860678300029	1666.2874561999924	1667.2994310000213	1668.7281678	1670.2273286000127	1671.2422697000438	1672.260367800016	1673.2983661000037	1674.3062827000394	1675.2987637000042	2020-09-22 11:06:28.535979	1.87452842066555	-2.03910284859901	-0.702550893990828	-1.89826416482654	-2.57707931465638	-0.702550893990828	-1.87452842066555	-0.702550893990828	-2.03910284859901	-0.702550893990828	-2.57707931465638	0.702550893990828	-1.753101490587347	-1.9056577829986505	0.6631595121751872	-2.2753967675826843	-3.40875945309333	0.6631595121751872	1.0805286251788968	-2.249350715752744	-0.49624922516539716	-1.3422342582486504	0.09973598742518952	2	correct	1.0
490.44905430002814	8.236934399988968	nogo_reward	0.840941299975384	490.4741249000069	491.9028348000136	494.42886300000805	1.4287099000066519	491.4821964	493.4285052999619	497.46454710001103	0.42063840001355857	1.0003577000461519	1.2465121999848634	496.4506808000149	0.284461300005205	495.4403632999745	1	1	117	1	nogo_reward	1	0	1	0	1	0	0	0.0	1.0	0	0.840941299975384	0.284461300005205	1184.860678300029	1675.3348032000358	1676.342874700029	1676.7635131000425	1678.2891835999908	1679.289541300037	1680.3010416000034	1681.3113591000438	1682.32522540004	1683.5717376000248	2020-09-22 11:06:28.535979	2.84752591873095	1.01163647597384	0.0	1.01163647597384	2.84752591873095	0.0	-2.84752591873095	1.01163647597384	0.0	2.84752591873095	0.0	-1.01163647597384	-0.7801039925219468	1.1450815415741995	1.3657104061660152	0.6345038732176957	2.015845780294	1.3657104061660152	-0.6336587447857712	1.300726096969034	2.080830089490983	0.37195311171601786	2.1388388360241994	2	correct	1.0
498.7243058999884	9.443256700003758	go_reward	0.3081078000250272	498.7493764999672	501.52461969997944	504.0850346999939	2.7752432000122553	499.76050099998224	503.05934659997	507.1421906999892	1.7641186999971978	1.025688100023899	1.0504424999817275	506.12800409999886	0.4546741000376642	505.09832429996436	1	1	118	2	go_reward	1	1	0	1	1	1	0	0.0	1.0	1	0.3081078000250272	0.4546741000376642	1184.860678300029	1683.610054799996	1684.6211793000111	1686.3852980000083	1687.920024899999	1688.9457130000228	1689.9590025999933	1690.9886824000278	1692.002869000018	1693.0533114999998	2020-09-22 11:06:28.535979	5.83609452243816	2.93162877730757	0.830087300636738	3.36252782960992	6.6661818230749	0.830087300636738	-5.83609452243816	2.93162877730757	0.830087300636738	6.6661818230749	0.830087300636738	7.05509891849933	2.2084646111852635	3.0650738429079296	2.195797706802753	2.985395226853776	5.834501684637949	2.195797706802753	7.433076649687399	5.119382001312983	2.9109173901277208	2.291945413049748	2.9689261366609374	2	correct	1.0
508.2099125999955	8.734077200002503	nogo_punish	1.0	508.2349831999743	510.4691966999669	512.9960858999982	2.23421349999262	509.24478850001447	511.9711772999724	516.0534415	1.2244081999524496	1.0249086000258103	0.9156188999768347	515.0391381999941	0.5168620000476949	514.0117533999728	1	1	119	3	nogo_punish	0	0	-1	0	0	1	0	0.0	1.0	-1	1.0	0.5168620000476949	1184.860678300029	1693.0956615000032	1694.1054668000434	1695.3298749999958	1696.8318556000013	1697.856764200027	1698.8724317000017	1699.899816500023	1700.9141198000289	1701.8297387000057	2020-09-22 11:06:28.535979	1.84908401042522	-2.03910284859901	-0.678127631000976	-1.83608067681705	-2.5272116414262	-0.678127631000976	-1.84908401042522	-0.678127631000976	-2.03910284859901	-0.678127631000976	-2.5272116414262	-10.904269305490423	-1.778545900827677	-1.9056577829986505	0.6875827751650393	-2.213213279573194	-3.35889177986315	0.6875827751650393	-10.526291574302354	-2.224927452762892	-0.4463815519352172	-1.3178109952587982	0.09973598742518952	2	correct	1.0
516.9825302000388	8.012396899983287	go_reward	0.6371843999950215	517.0076008000176	518.6835296999777	521.2333718999869	1.6759288999601267	518.0205653000155	520.2086462000152	524.2679113000047	0.6629643999622203	1.0247256999716683	0.7520863999961875	523.2613813999922	0.3008085999754257	522.248029900016	1	1	120	2	go_reward	1	1	0	1	1	1	1	1.0	1.0	1	0.6371843999950215	0.3008085999754257	1184.860678300029	1701.8682791000465	1702.8812436000444	1703.5442080000066	1705.069324500044	1706.0940502000158	1707.108708200045	1708.122059700021	1709.1285896000336	1709.8806760000298	2020-09-22 11:06:28.535979	6.18608696441415	3.13123343643471	0.830087300636738	3.54820227509762	7.01617426505089	0.830087300636738	-6.18608696441415	3.13123343643471	0.830087300636738	7.01617426505089	0.830087300636738	6.85549425937219	2.558457053161253	3.2646785020350695	2.195797706802753	3.171069672341476	6.18449412661394	2.195797706802753	7.2334719905602585	5.469374443288974	2.9109173901277208	2.4915500721768877	2.9689261366609374	2	correct	1.0
