onset	duration	trial_type	response_time	cueOnset	targetOnset	fbOnset	cueRT	firstfixOnset	secondfixOnset	waitOnset	firstfixdur	secondfixdur	waitdur	nback_fbOnset	nback_response_time	nback_targetOnset	block	wm	trial	cue	cond	is_common	outcome_go	outcome_nogo	key_correct	key_pressed	is_correct	key_correct_nback	key_pressed_nback	is_correct_nback	outcome	rt	rt_nback	time_scan	time_onset	time_isi1	time_circle	time_isi2	time_feedback	time_same	time_correct	time_iti	time_done	timestamp_scan	DV	Qgo	Qnogo	SV	Wgo	Wnogo	mDV	Qchosen	Qunchosen	Wchosen	Wunchosen	PE	DVC	QgoC	QnogoC	SVC	WgoC	WnogoC	PEC	WchosenC	WunchosenC	QchosenC	QunchosenC	run	outcome_nback	nback_targetResp
0.0	7.105259299976979	go_reward	0.3850883999839425	0.012371599907055497	2.229220800101757	4.774206799920648	2.2168492001947016	1.020115300081443	3.759612400084734	5.774708299897611	1.2091055000203141	1.0145943998359144	1.342922599986423	n/a	1.0	n/a	2	0	61	1	go_reward	1	1	0	1	1	1	0	n/a	n/a	1	0.3850883999839425	1.0	1753.646480299998	1753.6588518999051	1754.6665956000795	1755.8757011000998	1757.4060927000828	1758.4206870999187	n/a	n/a	1759.4211885998957	1760.764111199882	2019-12-31 19:23:24.012907	20.9392928577088	15.3758728410844	0.0	15.3758728410844	20.9392928577088	0.0	-20.9392928577088	15.3758728410844	0.0	20.9392928577088	0.0	0.014011246535901023	14.241998286760193	14.760600751576927	-0.8014663329031446	11.438324325385889	18.29624141718842	-0.8014663329031446	-0.3445337166437377	15.868386685522738	1.6263883987625374	11.336491143555808	2.622643275117976	4	missed	0.0
7.147675900021568	6.803500300040469	nogo_reward	1.0	7.160047499928623	8.948237200034782	11.469362800009549	1.7881897001061589	8.168203599983826	10.455830899998546	12.479427499929443	0.780033600050956	1.013531900011003	1.484120300039649	n/a	1.0	n/a	2	0	62	2	nogo_reward	1	0	1	0	0	1	1	n/a	n/a	1	1.0	1.0	1753.646480299998	1760.8065277999267	1761.814683899982	1762.5947175000329	1764.1023111999966	1765.1158431000076	n/a	n/a	1766.1259077999275	1767.6100280999672	2019-12-31 19:23:24.012907	9.68423896828601	0.0	15.1955143613411	15.1955143613411	5.51127539305513	15.1955143613411	-9.68423896828601	15.1955143613411	0.0	15.1955143613411	5.51127539305513	0.19436972627920035	2.9869443973374024	-0.615272089507473	14.394048028437956	11.257965845642591	2.868223952534748	14.394048028437956	-0.1641752369004384	10.124608189155039	7.137663791817667	11.15613266381251	2.622643275117976	4	missed	0.0
13.979624300030764	5.685468600131799	nogo_punish	1.0	13.99199589993782	15.325441499939188	17.858192099956796	1.3334456000013688	15.009454699931439	16.838545999955613	18.8713076999411	0.3159868000077495	1.0196461000011823	0.8061568001285195	n/a	1.0	n/a	2	0	63	4	nogo_punish	1	-1	0	0	0	1	0	n/a	n/a	0	1.0	1.0	1753.646480299998	1767.638476199936	1768.6559349999295	1768.9719217999373	1770.4850262999537	1771.5046723999549	n/a	n/a	1772.5177879999392	1773.3239448000677	2019-12-31 19:23:24.012907	3.34904005934456	-5.37563462213538	-1.12011510238709	-1.12111552891539	-4.46915516173165	-1.12011510238709	-3.34904005934456	-1.12011510238709	-5.37563462213538	-1.12011510238709	-4.46915516173165	1.12011510238709	-3.348254511604048	-5.990906711642854	-1.9215814352902345	-5.0586640446139	-7.112206602252032	-1.9215814352902345	0.7615701392074512	-6.191021274573152	-2.842766762969113	-5.159496799915681	-2.7529913470174043	4	missed	0.0
19.70684630004689	6.235798900015652	nogo_reward	1.0	19.719217899953946	21.514594899956137	24.054176300065592	1.7953770000021905	20.728070900077	23.03085090010427	25.06364810001105	0.7865239998791367	1.0233253999613225	0.891368699958548	n/a	1.0	n/a	2	0	64	2	nogo_reward	1	0	1	0	0	1	1	n/a	n/a	1	1.0	1.0	1753.646480299998	1773.365698199952	1774.374551200075	1775.1610751999542	1776.6773312001023	1777.7006566000637	n/a	n/a	1778.7101284000091	1779.6014970999677	2019-12-31 19:23:24.012907	9.75202773744469	0.0	15.2907816627939	15.2907816627939	5.53875392534922	15.2907816627939	-9.75202773744469	15.2907816627939	0.0	15.2907816627939	5.53875392534922	0.09910242482640008	3.0547331664960824	-0.615272089507473	14.489315329890756	11.353233147095391	2.895702484828838	14.489315329890756	-0.25944253835323866	10.219875490607839	7.165142324111757	11.25139996526531	2.622643275117976	4	missed	0.0
25.982989400159568	6.685535299824551	nogo_reward	1.0	25.995361000066623	28.281171200098242	30.811370299896225	2.2858102000316194	26.996631700079888	29.797503100009635	31.812216100050136	1.2845395000183544	1.0138671998865902	0.8686801998410374	n/a	1.0	n/a	2	0	65	2	nogo_reward	1	0	1	0	0	1	0	n/a	n/a	1	1.0	1.0	1753.646480299998	1779.6418413000647	1780.643112000078	1781.9276515000963	1783.4439834000077	1784.4578505998943	n/a	n/a	1785.4586964000482	1786.3273765998892	2019-12-31 19:23:24.012907	9.78583388064126	0.0	15.3383624195044	15.3383624195044	5.55252853886314	15.3383624195044	-9.78583388064126	15.3383624195044	0.0	15.3383624195044	5.55252853886314	0.05152166811590142	3.088539309692652	-0.615272089507473	14.536896086601255	11.40081390380589	2.9094770983427574	14.536896086601255	-0.3070232950637373	10.267456247318338	7.178916937625677	11.29898072197581	2.622643275117976	4	missed	0.0
32.71005650004372	6.422227000119165	nogo_reward	1.0	32.722428099950776	34.16776270000264	36.688078300096095	1.445334600051865	33.731747600017115	35.66724990005582	37.70680389995687	0.436015099985525	1.0208284000402728	1.437851200113073	n/a	1.0	n/a	2	0	66	2	nogo_reward	1	0	1	0	0	1	1	n/a	n/a	1	1.0	1.0	1753.646480299998	1786.3689083999489	1787.3782279000152	1787.8142430000007	1789.313730200054	1790.3345586000942	n/a	n/a	1791.353284199955	1792.791135400068	2019-12-31 19:23:24.012907	9.80305113326665	0.0	15.3626287567092	15.3626287567092	5.55957762344256	15.3626287567092	-9.80305113326665	15.3626287567092	0.0	15.3626287567092	5.55957762344256	0.02725533091110144	3.1057565623180414	-0.615272089507473	14.561162423806055	11.42508024101069	2.9165261829221776	14.561162423806055	-0.3312896322685373	10.291722584523137	7.185966022205097	11.32324705918061	2.622643275117976	4	missed	0.0
39.17555889999494	6.654839400202036	go_punish	0.3683951999992132	39.187930499901995	41.24086200003512	43.78228530008346	2.052931500133127	40.195412900066	42.76238949992694	44.79577469988703	1.0454490999691188	1.0198958001565188	1.0469952002169975	n/a	1.0	n/a	2	0	67	3	go_punish	1	0	-1	1	1	1	0	n/a	n/a	0	0.3683951999992132	1.0	1753.646480299998	1792.8344107999	1793.841893200064	1794.8873423000332	1796.408869799925	1797.4287656000815	n/a	n/a	1798.442254999885	1799.489250200102	2019-12-31 19:23:24.012907	8.61842240463844	-0.290938950293364	-7.78351656835266	-0.293991158813104	0.83490583628578	-7.78351656835266	-8.61842240463844	-0.290938950293364	-7.78351656835266	0.83490583628578	-7.78351656835266	0.290938950293364	1.921127833689833	-0.906211039800837	-8.584982901255804	-4.231539674511614	-1.8081456042346022	-8.584982901255804	-0.06760601288627477	-4.236000335900282	-6.1571281695901225	-4.330320647821955	-5.160873293234683	4	missed	0.0
45.87176090013236	6.392009899951518	go_punish	1.0	45.884132500039414	47.44553570006974	49.98143190005794	1.5614032000303268	46.88447210006416	48.96191269997462	50.99499740009196	0.561063600005582	1.019519200083323	1.2811449998989701	n/a	1.0	n/a	2	0	68	3	go_punish	0	-1	0	1	0	0	0	n/a	n/a	0	1.0	1.0	1753.646480299998	1799.5306128000375	1800.5309524000622	1801.0920160000678	1802.6083929999727	1803.627912200056	n/a	n/a	1804.64147770009	1805.922622699989	2019-12-31 19:23:24.012907	-8.80023467809583	-0.1477997601424	-7.78351656835266	-0.149516111668831	1.01671810974317	-7.78351656835266	8.80023467809583	-7.78351656835266	-0.1477997601424	-7.78351656835266	1.01671810974317	7.78351656835266	-15.497529249044437	-0.7630718496498731	-8.584982901255804	-4.087064627367341	-1.6263333307772123	-8.584982901255804	7.424971605173021	-12.854422740538721	2.6431065085057073	-11.82289826588125	2.474843514975576	4	missed	0.0
52.290567400166765	6.976376399863739	nogo_punish	1.0	52.30293900007382	54.356994400033955	56.88188709993824	2.0540553999601343	53.3111527999863	55.87130989995785	57.895225499989465	1.0458416000476518	1.0105771999803892	1.3840898999480942	n/a	1.0	n/a	2	0	69	4	nogo_punish	1	-1	0	0	0	1	0	n/a	n/a	0	1.0	1.0	1753.646480299998	1805.949419300072	1806.9576330999844	1808.003474700032	1809.517790199956	1810.5283673999363	n/a	n/a	1811.5417057999875	1812.9257956999356	2019-12-31 19:23:24.012907	3.77703971023386	-5.37563462213538	-0.537671472769777	-0.538243765892713	-4.31471118300364	-0.537671472769777	-3.77703971023386	-0.537671472769777	-5.37563462213538	-0.537671472769777	-4.31471118300364	0.537671472769777	-2.920254860714748	-5.990906711642854	-1.3391378056729217	-4.475792281591223	-6.957762623524022	-1.3391378056729217	0.17912650959013826	-5.608577644955838	-2.6883227842411026	-4.577053170298368	-2.7529913470174043	4	missed	0.0
59.30990580003731	5.996314000105485	nogo_reward	1.0	59.32227739994437	60.87590850004949	63.39225200004876	1.5536311001051217	60.329991499893595	62.38156679994427	64.40322960005119	0.545917000155896	1.01068520010449	0.9153617999986636	n/a	1.0	n/a	2	0	70	2	nogo_reward	0	1	0	0	0	1	0	n/a	n/a	0	1.0	1.0	1753.646480299998	1812.9687576999424	1813.9764717998917	1814.5223888000476	1816.0280470999423	1817.0387323000468	n/a	n/a	1818.0497099000493	1818.965071700048	2019-12-31 19:23:24.012907	9.81198547112767	0.0	15.3752375105635	15.3752375105635	5.56325203943586	15.3752375105635	-9.81198547112767	15.3752375105635	0.0	15.3752375105635	5.56325203943586	-15.3752375105635	3.1146909001790624	-0.615272089507473	14.573771177660355	11.437688994864988	2.920200598915478	14.573771177660355	-15.733782473743139	10.304331338377438	7.189640438198397	11.335855813034907	2.622643275117976	4	missed	0.0
65.33278640010394	6.892406899947673	nogo_punish	1.0	65.345158000011	67.78620059997797	70.31382420007117	2.441042599966977	66.34892900008663	69.29212299990468	71.31647319998592	1.4372715998913463	1.0217012001664898	0.9210916999727488	n/a	1.0	n/a	2	0	71	4	nogo_punish	0	0	-1	0	0	1	1	n/a	n/a	-1	1.0	1.0	1753.646480299998	1818.991638300009	1819.9954093000847	1821.432680899976	1822.9386032999028	1823.9603045000692	n/a	n/a	1824.962953499984	1825.8840451999567	2019-12-31 19:23:24.012907	3.97699028831793	-5.37563462213538	-0.265051956825732	-0.265382322865034	-4.24204224514366	-0.265051956825732	-3.97699028831793	-0.265051956825732	-5.37563462213538	-0.265051956825732	-4.24204224514366	-9.722438022442498	-2.720304282630678	-5.990906711642854	-1.0665182897288767	-4.202930838563544	-6.885093685664042	-1.0665182897288767	-10.080982985622137	-5.335958129011794	-2.6156538463811225	-4.304433654354323	-2.7529913470174043	4	missed	0.0
72.25398769997992	6.670173000078876	go_reward	0.3073670999146998	72.26635929988697	74.19288569991477	76.73009099997557	1.9265264000277966	73.27228859998286	75.71453449991509	77.73961609997787	0.9205970999319106	1.0155565000604838	1.1969161999879816	n/a	1.0	n/a	2	0	72	1	go_reward	1	1	0	1	1	1	0	n/a	n/a	1	0.3073670999146998	1.0	1753.646480299998	1825.912839599885	1826.918768899981	1827.8393659999128	1829.3610147999132	1830.3765712999736	n/a	n/a	1831.386096399976	1832.583012599964	2019-12-31 19:23:24.012907	20.9473294315628	15.3820851291401	0.0	15.3820851291401	20.9473294315628	0.0	-20.9473294315628	15.3820851291401	0.0	20.9473294315628	0.0	0.007798958480201179	14.250034860614193	14.766813039632627	-0.8014663329031446	11.444536613441588	18.30427799104242	-0.8014663329031446	-0.35074600469943756	15.876423259376738	1.6263883987625374	11.342703431611508	2.622643275117976	4	missed	0.0
78.94961640005931	7.409931800095592	go_reward	0.2677283000666648	78.96198799996637	81.4886316000484	84.04451359994664	2.526643600082025	79.96251609991305	83.02143780002348	85.05435839993879	1.5261155001353472	1.0230757999231628	1.317561400123168	n/a	1.0	n/a	2	0	73	1	go_reward	1	1	0	1	1	1	0	n/a	n/a	1	0.2677283000666648	1.0	1753.646480299998	1832.6084682999644	1833.6089963999111	1835.1351119000465	1836.6679181000216	1837.6909938999447	n/a	n/a	1838.7008386999369	1840.01840010006	2019-12-31 19:23:24.012907	20.95173984183	15.3854923285323	0.0	15.3854923285323	20.95173984183	0.0	-20.95173984183	15.3854923285323	0.0	20.95173984183	0.0	0.004391759088001379	14.254445270881394	14.770220239024827	-0.8014663329031446	11.447943812833788	18.30868840130962	-0.8014663329031446	-0.35415320409163736	15.88083366964394	1.6263883987625374	11.346110631003707	2.622643275117976	4	missed	0.0
86.3883754000999	6.632473600097001	go_reward	0.3484552998561412	86.40074700000696	88.5796423999127	91.11518940003589	2.178895399905741	87.40800469997362	90.09456330002286	92.11738350009523	1.1716376999390832	1.0206261000130326	0.91583710000873	n/a	1.0	n/a	2	0	74	1	go_reward	0	0	1	1	1	1	1	n/a	n/a	0	0.3484552998561412	1.0	1753.646480299998	1840.047227300005	1841.0544849999717	1842.2261226999108	1843.741043600021	1844.761669700034	n/a	n/a	1845.7638638000933	1846.679700900102	2019-12-31 19:23:24.012907	20.9541901652685	15.3873842149353	0.0	15.3873842149353	20.9541901652685	0.0	-20.9541901652685	15.3873842149353	0.0	20.9541901652685	0.0	-15.3873842149353	14.256895594319893	14.772112125427828	-0.8014663329031446	11.44983569923679	18.31113872474812	-0.8014663329031446	-15.74592917811494	15.883283993082438	1.6263883987625374	11.348002517406709	2.622643275117976	4	missed	0.0
93.05174900009297	7.721269200090319	go_reward	0.2761516000609845	93.06412060000002	95.83107380010188	98.36723680002592	2.7669532001018524	94.0719447999727	97.3562197999563	99.37820350006223	1.7591290001291782	1.0110170000696144	1.4071863000281155	n/a	1.0	n/a	2	0	75	1	go_reward	1	1	0	1	1	1	1	n/a	n/a	1	0.2761516000609845	1.0	1753.646480299998	1846.710600899998	1847.7184250999708	1849.4775541001	1851.0027000999544	1852.013717100024	n/a	n/a	1853.0246838000603	1854.4318701000884	2019-12-31 19:23:24.012907	10.1240842578639	6.93920387212793	0.0	6.93920387212793	10.1240842578639	0.0	-10.1240842578639	6.93920387212793	0.0	10.1240842578639	0.0	8.45068021549237	3.426789686915293	6.323931782620457	-0.8014663329031446	3.0016553564294197	7.481032817343518	-0.8014663329031446	8.092135252312731	5.053178085677839	1.6263883987625374	2.899822174599339	2.622643275117976	4	missed	0.0
100.81575960014015	6.999873199965805	go_punish	0.2962102999445051	100.82813120004721	103.1472283999899	105.6894974000752	2.3190971999426893	101.82678169989958	104.67863070010185	106.69413290009834	1.320446700090315	1.0108666999733487	1.133871499914676	n/a	1.0	n/a	2	0	76	3	go_punish	1	0	-1	1	1	1	0	n/a	n/a	0	0.2962102999445051	1.0	1753.646480299998	1854.4746115000453	1855.4732619998977	1856.793708699988	1858.3251110001	1859.3359777000733	n/a	n/a	1860.3406132000964	1861.474484700011	2019-12-31 19:23:24.012907	4.56403510078348	-0.1477997601424	-3.52799704860437	-0.0775713190155033	1.03603805217911	-3.52799704860437	-4.56403510078348	-0.1477997601424	-3.52799704860437	1.03603805217911	-3.52799704860437	0.1477997601424	-2.133259470165128	-0.7630718496498731	-4.329463381507514	-4.015119834714014	-1.6070133883412723	-4.329463381507514	-0.21074520303723873	-4.034868120006951	-1.9016086498418325	-4.187181457670991	-0.9053537734863939	4	missed	0.0
107.85828640009277	7.2972597000189126	nogo_reward	1.0	107.87065799999982	110.45572549989424	112.9589400999248	2.5850674998944214	108.87851599999703	111.94991589989468	113.96841849992029	1.577209499897208	1.009024200030126	1.199499200098444	n/a	1.0	n/a	2	0	77	2	nogo_reward	1	0	1	0	0	1	0	n/a	n/a	1	1.0	1.0	1753.646480299998	1861.517138299998	1862.524996299995	1864.1022057998923	1865.5963961998928	1866.6054203999229	n/a	n/a	1867.6148987999184	1868.8143980000168	2019-12-31 19:23:24.012907	3.7496974556334	0.0	6.93265695901851	6.93265695901851	3.18295950338511	6.93265695901851	-3.7496974556334	6.93265695901851	0.0	6.93265695901851	3.18295950338511	8.45722712860179	-2.9475971153152076	-0.615272089507473	6.131190626115365	2.9951084433199995	0.5399080628647277	6.131190626115365	8.09868216542215	1.8617507868324479	4.809347902147647	2.8932752614899186	2.622643275117976	4	missed	0.0
115.18496990017593	6.060202599968534	go_reward	0.3935881999786943	115.19734150008298	116.58872410003096	119.14496470009863	1.391382599947974	116.1942559001036	118.12156870006584	120.1548440998888	0.3944681999273598	1.0233960000327897	1.102700000162713	n/a	1.0	n/a	2	0	78	1	go_reward	1	1	0	1	1	1	0	n/a	n/a	1	0.3935881999786943	1.0	1753.646480299998	1868.843821800081	1869.8407362001017	1870.235204400029	1871.768049000064	1872.7914450000967	n/a	n/a	1873.8013243998869	1874.9040244000496	2019-12-31 19:23:24.012907	16.2203900231092	11.7006160648546	0.0	11.7006160648546	16.2203900231092	0.0	-16.2203900231092	11.7006160648546	0.0	16.2203900231092	0.0	3.6892680227657006	9.523095452160593	11.085343975347127	-0.8014663329031446	7.76306754915609	13.577338582588817	-0.8014663329031446	3.3307230595860617	11.149483850923138	1.6263883987625374	7.661234367326009	2.622643275117976	4	missed	0.0
121.28805980016477	5.912117199972499	nogo_reward	1.0	121.30043140007183	122.67215969995596	125.21131319995038	1.3717282998841256	122.31377879995875	124.18850299995393	126.21267369994894	0.3583808999972007	1.0228101999964565	0.9998749000953921	n/a	1.0	n/a	2	0	79	2	nogo_reward	1	0	1	0	0	1	1	n/a	n/a	1	1.0	1.0	1753.646480299998	1874.94691170007	1875.9602590999568	1876.318639999954	1877.834983299952	1878.8577934999485	n/a	n/a	1879.859153999947	1880.8590289000424	2019-12-31 19:23:24.012907	7.17831834542155	0.0	11.6970403760564	11.6970403760564	4.51872203063484	11.6970403760564	-7.17831834542155	11.6970403760564	0.0	11.6970403760564	4.51872203063484	3.692843711563901	0.4810237744729422	-0.615272089507473	10.895574043153255	7.7594918603578895	1.8756705901144577	10.895574043153255	3.334298748384262	6.626134203870338	6.145110429397377	7.657658678527809	2.622643275117976	4	missed	0.0
127.22745630005375	7.404103199951578	go_reward	0.3456822000443935	127.2398278999608	129.6946970000863	132.23794399993494	2.4548691001255065	128.23620410007425	131.22413769993	133.2532379000911	1.458492900012061	1.0138063000049442	1.3906931998212713	n/a	1.0	n/a	2	0	80	1	go_reward	1	1	0	1	1	1	1	n/a	n/a	1	0.3456822000443935	1.0	1753.646480299998	1880.8863081999589	1881.8826844000723	1883.3411773000844	1884.870617999928	1885.884424299933	n/a	n/a	1886.8997182000892	1888.2904113999105	2019-12-31 19:23:24.012907	18.7979561688073	13.7102110139999	0.0	13.7102110139999	18.7979561688073	0.0	-18.7979561688073	13.7102110139999	0.0	18.7979561688073	0.0	1.6796730736204015	12.100661597858693	13.094938924492427	-0.8014663329031446	9.77266249830139	16.15490472828692	-0.8014663329031446	1.3211281104407628	13.727049996621238	1.6263883987625374	9.670829316471309	2.622643275117976	4	missed	0.0
134.6576382000933	6.740938900038373	nogo_punish	1.0	134.67000980000034	136.61775380000472	139.15433939988702	1.947744000004377	135.66960750008002	138.13462470006198	140.16752079990692	0.9481462999247015	1.0197146998250446	1.2434279001317918	n/a	1.0	n/a	2	0	81	4	nogo_punish	1	-1	0	0	0	1	0	n/a	n/a	0	1.0	1.0	1753.646480299998	1888.3164900999984	1889.316087800078	1890.2642341000028	1891.78110500006	1892.800819699885	n/a	n/a	1893.814001099905	1895.0574290000368	2019-12-31 19:23:24.012907	0.109292726260666	-5.37563462213538	-5.50933504765216	-5.5095273855872	-5.61862777391283	-5.50933504765216	-0.109292726260666	-5.50933504765216	-5.37563462213538	-5.50933504765216	-5.61862777391283	5.50933504765216	-6.588001844687942	-5.990906711642854	-6.310801380555304	-9.44707590128571	-8.261679214433212	-6.310801380555304	5.150790084472521	-10.580241219838221	-3.9922393751502927	-9.548716745180752	-2.7529913470174043	4	missed	0.0
141.4218316001352	6.937586299841996	nogo_punish	1.0	141.43420320004225	143.35748340003192	145.87674170010723	1.9232801999896765	142.451986100059	144.86372960009635	146.8784413000103	0.9054972999729216	1.013012100010883	1.4933481998739353	n/a	1.0	n/a	2	0	82	4	nogo_punish	0	0	-1	0	0	1	0	n/a	n/a	-1	1.0	1.0	1753.646480299998	1895.0806835000403	1896.098466400057	1897.00396370003	1898.5102099000944	1899.5232220001053	n/a	n/a	1900.5249216000084	1902.0182697998823	2019-12-31 19:23:24.012907	2.34978346461583	-5.37563462213538	-2.47669921855017	-2.47681209461526	-4.826482683166	-2.47669921855017	-2.34978346461583	-2.47669921855017	-5.37563462213538	-2.47669921855017	-4.826482683166	-7.510790760718059	-4.347511106332778	-5.990906711642854	-3.2781655514533146	-6.41436061031377	-7.4695341236863815	-3.2781655514533146	-7.869335723897698	-7.547605390736232	-3.2000942844034626	-6.516080916078761	-2.7529913470174043	4	missed	0.0
148.38480240013496	6.587294799973506	nogo_punish	1.0	148.397174000042	150.2183725000359	152.7405528998936	1.8211984999938977	149.4068940000143	151.72484820010163	153.74121850007236	0.8114785000216216	1.0157046997919679	1.2432502999431563	n/a	1.0	n/a	2	0	83	4	nogo_punish	0	0	-1	0	0	1	1	n/a	n/a	-1	1.0	1.0	1753.646480299998	1902.04365430004	1903.0533743000124	1903.864852800034	1905.3713285000997	1906.3870331998917	n/a	n/a	1907.3876988000704	1908.6309491000136	2019-12-31 19:23:24.012907	-0.641422352782994	-5.37563462213538	-6.53181166430937	-6.53187840687222	-5.89038931152637	-6.53181166430937	0.641422352782994	-6.53181166430937	-5.37563462213538	-6.53181166430937	-5.89038931152637	-3.455678314958859	-7.338716923731602	-5.990906711642854	-7.333277997212515	-10.46942692257073	-8.533440752046753	-7.333277997212515	-3.8142232781384977	-11.602717836495433	-4.264000912763833	-10.571193361837961	-2.7529913470174043	4	missed	0.0
154.9983832000289	5.938868000171851	nogo_punish	1.0	155.01075479993597	156.50209539988987	159.03163209999866	1.491340599953901	156.01001870003506	158.00851169996895	160.04491019994043	0.49207669985480607	1.0231204000297112	0.904712600167386	n/a	1.0	n/a	2	0	84	4	nogo_punish	1	-1	0	0	0	1	1	n/a	n/a	0	1.0	1.0	1753.646480299998	1908.657235099934	1909.6564990000331	1910.148575699888	1911.654991999967	1912.6781123999967	n/a	n/a	1913.6913904999385	1914.596103100106	2019-12-31 19:23:24.012907	-1.97185196861517	-5.37563462213538	-8.34039214258262	-8.34043188771742	-6.36854017396745	-8.34039214258262	1.97185196861517	-8.34039214258262	-5.37563462213538	-8.34039214258262	-6.36854017396745	8.34039214258262	-8.669146539563778	-5.990906711642854	-9.141858475485765	-12.277980403415931	-9.011591614487832	-9.141858475485765	7.981847179402982	-13.411298314768683	-4.7421517752049125	-12.379773840111213	-2.7529913470174043	4	missed	0.0
160.9820897001773	6.593235499924049	nogo_reward	1.0	160.99446130008437	162.76123970001913	165.30025140009843	1.7667783999347648	161.99264449998714	164.27632789989002	166.2981243999675	0.7685952000319958	1.0239235002084115	1.2895724000409245	n/a	1.0	n/a	2	0	85	2	nogo_reward	1	0	1	0	0	1	0	n/a	n/a	1	1.0	1.0	1753.646480299998	1914.6409416000824	1915.6391247999852	1916.4077200000172	1917.922808199888	1918.9467317000965	n/a	n/a	1919.9446046999656	1921.2341771000065	2019-12-31 19:23:24.012907	8.62107202966633	0.0	13.7082341205196	13.7082341205196	5.08716209085326	13.7082341205196	-8.62107202966633	13.7082341205196	0.0	13.7082341205196	5.08716209085326	1.6816499671007001	1.9237774587177219	-0.615272089507473	12.906767787616456	9.77068560482109	2.444110650332878	12.906767787616456	1.3231050039210615	8.637327948333539	6.713550489615797	9.668852422991009	2.622643275117976	4	missed	0.0
167.62039990001358	6.5693455000873655	go_punish	0.2613148998934775	167.63277149992064	169.48098449991085	172.02689040009864	1.84821299999021	168.6384189000819	171.01292019989341	173.0370724000968	0.8425655998289585	1.0139702002052218	1.165044599911198	n/a	1.0	n/a	2	0	86	3	go_punish	0	-1	0	1	1	1	0	n/a	n/a	-1	0.2613148998934775	1.0	1753.646480299998	1921.2792517999187	1922.28489920008	1923.127464799909	1924.6594004998915	1925.6733707000967	n/a	n/a	1926.6835527000949	1927.848597300006	2019-12-31 19:23:24.012907	4.64509495146456	-0.0765960445263709	-3.52799704860437	-0.0409642539518758	1.11709790286019	-3.52799704860437	-4.64509495146456	-0.0765960445263709	-3.52799704860437	1.11709790286019	-3.52799704860437	-9.910893934741859	-2.052199619484048	-0.691868134033844	-4.329463381507514	-3.978512769650386	-1.5259535376601923	-4.329463381507514	-10.269438897921498	-3.953808269325872	-1.9016086498418325	-4.1159777420549615	-0.9053537734863939	4	missed	0.0
174.2159263000358	7.663094300078228	nogo_punish	1.0	174.22829789994285	176.96232390007913	179.48821770003997	2.734026000136282	175.23166009993292	178.46860569994897	180.50123229995393	1.7306638001462034	1.0196120000910014	1.3901599000671467	n/a	1.0	n/a	2	0	87	4	nogo_punish	1	-1	0	0	0	1	0	n/a	n/a	0	1.0	1.0	1753.646480299998	1927.874778199941	1928.878140399931	1930.6088042000772	1932.115085999947	1933.134698000038	n/a	n/a	1934.147712599952	1935.5378725000191	2019-12-31 19:23:24.012907	1.37639019518605	-5.37563462213538	-3.80342607104698	-3.80344989851953	-5.17981626623304	-3.80342607104698	-1.37639019518605	-3.80342607104698	-5.37563462213538	-3.80342607104698	-5.17981626623304	3.80342607104698	-5.320904375762558	-5.990906711642854	-4.6048924039501244	-7.740998414218041	-7.8228677067534225	-4.6048924039501244	3.444881107867341	-8.874332243233042	-3.5534278674705027	-7.842807768575571	-2.7529913470174043	4	missed	0.0
181.90615530009381	7.390502099879086	go_reward	0.2885381998494267	181.91852690000087	184.3467906001024	186.88413330004596	2.4282637001015246	182.9262077999299	185.8685284000819	187.8934281999243	1.4205828001724967	1.0156048999640461	1.415600799955655	n/a	1.0	n/a	2	0	88	1	go_reward	1	1	0	1	1	1	0	n/a	n/a	1	0.2885381998494267	1.0	1753.646480299998	1935.565007199999	1936.572688099928	1937.9932709001005	1939.51500870008	1940.530613600044	n/a	n/a	1941.5399084999224	1942.955509299878	2019-12-31 19:23:24.012907	19.9384049267673	14.5981298926668	0.0	14.5981298926668	19.9384049267673	0.0	-19.9384049267673	14.5981298926668	0.0	19.9384049267673	0.0	0.7917541949535014	13.241110355818694	13.982857803159327	-0.8014663329031446	10.660581376968288	17.29535348624692	-0.8014663329031446	0.43320923177386267	14.86749875458124	1.6263883987625374	10.558748195138207	2.622643275117976	4	missed	0.0
189.321374800056	6.65618210006528	nogo_punish	1.0	189.33374639996305	191.0500608999282	193.5759002000559	1.716314499965165	190.33955550007522	192.5558970998975	194.59456910006702	0.7105053998529911	1.0200031001584193	1.3953593999613076	n/a	1.0	n/a	2	0	89	4	nogo_punish	1	-1	0	0	0	1	1	n/a	n/a	0	1.0	1.0	1753.646480299998	1942.9802266999611	1943.9860358000733	1944.6965411999263	1946.2023773998956	1947.222380500054	n/a	n/a	1948.241049400065	1949.6364088000264	2019-12-31 19:23:24.012907	2.85290640003183	-5.37563462213538	-1.7971694661528	-1.79718384197131	-4.65007586618463	-1.7971694661528	-2.85290640003183	-1.7971694661528	-5.37563462213538	-1.7971694661528	-4.65007586618463	1.7971694661528	-3.844388170916778	-5.990906711642854	-2.5986357990559448	-5.73473235766982	-7.293127306705012	-2.5986357990559448	1.4386245029731612	-6.868075638338862	-3.023687467422093	-5.836551163681391	-2.7529913470174043	4	missed	0.0
196.0251865000464	6.131022599991411	go_punish	0.4005301999859512	196.03755809995346	197.70978510007262	200.26184569997713	1.6722270001191646	197.03927000006684	199.24200499989092	201.27519589988515	0.6705151000057867	1.0198407000862062	0.8933848000597209	n/a	1.0	n/a	2	0	90	3	go_punish	1	0	-1	1	1	1	0	n/a	n/a	0	0.4005301999859512	1.0	1753.646480299998	1949.6840383999515	1950.685750300065	1951.3562654000707	1952.888485299889	1953.9083259999752	n/a	n/a	1954.9216761998832	1955.815060999943	2019-12-31 19:23:24.012907	-2.10097279372038	-5.41603930227142	-3.52799704860437	-5.39761381113048	-5.62896984232474	-3.52799704860437	2.10097279372038	-5.41603930227142	-3.52799704860437	-5.62896984232474	-3.52799704860437	5.41603930227142	-8.798267364668988	-6.0313113917788925	-4.329463381507514	-9.33516232682899	-8.272021282845122	-4.329463381507514	5.0574943390917815	-10.699876014510803	-1.9016086498418325	-9.455420999800012	-0.9053537734863939	4	missed	0.0
202.19943110016175	6.021394599927589	nogo_reward	1.0	202.2118027000688	203.7710667999927	206.29765750002116	1.5592640999238938	203.20824349997542	205.28711870010034	207.3022058000788	0.5628233000172713	1.0105387999208233	0.9309914999175817	n/a	1.0	n/a	2	0	91	2	nogo_reward	0	1	0	0	0	1	0	n/a	n/a	0	1.0	1.0	1753.646480299998	1955.8582830000669	1956.8547237999735	1957.4175470999908	1958.9335990000984	1959.9441378000192	n/a	n/a	1960.9486861000769	1961.8796775999945	2019-12-31 19:23:24.012907	9.25707626812686	0.0	14.5970244876064	14.5970244876064	5.33994821947954	14.5970244876064	-9.25707626812686	14.5970244876064	0.0	14.5970244876064	5.33994821947954	-14.5970244876064	2.559781697178253	-0.615272089507473	13.795558154703256	10.659475971907892	2.696896778959158	13.795558154703256	-14.95556945078604	9.526118315420339	6.966336618242077	10.55764279007781	2.622643275117976	4	missed	0.0
208.26159720006376	6.8450658000078874	nogo_reward	1.0	208.27396879997082	210.13078229990788	212.6470405999571	1.8568134999370614	209.2840305999855	211.63277100003347	213.65689340000995	0.846751699922379	1.0142695999236366	1.4621411999687552	n/a	1.0	n/a	2	0	92	2	nogo_reward	1	0	1	0	0	1	0	n/a	n/a	1	1.0	1.0	1753.646480299998	1961.920449099969	1962.9305108999836	1963.777262599906	1965.2792513000315	1966.2935208999552	n/a	n/a	1967.303373700008	1968.7655148999768	2019-12-31 19:23:24.012907	3.4813731040358	0.0	6.55570646600869	6.55570646600869	3.07433336197289	6.55570646600869	-3.4813731040358	6.55570646600869	0.0	6.55570646600869	3.07433336197289	8.83417762161161	-3.215921466912808	-0.615272089507473	5.7542401331055455	2.61815795031018	0.4312819214525079	5.7542401331055455	8.475632658431971	1.4848002938226283	4.700721760735427	2.516324768480099	2.622643275117976	4	missed	0.0
215.1509422000961	6.021140600089211	nogo_reward	1.0	215.16331380000315	216.6208802999463	219.14973729988583	1.457566499943141	216.1605020000136	218.12675799988187	220.1599127999507	0.4603782999326995	1.0229793000039535	1.0245416001416743	n/a	1.0	n/a	2	0	93	2	nogo_reward	1	0	1	0	0	1	1	n/a	n/a	1	1.0	1.0	1753.646480299998	1968.8097941000012	1969.8069823000117	1970.2673605999444	1971.77323829988	1972.796217599884	n/a	n/a	1973.8063930999488	1974.8309347000904	2019-12-31 19:23:24.012907	7.04524295158438	0.0	11.5098001203043	11.5098001203043	4.46455716871995	11.5098001203043	-7.04524295158438	11.5098001203043	0.0	11.5098001203043	4.46455716871995	3.8800839673160006	0.3479483806357724	-0.615272089507473	10.708333787401155	7.57225160460579	1.821505728199568	10.708333787401155	3.5215390041363617	6.438893948118238	6.090945567482487	7.470418422775709	2.622643275117976	4	missed	0.0
221.21375020011328	7.433578100055229	nogo_reward	1.0	221.22612180002034	223.69733029999793	226.23655169992662	2.4712084999775925	222.22589450003557	225.21321720001288	227.24439759994834	1.4714357999623644	1.0233344999137444	1.4153023001272231	n/a	1.0	n/a	2	0	94	2	nogo_reward	1	0	1	0	0	1	1	n/a	n/a	1	1.0	1.0	1753.646480299998	1974.8726021000184	1975.8723748000336	1977.343810599996	1978.859697500011	1979.8830319999247	n/a	n/a	1980.8908778999464	1982.3061802000736	2019-12-31 19:23:24.012907	8.55360091955018	0.0	13.6131638766138	13.6131638766138	5.05956295706361	13.6131638766138	-8.55360091955018	13.6131638766138	0.0	13.6131638766138	5.05956295706361	1.7767202110065003	1.8563063486015716	-0.615272089507473	12.811697543710656	9.675615360915291	2.416511516543228	12.811697543710656	1.4181752478268617	8.542257704427739	6.685951355826147	9.57378217908521	2.622643275117976	4	missed	0.0
228.69151600007876	6.911485200049356	go_punish	0.2887739001307636	228.70388759998582	231.31164720002585	233.85427100001834	2.6077596000400263	229.7113991000224	232.83373690000712	234.856212799903	1.600248100003455	1.0205341000112185	0.7591600001321694	n/a	1.0	n/a	2	0	95	3	go_punish	1	0	-1	1	1	1	0	n/a	n/a	0	0.2887739001307636	1.0	1753.646480299998	1982.350367899984	1983.3578794000205	1984.958127500024	1986.4802172000052	1987.5007513000164	n/a	n/a	1988.502693099901	1989.2618531000332	2019-12-31 19:23:24.012907	1.66295247495102	-2.42953715754052	-3.52799704860437	-2.41984571494415	-1.86504457365334	-3.52799704860437	-1.66295247495102	-2.42953715754052	-3.52799704860437	-1.86504457365334	-3.52799704860437	2.42953715754052	-5.034342095997587	-3.044809247047993	-4.329463381507514	-6.35739423064266	-4.508096014173722	-4.329463381507514	2.070992194360881	-6.935950745839402	-1.9016086498418325	-6.468918855069111	-0.9053537734863939	4	missed	0.0
235.64905850007176	6.768941000104178	go_punish	0.2658836001064628	235.66143009997882	237.61576589988545	240.17069879989117	1.9543357999066302	236.65752430004068	239.14753860002384	241.1806747999508	0.9582415998447686	1.023160199867334	1.2496963001322001	n/a	1.0	n/a	2	0	96	3	go_punish	0	-1	0	1	1	1	0	n/a	n/a	-1	0.2658836001064628	1.0	1753.646480299998	1989.307910399977	1990.3040046000388	1991.2622461998835	1992.794018900022	1993.8171790998892	n/a	n/a	1994.8271550999489	1996.076851400081	2019-12-31 19:23:24.012907	3.30106848363671	-1.13188970313443	-3.52799704860437	-1.12671327828036	-0.226928564967653	-3.52799704860437	-3.30106848363671	-1.13188970313443	-3.52799704860437	-0.226928564967653	-3.52799704860437	-8.8556002761338	-3.3962260873118977	-1.747161792641903	-4.329463381507514	-5.06426179397887	-2.8699800054880353	-4.329463381507514	-9.214145239313439	-5.297834737153715	-1.9016086498418325	-5.171271400663021	-0.9053537734863939	4	missed	0.0
242.44468920002691	6.756268300116062	go_reward	0.2528681000694632	242.45706079993397	244.45449239993468	246.99119110009633	1.9974316000007093	243.45590279996395	245.97602849989198	248.0011251999531	0.9985895999707282	1.0151626002043486	1.212203900096938	n/a	1.0	n/a	2	0	97	1	go_reward	1	1	0	1	1	1	0	n/a	n/a	1	0.2528681000694632	1.0	1753.646480299998	1996.103541099932	1997.102383099962	1998.1009726999328	1999.62250879989	2000.6376714000944	n/a	n/a	2001.6476054999512	2002.859809400048	2019-12-31 19:23:24.012907	20.4623323972447	15.0055740075902	0.0	15.0055740075902	20.4623323972447	0.0	-20.4623323972447	15.0055740075902	0.0	20.4623323972447	0.0	0.3843100800301009	13.765037826296094	14.390301918082727	-0.8014663329031446	11.068025491891689	17.81928095672432	-0.8014663329031446	0.025765116850462177	15.39142622505864	1.6263883987625374	10.966192310061608	2.622643275117976	4	missed	0.0
249.22668089997046	7.2389652000272235	nogo_punish	1.0	249.23905249987752	251.93747320002876	254.46729269996285	2.698420700151246	250.24469870002963	253.44427160010673	255.47774340002798	1.6927744999991319	1.0230210998561233	1.0002742998767644	n/a	1.0	n/a	2	0	98	4	nogo_punish	0	0	-1	0	0	1	0	n/a	n/a	-1	1.0	1.0	1753.646480299998	2002.8855327998756	2003.8911790000277	2005.5839535000268	2007.0907519001048	2008.113772999961	n/a	n/a	2009.124223700026	2010.1244979999028	2019-12-31 19:23:24.012907	3.5303592302524	-5.37563462213538	-0.874690677814203	-0.874699403682055	-4.40504990806661	-0.874690677814203	-3.5303592302524	-0.874690677814203	-5.37563462213538	-0.874690677814203	-4.40504990806661	-9.112799301454027	-3.1669353406962077	-5.990906711642854	-1.6761570107173476	-4.812247919380566	-7.048101348586993	-1.6761570107173476	-9.471344264633666	-5.945596850000265	-2.778661509304073	-4.914072375342794	-2.7529913470174043	4	missed	0.0
256.51428120001196	6.520028800005321	nogo_reward	1.0	256.526652799919	258.0332696998955	260.5515425999183	1.5066168999765068	257.5341018999459	259.5395263999235	261.5625024000183	0.499167799949646	1.0120161999948323	1.484179199906066	n/a	1.0	n/a	2	0	99	2	nogo_reward	1	0	1	0	0	1	0	n/a	n/a	1	1.0	1.0	1753.646480299998	2010.173133099917	2011.180582199944	2011.6797499998936	2013.1860066999216	2014.1980228999164	n/a	n/a	2015.2089827000163	2016.6931618999224	2019-12-31 19:23:24.012907	9.22219430648737	0.0	14.5478077089002	14.5478077089002	5.32561340241281	14.5478077089002	-9.22219430648737	14.5478077089002	0.0	14.5478077089002	5.32561340241281	0.8420763787201011	2.524899735538763	-0.615272089507473	13.746341375997055	10.610259193201689	2.682561961892428	13.746341375997055	0.48353141554046236	9.476901536714138	6.9520018011753475	10.508426011371608	2.622643275117976	4	missed	0.0
263.07773920008935	6.349436799995146	go_punish	1.0	263.0901107999964	264.56531139998697	267.08591510006227	1.4752005999905577	264.0972341999875	266.07104799989634	268.0855495999567	0.4680771999994704	1.0148671001659295	1.353998000034835	n/a	1.0	n/a	2	0	100	3	go_punish	1	0	-1	1	0	0	0	n/a	n/a	-1	1.0	1.0	1753.646480299998	2016.7365910999945	2017.7437144999856	2018.211791699985	2019.7175282998944	2020.7323954000603	n/a	n/a	2021.7320298999548	2023.0860278999896	2019-12-31 19:23:24.012907	2.74346403022921	-5.91979293657709	-3.52799704860437	-5.91698915714457	-6.27146107883358	-3.52799704860437	-2.74346403022921	-3.52799704860437	-5.91979293657709	-3.52799704860437	-6.27146107883358	-6.45949293066386	-3.9538305407193977	-6.535065026084563	-4.329463381507514	-9.85453767284308	-8.914512519353963	-4.329463381507514	-6.818037893843498	-8.598903220790431	-4.645072680071043	-7.567378746132961	-3.297149661459114	4	missed	0.0
269.4693358000368	6.138945800019201	go_punish	0.3344872999005019	269.48170739994384	270.8328108000569	273.39154569990956	1.351103400113061	270.4899520999752	272.37062889989465	274.4038476999849	0.34285870008170605	1.020916800014902	1.2168054999781361	n/a	1.0	n/a	2	0	101	3	go_punish	1	0	-1	1	1	1	0	n/a	n/a	0	0.3344872999005019	1.0	1753.646480299998	2023.128187699942	2024.1364323999733	2024.479291100055	2026.0171091998927	2027.0380259999076	n/a	n/a	2028.050327999983	2029.2671334999611	2019-12-31 19:23:24.012907	0.197967430188045	-5.91979293657709	-7.03342119729225	-8.05064734430444	-6.8354537671042	-7.03342119729225	-0.197967430188045	-5.91979293657709	-7.03342119729225	-6.8354537671042	-7.03342119729225	5.91979293657709	-6.499327140760562	-6.535065026084563	-7.834887530195394	-11.98819586000295	-9.478505207624583	-7.834887530195394	5.561247973397451	-11.906359939290262	-5.407032798529713	-9.95917463410568	-4.410777922174274	4	missed	0.0
275.6575359001288	6.232865500030812	go_punish	0.2789882000070065	275.66990750003583	276.9944716999307	279.54761609993875	1.324564199894894	276.67867620009906	278.5278119998984	280.5607825999616	0.31579549983166544	1.0198041000403464	1.3419904001050327	n/a	1.0	n/a	2	0	102	3	go_punish	1	0	-1	1	1	1	1	n/a	n/a	0	0.2789882000070065	1.0	1753.646480299998	2029.316387800034	2030.3251565000971	2030.6409519999288	2032.1742922998965	2033.1940963999368	n/a	n/a	2034.2072628999597	2035.5492533000647	2019-12-31 19:23:24.012907	4.59030800496693	-2.67655094850575	-7.03342119729225	-3.66288294610559	-2.44311319232532	-7.03342119729225	-4.59030800496693	-2.67655094850575	-7.03342119729225	-2.44311319232532	-7.03342119729225	2.67655094850575	-2.1069865659816776	-3.291823038013223	-7.834887530195394	-7.6004314618041	-5.086164632845702	-7.834887530195394	2.3180059853261112	-7.514019364511382	-5.407032798529713	-6.715932646034341	-4.410777922174274	4	missed	0.0
281.91549010016	6.36296499986247	nogo_punish	1.0	281.92786170006707	283.7811010000298	286.30908320005983	1.8532392999627518	282.9388476999011	285.29802690004	287.31302480003797	0.842253300128732	1.0110563000198454	0.9778018998915741	n/a	1.0	n/a	2	0	103	4	nogo_punish	1	-1	0	0	0	1	0	n/a	n/a	0	1.0	1.0	1753.646480299998	2035.5743420000651	2036.5853279998992	2037.427581300028	2038.944507200038	2039.955563500058	n/a	n/a	2040.959505100036	2041.9373069999276	2019-12-31 19:23:24.012907	-0.112333146129409	-5.37563462213538	-5.81221488493981	-5.81222021189029	-5.6998817388104	-5.81221488493981	0.112333146129409	-5.81221488493981	-5.37563462213538	-5.81221488493981	-5.6998817388104	5.81221488493981	-6.809627717078016	-5.990906711642854	-6.613681217842955	-9.749768727588801	-8.342933179330782	-6.613681217842955	5.453669921760172	-10.883121057125873	-4.073493340047863	-9.851596582468401	-2.7529913470174043	4	missed	0.0
288.30336989997886	6.355970100034028	nogo_punish	1.0	288.3157414998859	289.6796415999995	292.1975354999304	1.3639001001135966	289.32574960007355	291.1814017998988	293.20565010001883	0.3538919999259633	1.0161337000315598	1.466061499901116	n/a	1.0	n/a	2	0	104	4	nogo_punish	1	-1	0	0	0	1	0	n/a	n/a	0	1.0	1.0	1753.646480299998	2041.962221799884	2042.9722299000716	2043.3261218999976	2044.827882099897	2045.8440157999285	n/a	n/a	2046.852130400017	2048.318191899918	2019-12-31 19:23:24.012907	2.23727651592297	-5.37563462213538	-2.63060417205543	-2.63060744188864	-4.86788068797839	-2.63060417205543	-2.23727651592297	-2.63060417205543	-5.37563462213538	-2.63060417205543	-4.86788068797839	2.63060417205543	-4.460018055025637	-5.990906711642854	-3.4320705049585745	-6.56815595758715	-7.510932128498773	-3.4320705049585745	2.272059208875791	-7.701510344241491	-3.241492289215853	-6.669985869584021	-2.7529913470174043	4	missed	0.0
294.689056500094	7.3022135000210255	go_reward	0.3572103998158127	294.70142810000107	297.6743042001035	300.2262309999205	2.9728761001024395	295.71015010005794	299.2066454999149	301.2395309000276	1.9641541000455618	1.0195855000056326	0.7641106999944896	n/a	1.0	n/a	2	0	105	1	go_reward	0	0	1	1	1	1	0	n/a	n/a	0	0.3572103998158127	1.0	1753.646480299998	2048.347908399999	2049.356630400056	2051.3207845001016	2052.853125799913	2053.8727112999186	n/a	n/a	2054.8860112000257	2055.65012190002	2019-12-31 19:23:24.012907	20.7107786319951	15.1985904290001	0.0	15.1985904290001	20.7107786319951	0.0	-20.7107786319951	15.1985904290001	0.0	20.7107786319951	0.0	-15.1985904290001	14.013484061046494	14.583318339492628	-0.8014663329031446	11.26104191330159	18.06772719147472	-0.8014663329031446	-15.55713539217974	15.63987245980904	1.6263883987625374	11.159208731471509	2.622643275117976	4	missed	0.0
302.01753870001994	7.3475574001199675	go_reward	0.2548556001856923	302.029910299927	304.8666151000657	307.39940480003133	2.8367048001387047	303.0397489001043	306.38894420000724	308.41536920005456	1.8268661999613869	1.0104606000240892	0.9620984999924076	n/a	1.0	n/a	2	0	106	1	go_reward	0	0	1	1	1	1	0	n/a	n/a	0	0.2548556001856923	1.0	1753.646480299998	2055.676390599925	2056.6862292001024	2058.513095400064	2060.0354245000053	2061.0458851000294	n/a	n/a	2062.0618495000526	2063.023948000045	2019-12-31 19:23:24.012907	10.0003517640472	6.84331095689735	0.0	6.84331095689735	10.0003517640472	0.0	-10.0003517640472	6.84331095689735	0.0	10.0003517640472	0.0	-6.84331095689735	3.303057193098593	6.228038867389877	-0.8014663329031446	2.9057624411988394	7.357300323526818	-0.8014663329031446	-7.201855920076988	4.929445591861139	1.6263883987625374	2.8039292593687586	2.622643275117976	4	missed	0.0
309.40986470016696	6.284728199941583	go_punish	0.2475511999800801	309.422236300074	311.07996089989365	313.6378667000681	1.6577245998196304	310.4244200999383	312.6178550000768	314.65101319993846	0.6555407999553609	1.0200116999913007	1.0559513000771403	n/a	1.0	n/a	2	0	107	3	go_punish	1	0	-1	1	1	1	0	n/a	n/a	0	0.2475511999800801	1.0	1753.646480299998	2063.068716600072	2064.0709003999364	2064.7264411998917	2066.264335300075	2067.284347000066	n/a	n/a	2068.2974934999365	2069.3534448000137	2019-12-31 19:23:24.012907	6.52189197789436	-1.25585492489529	-7.03342119729225	-1.72728637393051	-0.511529219397891	-7.03342119729225	-6.52189197789436	-1.25585492489529	-7.03342119729225	-0.511529219397891	-7.03342119729225	1.25585492489529	-0.17540259305424755	-1.871127014402763	-7.834887530195394	-5.66483488962902	-3.154580659918273	-7.834887530195394	0.8973099617156512	-5.582435391583953	-5.407032798529713	-5.2952366224238805	-4.410777922174274	4	missed	0.0
315.73990520020016	6.439992499770597	nogo_reward	1.0	315.7522768001072	317.40891549992375	319.9475813000463	1.6566386998165399	316.7632385001057	318.92483679996803	320.95741560007446	0.6456769998180789	1.022744500078261	1.2348536998033524	n/a	1.0	n/a	2	0	108	2	nogo_reward	1	0	1	0	0	1	0	n/a	n/a	1	1.0	1.0	1753.646480299998	2069.3987571001053	2070.4097188001037	2071.055395799922	2072.571317099966	2073.5940616000444	n/a	n/a	2074.6038959000725	2075.838749599876	2019-12-31 19:23:24.012907	9.53002559552355	0.0	14.9790246920572	14.9790246920572	5.44899909653369	14.9790246920572	-9.53002559552355	14.9790246920572	0.0	14.9790246920572	5.44899909653369	0.4108593955631008	2.832731024574943	-0.615272089507473	14.177558359154055	11.041476176358689	2.805947656013308	14.177558359154055	0.05231443238346206	9.908118519871138	7.075387495296227	10.939642994528608	2.622643275117976	4	missed	0.0
322.2209549001418	7.794201900018379	nogo_reward	1.0	322.23332650004886	325.01321349991485	327.53736900002696	2.779886999865994	323.2428023999091	326.5189495999366	328.54974079993553	1.770411100005731	1.0184194000903517	1.4777876001317054	n/a	1.0	n/a	2	0	109	2	nogo_reward	0	1	0	0	0	1	0	n/a	n/a	0	1.0	1.0	1753.646480299998	2075.879806800047	2076.889282699907	2078.659693799913	2080.1654298999347	2081.183849300025	n/a	n/a	2082.1962210999336	2083.6740087000653	2019-12-31 19:23:24.012907	9.67634493661663	0.0	15.1843627549922	15.1843627549922	5.5080178183756	15.1843627549922	-9.67634493661663	15.1843627549922	0.0	15.1843627549922	5.5080178183756	-15.1843627549922	2.979050365668022	-0.615272089507473	14.382896422089056	11.246814239293691	2.8649663778552177	14.382896422089056	-15.54290771817184	10.113456582806139	7.134406217138137	11.14498105746361	2.622643275117976	4	missed	0.0
330.0620236999821	6.009076900081709	go_punish	0.2897584999445826	330.07439529988915	331.76477429992565	334.3058778999839	1.6903790000365007	331.07791729993187	333.2858434000518	335.31879470008425	0.686856999993779	1.0200344999320805	0.7646774998866022	n/a	1.0	n/a	2	0	110	3	go_punish	1	0	-1	1	1	1	0	n/a	n/a	0	0.2897584999445826	1.0	1753.646480299998	2083.720875599887	2084.72439759993	2085.4112545999237	2086.93232370005	2087.952358199982	n/a	n/a	2088.9652750000823	2089.729952499969	2019-12-31 19:23:24.012907	7.40591680074684	-0.607650518698722	-7.03342119729225	-0.839181851075509	0.372495603454589	-7.03342119729225	-7.40591680074684	-0.607650518698722	-7.03342119729225	0.372495603454589	-7.03342119729225	0.607650518698722	0.7086222297982321	-1.222922608206195	-7.834887530195394	-4.776730366774019	-2.2705558370657934	-7.834887530195394	0.24910555551908325	-4.698410568731473	-5.407032798529713	-4.647032216227313	-4.410777922174274	4	missed	0.0
336.0984551999718	7.506285500014201	nogo_punish	1.0	336.11082679987885	338.8743662999477	341.40081969997846	2.763539500068873	337.10905739990994	340.390789699974	342.40510890004225	1.7653089000377804	1.0100300000044626	1.2120033998508006	n/a	1.0	n/a	2	0	111	4	nogo_punish	1	-1	0	0	0	1	0	n/a	n/a	0	1.0	1.0	1753.646480299998	2089.757307099877	2090.755537699908	2092.520846599946	2094.037269999972	2095.0472999999765	n/a	n/a	2096.0515892000403	2097.263592599891	2019-12-31 19:23:24.012907	3.26420056936667	-5.37563462213538	-1.2359436732467	-1.2359456908774	-4.50014424261337	-1.2359436732467	-3.26420056936667	-1.2359436732467	-5.37563462213538	-1.2359436732467	-4.50014424261337	1.2359436732467	-3.433094001581938	-5.990906711642854	-2.0374100061498446	-5.17349420657591	-7.143195683133753	-2.0374100061498446	0.8773987100670613	-6.306849845432762	-2.873755843850833	-5.275325370775291	-2.7529913470174043	4	missed	0.0
343.63109550019726	6.846924899844453	go_reward	0.3562336000613868	343.6434671001043	346.0843024998903	348.6324012998957	2.4408353997860104	344.6629198999144	347.6125163999386	349.645909700077	1.4213825999759138	1.0198848999571055	0.8444822998717427	n/a	1.0	n/a	2	0	112	1	go_reward	0	0	1	1	1	1	0	n/a	n/a	0	0.3562336000613868	1.0	1753.646480299998	2097.2899474001024	2098.3094001999125	2099.7307827998884	2101.2589966999367	2102.278881599894	n/a	n/a	2103.292390000075	2104.136872299947	2019-12-31 19:23:24.012907	5.32478630459086	3.2017161187379	0.0	3.2017161187379	5.32478630459086	0.0	-5.32478630459086	3.2017161187379	0.0	5.32478630459086	0.0	-3.2017161187379	-1.3725082663577481	2.586444029230427	-0.8014663329031446	-0.73583239696061	2.6817348640704775	-0.8014663329031446	-3.560261081917539	0.2538801324047979	1.6263883987625374	-0.8376655787906908	2.622643275117976	4	missed	0.0
350.50266420003027	6.131976300152019	nogo_punish	1.0	350.5150357999373	352.09167249989696	354.6209124000743	1.5766366999596357	351.5256048999727	353.602820500033	355.62909439997793	0.5660675999242812	1.0180919000413269	1.0179177001114112	n/a	1.0	n/a	2	0	113	4	nogo_punish	1	-1	0	0	0	1	1	n/a	n/a	0	1.0	1.0	1753.646480299998	2104.1615160999354	2105.1720851999708	2105.738152799895	2107.249300800031	2108.2673927000724	n/a	n/a	2109.275574699976	2110.2934924000874	2019-12-31 19:23:24.012907	3.73217311758226	-5.37563462213538	-0.598950345535309	-0.598951596737245	-4.33112346311756	-0.598950345535309	-3.73217311758226	-0.598950345535309	-5.37563462213538	-0.598950345535309	-4.33112346311756	0.598950345535309	-2.965121453366348	-5.990906711642854	-1.4004166784384537	-4.536500112435755	-6.974174903637943	-1.4004166784384537	0.24040538235567027	-5.669856517721371	-2.704735064355023	-4.6383320430639	-2.7529913470174043	4	missed	0.0
356.681242500199	7.3542771998327225	go_punish	0.4029550999403	356.69361410010606	359.0375053000171	361.58011829992756	2.3438911999110132	357.6883541001007	360.56999129988253	362.58591139991813	1.3491511999163777	1.0101270000450313	1.4619799000206513	n/a	1.0	n/a	2	0	114	3	go_punish	1	0	-1	1	1	1	0	n/a	n/a	0	0.4029550999403	1.0	1753.646480299998	2110.340094400104	2111.3348344000988	2112.683985600015	2114.2164715998806	2115.2265985999256	n/a	n/a	2116.232391699916	2117.694371599937	2019-12-31 19:23:24.012907	7.82410230437776	-0.301782086721438	-7.03342119729225	-0.418188732864487	0.790681107085514	-7.03342119729225	-7.82410230437776	-0.301782086721438	-7.03342119729225	0.790681107085514	-7.03342119729225	0.301782086721438	1.1268077334291524	-0.917054176228911	-7.834887530195394	-4.355737248562997	-1.8523703334348682	-7.834887530195394	-0.05676287645820072	-4.280225065100548	-5.407032798529713	-4.341163784250029	-4.410777922174274	4	missed	0.0
364.0621520001441	6.362085799919441	go_reward	0.4540911999065429	364.0745236000512	365.6363027000334	368.183710699901	1.5617790999822319	365.0747873999644	367.1627366000321	369.1969349998981	0.5615153000690043	1.0209740998689085	1.2396744000725448	n/a	1.0	n/a	2	0	115	1	go_reward	0	0	1	1	1	1	0	n/a	n/a	0	0.4540911999065429	1.0	1753.646480299998	2117.7210039000493	2118.7212676999625	2119.2827830000315	2120.80921690003	2121.830190999899	n/a	n/a	2122.843415299896	2124.0830896999687	2019-12-31 19:23:24.012907	3.19670762756359	1.54637170301996	0.0	1.54637170301996	3.19670762756359	0.0	-3.19670762756359	1.54637170301996	0.0	3.19670762756359	0.0	-1.54637170301996	-3.500586943385018	0.9310996135124869	-0.8014663329031446	-2.39117681267855	0.5536561870432077	-0.8014663329031446	-1.9049166661995987	-1.8741985446224718	1.6263883987625374	-2.493009994508631	2.622643275117976	4	missed	0.0
370.4504788001068	7.053777799941145	nogo_punish	1.0	370.46285040001385	373.0120868999511	375.537267300067	2.549236499937251	371.471334700007	374.5181152999867	376.54664020007476	1.5407521999441087	1.0191520000803393	0.9699879998802317	n/a	1.0	n/a	2	0	116	4	nogo_punish	1	-1	0	0	0	1	0	n/a	n/a	0	1.0	1.0	1753.646480299998	2124.109330700012	2125.117815000005	2126.658567199949	2128.1645955999848	2129.183747600065	n/a	n/a	2130.193120500073	2131.163108499953	2019-12-31 19:23:24.012907	3.95289150420423	-5.37563462213538	-0.29797543772364	-0.297976217357581	-4.25086694192787	-0.29797543772364	-3.95289150420423	-0.29797543772364	-5.37563462213538	-0.29797543772364	-4.25086694192787	0.29797543772364	-2.7444030667443777	-5.990906711642854	-1.0994417706267847	-4.235524733056091	-6.893918382448252	-1.0994417706267847	-0.06056952545599875	-5.368881609909701	-2.624478543165333	-4.337357135252231	-2.7529913470174043	4	missed	0.0
377.55197170004294	5.613644400144949	go_punish	0.3359867997933179	377.56434329995	378.84759030002215	381.39861060003796	1.2832470000721514	378.5673001999967	380.3792610000819	382.40308100008406	0.28029010002546784	1.0193495999560582	0.774906700010888	n/a	1.0	n/a	2	0	117	3	go_punish	1	0	-1	1	1	1	0	n/a	n/a	0	0.3359867997933179	1.0	1753.646480299998	2131.210823599948	2132.2137804999948	2132.49407060002	2134.02574130008	2135.045090900036	n/a	n/a	2136.049561300082	2136.824468000093	2019-12-31 19:23:24.012907	8.02753390582193	-0.153292283802792	-7.03342119729225	-0.213031879797506	0.994112708529683	-7.03342119729225	-8.02753390582193	-0.153292283802792	-7.03342119729225	0.994112708529683	-7.03342119729225	0.153292283802792	1.3302393348733217	-0.7685643733102651	-7.834887530195394	-4.150580395496016	-1.6489387319906992	-7.834887530195394	-0.20525267937684674	-4.0767934636563785	-5.407032798529713	-4.192673981331383	-4.410777922174274	4	missed	0.0
383.19176870002366	5.95918520004534	nogo_punish	0.9607464999426156	383.2041402999307	384.63369930000044	387.1898753999267	1.4295590000697302	384.21311690006405	386.1764728000853	388.20135849993676	0.4205823999363929	1.0134025998413563	0.9619670000392944	n/a	1.0	n/a	2	0	118	4	nogo_punish	1	-1	0	0	1	0	1	n/a	n/a	-1	0.9607464999426156	1.0	1753.646480299998	2136.850620599929	2137.859597200062	2138.2801795999985	2139.8229531000834	2140.8363556999248	n/a	n/a	2141.847838799935	2142.809805799974	2019-12-31 19:23:24.012907	-4.06005264266887	-5.37563462213538	-0.151638773352935	-0.151639261382644	-4.21169141602181	-0.151638773352935	4.06005264266887	-5.37563462213538	-0.151638773352935	-4.21169141602181	-0.151638773352935	-4.611855357132849	-10.757347213617479	-5.990906711642854	-0.9531051062560796	-4.089187777081154	-6.854742856542192	-0.9531051062560796	-4.970400320312487	-9.28259758820787	1.4747496254096024	-9.415016319663971	2.471004501765041	4	missed	0.0
389.1768007001374	6.258004499832168	go_reward	0.3000570000149309	389.18917230004445	390.5464705999475	393.084340000059	1.35729829990305	390.187489700038	392.0688064000569	394.0944733999204	0.3589808999095112	1.0155336000020725	1.3527033999562263	n/a	1.0	n/a	2	0	119	1	go_reward	1	1	0	1	1	1	0	n/a	n/a	1	0.3000570000149309	1.0	1753.646480299998	2142.8356526000425	2143.833970000036	2144.1929508999456	2145.715286700055	2146.730820300057	n/a	n/a	2147.7409536999185	2149.0936570998747	2019-12-31 19:23:24.012907	2.1940180494263	0.767267598601942	0.0	0.767267598601942	2.1940180494263	0.0	-2.1940180494263	0.767267598601942	0.0	2.1940180494263	0.0	14.622616489018359	-4.503276521522308	0.15199550909446902	-0.8014663329031446	-3.170280917096568	-0.449033391094082	-0.8014663329031446	14.26407152583872	-2.8768881227597616	1.6263883987625374	-3.272114098926649	2.622643275117976	4	missed	0.0
395.48355730017647	6.385321500012651	nogo_reward	1.0	395.4959289000835	397.37011209991806	399.90949280001223	1.8741831998345333	396.5055199998901	398.8867538999766	400.9194996999581	0.8645921000279486	1.0227389000356197	0.9617507001380545	n/a	1.0	n/a	2	0	120	2	nogo_reward	1	0	1	0	0	1	0	n/a	n/a	1	1.0	1.0	1753.646480299998	2149.1424092000816	2150.152000299888	2151.016592399916	2152.5332341999747	2153.5559731000103	n/a	n/a	2154.565979999956	2155.5277307000943	2019-12-31 19:23:24.012907	3.68080957008977	0.0	6.83557715677934	6.83557715677934	3.15476758668957	6.83557715677934	-3.68080957008977	6.83557715677934	0.0	6.83557715677934	3.15476758668957	8.55430693084096	-3.0164850008588378	-0.615272089507473	6.034110823876196	2.8980286410808302	0.5117161461691877	6.034110823876196	8.195761967661321	1.7646709845932786	4.7811559854521075	2.7961954592507494	2.622643275117976	4	missed	0.0
