onset	duration	trial_type	response_time	cueOnset	targetOnset	fbOnset	cueRT	firstfixOnset	secondfixOnset	waitOnset	firstfixdur	secondfixdur	waitdur	nback_fbOnset	nback_response_time	nback_targetOnset	block	wm	trial	cue	cond	is_common	outcome_go	outcome_nogo	key_correct	key_pressed	is_correct	key_correct_nback	key_pressed_nback	is_correct_nback	outcome	rt	rt_nback	time_scan	time_onset	time_isi1	time_circle	time_isi2	time_feedback	time_same	time_correct	time_iti	time_done	timestamp_scan	DV	Qgo	Qnogo	SV	Wgo	Wnogo	mDV	Qchosen	Qunchosen	Wchosen	Wunchosen	PE	DVC	QgoC	QnogoC	SVC	WgoC	WnogoC	PEC	WchosenC	WunchosenC	QchosenC	QunchosenC	run	outcome_nback	nback_targetResp
0.0	6.208350699977018	nogo_punish	0.3481563000241294	0.039513900061137974	1.472273400053382	4.007748399977572	1.432759499992244	1.0441813999786973	2.986875200062059	5.021127499989234	0.4280920000746846	1.0208731999155134	1.226737100048922	n/a	1.0	n/a	1	0	1	1	nogo_punish	0	0	-1	0	1	0	0	n/a	n/a	0	0.3481563000241294	1.0	64.91738060000353	64.95689450006466	65.96156199998222	66.38965400005691	67.90425580006558	68.9251289999811	n/a	n/a	69.93850809999276	71.16524520004168	2019-12-24 19:00:16.547410	-0.763023049357142	0.0	0.0	0.0	-0.763023049357142	0.0	0.763023049357142	0.0	0.0	-0.763023049357142	0.0	0.0	-2.6912544294949687	0.09992262831943931	-0.06663667475450913	-0.6848599090151058	0.14498237479562137	-0.06663667475450913	0.048778120613588556	-1.3064543647269284	1.3848000647680407	-0.8816783265961423	0.914964280161071	1	missed	0.0
6.23846279992722	6.637072000070475	nogo_punish	1.0	6.277976699988358	8.27251120004803	10.813480000011623	1.9945345000596717	7.289328500046395	9.788598099956289	11.812427900033072	0.9831827000016347	1.024881900055334	1.1026208000257611	n/a	1.0	n/a	1	0	2	1	nogo_punish	0	0	-1	0	0	1	0	n/a	n/a	-1	1.0	1.0	64.91738060000353	71.19535729999188	72.20670910004992	73.18989180005156	74.70597869995981	75.73086060001515	n/a	n/a	76.7298085000366	77.83242930006236	2019-12-24 19:00:16.547410	0.763023049357142	0.0	0.0	0.0	-0.763023049357142	0.0	-0.763023049357142	0.0	0.0	0.0	-0.763023049357142	-8.12453803217605	-1.1652083307806849	0.09992262831943931	-0.06663667475450913	-0.6848599090151058	0.14498237479562137	-0.06663667475450913	-8.07575991156246	-0.5434313153697864	0.6217770154108987	-0.8816783265961423	0.914964280161071	1	missed	0.0
12.913992899935693	6.345917699974962	nogo_reward	0.6076236000517383	12.95350679999683	14.515723400050774	17.068073700065725	1.5622166000539437	13.954673700034618	16.04804010002408	18.089276500046253	0.5610497000161558	1.0200336000416428	1.210147999925539	n/a	1.0	n/a	1	0	3	3	nogo_reward	1	0	1	0	1	0	0	n/a	n/a	0	0.6076236000517383	1.0	64.91738060000353	77.87088740000036	78.87205430003814	79.4331040000543	80.96542070002761	81.98545430006925	n/a	n/a	83.00665710004978	84.21680509997532	2019-12-24 19:00:16.547410	-0.763023049357142	0.0	0.0	0.0	-0.763023049357142	0.0	0.763023049357142	0.0	0.0	-0.763023049357142	0.0	0.0	-2.6912544294949687	0.09992262831943931	-0.06663667475450913	-0.6848599090151058	0.14498237479562137	-0.06663667475450913	0.048778120613588556	-1.3064543647269284	1.3848000647680407	-0.8816783265961423	0.914964280161071	1	missed	0.0
19.293583199963905	6.679784700041637	nogo_punish	0.1098907999694347	19.333097100025043	21.25652519997675	23.8072295000311	1.9234280999517068	20.334415600053035	22.783049499965273	24.816098800045438	0.922109599923715	1.0241800000658259	1.1967830000212416	n/a	1.0	n/a	1	0	4	1	nogo_punish	1	-1	0	0	1	0	1	n/a	n/a	-1	0.1098907999694347	1.0	64.91738060000353	84.25047770002857	85.25179620005656	86.17390579998028	87.7004300999688	88.72461010003462	n/a	n/a	89.73347940004896	90.9302624000702	2019-12-24 19:00:16.547410	1.58222415856091	0.0	-2.32497744834254	-2.32497744834254	-0.742753289781633	-2.32497744834254	-1.58222415856091	0.0	-2.32497744834254	-0.742753289781633	-2.32497744834254	-8.12453803217605	-0.34600722157691677	0.09992262831943931	-2.391614123097049	-3.009837357357646	0.1652521343711304	-2.391614123097049	-8.07575991156246	-1.2861846051514194	-0.9401773835744993	-0.8816783265961423	-1.410013168181469	1	missed	0.0
26.006303599919192	7.068184499978088	go_reward	0.1127869999036192	26.04581749998033	28.52372699999252	31.06701510003768	2.4779095000121885	27.036953200004078	30.043260600068592	32.067884100019	1.4867737999884412	1.0237544999690869	1.0461178999394178	n/a	1.0	n/a	1	0	5	4	go_reward	1	1	0	1	1	1	0	n/a	n/a	1	0.1127869999036192	1.0	64.91738060000353	90.96319809998386	91.9543338000076	93.44110759999604	94.96064120007212	95.9843957000412	n/a	n/a	96.98526470002253	98.03138259996194	2019-12-24 19:00:16.547410	-0.763023049357142	0.0	0.0	0.0	-0.763023049357142	0.0	0.763023049357142	0.0	0.0	-0.763023049357142	0.0	6.52087813664747	-2.6912544294949687	0.09992262831943931	-0.06663667475450913	-0.6848599090151058	0.14498237479562137	-0.06663667475450913	6.569656257261059	-1.3064543647269284	1.3848000647680407	-0.8816783265961423	0.914964280161071	1	missed	0.0
33.10704779997468	6.331624699989334	nogo_punish	0.0336748999543488	33.14656170003582	35.008847299963236	37.54980959999375	1.862285599927418	34.149149500066414	36.53882670006715	38.5662800000282	0.8596977998968214	1.0109828999266028	0.9119063999969512	n/a	1.0	n/a	1	0	6	1	nogo_punish	0	0	-1	0	1	0	1	n/a	n/a	0	0.0336748999543488	1.0	64.91738060000353	98.06394230003934	99.06653010006994	99.92622789996676	101.45620730007067	102.46719019999728	n/a	n/a	103.48366060003173	104.39556700002868	2019-12-24 19:00:16.547410	-0.716257859112842	-2.32497744834254	-2.32497744834254	-3.93936271861579	-3.04123530745538	-2.32497744834254	0.716257859112842	-2.32497744834254	-2.32497744834254	-3.04123530745538	-2.32497744834254	2.32497744834254	-2.6444892392506687	-2.2250548200231006	-2.391614123097049	-4.624222627630896	-2.133229883302617	-2.391614123097049	2.3737555689561285	-3.5846666228251665	-0.9401773835744993	-3.2066557749386826	-1.410013168181469	1	missed	0.0
39.471622699988075	6.185811999952421	nogo_punish	0.2050974000012502	39.51113660004921	41.35631539998576	43.90686360001564	1.8451787999365479	40.51325399999041	42.88332530006299	44.91647960001137	0.8430613999953493	1.023538299952648	0.7804689999902621	n/a	1.0	n/a	1	0	7	1	nogo_punish	1	-1	0	0	1	0	0	n/a	n/a	-1	0.2050974000012502	1.0	64.91738060000353	104.42851720005274	105.43063459999394	106.27369599998929	107.80070590006652	108.82424420001917	n/a	n/a	109.8338602000149	110.61432920000516	2019-12-24 19:00:16.547410	0.0004898531017049	-1.61438527027325	-2.32497744834254	-2.74987752057992	-2.32448759524084	-2.32497744834254	-0.0004898531017049	-1.61438527027325	-2.32497744834254	-2.32448759524084	-2.32497744834254	-6.5101527619028	-1.927741527036122	-1.5144626419538108	-2.391614123097049	-3.434737429595026	-1.4164821710880768	-2.391614123097049	-6.461374641289211	-2.8679189106106264	-0.9401773835744993	-2.4960635968693925	-1.410013168181469	1	missed	0.0
45.68981139990501	6.428012900054441	go_punish	0.0279128000838682	45.72932529996615	47.38552230002823	49.93943220004439	1.656197000062079	46.721440799999996	48.91637740004808	50.94902189995628	0.6640815000282316	1.0230547999963164	1.2083163000643111	n/a	1.0	n/a	1	0	8	2	go_punish	0	-1	0	1	1	1	0	n/a	n/a	-1	0.0279128000838682	1.0	64.91738060000353	110.64670589996967	111.63882140000352	112.30290290003175	113.8337580000516	114.85681280004792	n/a	n/a	115.8664024999598	117.07471880002412	2019-12-24 19:00:16.547410	-0.763023049357142	0.0	0.0	0.0	-0.763023049357142	0.0	0.763023049357142	0.0	0.0	-0.763023049357142	0.0	-8.12453803217605	-2.6912544294949687	0.09992262831943931	-0.06663667475450913	-0.6848599090151058	0.14498237479562137	-0.06663667475450913	-8.07575991156246	-1.3064543647269284	1.3848000647680407	-0.8816783265961423	0.914964280161071	1	missed	0.0
52.157976699993014	7.067799999960698	nogo_reward	0.1612213999032974	52.19749060005415	54.82505089999175	57.35080390004441	2.627560299937599	53.21591649996117	56.341720400028876	58.36399420001544	1.6091344000305838	1.0090835000155352	0.9012963999994099	n/a	1.0	n/a	1	0	9	3	nogo_reward	1	0	1	0	1	0	0	n/a	n/a	0	0.1612213999032974	1.0	64.91738060000353	117.11487120005768	118.1332970999647	119.74243149999528	121.2591010000324	122.26818450004794	n/a	n/a	123.28137480001897	124.18267120001838	2019-12-24 19:00:16.547410	-0.763023049357142	0.0	0.0	0.0	-0.763023049357142	0.0	0.763023049357142	0.0	0.0	-0.763023049357142	0.0	0.0	-2.6912544294949687	0.09992262831943931	-0.06663667475450913	-0.6848599090151058	0.14498237479562137	-0.06663667475450913	0.048778120613588556	-1.3064543647269284	1.3848000647680407	-0.8816783265961423	0.914964280161071	1	missed	0.0
59.26681810000446	7.203780599986203	nogo_reward	0.2630789000540972	59.306332000065595	62.02539740002247	64.58144820004236	2.7190653999568752	60.3157331000548	63.56162559997756	65.59486369998194	1.7096642999676703	1.0198226000647992	0.9152489000698552	n/a	1.0	n/a	1	0	10	3	nogo_reward	1	0	1	0	1	0	0	n/a	n/a	0	0.2630789000540972	1.0	64.91738060000353	124.22371260006912	125.23311370005833	126.942778000026	128.4790061999811	129.49882880004589	n/a	n/a	130.51224429998547	131.42749320005532	2019-12-24 19:00:16.547410	-0.763023049357142	0.0	0.0	0.0	-0.763023049357142	0.0	0.763023049357142	0.0	0.0	-0.763023049357142	0.0	0.0	-2.6912544294949687	0.09992262831943931	-0.06663667475450913	-0.6848599090151058	0.14498237479562137	-0.06663667475450913	0.048778120613588556	-1.3064543647269284	1.3848000647680407	-0.8816783265961423	0.914964280161071	1	missed	0.0
66.50809619994834	6.658826799946837	nogo_punish	0.1216240000212565	66.54761010000948	68.39577880001161	70.95587579999119	1.8481687000021338	67.55183000001125	69.93217170005664	71.95673089998309	0.8439488000003621	1.0237040999345481	1.24970599997323	n/a	1.0	n/a	1	0	11	1	nogo_punish	1	-1	0	0	1	0	0	n/a	n/a	-1	0.1216240000212565	1.0	64.91738060000353	131.464990700013	132.46921060001478	133.31315940001514	134.84955230006017	135.87325639999472	n/a	n/a	136.8741114999866	138.12381749995984	2019-12-24 19:00:16.547410	-1.82803517465979	-3.46046969864922	-2.32497744834254	-4.26825779450625	-4.15301262300233	-2.32497744834254	1.82803517465979	-3.46046969864922	-2.32497744834254	-4.15301262300233	-2.32497744834254	-4.66406833352683	-3.756266554797617	-3.3605470703297806	-2.391614123097049	-4.9531177035213565	-3.245007198849567	-2.391614123097049	-4.615290212913241	-4.696443938372116	-0.9401773835744993	-4.342148025245362	-1.410013168181469	1	missed	0.0
73.19931619998533	6.207138699945062	go_reward	0.3645049000624567	73.23883010004647	75.04791970003862	77.57738120004069	1.8090895999921486	74.24372300005052	76.56312760000583	78.57721360004507	0.804196699988097	1.0142536000348628	0.8687551999464631	n/a	1.0	n/a	1	0	12	4	go_reward	1	1	0	1	1	1	0	n/a	n/a	1	0.3645049000624567	1.0	64.91738060000353	138.15621070005	139.16110360005405	139.96530030004214	141.48050820000935	142.49476180004422	n/a	n/a	143.4945942000486	144.36334939999506	2019-12-24 19:00:16.547410	1.1293488546547	1.91795576652195	0.0	1.91795576652195	1.1293488546547	0.0	-1.1293488546547	1.91795576652195	0.0	1.1293488546547	0.0	4.60292237012552	-0.7988825254831269	2.0178783948413894	-0.06663667475450913	1.2330958575068443	2.0373542788074634	-0.06663667475450913	4.651700490739109	0.5859175392849135	1.3848000647680407	1.0362774399258077	0.914964280161071	1	missed	0.0
79.4429779999191	7.336851100088069	nogo_punish	1.0	79.48249189998023	82.0188494999893	84.53532140003517	2.536357600009069	80.49672389996704	83.52559570001904	85.5447713000467	1.5221256000222638	1.0097257000161335	1.2745717000215961	n/a	1.0	n/a	1	0	13	1	nogo_punish	0	0	-1	0	0	1	1	n/a	n/a	-1	1.0	1.0	64.91738060000353	144.39987249998376	145.41410449997056	146.93623009999283	148.44297630002256	149.4527020000387	n/a	n/a	150.46215190005023	151.73672360007183	2019-12-24 19:00:16.547410	3.09430325050276	-4.74715081447283	-2.32497744834254	-5.32768490800423	-5.4192806988453	-2.32497744834254	-3.09430325050276	-2.32497744834254	-4.74715081447283	-2.32497744834254	-5.4192806988453	-5.799560583833509	1.166071870364933	-4.647228186153391	-2.391614123097049	-6.012544817019336	-4.511275274692537	-2.391614123097049	-5.75078246321992	-2.8684087637123263	-4.034480634077259	-3.2066557749386826	-3.832186534311759	1	missed	0.0
86.81415719992947	6.129176200018264	go_reward	0.3669255999848246	86.8536710999906	88.1954177999869	90.74838710005861	1.3417466999962926	87.86762310005724	89.72455429995898	91.74729490000755	0.3277946999296546	1.0238328000996262	1.2355524000013247	n/a	1.0	n/a	1	0	14	4	go_reward	1	1	0	1	1	1	1	n/a	n/a	1	0.3669255999848246	1.0	64.91738060000353	151.77105169999413	152.78500370006077	153.11279839999042	154.6419348999625	155.66576770006213	n/a	n/a	156.66467550001107	157.9002279000124	2019-12-24 19:00:16.547410	2.41523888010054	3.23285731036796	0.0	3.23285731036796	2.41523888010054	0.0	-2.41523888010054	3.23285731036796	0.0	2.41523888010054	0.0	3.28802082627951	0.4870074999627132	3.3327799386873993	-0.06663667475450913	2.547997401352854	3.3232443042533033	-0.06663667475450913	3.3367989468930985	1.8718075647307537	1.3848000647680407	2.3511789837718178	0.914964280161071	1	missed	0.0
92.97808309993707	7.865981900016777	go_reward	0.397622299962677	93.0175969999982	95.8598428000696	98.39687229995616	2.842245800071396	94.02548399998341	97.37164560006931	99.405873300042	1.8343588000861928	1.0252266998868436	1.4777055999729782	n/a	1.0	n/a	1	0	15	4	go_reward	1	1	0	1	1	1	0	n/a	n/a	1	0.397622299962677	1.0	64.91738060000353	157.93497760000173	158.94286459998693	160.77722340007313	162.28902620007284	163.31425289995968	n/a	n/a	164.32325390004553	165.8009595000185	2019-12-24 19:00:16.547410	3.30239750982471	4.14728029957744	0.0	4.14728029957744	3.30239750982471	0.0	-3.30239750982471	4.14728029957744	0.0	3.30239750982471	0.0	2.3735978370700304	1.3741661296868832	4.247202927896879	-0.06663667475450913	3.462420390562334	4.210402933977473	-0.06663667475450913	2.422375957683619	2.7589661944549237	1.3848000647680407	3.2656019729812975	0.914964280161071	1	missed	0.0
100.88628969993442	6.279676000005566	nogo_reward	0.0064341999823227	100.92580359999556	102.39951560006011	104.94706469995435	1.4737120000645518	101.92613819998223	103.9230711000273	105.96180789999198	0.47337740007787943	1.0239935999270529	1.2436717000091448	n/a	1.0	n/a	1	0	16	3	nogo_reward	0	1	0	0	1	0	0	n/a	n/a	1	0.0064341999823227	1.0	64.91738060000353	165.8431841999991	166.84351879998576	167.31689620006364	168.84045170003083	169.86444529995788	n/a	n/a	170.8791884999955	172.12286020000465	2019-12-24 19:00:16.547410	-0.763023049357142	0.0	0.0	0.0	-0.763023049357142	0.0	0.763023049357142	0.0	0.0	-0.763023049357142	0.0	6.52087813664747	-2.6912544294949687	0.09992262831943931	-0.06663667475450913	-0.6848599090151058	0.14498237479562137	-0.06663667475450913	6.569656257261059	-1.3064543647269284	1.3848000647680407	-0.8816783265961423	0.914964280161071	1	missed	0.0
107.20121979992837	6.489231700077653	go_punish	0.1253906999481842	107.2407336999895	109.41797710000537	111.94994730001781	2.1772434000158682	108.2460688999854	110.93984470004216	112.95448960002977	1.1719082000199705	1.010102599975653	0.775475800037384	n/a	1.0	n/a	1	0	17	2	go_punish	1	0	-1	1	1	1	0	n/a	n/a	0	0.1253906999481842	1.0	64.91738060000353	172.15811429999303	173.16344949998893	174.3353577000089	175.85722530004568	176.86732790002134	n/a	n/a	177.8718702000333	178.64734600007068	2019-12-24 19:00:16.547410	-3.06773073812418	-2.32497744834254	0.0	-2.32497744834254	-3.06773073812418	0.0	3.06773073812418	-2.32497744834254	0.0	-3.06773073812418	0.0	2.32497744834254	-4.995962118262007	-2.2250548200231006	-0.06663667475450913	-3.009837357357646	-2.1597253139714168	-0.06663667475450913	2.3737555689561285	-3.6111620534939664	1.3848000647680407	-3.2066557749386826	0.914964280161071	1	missed	0.0
113.7251153999241	7.800332600018038	nogo_punish	1.0	113.76462929998524	116.54843490000349	119.07377380004618	2.7838056000182405	114.78051269997377	118.05440699995964	120.08731540001463	1.767922200029716	1.0193668000865443	1.4776464999886514	n/a	1.0	n/a	1	0	18	1	nogo_punish	1	-1	0	0	0	1	0	n/a	n/a	0	1.0	1.0	64.91738060000353	178.68200989998877	179.6978932999773	181.465815500007	182.97178759996316	183.9911544000497	n/a	n/a	185.00469600001816	186.4823425000068	2019-12-24 19:00:16.547410	1.46037200392271	-4.74715081447283	-3.93936271861579	-6.07645822962154	-5.3997347225385	-3.93936271861579	-1.46037200392271	-3.93936271861579	-4.74715081447283	-3.93936271861579	-5.3997347225385	3.93936271861579	-0.46785937621511686	-4.647228186153391	-4.005999393370299	-6.761318138636646	-4.491729298385736	-4.005999393370299	3.9881408392293785	-4.482794033985576	-4.014934657770459	-4.821041045211932	-3.832186534311759	1	missed	0.0
121.56220949999985	6.772015099995798	go_reward	0.1635659999446943	121.60172340006099	123.36179970006927	125.90604979998898	1.7600763000082793	122.59625369997232	124.8928004000336	126.91490580001849	0.765546000096947	1.0132493999553844	1.4588327000383003	n/a	1.0	n/a	1	0	19	4	go_reward	1	1	0	1	1	1	0	n/a	n/a	1	0.1635659999446943	1.0	64.91738060000353	186.51910400006452	187.51363429997585	188.2791803000728	189.81018100003712	190.8234303999925	n/a	n/a	191.832286400022	193.2911191000603	2019-12-24 19:00:16.547410	3.92259473298739	4.79115246895664	0.0	4.79115246895664	3.92259473298739	0.0	-3.92259473298739	4.79115246895664	0.0	3.92259473298739	0.0	1.72972566769083	1.9943633528495632	4.8910750972760795	-0.06663667475450913	4.106292559941534	4.830600157140154	-0.06663667475450913	1.7785037883044186	3.3791634176176037	1.3848000647680407	3.909474142360498	0.914964280161071	1	missed	0.0
128.36815140000544	6.078402099898085	go_punish	1.0	128.40766530006658	129.9714899000246	132.50227359996643	1.563824599958025	129.42398710001729	131.48638749995735	133.5164163999725	0.5475028000073223	1.0158861000090837	0.9696509999921545	n/a	1.0	n/a	1	0	20	2	go_punish	0	-1	0	1	0	0	0	n/a	n/a	0	1.0	1.0	64.91738060000353	193.3250459000701	194.3413677000208	194.88887050002813	196.40376809996087	197.41965419996995	n/a	n/a	198.43379699997604	199.4034479999682	2019-12-24 19:00:16.547410	2.3509128889616	-1.61438527027325	0.0	-1.61438527027325	-2.3509128889616	0.0	-2.3509128889616	0.0	-1.61438527027325	0.0	-2.3509128889616	0.0	0.4226815088237732	-1.5144626419538108	-0.06663667475450913	-2.2992451792883557	-1.4429074648088367	-0.06663667475450913	0.048778120613588556	-0.5434313153697864	-0.9661128241935593	-0.8816783265961423	-0.699420990112179	1	missed	0.0
134.48739609995388	7.009763799957057	nogo_reward	0.3727314000716433	134.52691000001502	137.0047290000366	139.56102100003048	2.477819000021583	135.53669420001097	138.54131540004167	140.57424680003896	1.4680348000256345	1.0197055999888107	0.9624269999331148	n/a	1.0	n/a	1	0	21	3	nogo_reward	1	0	1	0	1	0	0	n/a	n/a	0	0.3727314000716433	1.0	64.91738060000353	199.44429060001855	200.4540748000145	201.92210960004013	203.4586960000452	204.478401600034	n/a	n/a	205.4916274000425	206.4540543999756	2019-12-24 19:00:16.547410	1.1293488546547	1.91795576652195	0.0	1.91795576652195	1.1293488546547	0.0	-1.1293488546547	1.91795576652195	0.0	1.1293488546547	0.0	-1.91795576652195	-0.7988825254831269	2.0178783948413894	-0.06663667475450913	1.2330958575068443	2.0373542788074634	-0.06663667475450913	-1.8691776459083613	0.5859175392849135	1.3848000647680407	1.0362774399258077	0.914964280161071	1	missed	0.0
141.53656559996307	6.513098299968988	go_punish	0.2240196999628096	141.5760795000242	143.4954089999665	146.02947780000977	1.919329499942279	142.58398860006128	145.01110800006427	147.04250450001567	0.9114203999052108	1.0183697999455035	1.0466732999775274	n/a	1.0	n/a	1	0	22	2	go_punish	1	0	-1	1	1	1	1	n/a	n/a	0	0.2240196999628096	1.0	64.91738060000353	206.49346010002773	207.5013692000648	208.41278959997	209.9284886000678	210.9468584000133	n/a	n/a	211.9598851000192	213.00655839999672	2019-12-24 19:00:16.547410	-2.35098302590963	-1.61438527027325	0.0	-1.13549225030667	-2.35098302590963	0.0	2.35098302590963	-1.61438527027325	0.0	-2.35098302590963	0.0	1.61438527027325	-4.279214406047457	-1.5144626419538108	-0.06663667475450913	-1.820352159321776	-1.4429776017568665	-0.06663667475450913	1.6631633908868386	-2.894414341279416	1.3848000647680407	-2.4960635968693925	0.914964280161071	1	missed	0.0
148.08920289995146	6.089217199943988	nogo_reward	1.0	148.1287168000126	149.7074677000055	152.23411119997036	1.5787508999929116	149.1397013000678	151.21921080001633	153.2489209000487	0.5677663999377103	1.0149003999540298	0.9690130999078974	n/a	1.0	n/a	1	0	23	3	nogo_reward	1	0	1	0	0	1	1	n/a	n/a	1	1.0	1.0	64.91738060000353	213.04609740001612	214.05708190007132	214.62484830000903	216.13659140001985	217.15149179997388	n/a	n/a	218.1663015000522	219.1353145999601	2019-12-24 19:00:16.547410	-0.522866976088705	1.31490154384601	0.0	1.31490154384601	0.522866976088705	0.0	0.522866976088705	0.0	1.31490154384601	0.0	0.522866976088705	6.52087813664747	-2.451098356226532	1.4148241721654493	-0.06663667475450913	0.6300416348309043	1.4308724002414683	-0.06663667475450913	6.569656257261059	-0.5434313153697864	1.9076670408567458	-0.8816783265961423	2.229865824007081	1	missed	0.0
154.21529809990898	7.312294000061229	nogo_reward	1.0	154.25481199997012	156.84178949997295	159.3706261999905	2.586977500002831	155.26461710000876	158.34703659999653	160.37015600001902	1.5771723999641836	1.0235895999939828	1.1969500000123219	n/a	1.0	n/a	1	0	24	3	nogo_reward	1	0	1	0	0	1	0	n/a	n/a	1	1.0	1.0	64.91738060000353	219.17219259997364	220.1819977000123	221.75917009997647	223.26441720000005	224.28800679999404	n/a	n/a	225.28753660002255	226.48448660003487	2019-12-24 19:00:16.547410	1.41892549402852	1.31490154384601	1.91795576652195	2.83237875573143	0.499030272493436	1.91795576652195	-1.41892549402852	1.91795576652195	1.31490154384601	1.91795576652195	0.499030272493436	4.60292237012552	-0.5093058861093067	1.4148241721654493	1.851319091767441	2.1475188467163244	1.4070356966461994	1.851319091767441	4.651700490739109	1.3745244511521637	1.8838303372614766	1.0362774399258077	2.229865824007081	1	missed	0.0
161.5684980999213	7.176888899994026	go_punish	0.0607377000851556	161.60801199998244	164.02075000002515	166.5700261000311	2.412738000042708	162.61248070001602	165.54932810005266	167.5716262999922	1.408269300009124	1.020697999978438	1.2132745999842598	n/a	1.0	n/a	1	0	25	2	go_punish	1	0	-1	1	1	1	0	n/a	n/a	0	0.0607377000851556	1.0	64.91738060000353	226.52539259998596	227.52986130001955	228.93813060002867	230.4667087000562	231.48740670003463	n/a	n/a	232.48900689999573	233.70228149998	2019-12-24 19:00:16.547410	-1.87473022795606	-1.13549225030667	0.0	-0.807788095857037	-1.87473022795606	0.0	1.87473022795606	-1.13549225030667	0.0	-1.87473022795606	0.0	1.13549225030667	-3.802961608093887	-1.0355696219872308	-0.06663667475450913	-1.4926480048721429	-0.9667248038032966	-0.06663667475450913	1.1842703709202587	-2.4181615433258465	1.3848000647680407	-2.0171705769028123	0.914964280161071	1	missed	0.0
168.78014379995875	7.422227500006585	go_punish	1.0	168.8196577000199	171.56977639999243	174.09442079998553	2.750118699972546	169.8354392000474	173.07988870004192	175.10294789995532	1.7343371999450312	1.014532099943608	1.1389373000711487	n/a	1.0	n/a	1	0	26	2	go_punish	1	0	-1	1	0	0	0	n/a	n/a	-1	1.0	1.0	64.91738060000353	233.7370383000234	234.75281980005093	236.48715699999596	237.99726930004545	239.01180139998905	n/a	n/a	240.02032849995885	241.15926580003	2019-12-24 19:00:16.547410	1.55046824218157	-0.807788095857037	0.0	-0.580534093531401	-1.55046824218157	0.0	-1.55046824218157	0.0	-0.807788095857037	0.0	-1.55046824218157	-8.12453803217605	-0.3777631379562567	-0.7078654675375977	-0.06663667475450913	-1.2653940025465067	-0.6424628180288067	-0.06663667475450913	-8.07575991156246	-0.5434313153697864	-0.16566817741352935	-0.8816783265961423	0.10717618430403397	1	missed	0.0
176.23544469999612	6.849166699918015	go_reward	0.1124743999680504	176.27495860005726	178.25614049995784	180.8086120999651	1.9811818999005766	177.26640870003033	179.78721069998576	181.82035349996295	0.9897317999275117	1.0214013999793394	1.3037718000123277	n/a	1.0	n/a	1	0	27	4	go_reward	0	0	1	1	1	1	0	n/a	n/a	0	0.1124743999680504	1.0	64.91738060000353	241.1923392000608	242.18378930003385	243.17352109996136	244.7045912999893	245.72599269996863	n/a	n/a	246.73773409996647	248.0415058999788	2019-12-24 19:00:16.547410	4.36124039892846	5.24953511923996	0.0	5.24953511923996	4.36124039892846	0.0	-4.36124039892846	5.24953511923996	0.0	4.36124039892846	0.0	-5.24953511923996	2.433009018790633	5.349457747559399	-0.06663667475450913	4.564675210224854	5.269245823081223	-0.06663667475450913	-5.200756998626371	3.8178090835586733	1.3848000647680407	4.367856792643818	0.914964280161071	1	missed	0.0
183.12202659994364	6.35335109999869	go_reward	0.2134462000103667	183.16154050000478	184.6088647999568	187.15870929998343	1.4473242999520153	184.17055869998876	186.13878639996983	188.1622333000414	0.43830609996803105	1.0199229000135972	1.3526582999620587	n/a	1.0	n/a	1	0	28	4	go_reward	0	0	1	1	1	1	0	n/a	n/a	0	0.2134462000103667	1.0	64.91738060000353	248.0789211000083	249.08793929999229	249.52624539996032	251.05616699997336	252.07608989998695	n/a	n/a	253.07961390004493	254.432272200007	2019-12-24 19:00:16.547410	2.78235399446324	3.66114203811493	0.0	3.66114203811493	2.78235399446324	0.0	-2.78235399446324	3.66114203811493	0.0	2.78235399446324	0.0	-3.66114203811493	0.854122614325413	3.7610646664343697	-0.06663667475450913	2.9762821290998245	3.690359418616003	-0.06663667475450913	-3.612363917501342	2.2389226790934535	1.3848000647680407	2.7794637115187877	0.914964280161071	1	missed	0.0
189.5072606999893	6.992979099974008	nogo_punish	1.0	189.54677460005044	191.59968720003963	194.12731090001762	2.0529125999891846	190.55033510003705	193.10703149996698	195.14016149996314	1.0493521000025794	1.02027940005064	1.3995922000613064	n/a	1.0	n/a	1	0	29	1	nogo_punish	1	-1	0	0	0	1	0	n/a	n/a	0	1.0	1.0	64.91738060000353	254.46415520005397	255.46771570004057	256.51706780004315	258.0244120999705	259.04469150002114	n/a	n/a	260.05754209996667	261.457134300028	2019-12-24 19:00:16.547410	2.65287604278132	-4.74715081447283	-2.74987752057992	-4.28671745599526	-5.40275356336124	-2.74987752057992	-2.65287604278132	-2.74987752057992	-4.74715081447283	-2.74987752057992	-5.40275356336124	2.74987752057992	0.724644662643493	-4.647228186153391	-2.8165141953344293	-4.971577365010366	-4.494748139208476	-2.8165141953344293	2.7986556411935086	-3.2933088359497065	-4.017953498593199	-3.6315558471760623	-3.832186534311759	1	missed	0.0
196.53216159995645	6.720198399969377	nogo_punish	1.0	196.5716755000176	198.4086465999717	200.94800670002587	1.8369710999540985	197.5640211000573	199.9237914000405	201.94667450000998	0.8446254999144003	1.0242152999853715	1.3451993999769911	n/a	1.0	n/a	1	0	30	1	nogo_punish	0	0	-1	0	0	1	0	n/a	n/a	-1	1.0	1.0	64.91738060000353	261.4890561000211	262.4814017000608	263.3260271999752	264.841172000044	265.8653873000294	n/a	n/a	266.8640551000135	268.2092544999905	2019-12-24 19:00:16.547410	3.47137253090912	-4.74715081447283	-1.94328034616371	-3.05881184439652	-5.41465287707283	-1.94328034616371	-3.47137253090912	-1.94328034616371	-4.74715081447283	-1.94328034616371	-5.41465287707283	-6.18125768601234	1.543141150771293	-4.647228186153391	-2.0099170209182193	-3.743671753411626	-4.506647452920066	-2.0099170209182193	-6.132479565398751	-2.4867116615334965	-4.029852812304789	-2.8249586727598524	-3.832186534311759	1	missed	0.0
203.28777519997675	6.85721259994898	go_punish	1.0	203.3272891000379	205.66257799998857	208.19364039995708	2.335288899950683	204.3423050000565	207.17933159996755	209.19372870004736	1.3202729999320582	1.0143087999895215	0.9907729999395087	n/a	1.0	n/a	1	0	31	2	go_punish	1	0	-1	1	0	0	0	n/a	n/a	-1	1.0	1.0	64.91738060000353	268.2446697000414	269.25968560006004	270.5799585999921	272.0967121999711	273.1110209999606	n/a	n/a	274.1111093000509	275.1018822999904	2019-12-24 19:00:16.547410	-0.791341816997673	-0.807788095857037	-2.32497744834254	-2.74604661551022	-1.53363563134487	-2.32497744834254	0.791341816997673	-2.32497744834254	-0.807788095857037	-2.32497744834254	-1.53363563134487	-5.799560583833509	-2.7195731971355	-0.7078654675375977	-2.391614123097049	-3.4309065245253256	-0.6256302071921066	-2.391614123097049	-5.75078246321992	-2.8684087637123263	-0.14883556657682928	-3.2066557749386826	0.10717618430403397	1	missed	0.0
210.17998199991416	6.076971900067292	go_punish	0.3487867000512779	210.2194958999753	211.57879090006463	214.1269235999789	1.3592950000893325	211.23514260002412	213.10570880002342	215.13845650001895	0.3436483000405133	1.0212147999554873	1.1580113000236452	n/a	1.0	n/a	1	0	32	2	go_punish	1	0	-1	1	1	1	0	n/a	n/a	0	0.3487867000512779	1.0	64.91738060000353	275.1368764999788	276.15252320002764	276.49617150006816	278.02308940002695	279.04430419998243	n/a	n/a	280.0558371000225	281.2138484000461	2019-12-24 19:00:16.547410	2.42912551372352	-0.807788095857037	-3.93936271861579	-4.24734539100641	-1.51023720489226	-3.93936271861579	-2.42912551372352	-0.807788095857037	-3.93936271861579	-1.51023720489226	-3.93936271861579	0.807788095857037	0.5008941335856933	-0.7078654675375977	-4.005999393370299	-4.932205300021516	-0.6022317807394967	-4.005999393370299	0.8565662164706256	-2.0536685202620464	-2.554562653847749	-1.6894664224531795	-3.024398438454719	1	missed	0.0
216.28974349994678	6.532297700061463	go_reward	0.0222154000075534	216.32925740000792	218.3073860000586	220.86225240002386	1.9781286000506952	217.3351210000692	219.83859609998763	221.8713005000027	0.9722649999894202	1.0236563000362366	0.9902546000666916	n/a	1.0	n/a	1	0	33	4	go_reward	1	1	0	1	1	1	0	n/a	n/a	1	0.0222154000075534	1.0	64.91738060000353	281.24663800001144	282.2525016000727	283.22476660006214	284.75597669999115	285.7796330000274	n/a	n/a	286.7886811000062	287.7789357000729	2019-12-24 19:00:16.547410	1.72261952723566	2.58531225839039	0.0	2.58531225839039	1.72261952723566	0.0	-1.72261952723566	2.58531225839039	0.0	1.72261952723566	0.0	3.93556587825708	-0.20561185290216688	2.6852348867098295	-0.06663667475450913	1.9004523493752843	2.6306249513884232	-0.06663667475450913	3.9843439988706684	1.1791882118658736	1.3848000647680407	1.7036339317942477	0.914964280161071	1	missed	0.0
222.85768139990978	5.883722000056878	nogo_punish	1.0	222.89719529997092	224.41246420005336	226.9371031000046	1.5152689000824466	223.9121578000486	225.9171182999853	227.9454701000359	0.5003064000047743	1.0199848000193015	0.8354471999919042	n/a	1.0	n/a	1	0	34	1	nogo_punish	1	-1	0	0	0	1	0	n/a	n/a	0	1.0	1.0	64.91738060000353	287.81457589997444	288.8295384000521	289.3298448000569	290.83449889998883	291.85448370000813	n/a	n/a	292.8628507000394	293.6982979000313	2019-12-24 19:00:16.547410	1.69545407063054	-4.74715081447283	-3.71329963773098	-4.52991782178937	-5.40875370836152	-3.71329963773098	-1.69545407063054	-3.71329963773098	-4.74715081447283	-3.71329963773098	-5.40875370836152	3.71329963773098	-0.2327773095072867	-4.647228186153391	-3.7799363124854892	-5.214777730804476	-4.500748284208756	-3.7799363124854892	3.7620777583445686	-4.256730953100766	-4.023953643593479	-4.594977964327122	-3.832186534311759	1	missed	0.0
228.77563809999265	6.430170799954794	go_reward	0.286768399993889	228.81515200005379	230.3937952000415	232.94672550004907	1.5786431999877095	229.8316300000297	231.93009569996502	233.954839300015	0.5621652000118047	1.016629800084047	1.2904834999935701	n/a	1.0	n/a	1	0	35	4	go_reward	1	1	0	1	1	1	1	n/a	n/a	1	0.286768399993889	1.0	64.91738060000353	293.7325326000573	294.7490106000332	295.311175800045	296.84747629996855	297.8641061000526	n/a	n/a	298.87221990001854	300.1627034000121	2019-12-24 19:00:16.547410	2.89239364310013	3.76369599341148	0.0	3.76369599341148	2.89239364310013	0.0	-2.89239364310013	3.76369599341148	0.0	2.89239364310013	0.0	2.75718214323599	0.964162262962303	3.8636186217309194	-0.06663667475450913	3.0788360843963742	3.800399067252893	-0.06663667475450913	2.8059602638495784	2.3489623277303435	1.3848000647680407	2.8820176668153374	0.914964280161071	1	missed	0.0
235.23887279990595	6.54035670007579	go_punish	0.2161059000063687	235.2783866999671	236.7804349999642	239.3225447000005	1.5020482999971136	236.28048740001395	238.30177949997596	240.33468820003327	0.4999475999502465	1.0207652000245275	1.4840552000096068	n/a	1.0	n/a	1	0	36	2	go_punish	1	0	-1	1	1	1	0	n/a	n/a	0	0.2161059000063687	1.0	64.91738060000353	300.1957672999706	301.1978680000175	301.6978155999677	303.2191600999795	304.239925300004	n/a	n/a	305.2520688000368	306.7361240000464	2019-12-24 19:00:16.547410	2.65988526833519	-0.580534093531401	-3.93936271861579	-2.97689225289071	-1.2794774502806	-3.93936271861579	-2.65988526833519	-0.580534093531401	-3.93936271861579	-1.2794774502806	-3.93936271861579	0.580534093531401	0.7316538881973633	-0.48061146521196163	-4.005999393370299	-3.6617521619058158	-0.3714720261278365	-4.005999393370299	0.6293122141449895	-1.8229087656503862	-2.554562653847749	-1.4622124201275433	-3.024398438454719	1	missed	0.0
241.81899479997816	6.912846399936768	go_punish	0.1719137999461963	241.8585087000393	244.27814279997256	246.83665449998807	2.419634099933262	242.86603479995392	245.8166033000453	247.84013470006175	1.412108000018634	1.0200511999427704	0.9312203999143094	n/a	1.0	n/a	1	0	37	2	go_punish	1	0	-1	1	1	1	0	n/a	n/a	0	0.1719137999461963	1.0	64.91738060000353	306.7758893000428	307.78341539995745	309.1955233999761	310.7339839000488	311.7540350999916	n/a	n/a	312.7575153000653	313.6887356999796	2019-12-24 19:00:16.547410	2.81443856615986	-0.421069167167681	-3.93936271861579	-2.11181463074363	-1.12492415245593	-3.93936271861579	-2.81443856615986	-0.421069167167681	-3.93936271861579	-1.12492415245593	-3.93936271861579	0.421069167167681	0.8862071860220331	-0.3211465388482417	-4.005999393370299	-2.796674539758736	-0.2169187283031665	-4.005999393370299	0.46984728778126955	-1.6683554678257164	-2.554562653847749	-1.3027474937638233	-3.024398438454719	1	missed	0.0
248.76544829993503	6.341330699971934	go_reward	0.0046945000067353	248.80496219999617	250.26889750000555	252.78945959999692	1.463935300009382	249.80645649996586	251.7850900000194	253.79888310004026	0.46244100003968924	1.0043695999775082	1.3474097999278456	n/a	1.0	n/a	1	0	38	4	go_reward	1	1	0	1	1	1	0	n/a	n/a	1	0.0046945000067353	1.0	64.91738060000353	313.7223427999997	314.7238370999694	315.1862781000091	316.70247060002293	317.70684020000044	n/a	n/a	318.7162637000438	320.0636734999716	2019-12-24 19:00:16.547410	3.67877797136148	4.56357397889363	0.0	4.56357397889363	3.67877797136148	0.0	-3.67877797136148	4.56357397889363	0.0	3.67877797136148	0.0	1.95730415775384	1.750546591223653	4.6634966072130695	-0.06663667475450913	3.8787140698785243	4.586783395514243	-0.06663667475450913	2.0060822783674284	3.1353466559916936	1.3848000647680407	3.681895652297488	0.914964280161071	1	missed	0.0
255.14112249994656	6.530797600047606	go_punish	0.1858135999646037	255.1806364000077	256.7598113999702	259.3231809999561	1.579174999962504	256.1970541999908	258.30240409995895	260.3274709000252	0.5627571999793872	1.020776899997145	1.383963100030087	n/a	1.0	n/a	1	0	39	2	go_punish	1	0	-1	1	1	1	1	n/a	n/a	0	0.1858135999646037	1.0	64.91738060000353	320.0980170000112	321.11443479999434	321.67719199997373	323.2197846999625	324.2405615999596	n/a	n/a	325.24485150002874	326.62881460005883	2019-12-24 19:00:16.547410	2.91964651044713	-0.307982672390619	-3.93936271861579	-1.51427713521675	-1.01971620816866	-3.93936271861579	-2.91964651044713	-0.307982672390619	-3.93936271861579	-1.01971620816866	-3.93936271861579	0.307982672390619	0.9914151303093033	-0.20806004407117967	-4.005999393370299	-2.199137044231856	-0.11171078401589651	-4.005999393370299	0.35676079300420754	-1.5631475235384462	-2.554562653847749	-1.1896609989867613	-3.024398438454719	1	missed	0.0
261.70820409990847	6.215348600060679	go_reward	0.0761789000825956	261.7477179999696	263.14941980002914	265.7038763000164	1.4017018000595272	262.7577037999872	264.679949900019	266.7130599999801	0.3917160000419244	1.0239263999974355	1.2500066000501988	n/a	1.0	n/a	1	0	40	4	go_reward	1	1	0	1	1	1	1	n/a	n/a	1	0.0761789000825956	1.0	64.91738060000353	326.66509859997313	327.67508439999074	328.06680040003266	329.5973305000225	330.62125690001994	n/a	n/a	331.6304405999836	332.8804472000338	2019-12-24 19:00:16.547410	4.21645811929929	5.11522965533814	0.0	5.11522965533814	4.21645811929929	0.0	-4.21645811929929	5.11522965533814	0.0	4.21645811929929	0.0	1.4056484813093304	2.288226739161463	5.215152283657579	-0.06663667475450913	4.430369746323033	5.124463543452054	-0.06663667475450913	1.454426601922919	3.6730268039295035	1.3848000647680407	4.2335513287419975	0.914964280161071	1	missed	0.0
267.96129000000656	5.95701759995427	nogo_reward	0.2737693999661132	268.0008039000677	269.3698410000652	271.92316830006894	1.369037099997513	269.01352270005737	270.902980200015	272.9329632000299	0.3563183000078425	1.0201881000539288	1.0248582999920473	n/a	1.0	n/a	1	0	41	3	nogo_reward	1	0	1	0	1	0	0	n/a	n/a	0	0.2737693999661132	1.0	64.91738060000353	332.9181845000712	333.9309033000609	334.28722160006873	335.82036080001853	336.84054890007246	n/a	n/a	337.85034380003344	338.8752021000255	2019-12-24 19:00:16.547410	-2.75924914300589	1.31490154384601	3.23285731036796	3.87672947974716	0.473608167362069	3.23285731036796	2.75924914300589	1.31490154384601	3.23285731036796	0.473608167362069	3.23285731036796	-1.31490154384601	-4.687480523143717	1.4148241721654493	3.166220635613451	3.191869570732054	1.3816135915148324	3.166220635613451	-1.2661234232324214	-0.06982314800771738	4.617657375136001	0.4332232172498678	4.1478215905290305	1	missed	0.0
273.9555127999047	6.23774280003272	nogo_punish	1.0	273.9950266999658	275.7941503999755	278.3200964999851	1.799123700009659	275.01336049998645	277.30969779996667	279.333340400015	0.7807898999890313	1.0103987000184134	0.8994290999835357	n/a	1.0	n/a	1	0	42	1	nogo_punish	1	-1	0	0	0	1	0	n/a	n/a	0	1.0	1.0	64.91738060000353	338.91240729996935	339.93074109999	340.711530999979	342.2270783999702	343.2374770999886	n/a	n/a	344.25072100001853	345.15015010000207	2019-12-24 19:00:16.547410	2.80051325730572	-4.74715081447283	-2.61598853097233	-3.21846043377117	-5.41650178827804	-2.61598853097233	-2.80051325730572	-2.61598853097233	-4.74715081447283	-2.61598853097233	-5.41650178827804	2.61598853097233	0.8722818771678931	-4.647228186153391	-2.682625205726839	-3.9033203427862757	-4.508496364125277	-2.682625205726839	2.6647666515859183	-3.159419846342116	-4.0317017235099994	-3.497666857568472	-3.832186534311759	1	missed	0.0
280.2277610999299	7.6522164000198245	nogo_punish	1.0	280.26727499999106	283.03616390004754	285.5627307000105	2.7688889000564814	281.27428580005653	284.55229130003136	286.57557590003125	1.7618780999910086	1.0104393999791341	1.3439154999796301	n/a	1.0	n/a	1	0	43	1	nogo_punish	1	-1	0	0	0	1	0	n/a	n/a	0	1.0	1.0	64.91738060000353	345.1846555999946	346.19166640006006	347.95354450005107	349.4696719000349	350.480111300014	n/a	n/a	351.4929565000348	352.8368720000144	2019-12-24 19:00:16.547410	3.56445708453973	-4.74715081447283	-1.86454408986497	-2.31223541305452	-5.4290011744047	-1.86454408986497	-3.56445708453973	-1.86454408986497	-4.74715081447283	-1.86454408986497	-5.4290011744047	1.86454408986497	1.636225704401903	-4.647228186153391	-1.931180764619479	-2.997095322069626	-4.520995750251936	-1.931180764619479	1.9133222104785585	-2.4079754052347564	-4.044201109636659	-2.746222416461112	-3.832186534311759	1	missed	0.0
287.9140075999312	6.838423700071871	nogo_punish	1.0	287.95352149999235	290.5166381000309	293.0226642000489	2.5631166000385406	288.97007819998544	292.02154139999766	294.0358974999981	1.5465599000454517	1.0011228000512347	0.7560477000661194	n/a	1.0	n/a	1	0	44	1	nogo_punish	1	-1	0	0	0	1	1	n/a	n/a	0	1.0	1.0	64.91738060000353	352.8709020999959	353.88745879998896	355.4340187000344	356.9389220000012	357.9400448000524	n/a	n/a	358.9532781000016	359.70932580006775	2019-12-24 19:00:16.547410	4.09941394311946	-4.74715081447283	-1.34278550055845	-1.67769329384155	-5.44219944367791	-1.34278550055845	-4.09941394311946	-1.34278550055845	-4.74715081447283	-1.34278550055845	-5.44219944367791	1.34278550055845	2.1711825629816333	-4.647228186153391	-1.409422175312959	-2.362553202856656	-4.534194019525146	-1.409422175312959	1.3915636211720386	-1.8862168159282362	-4.057399378909869	-2.224463827154592	-3.832186534311759	1	missed	0.0
294.7865295999218	7.41321779997088	go_punish	0.0549517000326886	294.8260434999829	297.2806578000309	299.838758100057	2.4546143000479788	295.84437780000735	298.81881119997706	300.84373309998773	1.4362800000235438	1.0199469000799581	1.3955281999660656	n/a	1.0	n/a	1	0	45	2	go_punish	1	0	-1	1	1	1	0	n/a	n/a	0	0.0549517000326886	1.0	64.91738060000353	359.74342409998644	360.7617584000109	362.1980384000344	363.7361917999806	364.75613870006055	n/a	n/a	365.76111369999126	367.1566418999573	2019-12-24 19:00:16.547410	2.99228597855023	-0.227014732310792	-3.93936271861579	-1.09632490574952	-0.947076740065558	-3.93936271861579	-2.99228597855023	-0.227014732310792	-3.93936271861579	-0.947076740065558	-3.93936271861579	0.227014732310792	1.0640545984124032	-0.12709210399135268	-4.005999393370299	-1.7811848147646256	-0.03907131591279456	-4.005999393370299	0.27579285292438055	-1.4905080554353445	-2.554562653847749	-1.1086930589069344	-3.024398438454719	1	missed	0.0
302.2362041999586	6.981829299940728	go_reward	0.2241613999940455	302.27571810001973	304.32926090003457	306.85493500006845	2.0535428000148386	303.28175850003026	305.8438638000517	307.86287049995735	1.047502400004305	1.0110712000167723	1.3946769000031054	n/a	1.0	n/a	1	0	46	4	go_reward	0	0	1	1	1	1	0	n/a	n/a	0	0.2241613999940455	1.0	64.91738060000353	367.19309870002326	368.1991391000338	369.2466415000381	370.7612444000552	371.772315600072	n/a	n/a	372.7802510999609	374.174927999964	2019-12-24 19:00:16.547410	4.58949741258172	5.50095727645776	0.0	5.50095727645776	4.58949741258172	0.0	-4.58949741258172	5.50095727645776	0.0	4.58949741258172	0.0	-5.50095727645776	2.661266032443893	5.6008799047772	-0.06663667475450913	4.816097367442654	5.497502836734483	-0.06663667475450913	-5.4521791558441715	4.046066097211933	1.3848000647680407	4.619278949861618	0.914964280161071	1	missed	0.0
309.25129429996014	6.890247300034389	go_punish	0.5574168000603095	309.2908082000213	311.6441033000592	314.1900193999754	2.35329510003794	310.2846337000374	313.1702580000274	315.2031912000384	1.3594696000218391	1.0197613999480382	0.9778643000172451	n/a	1.0	n/a	1	0	47	2	go_punish	1	0	-1	1	1	1	1	n/a	n/a	0	0.5574168000603095	1.0	64.91738060000353	374.2081888000248	375.2020143000409	376.56148390006274	378.0876386000309	379.10739999997895	n/a	n/a	380.12057180004194	381.0984361000592	2019-12-24 19:00:16.547410	3.0430714362821	-0.168534284579916	-3.93936271861579	-0.800703703211046	-0.896291282333687	-3.93936271861579	-3.0430714362821	-0.168534284579916	-3.93936271861579	-0.896291282333687	-3.93936271861579	0.168534284579916	1.1148400561442733	-0.0686116562604767	-4.005999393370299	-1.485563612226152	0.011714141819076374	-4.005999393370299	0.21731240519350456	-1.4397225977034736	-2.554562653847749	-1.0502126111760584	-3.024398438454719	1	missed	0.0
316.1760204999009	5.881483800010756	go_punish	0.101808900013566	316.21553439996205	317.5907694000053	320.13196679996327	1.375235000043233	317.23173920006957	319.1123411000008	321.14527340000495	0.3590301999357166	1.0196256999624893	0.9517447999678552	n/a	1.0	n/a	1	0	48	2	go_punish	1	0	-1	1	1	1	0	n/a	n/a	0	0.101808900013566	1.0	64.91738060000353	381.1329149999656	382.1491198000731	382.5081500000088	384.0297217000043	385.0493473999668	n/a	n/a	386.0626540000085	387.01439879997633	2019-12-24 19:00:16.547410	3.07897826641816	-0.125954945828312	-3.93936271861579	-0.589498618921376	-0.860384452197624	-3.93936271861579	-3.07897826641816	-0.125954945828312	-3.93936271861579	-0.860384452197624	-3.93936271861579	0.125954945828312	1.1507468862803334	-0.02603231750887268	-4.005999393370299	-1.274358527936482	0.04762097195513937	-4.005999393370299	0.17473306644190054	-1.4038157675674103	-2.554562653847749	-1.0076332724244543	-3.024398438454719	1	missed	0.0
322.0948445999529	6.365145400050096	go_punish	0.0612677000463008	322.13435850001406	323.46541669999715	326.0222186000319	1.3310581999830902	323.1485967000481	324.99757899995893	327.03032879997045	0.3168199999490753	1.0246396000729874	1.4691751000937074	n/a	1.0	n/a	1	0	49	2	go_punish	0	-1	0	1	1	1	1	n/a	n/a	-1	0.0612677000463008	1.0	64.91738060000353	387.0517391000176	388.0659773000516	388.3827973000007	389.91495959996246	390.93959920003545	n/a	n/a	391.947709399974	393.4168845000677	2019-12-24 19:00:16.547410	3.10462425134229	-0.0947216450504421	-3.93936271861579	-0.437222263802386	-0.834738467273503	-3.93936271861579	-3.10462425134229	-0.0947216450504421	-3.93936271861579	-0.834738467273503	-3.93936271861579	-8.029816387125608	1.1763928712044631	0.005200983268997206	-4.005999393370299	-1.122082172817492	0.07326695687926044	-4.005999393370299	-7.981038266512019	-1.3781697826432895	-2.554562653847749	-0.9763999716465844	-3.024398438454719	1	missed	0.0
328.50054829998413	7.355134399956967	nogo_reward	1.0	328.54006220004527	331.49649639998097	334.0015180000337	2.9564341999357	329.5416893999791	332.99202050000895	335.0109669000376	1.9548070000018924	1.009497500024736	0.8842296999646351	n/a	1.0	n/a	1	0	50	3	nogo_reward	1	0	1	0	0	1	0	n/a	n/a	1	1.0	1.0	64.91738060000353	393.4574428000488	394.4590699999826	396.4138769999845	397.9094011000125	398.9188986000372	n/a	n/a	399.9283475000411	400.81257720000576	2019-12-24 19:00:16.547410	3.15747023274335	0.914422989209479	3.23285731036796	2.68770718333881	0.0753870776246139	3.23285731036796	-3.15747023274335	3.23285731036796	0.914422989209479	3.23285731036796	0.0753870776246139	3.28802082627951	1.2292388526055231	1.0143456175289183	3.166220635613451	2.0028472743237042	0.9833925017773774	3.166220635613451	3.3367989468930985	2.6894259949981736	1.4601871423926547	2.3511789837718178	1.82938726937055	1	missed	0.0
335.8957004999974	5.655482799978984	nogo_reward	1.0	335.93521440005856	337.29479870002257	339.81714529998135	1.3595842999640126	336.94677779998165	338.80843540001655	340.83106060000136	0.3480209000409218	1.0087098999647992	0.7596366000361741	n/a	1.0	n/a	1	0	51	3	nogo_reward	0	1	0	0	0	1	0	n/a	n/a	0	1.0	1.0	64.91738060000353	400.8525950000621	401.8641583999852	402.2121793000261	403.7258160000201	404.7345258999849	n/a	n/a	405.7484412000049	406.50807780004106	2019-12-24 19:00:16.547410	4.08848071378736	0.914422989209479	4.14728029957744	3.80581361050755	0.058799585790086	4.14728029957744	-4.08848071378736	4.14728029957744	0.914422989209479	4.14728029957744	0.058799585790086	-4.14728029957744	2.1602493336495336	1.0143456175289183	4.0806436248229305	3.120953701492444	0.9668050099428495	4.0806436248229305	-4.098502178963851	3.6038489842076533	1.4435996505581268	3.2656019729812975	1.82938726937055	1	missed	0.0
341.58961649995763	6.134436700027436	go_reward	0.2558634999440983	341.62913040001877	343.40871139999945	345.9486765000038	1.7795809999806806	342.638334200019	344.92451519996393	346.95746970002074	0.7703771999804303	1.0241613000398502	0.8060974000254646	n/a	1.0	n/a	1	0	52	4	go_reward	1	1	0	1	1	1	0	n/a	n/a	1	0.2558634999440983	1.0	64.91738060000353	406.5465110000223	407.55571480002254	408.326092000003	409.84189579996746	410.8660571000073	n/a	n/a	411.87485030002426	412.6809477000497	2019-12-24 19:00:16.547410	2.95926974766877	3.85598419724689	0.0	3.85598419724689	2.95926974766877	0.0	-2.95926974766877	3.85598419724689	0.0	2.95926974766877	0.0	2.66489393940058	1.0310383675309431	3.955906825566329	-0.06663667475450913	3.171124288231784	3.8672751718215332	-0.06663667475450913	2.7136720600141686	2.4158384322989837	1.3848000647680407	2.9743058706507473	0.914964280161071	1	missed	0.0
347.76206699991604	7.17340390000021	nogo_reward	1.0	347.8015808999772	350.02909580001136	352.5593789999839	2.22751490003418	348.8044665000634	351.544584200019	353.55922090006055	1.2246292999479351	1.014794799964875	1.4157638999168398	n/a	1.0	n/a	1	0	53	3	nogo_reward	1	0	1	0	0	1	1	n/a	n/a	1	1.0	1.0	64.91738060000353	412.7189614999807	413.72184710006695	414.9464764000149	416.46196480002254	417.4767595999874	n/a	n/a	418.4766015000641	419.8923653999809	2019-12-24 19:00:16.547410	2.80713641744448	0.914422989209479	2.87319670243469	2.65622812763	0.0660602849902043	2.87319670243469	-2.80713641744448	2.87319670243469	0.914422989209479	2.87319670243469	0.0660602849902043	3.64768143421278	0.8789050373066534	1.0143456175289183	2.806560027680181	1.9713682186148942	0.9740657091429678	2.806560027680181	3.6964595548263683	2.3297653870649038	1.450860349758245	1.9915183758385477	1.82938726937055	1	missed	0.0
354.969526699977	6.635180199984461	go_punish	1.0	355.00904060003813	356.68829229997937	359.2045761999907	1.6792516999412328	356.0255767999916	358.1939796999796	360.20685539999977	0.6627154999877689	1.0105965000111041	1.437365400022827	n/a	1.0	n/a	1	0	54	2	go_punish	0	-1	0	1	0	0	0	n/a	n/a	0	1.0	1.0	64.91738060000353	419.92642120004166	420.9429573999951	421.6056728999829	423.1113602999831	424.1219567999942	n/a	n/a	425.1242360000033	426.5616014000261	2019-12-24 19:00:16.547410	-0.818404148717623	-2.39662931199529	-3.93936271861579	-2.65149000386298	-3.12095856989817	-3.93936271861579	0.818404148717623	-3.93936271861579	-2.39662931199529	-3.93936271861579	-3.12095856989817	3.93936271861579	-2.7466355288554496	-2.2967066836758505	-4.005999393370299	-3.336349912878086	-2.2129531457454066	-4.005999393370299	3.9881408392293785	-4.482794033985576	-1.7361585051301291	-4.821041045211932	-1.4816650318342188	1	missed	0.0
361.6416346000041	7.285251699970161	go_reward	0.1197478000540286	361.68114850006526	363.95877420005854	366.50196719996165	2.27762569999328	362.6872047999641	365.49607240001205	367.5068447999657	1.2715694000944495	1.0058947999496013	1.4595554000697462	n/a	1.0	n/a	1	0	55	4	go_reward	1	1	0	1	1	1	0	n/a	n/a	1	0.1197478000540286	1.0	64.91738060000353	426.5985291000688	427.6045853999676	428.87615480006207	430.4134530000156	431.4193477999652	n/a	n/a	432.4242253999692	433.88378080003895	2019-12-24 19:00:16.547410	3.75207217577554	4.65431834807736	0.0	4.65431834807736	3.75207217577554	0.0	-3.75207217577554	4.65431834807736	0.0	3.75207217577554	0.0	1.8665597885701102	1.8238407956377132	4.754240976396799	-0.06663667475450913	3.969458439062254	4.660077599928304	-0.06663667475450913	1.9153379091836988	3.2086408604057537	1.3848000647680407	3.7726400214812177	0.914964280161071	1	missed	0.0
368.9610543999588	6.612880300031975	go_punish	0.005896299961023	369.00056830001995	370.666789000039	373.19782460003626	1.6662207000190392	370.00833450001664	372.1952739000553	374.20947110001	0.6584545000223443	1.0025506999809295	1.4039775000419468	n/a	1.0	n/a	1	0	56	2	go_punish	1	0	-1	1	1	1	1	n/a	n/a	0	0.005896299961023	1.0	64.91738060000353	433.9179489000235	434.92571510002017	435.5841696000425	437.11265450005885	438.1152052000398	n/a	n/a	439.1268517000135	440.53082920005545	2019-12-24 19:00:16.547410	-0.368564908269302	-2.39662931199529	-2.74987752057992	-1.8597865193878	-3.11844242884922	-2.74987752057992	0.368564908269302	-2.39662931199529	-2.74987752057992	-3.11844242884922	-2.74987752057992	2.39662931199529	-2.296796288407129	-2.2967066836758505	-2.8165141953344293	-2.544646428402906	-2.2104370046964568	-2.8165141953344293	2.4454074326088784	-3.6618737442190064	-1.3650774558118794	-3.278307638591432	-1.834913240418849	1	missed	0.0
375.60908149997704	7.293471399927512	go_reward	0.2965586999198422	375.6485954000382	378.43610529997386	380.9865833000513	2.787509899935685	376.66419659997337	379.96664030000096	381.9995205999585	1.7719087000004947	1.0199430000503185	0.9425462000072002	n/a	1.0	n/a	1	0	57	4	go_reward	0	0	1	1	1	1	1	n/a	n/a	0	0.2965586999198422	1.0	64.91738060000353	440.5659760000417	441.5815771999769	443.3534858999774	444.8840209000045	445.9039639000548	n/a	n/a	446.916901199962	447.8594473999692	2019-12-24 19:00:16.547410	4.28459155432255	5.19585125234766	0.0	5.19585125234766	4.28459155432255	0.0	-4.28459155432255	5.19585125234766	0.0	4.28459155432255	0.0	-5.19585125234766	2.3563601741847235	5.2957738806671	-0.06663667475450913	4.510991343332554	5.192596978475314	-0.06663667475450913	-5.147073131734071	3.741160238952764	1.3848000647680407	4.314172925751518	0.914964280161071	1	missed	0.0
382.94083179999143	6.286925599910319	go_reward	0.4843698000768199	382.98034570005257	384.68126850004774	387.2318371000002	1.700922799995169	383.9939239000669	386.21196500002407	388.2364399000071	0.687344599980861	1.0198720999761122	1.0308313999557868	n/a	1.0	n/a	1	0	58	4	go_reward	0	0	1	1	1	1	0	n/a	n/a	0	0.4843698000768199	1.0	64.91738060000353	447.8977263000561	448.9113045000704	449.59864910005126	451.1293456000276	452.1492177000037	n/a	n/a	453.1538205000106	454.1846518999664	2019-12-24 19:00:16.547410	2.75614299529283	3.65123448984537	0.0	3.65123448984537	2.75614299529283	0.0	-2.75614299529283	3.65123448984537	0.0	2.75614299529283	0.0	-3.65123448984537	0.8279116151550032	3.7511571181648096	-0.06663667475450913	2.9663745808302644	3.6641484194455933	-0.06663667475450913	-3.6024563692317817	2.2127116799230437	1.3848000647680407	2.769556163249228	0.914964280161071	1	missed	0.0
389.2617163999239	6.224162300000955	nogo_punish	1.0	389.30123029998504	390.581257199985	393.09569210000336	1.280026899999939	390.31385300005786	392.09602060006	394.10973769996775	0.26740419992711395	0.9996714999433607	1.4156549000182395	n/a	1.0	n/a	1	0	59	1	nogo_punish	1	-1	0	0	0	1	0	n/a	n/a	0	1.0	1.0	64.91738060000353	454.21861089998856	455.2312336000614	455.4986377999885	457.0134012000635	458.0130727000069	n/a	n/a	459.0271182999713	460.4427731999895	2019-12-24 19:00:16.547410	4.47829227275397	-4.74715081447283	-0.976083110422109	-1.22819113412313	-5.45437538317608	-0.976083110422109	-4.47829227275397	-0.976083110422109	-4.74715081447283	-0.976083110422109	-5.45437538317608	0.976083110422109	2.5500608926161434	-4.647228186153391	-1.0427197851766181	-1.913051043138236	-4.546369959023316	-1.0427197851766181	1.0248612310356977	-1.5195144257918956	-4.069575318408039	-1.8577614370182514	-3.832186534311759	1	missed	0.0
395.51949419989256	6.771392400027196	go_punish	0.7965281000360847	395.5590080999537	397.27000070002396	399.8273059000494	1.7109926000702558	396.56030080001807	398.80552379996516	400.8316776000429	0.7096999000058872	1.0217821000842378	1.4987228999380022	n/a	1.0	n/a	1	0	60	2	go_punish	1	0	-1	1	1	1	0	n/a	n/a	0	0.7965281000360847	1.0	64.91738060000353	460.4763886999572	461.4776814000216	462.1873813000275	463.7229043999687	464.7446865000529	n/a	n/a	465.7490582000464	467.2477810999844	2019-12-24 19:00:16.547410	0.356129208719524	-1.66888648449321	-2.74987752057992	-1.32104165248961	-2.39374831186039	-2.74987752057992	-0.356129208719524	-1.66888648449321	-2.74987752057992	-2.39374831186039	-2.74987752057992	1.66888648449321	-1.5721021714183028	-1.5689638561737709	-2.8165141953344293	-2.0059015615047158	-1.4857428877076266	-2.8165141953344293	1.7176646051067987	-2.9371796272301762	-1.3650774558118794	-2.5505648110893526	-1.834913240418849	1	missed	0.0
