onset	duration	trial_type	response_time	cueOnset	targetOnset	fbOnset	cueRT	firstfixOnset	secondfixOnset	waitOnset	firstfixdur	secondfixdur	waitdur	nback_fbOnset	nback_response_time	nback_targetOnset	block	wm	trial	cue	cond	is_common	outcome_go	outcome_nogo	key_correct	key_pressed	is_correct	key_correct_nback	key_pressed_nback	is_correct_nback	outcome	rt	rt_nback	time_scan	time_onset	time_isi1	time_circle	time_isi2	time_feedback	time_same	time_correct	time_iti	time_done	timestamp_scan	DV	Qgo	Qnogo	SV	Wgo	Wnogo	mDV	Qchosen	Qunchosen	Wchosen	Wunchosen	PE	DVC	QgoC	QnogoC	SVC	WgoC	WnogoC	PEC	WchosenC	WunchosenC	QchosenC	QunchosenC	run	outcome_nback	nback_targetResp
0.0	10.049216000013985	nogo_reward	0.3629179999697953	0.04302899993513165	3.0063120999839157	5.577129099983722	2.963283100048784	1.0473716999404132	4.554699399974197	8.62992699991446	1.9589404000435024	1.0224297000095248	1.4623180000346565	7.6342033999972045	0.9001917999703437	6.601437499979511	2	1	1	3	nogo_reward	1	0	1	0	1	0	0	0.0	1.0	0	0.3629179999697953	0.9001917999703437	1050.9110412000446	1050.9540701999797	1051.958412899985	1053.9173533000285	1055.4657406000188	1056.4881703000283	1057.512478700024	1058.5452446000418	1059.540968199959	1061.0032861999937	2019-12-24 19:16:42.543125	-0.763023049357142	0.0	0.0	0.0	-0.763023049357142	0.0	0.763023049357142	0.0	0.0	-0.763023049357142	0.0	0.0	-2.6912544294949687	0.09992262831943931	-0.06663667475450913	-0.6848599090151058	0.14498237479562137	-0.06663667475450913	0.048778120613588556	-1.3064543647269284	1.3848000647680407	-0.8816783265961423	0.914964280161071	3	correct	1.0
10.092934900079399	9.36202219990082	nogo_reward	1.0	10.13596390001453	12.689457900007255	15.218131899950322	2.5534939999927246	11.142514999955893	14.19442800001707	18.254516699933447	1.5469429000513628	1.0237038999332526	1.2434693999819046	17.244599899975356	0.5826750999549404	16.232635600026697	2	1	2	3	nogo_reward	1	0	1	0	0	1	0	0.0	1.0	1	1.0	0.5826750999549404	1050.9110412000446	1061.047005100059	1062.0535562000005	1063.6004991000518	1065.1054692000616	1066.129173099995	1067.1436768000713	1068.15564110002	1069.165557899978	1070.40902729996	2019-12-24 19:16:42.543125	0.763023049357142	0.0	0.0	0.0	-0.763023049357142	0.0	-0.763023049357142	0.0	0.0	0.0	-0.763023049357142	6.52087813664747	-1.1652083307806849	0.09992262831943931	-0.06663667475450913	-0.6848599090151058	0.14498237479562137	-0.06663667475450913	6.569656257261059	-0.5434313153697864	0.6217770154108987	-0.8816783265961423	0.914964280161071	3	correct	1.0
19.482634000014286	8.943885500077158	go_reward	0.1581980999326333	19.525662999949418	21.96164130000375	24.497879199916497	2.4359783000543302	20.529159399913624	23.487863400019933	27.53126129996963	1.4324819000901243	1.0100157998965642	0.9382872000569478	26.536919199978	0.870102799963206	25.515235099941492	2	1	3	4	go_reward	0	0	1	1	1	1	0	0.0	1.0	0	0.1581980999326333	0.870102799963206	1050.9110412000446	1070.436704199994	1071.4402005999582	1072.8726825000483	1074.3989046000645	1075.408920399961	1076.426276299986	1077.4479604000226	1078.4423025000142	1079.3805897000711	2019-12-24 19:16:42.543125	-0.763023049357142	0.0	0.0	0.0	-0.763023049357142	0.0	0.763023049357142	0.0	0.0	-0.763023049357142	0.0	0.0	-2.6912544294949687	0.09992262831943931	-0.06663667475450913	-0.6848599090151058	0.14498237479562137	-0.06663667475450913	0.048778120613588556	-1.3064543647269284	1.3848000647680407	-0.8816783265961423	0.914964280161071	3	correct	1.0
28.471465600072406	8.473732799989875	go_punish	0.2236559999873861	28.514494600007538	30.443766799988225	32.97965899994574	1.9292721999806872	29.522697599953744	31.959800599957816	36.0417283999268	0.9210692000344807	1.0198583999879247	0.9464990000706166	35.03170519997366	0.5414300999836996	34.003743799985386	2	1	4	2	go_punish	1	0	-1	1	1	1	0	0.0	1.0	0	0.2236559999873861	0.5414300999836996	1050.9110412000446	1079.425535800052	1080.4337387999983	1081.3548080000328	1082.8708418000024	1083.8907001999903	1084.91478500003	1085.9427464000182	1086.9527695999714	1087.899268600042	2019-12-24 19:16:42.543125	-0.763023049357142	0.0	0.0	0.0	-0.763023049357142	0.0	0.763023049357142	0.0	0.0	-0.763023049357142	0.0	0.0	-2.6912544294949687	0.09992262831943931	-0.06663667475450913	-0.6848599090151058	0.14498237479562137	-0.06663667475450913	0.048778120613588556	-1.3064543647269284	1.3848000647680407	-0.8816783265961423	0.914964280161071	3	correct	1.0
36.97408990003146	8.258117499994114	nogo_punish	0.5232894000364468	37.01711889996659	38.815987000009045	41.36141829995904	1.798868100042455	38.01310679991752	40.34707120002713	44.391269300016575	0.8028802000915221	1.0143470999319106	0.8839670999441296	43.3842989000259	1.0	42.375814399914816	2	1	5	1	nogo_punish	1	-1	0	0	1	0	0	n/a	0.0	0	0.5232894000364468	1.0	1050.9110412000446	1087.9281601000112	1088.924147999962	1089.7270282000536	1091.2581124000717	1092.2724595000036	1093.2868555999594	1094.2953401000705	1095.3023105000611	1096.1862776000053	2019-12-24 19:16:42.543125	-0.763023049357142	0.0	0.0	0.0	-0.763023049357142	0.0	0.763023049357142	0.0	0.0	-0.763023049357142	0.0	-8.12453803217605	-2.6912544294949687	0.09992262831943931	-0.06663667475450913	-0.6848599090151058	0.14498237479562137	-0.06663667475450913	-8.07575991156246	-1.3064543647269284	1.3848000647680407	-0.8816783265961423	0.914964280161071	3	missed	0.0
45.27489910006966	8.91264150000643	nogo_reward	1.0	45.31792810000479	47.16946090001147	49.70359499996994	1.8515328000066802	46.32574120000936	48.68003349995706	52.762347999960184	0.8437197000021115	1.0235615000128746	1.468221600051038	51.74903499998618	0.731705000041984	50.71958459995221	2	1	6	3	nogo_reward	1	0	1	0	0	1	0	0.0	1.0	1	1.0	0.731705000041984	1050.9110412000446	1096.2289693000494	1097.236782400054	1098.080502100056	1099.5910747000016	1100.6146362000145	1101.6306257999968	1102.6600762000307	1103.6733892000047	1105.1416108000558	2019-12-24 19:16:42.543125	1.35869082111741	0.0	0.612825725203282	0.612825725203282	-0.745865095914125	0.612825725203282	-1.35869082111741	0.612825725203282	0.0	0.612825725203282	-0.745865095914125	5.908052411444188	-0.5695405590204168	0.09992262831943931	0.546189050448773	-0.0720341838118238	0.16214032823863844	0.546189050448773	5.956830532057777	0.06939440983349565	0.6389349688539158	-0.26885260139286027	0.914964280161071	3	correct	1.0
54.21253070002399	9.322307800059207	nogo_punish	0.3128994000144303	54.25555969995912	56.825363499927334	59.36639719991945	2.569803799968213	55.26529969996773	58.34287509997375	62.42170730000362	1.5600637999596074	1.0235220999456942	1.1561602000147104	61.413086400018074	0.7683836000505835	60.38008859998081	2	1	7	1	nogo_punish	1	-1	0	0	1	0	1	0.0	0.0	-1	0.3128994000144303	0.7683836000505835	1050.9110412000446	1105.1666009000037	1106.1763409000123	1107.736404699972	1109.2539163000183	1110.277438399964	1111.2911298000254	1112.3241276000626	1113.3327485000482	1114.488908700063	2019-12-24 19:16:42.543125	-0.763023049357142	0.0	0.0	0.0	-0.763023049357142	0.0	0.763023049357142	0.0	0.0	-0.763023049357142	0.0	-8.12453803217605	-2.6912544294949687	0.09992262831943931	-0.06663667475450913	-0.6848599090151058	0.14498237479562137	-0.06663667475450913	-8.07575991156246	-1.3064543647269284	1.3848000647680407	-0.8816783265961423	0.914964280161071	3	wrong	1.0
63.576276500010636	9.583590700058267	nogo_reward	1.0	63.61930549994577	66.39381079992745	68.91061100002844	2.7745052999816835	64.62862660002429	67.89915680000536	71.97025209991261	1.7651841999031603	1.0114542000230813	1.2326441000914201	70.95554330002051	0.2725194999948144	69.92786069994327	2	1	8	3	nogo_reward	0	1	0	0	0	1	1	1.0	1.0	0	1.0	0.2725194999948144	1050.9110412000446	1114.5303466999903	1115.5396678000689	1117.304851999972	1118.81019800005	1119.821652200073	1120.8389018999878	1121.866584500065	1122.8812932999572	1124.1139374000486	2019-12-24 19:16:42.543125	1.89164667483732	0.0	1.16065795133219	1.16065795133219	-0.730988723505123	1.16065795133219	-1.89164667483732	1.16065795133219	0.0	1.16065795133219	-0.730988723505123	-1.16065795133219	-0.03658470530050684	0.09992262831943931	1.094021276577681	0.4757980423170841	0.1770167006476404	1.094021276577681	-1.1118798307186013	0.6172266359624036	0.6538113412629177	0.27897962473604765	0.914964280161071	3	correct	1.0
73.18268239998702	8.417005900060985	go_reward	0.6395083999959752	73.22571139992215	75.27585099998373	77.82203369995113	2.050139600061584	74.22958539996762	76.80713909992483	80.86807359999511	1.0462656000161132	1.0148946000263095	0.7746436999880189	79.84914309997112	0.838195399963297	78.82605429994874	2	1	9	4	go_reward	1	1	0	1	1	1	0	0.0	1.0	1	0.6395083999959752	0.838195399963297	1050.9110412000446	1124.1367525999667	1125.1406266000122	1126.1868922000283	1127.7181802999694	1128.7330748999957	1129.7370954999933	1130.7601843000157	1131.7791148000397	1132.5537585000277	2019-12-24 19:16:42.543125	-0.763023049357142	0.0	0.0	0.0	-0.763023049357142	0.0	0.763023049357142	0.0	0.0	-0.763023049357142	0.0	6.52087813664747	-2.6912544294949687	0.09992262831943931	-0.06663667475450913	-0.6848599090151058	0.14498237479562137	-0.06663667475450913	6.569656257261059	-1.3064543647269284	1.3848000647680407	-0.8816783265961423	0.914964280161071	3	correct	1.0
81.62379860004853	8.51338240003679	nogo_punish	0.4544933999422937	81.66682759998366	83.33798139996361	85.89497269992694	1.6711537999799475	82.67809159995522	84.87116580002453	88.9463139999425	0.6598898000083864	1.0238068999024108	1.233896000077948	87.93079849996138	0.4742038999684155	86.90816470002733	2	1	10	1	nogo_punish	1	-1	0	0	1	0	0	0.0	1.0	-1	0.4544933999422937	0.4742038999684155	1050.9110412000446	1132.5778688000282	1133.5891327999998	1134.2490226000082	1135.782207000069	1136.8060138999715	1137.819205900072	1138.841839700006	1139.857355199987	1141.091251200065	2019-12-24 19:16:42.543125	-1.62023122590881	-0.797635437673793	0.0	-0.797635437673793	-1.62023122590881	0.0	1.62023122590881	-0.797635437673793	0.0	-1.62023122590881	0.0	-7.326902594502257	-3.5484626060466367	-0.6977128093543536	-0.06663667475450913	-1.4824953466888988	-0.7122258017560467	-0.06663667475450913	-7.278124473888668	-2.1636625412785966	1.3848000647680407	-1.6793137642699354	0.914964280161071	3	correct	1.0
90.15807020000625	7.991269999998622	go_reward	0.3631206999998539	90.20109919994138	91.67423929995857	94.21593539998867	1.47314010001719	91.21542519994546	93.1912734999787	97.27386690001003	0.4588141000131145	1.02466190000996	0.918502299929969	96.26057769998442	0.5116874999366701	95.23076760000549	2	1	11	4	go_reward	1	1	0	1	1	1	1	1.0	1.0	1	0.3631206999998539	0.5116874999366701	1050.9110412000446	1141.112140399986	1142.12646639999	1142.5852805000031	1144.1023147000233	1145.1269766000332	1146.14180880005	1147.171618900029	1148.1849081000546	1149.1034103999846	2019-12-24 19:16:42.543125	-0.133039370710842	0.612825725203282	0.0	0.612825725203282	-0.133039370710842	0.0	0.133039370710842	0.612825725203282	0.0	-0.133039370710842	0.0	5.908052411444188	-2.061270750848669	0.7127483535227214	-0.06663667475450913	-0.0720341838118238	0.7749660534419214	-0.06663667475450913	5.956830532057777	-0.6764706860806284	1.3848000647680407	-0.26885260139286027	0.914964280161071	3	correct	1.0
98.1927037000421	9.490926899947226	nogo_reward	1.0	98.23573269997723	100.76269799994793	103.290378900012	2.5269652999706977	99.24429669999495	102.27770620002434	106.32053399994038	1.5184012999529841	1.012672699987661	1.4061255999840796	105.31450729991775	1.0	104.30511349998415	2	1	12	3	nogo_reward	1	0	1	0	0	1	0	n/a	0.0	1	1.0	1.0	1050.9110412000446	1149.1467739000218	1150.1553379000395	1151.6737391999925	1153.188747400069	1154.2014201000566	1155.2161547000287	1156.2255484999623	1157.231575199985	1158.637700799969	2019-12-24 19:16:42.543125	1.77357437844103	0.0	1.0383314849303	1.0383314849303	-0.735242893510729	1.0383314849303	-1.77357437844103	1.0383314849303	0.0	1.0383314849303	-0.735242893510729	5.48254665171717	-0.15465700169679675	0.09992262831943931	0.971694810175791	0.3534715759151942	0.1727625306420344	0.971694810175791	5.531324772330759	0.49490016956051364	0.6495571712573117	0.15665315833415772	0.914964280161071	3	missed	0.0
107.7097473000174	8.06783610000275	nogo_punish	1.0	107.75277629995253	109.26195979991462	111.79727969993837	1.5091834999620914	108.76239069993608	110.77760299993679	114.84264219994657	0.4995690999785438	1.0196767000015825	0.9779702000087127	113.82939269999042	0.4972829999169335	112.81102309993003	2	1	13	1	nogo_punish	1	-1	0	0	0	1	0	0.0	1.0	0	1.0	0.4972829999169335	1050.9110412000446	1158.663817499997	1159.6734318999806	1160.1730009999592	1161.6886441999814	1162.708320899983	1163.7220642999746	1164.740433900035	1165.7536833999911	1166.7316535999998	2019-12-24 19:16:42.543125	2.38284314564991	-1.50756482339643	0.0	-1.50756482339643	-2.38284314564991	0.0	-2.38284314564991	0.0	-1.50756482339643	0.0	-2.38284314564991	0.0	0.4546117655120834	-1.4076421950769908	-0.06663667475450913	-2.192424732411536	-1.4748377214971469	-0.06663667475450913	0.048778120613588556	-0.5434313153697864	-0.9980430808818694	-0.8816783265961423	-0.592600543235359	3	correct	1.0
115.80146950005997	8.661062599974684	nogo_punish	1.0	115.8444984999951	117.70402369997464	120.225299899932	1.8595251999795437	116.85541149997152	119.21067649999168	123.26085069996793	0.8486122000031173	1.0146233999403194	1.2447104000018498	122.25277669995535	0.5720981999766082	121.23922649992164	2	1	14	1	nogo_punish	0	0	-1	0	0	1	0	0.0	1.0	-1	1.0	0.5720981999766082	1050.9110412000446	1166.7555397000397	1167.766452700016	1168.6150649000192	1170.1217177000362	1171.1363410999766	1172.1502676999662	1173.1638179	1174.1718919000125	1175.4166023000143	2019-12-24 19:16:42.543125	2.36992320632945	-1.50756482339643	0.0	-1.34281845917335	-2.36992320632945	0.0	-2.36992320632945	0.0	-1.50756482339643	0.0	-2.36992320632945	-8.12453803217605	0.44169182619162317	-1.4076421950769908	-0.06663667475450913	-2.027678368188456	-1.4619177821766867	-0.06663667475450913	-8.07575991156246	-0.5434313153697864	-0.9851231415614092	-0.8816783265961423	-0.592600543235359	3	correct	1.0
124.48861760005798	8.89471040002536	nogo_punish	1.0	124.53164659999311	126.96179189998657	129.479186499957	2.4301452999934554	125.54038589994911	128.45803239999805	132.5372932999162	1.4214060000374502	1.0211540999589488	0.8890637001022696	131.5244850999443	0.5108777999412268	130.49551309994422	2	1	15	1	nogo_punish	1	-1	0	0	0	1	1	1.0	1.0	0	1.0	0.5108777999412268	1050.9110412000446	1175.4426878000377	1176.4514270999937	1177.8728331000311	1179.3690736000426	1180.3902277000016	1181.4065542999888	1182.4355262999889	1183.4483344999608	1184.337398200063	2019-12-24 19:16:42.543125	1.62054628586564	-1.50756482339643	-0.797635437673793	-1.99561645822422	-2.41818172353943	-0.797635437673793	-1.62054628586564	-0.797635437673793	-1.50756482339643	-0.797635437673793	-2.41818172353943	0.797635437673793	-0.3076850942721867	-1.4076421950769908	-0.8642721124283022	-2.6804763672393257	-1.5101762993866665	-0.8642721124283022	0.8464135582873815	-1.3410667530435794	-1.033381658771389	-1.6793137642699354	-0.592600543235359	3	correct	1.0
133.4074819000666	8.363561999984313	nogo_punish	1.0	133.45051090000175	135.01855699997373	137.55328180000652	1.5680460999719799	134.46276579995174	136.53353150002658	140.601924699964	0.5557912000219858	1.0197502999799326	1.2121482000220567	139.58743339998182	0.6499671000055969	138.56850880000275	2	1	16	1	nogo_punish	1	-1	0	0	0	1	1	1.0	1.0	0	1.0	0.6499671000055969	1050.9110412000446	1184.3615521000463	1185.3738069999963	1185.9295982000183	1187.4445727000711	1188.464323000051	1189.4795500000473	1190.4984746000264	1191.5129659000086	1192.7251141000306	2019-12-24 19:16:42.543125	1.69143959322689	-1.50756482339643	-0.709929385722638	-1.78034352735685	-2.40136897894952	-0.709929385722638	-1.69143959322689	-0.709929385722638	-1.50756482339643	-0.709929385722638	-2.40136897894952	0.709929385722638	-0.23679178691093683	-1.4076421950769908	-0.7765660604771472	-2.4652034363719557	-1.4933635547967565	-0.7765660604771472	0.7587075063362265	-1.2533607010924244	-1.016568914181479	-1.5916077123187802	-0.592600543235359	3	correct	1.0
141.81457010004647	9.229589299997542	nogo_reward	1.0	141.8575990999816	144.4728005999932	147.01259509997908	2.615201500011608	142.8646839999128	145.98795949993655	150.062304400024	1.6081166000803933	1.0246356000425294	1.0248839999551365	149.04982780001592	0.3402904999675229	148.01619609992485	2	1	17	3	nogo_reward	1	0	1	0	0	1	0	0.0	1.0	1	1.0	0.3402904999675229	1050.9110412000446	1192.7686403000262	1193.7757251999574	1195.3838418000378	1196.8990006999811	1197.9236363000236	1198.9272372999694	1199.9608690000605	1200.9733456000686	1201.9982296000237	2019-12-24 19:16:42.543125	2.26492231740436	0.0	1.54315779318587	1.54315779318587	-0.721764524218496	1.54315779318587	-2.26492231740436	1.54315779318587	0.0	1.54315779318587	-0.721764524218496	4.9777203434616	0.3366909372665332	0.09992262831943931	1.476521118431361	0.8582978841707641	0.1862408999342674	1.476521118431361	5.026498464075189	0.9997264778160836	0.6630355405495447	0.6614794665897277	0.914964280161071	3	correct	1.0
151.06575880001742	8.744851100025699	go_reward	1.0	151.10878779995255	153.0848114999244	155.60218579997309	1.9760236999718472	152.12229289999232	154.58785819995683	158.6569290999323	0.962518599932082	1.0143276000162587	1.1967098000459373	157.6470392999472	0.6396942000137642	156.61879169999133	2	1	18	4	go_reward	0	0	1	1	0	0	0	0.0	1.0	1	1.0	0.6396942000137642	1050.9110412000446	1202.0198289999971	1203.0333341000369	1203.995852699969	1205.4988994000014	1206.5132270000177	1207.529832900036	1208.5580804999918	1209.5679702999769	1210.7646801000228	2019-12-24 19:16:42.543125	-0.42966922782707	1.16065795133219	0.0	1.16065795133219	0.42966922782707	0.0	0.42966922782707	0.0	1.16065795133219	0.0	0.42966922782707	6.52087813664747	-2.357900607964897	1.2605805796516292	-0.06663667475450913	0.4757980423170841	1.3376746519798335	-0.06663667475450913	6.569656257261059	-0.5434313153697864	1.8144692925951107	-0.8816783265961423	2.075622231493261	3	correct	1.0
159.8521416999863	7.89886590000242	go_punish	1.0	159.89517069992144	161.2653271999443	163.79011609998975	1.3701565000228584	160.90435219998471	162.77881839999463	166.82661370001733	0.3609749999595806	1.0112976999951115	0.9674228999065235	165.8224319999572	0.8137676999904215	164.80070269992575	2	1	19	2	go_punish	0	-1	0	1	0	0	0	0.0	1.0	0	1.0	0.8137676999904215	1050.9110412000446	1210.806211899966	1211.8153934000293	1212.1763683999889	1213.6898596000392	1214.7011573000343	1215.7117438999703	1216.7334732000018	1217.737654900062	1218.7050777999684	2019-12-24 19:16:42.543125	0.763023049357142	0.0	0.0	0.0	-0.763023049357142	0.0	-0.763023049357142	0.0	0.0	0.0	-0.763023049357142	0.0	-1.1652083307806849	0.09992262831943931	-0.06663667475450913	-0.6848599090151058	0.14498237479562137	-0.06663667475450913	0.048778120613588556	-0.5434313153697864	0.6217770154108987	-0.8816783265961423	0.914964280161071	3	correct	1.0
167.77531930000941	8.562103700009402	go_reward	1.0	167.81834829994455	169.32029860001057	171.8447879999876	1.501950300066028	168.82152100000553	170.8360988999484	174.9117802999683	0.4987776000050417	1.0086891000391915	1.4686716999856344	173.89915129996393	0.4231545000802725	172.8643269999884	2	1	20	4	go_reward	1	1	0	1	0	0	1	1.0	1.0	0	1.0	0.4231545000802725	1050.9110412000446	1218.729389499989	1219.73256220005	1220.2313398000551	1221.747140099993	1222.7558292000322	1223.775368200033	1224.8101925000085	1225.8228215000129	1227.2914931999985	2019-12-24 19:16:42.543125	0.170252713938802	1.16065795133219	0.612825725203282	1.65115721013358	0.442573011264481	0.612825725203282	-0.170252713938802	0.612825725203282	1.16065795133219	0.612825725203282	0.442573011264481	-0.612825725203282	-1.7579786661990249	1.2605805796516292	0.546189050448773	0.9662973011184742	1.3505784354172445	0.546189050448773	-0.5640476045896935	0.06939440983349565	1.8273730760325217	-0.26885260139286027	2.075622231493261	3	correct	1.0
176.37892960000295	9.687439900008258	go_punish	1.0	176.42195859993808	179.16675650002435	181.70450799993705	2.744797900086269	177.4308491999982	180.68138299998827	184.7566313999705	1.735907300026156	1.0231249999487773	1.3527670999758357	183.74351459997706	0.5384705000324175	182.72403849998955	2	1	21	2	go_punish	1	0	-1	1	0	0	1	0.0	0.0	-1	1.0	0.5384705000324175	1050.9110412000446	1227.3329997999826	1228.3418904000428	1230.077797700069	1231.5924242000328	1232.6155491999816	1233.635079700034	1234.6545558000216	1235.667672600015	1237.020439699991	2019-12-24 19:16:42.543125	0.763023049357142	0.0	0.0	0.0	-0.763023049357142	0.0	-0.763023049357142	0.0	0.0	0.0	-0.763023049357142	-8.12453803217605	-1.1652083307806849	0.09992262831943931	-0.06663667475450913	-0.6848599090151058	0.14498237479562137	-0.06663667475450913	-8.07575991156246	-0.5434313153697864	0.6217770154108987	-0.8816783265961423	0.914964280161071	3	wrong	1.0
186.08862669998757	9.500106999999844	go_reward	1.0	186.1316556999227	188.6157282999484	191.1511285000015	2.4840726000256836	187.14422289992217	190.13146669999696	194.21644789993297	1.471505400026217	1.0196618000045419	1.4153147999895737	193.19746579998173	0.3626413999591023	192.16991840000264	2	1	22	4	go_reward	1	1	0	1	0	0	1	1.0	1.0	0	1.0	0.3626413999591023	1050.9110412000446	1237.0426968999673	1238.0552640999667	1239.526769499993	1241.0425079000415	1242.062169700046	1243.0809596000472	1244.1085070000263	1245.1274890999775	1246.542803899967	2019-12-24 19:16:42.543125	0.111220380049229	1.16065795133219	0.547832226128911	1.47816429411149	0.436611846079682	0.547832226128911	-0.111220380049229	0.547832226128911	1.16065795133219	0.547832226128911	0.436611846079682	-0.547832226128911	-1.8170110000885977	1.2605805796516292	0.4811955513744019	0.7933043850963842	1.3446172702324455	0.4811955513744019	-0.4990541055153225	0.004400910759124632	1.8214119108477227	-0.3338461004672313	2.075622231493261	3	correct	1.0
195.631286000018	8.570758800022077	go_punish	1.0	195.67431499995314	197.68247969995696	200.21343210001942	2.0081647000038174	196.68240199994761	199.19262300000992	203.2612410999136	1.0000777000093422	1.020809100009501	0.9838327000616118	202.24834299995564	0.3522375000175088	201.22845459997188	2	1	23	2	go_punish	0	-1	0	1	0	0	1	1.0	1.0	0	1.0	0.3522375000175088	1050.9110412000446	1246.5853561999977	1247.5934431999922	1248.5935209000015	1250.1036642000545	1251.124473300064	1252.1394958000164	1253.1593842000002	1254.1722822999582	1255.1561150000198	2019-12-24 19:16:42.543125	0.0249603505612292	0.0	-0.797635437673793	-0.797635437673793	-0.822595788235022	-0.797635437673793	-0.0249603505612292	-0.797635437673793	0.0	-0.797635437673793	-0.822595788235022	0.797635437673793	-1.9032710295765976	0.09992262831943931	-0.8642721124283022	-1.4824953466888988	0.08540963591774142	-0.8642721124283022	0.8464135582873815	-1.3410667530435794	0.5622042765330187	-1.6793137642699354	0.914964280161071	3	correct	1.0
204.22338750003814	8.289422899950068	go_reward	1.0	204.26641649997327	205.59769790002633	208.11437480000313	1.331281400053058	205.27064389991574	207.10342459997628	211.16478240001015	0.3270540001105928	1.0109502000268549	1.3910569999131894	210.15180589992087	0.3279319000430405	209.12353119999193	2	1	24	4	go_reward	1	1	0	1	0	0	1	1.0	1.0	0	1.0	0.3279319000430405	1050.9110412000446	1255.1774577000178	1256.1816850999603	1256.508739100071	1258.0144658000208	1259.0254160000477	1260.0345724000365	1261.0628470999654	1262.0758236000547	1263.466880599968	2019-12-24 19:16:42.543125	0.0590454746324881	1.16065795133219	0.490499258801386	1.32531195567337	0.431453784168898	0.490499258801386	-0.0590454746324881	0.490499258801386	1.16065795133219	0.490499258801386	0.431453784168898	-0.490499258801386	-1.8691859055053388	1.2605805796516292	0.4238625840468769	0.640452046658264	1.3394592083216614	0.4238625840468769	-0.44172113818779746	-0.05293205656840039	1.8162538489369386	-0.3911790677947563	2.075622231493261	3	correct	1.0
212.5383786000309	9.789074499974959	nogo_punish	1.0	212.58140759996604	215.41987440001685	217.94927209999855	2.83846680005081	213.58926319994498	216.93654509994667	220.98857019993034	1.8306112000718713	1.012727000051882	1.3819119000106639	219.98446469998453	0.5922421000432223	218.9561975999968	2	1	25	1	nogo_punish	0	0	-1	0	0	1	0	1.0	0.0	-1	1.0	0.5922421000432223	1050.9110412000446	1263.4924488000106	1264.5003043999895	1266.3309156000614	1267.8475862999912	1268.8603133000431	1269.8672388000414	1270.895505900029	1271.899611399975	1273.2815232999856	2019-12-24 19:16:42.543125	1.75373563414439	-1.50756482339643	-0.632889073450708	-1.59074947234564	-2.3866247075951	-0.632889073450708	-1.75373563414439	-0.632889073450708	-1.50756482339643	-0.632889073450708	-2.3866247075951	-7.491648958725341	-0.17449574599343687	-1.4076421950769908	-0.6995257482052171	-2.275609381360746	-1.4786192834423368	-0.6995257482052171	-7.4428708381117525	-1.1763203888204945	-1.0018246428270594	-1.5145674000468503	-0.592600543235359	3	wrong	1.0
222.3496259000383	8.008990400005132	go_reward	1.0	222.39265489997342	223.94324209995102	226.47775720001664	1.550587199977599	223.40530580002815	225.4577315999195	229.53299079998374	0.5379362999228761	1.0200256000971422	0.8686544999948183	228.5186414999191	0.4016783999977633	227.49486909992993	2	1	26	4	go_reward	1	1	0	1	0	0	1	1.0	1.0	0	1.0	0.4016783999977633	1050.9110412000446	1273.303696100018	1274.3163470000727	1274.8542832999956	1276.368772799964	1277.3887984000612	1278.4059102999745	1279.4296826999637	1280.4440320000283	1281.3126865000231	2019-12-24 19:16:42.543125	0.0128461606924299	1.16065795133219	0.439832809181198	1.19001948057467	0.426986648488768	0.439832809181198	-0.0128461606924299	0.439832809181198	1.16065795133219	0.439832809181198	0.426986648488768	-0.439832809181198	-1.9153852194453969	1.2605805796516292	0.37319613442668886	0.5051595715595641	1.3349920726415314	0.37319613442668886	-0.39105468856760944	-0.1035985061885884	1.8117867132568088	-0.4418455174149443	2.075622231493261	3	correct	1.0
230.3825965999854	8.063118000049371	nogo_punish	1.0	230.42562559992052	231.86714400001802	234.39189620001707	1.4415184000974932	231.44497429998592	233.38171929994132	237.4422254000092	0.4221697000321001	1.0101769000757486	1.0465181999607012	236.43819499993697	0.6541447999188676	235.4103538999334	2	1	27	1	nogo_punish	1	-1	0	0	0	1	1	1.0	1.0	0	1.0	0.6541447999188676	1050.9110412000446	1281.336666799965	1282.3560155000305	1282.7781852000626	1284.292760499986	1285.3029374000616	1286.321395099978	1287.3492361999815	1288.3532666000538	1289.3997848000145	2019-12-24 19:16:42.543125	1.07052117581442	-1.50756482339643	-1.36272738477351	-2.22111112666823	-2.43324856058794	-1.36272738477351	-1.07052117581442	-1.36272738477351	-1.50756482339643	-1.36272738477351	-2.43324856058794	1.36272738477351	-0.8577102043234068	-1.4076421950769908	-1.429364059528019	-2.905971035683336	-1.5252431364351766	-1.429364059528019	1.4115055053870986	-1.9061587001432962	-1.0484484958198992	-2.2444057113696525	-0.592600543235359	3	correct	1.0
238.46867610001914	9.764615599997342	go_reward	1.0	238.51170509995427	241.29012449993752	243.8159818999702	2.7784193999832496	239.52524300001096	242.80579769995552	246.87008269992657	1.7648814999265596	1.0101842000146917	1.4062380000250414	245.856698699994	0.2367592999944463	244.82774999993853	2	1	28	4	go_reward	1	1	0	1	0	0	1	1.0	1.0	0	1.0	0.2367592999944463	1050.9110412000446	1289.4227462999988	1290.4362842000555	1292.201165699982	1293.7168389	1294.7270231000148	1295.738791199983	1296.7677399000386	1297.7811238999711	1299.1873618999962	2019-12-24 19:16:42.543125	-0.0281346407241121	1.16065795133219	0.394979887690785	1.07006761375989	0.423114528414897	0.394979887690785	0.0281346407241121	0.394979887690785	1.16065795133219	0.394979887690785	0.423114528414897	-0.394979887690785	-1.956366020861939	1.2605805796516292	0.3283432129362759	0.38520770474478405	1.3311199525676605	0.3283432129362759	-0.34620176707719647	-0.14845142767900138	1.8079145931829377	-0.4866984389053573	2.075622231493261	3	correct	1.0
248.25718690000917	8.796768500003964	nogo_punish	1.0	248.3002158999443	250.16203529993072	252.69577499991283	1.861819399986416	249.31713009998202	251.67599839996547	255.7442026999779	0.8449051999486983	1.0197765999473631	1.3527816999703646	254.73073720000684	0.4409980999771505	253.70455189992208	2	1	29	1	nogo_punish	1	-1	0	0	0	1	1	1.0	1.0	0	1.0	0.4409980999771505	1050.9110412000446	1299.2112570999889	1300.2281713000266	1301.0730764999753	1302.58703960001	1303.6068161999574	1304.6155930999666	1305.6417784000514	1306.6552439000225	1308.0080255999928	2019-12-24 19:16:42.543125	1.19971858107688	-1.50756482339643	-1.21525158025713	-1.98557153085362	-2.41497016133401	-1.21525158025713	-1.19971858107688	-1.21525158025713	-1.50756482339643	-1.21525158025713	-2.41497016133401	1.21525158025713	-0.7285127990609468	-1.4076421950769908	-1.281888255011639	-2.6704314398687257	-1.5069647371812467	-1.281888255011639	1.2640297008707186	-1.7586828956269165	-1.0301700965659693	-2.0969299068532723	-0.592600543235359	3	correct	1.0
257.08073070005025	9.016049199970439	nogo_punish	1.0	257.1237596999854	259.5460025999928	262.081397300004	2.4222429000074044	258.12296810001135	261.0613338999683	265.1308194999583	1.4230344999814406	1.020063400035724	1.0089893999975175	264.11749660002533	0.4132861999096349	263.0992017999524	2	1	30	1	nogo_punish	1	-1	0	0	0	1	0	1.0	0.0	0	1.0	0.4132861999096349	1050.9110412000446	1308.03480090003	1309.034009300056	1310.4570438000374	1311.9723751000129	1312.9924385000486	1314.010242999997	1315.02853780007	1316.0418607000029	1317.0508501000004	2019-12-24 19:16:42.543125	1.3134836456225	-1.50756482339643	-1.08542727781115	-1.77766259226981	-2.39891092343365	-1.08542727781115	-1.3134836456225	-1.08542727781115	-1.50756482339643	-1.08542727781115	-2.39891092343365	1.08542727781115	-0.6147477345153267	-1.4076421950769908	-1.152063952565659	-2.4625225012849157	-1.4909054992808866	-1.152063952565659	1.1342053984247387	-1.6288585931809365	-1.0141108586656091	-1.9671056044072923	-0.592600543235359	3	wrong	1.0
266.12087810004573	8.773590800003149	nogo_punish	1.0	266.16390709998086	267.90278899995633	270.42489349993434	1.7388818999754676	267.1686279999558	269.41458789992635	273.4693099999565	0.7341610000005403	1.010305600007996	1.4681879000274876	272.45698949997313	0.3487148999702185	271.44267259992193	2	1	31	1	nogo_punish	1	-1	0	0	0	1	1	1.0	1.0	0	1.0	0.3487148999702185	1050.9110412000446	1317.0749483000254	1318.0796692000004	1318.813830200001	1320.325629099971	1321.335934699979	1322.3537137999665	1323.3680307000177	1324.380351200001	1325.8485391000286	2019-12-24 19:16:42.543125	1.413844017923	-1.50756482339643	-0.970937484634001	-1.59382955823874	-2.384781502557	-0.970937484634001	-1.413844017923	-0.970937484634001	-1.50756482339643	-0.970937484634001	-2.384781502557	0.970937484634001	-0.5143873622148267	-1.4076421950769908	-1.0375741593885102	-2.278689467253846	-1.4767760784042365	-1.0375741593885102	1.0197156052475895	-1.5143688000037874	-0.9999814377889591	-1.8526158112301432	-0.592600543235359	3	correct	1.0
274.937639700016	8.89760230004299	go_punish	1.0	274.98066869995114	277.15324269991834	279.6715367999859	2.1725739999671987	275.98823120002635	278.6459117999766	282.69190699991304	1.165011499891989	1.0256250000093132	1.1863640000810847	281.68290249991696	1.0	280.67429989995435	2	1	32	2	go_punish	1	0	-1	1	0	0	0	n/a	0.0	-1	1.0	1.0	1050.9110412000446	1325.8917098999957	1326.899272400071	1328.064283899963	1329.5569530000212	1330.5825780000305	1331.585341099999	1332.5939436999615	1333.6029481999576	1334.7893122000387	2019-12-24 19:16:42.543125	0.105776197652959	0.0	-0.709929385722638	-0.709929385722638	-0.815705583375596	-0.709929385722638	-0.105776197652959	-0.709929385722638	0.0	-0.709929385722638	-0.815705583375596	-7.414608646453412	-1.8224551824848678	0.09992262831943931	-0.7765660604771472	-1.3947892947377438	0.09229984077716746	-0.7765660604771472	-7.365830525839823	-1.2533607010924244	0.5690944813924448	-1.5916077123187802	0.914964280161071	3	missed	0.0
283.87448650004785	8.184439099975862	go_punish	1.0	283.917515499983	285.4828125999775	288.00765629997454	1.5652970999944955	284.92899089993443	286.9876566999592	291.04579769994575	0.553821700043045	1.0199996000153533	1.056156900013093	290.0425555999391	0.4197938999859616	289.01356509991456	2	1	33	2	go_punish	1	0	-1	1	0	0	0	0.0	1.0	-1	1.0	0.4197938999859616	1050.9110412000446	1334.8285567000275	1335.840032099979	1336.393853800022	1337.8986979000038	1338.918697500019	1339.9246062999591	1340.9535967999836	1341.9568388999903	1343.0129958000034	2019-12-24 19:16:42.543125	-0.561275923332059	0.0	-1.4305245111245	-1.4305245111245	-0.869248587792443	-1.4305245111245	0.561275923332059	-1.4305245111245	0.0	-1.4305245111245	-0.869248587792443	-6.6940135210515495	-2.489507303469886	0.09992262831943931	-1.497161185879009	-2.115384420139606	0.03875683636032046	-1.497161185879009	-6.645235400437961	-1.9739558264942865	0.5155514769755978	-2.3122028377206423	0.914964280161071	3	correct	1.0
292.1023539000887	9.265003899927251	go_punish	0.0348738000029698	292.14538290002383	294.8577149999328	297.41463329992257	2.712332099908963	293.15277099993546	296.3942698999308	300.4484223999316	1.7049439999973401	1.0203633999917656	0.9619644000194967	299.44140679994575	0.3071414999430999	298.4234217000194	2	1	34	2	go_punish	1	0	-1	1	1	1	1	1.0	1.0	0	0.0348738000029698	0.3071414999430999	1050.9110412000446	1343.0564241000684	1344.06381219998	1345.7687561999774	1347.3053110999754	1348.3256744999671	1349.334462900064	1350.3524479999903	1351.3594635999762	1352.3214279999956	2019-12-24 19:16:42.543125	1.15601013589212	0.0	-2.07265677049615	-2.07265677049615	-0.916646634604031	-2.07265677049615	-1.15601013589212	0.0	-2.07265677049615	-0.916646634604031	-2.07265677049615	0.0	-0.7722212442457068	0.09992262831943931	-2.139293445250659	-2.7575166795112556	-0.008641210451267534	-2.139293445250659	0.048778120613588556	-1.4600779499738175	-0.6878567057281091	-0.8816783265961423	-1.1576924903350787	3	correct	1.0
301.3899222000034	8.193099300027825	go_reward	1.0	301.43295119993854	302.71494119998533	305.24138609995134	1.2819900000467896	302.4456500000085	304.221311399946	308.2825800999999	0.26929119997680573	1.0200747000053525	1.3434703999664634	307.27760879998095	0.5100680999457836	306.2514299999459	2	1	35	4	go_reward	1	1	0	1	0	0	0	0.0	1.0	0	1.0	0.5100680999457836	1050.9110412000446	1352.343992399983	1353.356691200053	1353.62598240003	1355.1323525999906	1356.152427299996	1357.1624711999905	1358.1886500000255	1359.1936213000445	1360.537091700011	2019-12-24 19:16:42.543125	-0.0645485637737999	1.16065795133219	0.355206783702685	0.96354354223323	0.419755347476485	0.355206783702685	0.0645485637737999	0.355206783702685	1.16065795133219	0.355206783702685	0.419755347476485	-0.355206783702685	-1.9927799439116267	1.2605805796516292	0.28857010894817586	0.27868363321812417	1.3277607716292485	0.28857010894817586	-0.30642866308909644	-0.1882245316671014	1.8045554122445258	-0.5264715428934573	2.075622231493261	3	correct	1.0
309.62749890005193	8.131845999974757	nogo_reward	1.0	309.67052789998706	311.4581988999855	313.98705449991394	1.7876709999984541	310.67706749995705	312.9729330999544	317.04318489995785	0.781131400028471	1.0141213999595493	0.7591890000039712	316.03088849992514	0.393810800043866	315.00264590000734	2	1	36	3	nogo_reward	1	0	1	0	0	1	0	0.0	1.0	1	1.0	0.393810800043866	1050.9110412000446	1360.5815691000316	1361.5881087000016	1362.36924010003	1363.883974299999	1364.8980956999585	1365.913687100052	1366.9419296999697	1367.9542261000024	1368.7134151000064	2019-12-24 19:16:42.543125	2.70554427295286	0.0	1.99547064820418	1.99547064820418	-0.710073624748686	1.99547064820418	-2.70554427295286	1.99547064820418	0.0	1.99547064820418	-0.710073624748686	4.52540748844329	0.7773128928150332	0.09992262831943931	1.928833973449671	1.310610739189074	0.19793179940407746	1.928833973449671	4.574185609056879	1.4520393328343935	0.6747264400193548	1.1137923216080376	0.914964280161071	3	correct	1.0
317.7995910000752	9.602376899914589	go_punish	1.0	317.84262000001036	320.59663129993714	323.124947699951	2.7540112999267876	318.84843180002645	322.1006423999788	326.1689357999712	1.7481994999106973	1.024305299972184	1.276061099953722	325.15937030001055	0.0567128000548109	324.1297936999472	2	1	37	2	go_punish	1	0	-1	1	0	0	0	0.0	1.0	-1	1.0	0.0567128000548109	1050.9110412000446	1368.753661200055	1369.759473000071	1371.5076724999817	1373.0116836000234	1374.0359888999956	1375.0408348999918	1376.0704115000551	1377.0799770000158	1378.3560380999695	2019-12-24 19:16:42.543125	-1.17356812773619	0.0	-2.07265677049615	-1.84814065370783	-0.899088642759959	-2.07265677049615	1.17356812773619	-2.07265677049615	0.0	-2.07265677049615	-0.899088642759959	-6.0518812616799	-3.101799507874017	0.09992262831943931	-2.139293445250659	-2.5330005627229357	0.008916781392804385	-2.139293445250659	-6.003103141066311	-2.616088085865936	0.4857114220080817	-2.954335097092292	0.914964280161071	3	correct	1.0
327.42655670002546	8.927624200005084	nogo_punish	1.0	327.4695856999606	329.7883843999591	332.32513399992604	2.318798699998524	328.4708341999212	331.30430840002373	335.37853639991954	1.3175502000378856	1.0208255999023095	1.018673500046134	334.3769294000231	0.1530413000145927	333.3444564000238	2	1	38	1	nogo_punish	1	-1	0	0	0	1	0	0.0	1.0	0	1.0	0.1530413000145927	1050.9110412000446	1378.3806269000052	1379.3818753999658	1380.6994256000037	1382.2153496000683	1383.2361751999706	1384.2554976000683	1385.2879706000676	1386.289577599964	1387.3082511000102	2019-12-24 19:16:42.543125	1.50253616574117	-1.50756482339643	-0.869796607596704	-1.43101604541838	-2.37233277333787	-0.869796607596704	-1.50253616574117	-0.869796607596704	-1.50756482339643	-0.869796607596704	-2.37233277333787	0.869796607596704	-0.4256952143966568	-1.4076421950769908	-0.9364332823512131	-2.115875954433486	-1.4643273491851065	-0.9364332823512131	0.9185747282102925	-1.4132279229664904	-0.9875327085698291	-1.7514749341928462	-0.592600543235359	3	correct	1.0
336.38387750007655	8.48965020000469	nogo_punish	1.0	336.4269065000117	337.8277926999144	340.3585086999228	1.400886199902743	337.43775939999614	339.3385838000104	343.4178986999905	0.3900332999182865	1.0199248999124393	1.4986580000258982	342.40532649995293	0.1396136999828741	341.3759836999234	2	1	39	1	nogo_punish	1	-1	0	0	0	1	0	0.0	1.0	0	1.0	0.1396136999828741	1050.9110412000446	1387.3379477000562	1388.3488006000407	1388.738833899959	1390.249625000055	1391.2695498999674	1392.287024899968	1393.3163676999975	1394.328939900035	1395.827597900061	2019-12-24 19:16:42.543125	1.58105081196351	-1.50756482339643	-0.780299105756886	-1.28658832546778	-2.3613499177204	-0.780299105756886	-1.58105081196351	-0.780299105756886	-1.50756482339643	-0.780299105756886	-2.3613499177204	0.780299105756886	-0.34718056817431675	-1.4076421950769908	-0.8469357805113951	-1.9714482344828856	-1.4533444935676365	-0.8469357805113951	0.8290772263704745	-1.3237304211266725	-0.9765498529523591	-1.6619774323530283	-0.592600543235359	3	correct	1.0
344.8982628000665	8.804447699920274	nogo_punish	1.0	344.94129180000164	346.80126099998574	349.31838489999063	1.859969199984107	345.9427345999284	348.3080747999484	352.3567768000066	0.8585264000573716	1.0103101000422612	1.3889626999152824	351.353745099972	0.0327226999215781	350.3369666999206	2	1	40	1	nogo_punish	1	-1	0	0	0	1	1	1.0	1.0	0	1.0	0.0327226999215781	1050.9110412000446	1395.8523330000462	1396.853775799973	1397.7123022000303	1399.219115999993	1400.2294261000352	1401.2480078999652	1402.2647863000166	1403.2678180000512	1404.6567806999665	2019-12-24 19:16:42.543125	1.65067071479597	-1.50756482339643	-0.700976709742566	-1.15827200521294	-2.35164742453854	-0.700976709742566	-1.65067071479597	-0.700976709742566	-1.50756482339643	-0.700976709742566	-2.35164742453854	0.700976709742566	-0.27756066534185675	-1.4076421950769908	-0.7676133844970752	-1.8431319142280458	-1.4436420003857768	-0.7676133844970752	0.7497548303561545	-1.2444080251123524	-0.9668473597704994	-1.5826550363387084	-0.592600543235359	3	correct	1.0
353.7284830000715	8.370391299948096	nogo_punish	1.0	353.7715120000066	355.4379893000005	357.9732036999194	1.6664772999938577	354.78182479995303	356.95308429992315	361.033208000008	0.6561645000474527	1.020119399996247	1.108695299946703	360.02019589999713	0.1284872000105679	358.99094439996406	2	1	41	1	nogo_punish	1	-1	0	0	0	1	1	1.0	1.0	0	1.0	0.1284872000105679	1050.9110412000446	1404.6825532000512	1405.6928659999976	1406.349030500045	1407.8641254999677	1408.884244899964	1409.9019856000086	1410.9312371000417	1411.9442492000526	1413.0529444999993	2019-12-24 19:16:42.543125	1.7125021755475	-1.50756482339643	-0.630562678675604	-1.04409892817636	-2.34306485422311	-0.630562678675604	-1.7125021755475	-0.630562678675604	-1.50756482339643	-0.630562678675604	-2.34306485422311	0.630562678675604	-0.21572920459032674	-1.4076421950769908	-0.6971993534301131	-1.728958837191466	-1.4350594300703468	-0.6971993534301131	0.6793407992891926	-1.1739939940453903	-0.9582647894550693	-1.5122410052717463	-0.592600543235359	3	correct	1.0
362.14993690000824	8.37481740000635	nogo_reward	1.0	362.1929658999434	363.55824819998816	366.0743068999145	1.3652823000447825	363.1972729000263	365.0619746999582	369.1186105000088	0.36097529996186495	1.0123321999562904	1.449172799940925	368.1103256000206	0.0629742000019177	367.0875110999914	2	1	42	3	nogo_reward	0	1	0	0	0	1	0	1.0	0.0	0	1.0	0.0629742000019177	1050.9110412000446	1413.104007099988	1414.1083141000709	1414.4692894000327	1415.9730159000028	1416.985348099959	1417.998552300036	1419.0213668000652	1420.0296517000534	1421.4788244999943	2019-12-24 19:16:42.543125	3.10127386333926	0.0	2.40134388152705	2.40134388152705	-0.699929981812214	2.40134388152705	-3.10127386333926	2.40134388152705	0.0	2.40134388152705	-0.699929981812214	-2.40134388152705	1.1730424832014332	0.09992262831943931	2.3347072067725407	1.716483972511944	0.20807544234054942	2.3347072067725407	-2.3525657609134614	1.8579125661572635	0.6848700829558267	1.5196655549309075	0.914964280161071	3	wrong	1.0
370.54948849999323	8.059768400038593	nogo_punish	1.0	370.59251749992836	372.3027321000118	374.8278281999519	1.7102146000834182	371.60850470000855	373.80694399995264	377.89015480002854	0.6942274000032285	1.0208841999992728	0.762131099938415	376.8742596999509	0.0584149999776855	375.84519539994653	2	1	43	1	nogo_punish	1	-1	0	0	0	1	1	1.0	1.0	0	1.0	0.0584149999776855	1050.9110412000446	1421.503558699973	1422.5195459000531	1423.2137733000563	1424.7179851999972	1425.7388693999965	1426.756236599991	1427.7853008999955	1428.801196000073	1429.5633271000115	2019-12-24 19:16:42.543125	1.7675013912172	-1.50756482339643	-0.567961855493954	-0.942362529834218	-2.33546324671116	-0.567961855493954	-1.7675013912172	-0.567961855493954	-1.50756482339643	-0.567961855493954	-2.33546324671116	0.567961855493954	-0.16072998892062684	-1.4076421950769908	-0.6345985302484631	-1.6272224388493237	-1.4274578225583965	-0.6345985302484631	0.6167399761075425	-1.1113931708637403	-0.950663181943119	-1.4496401820900964	-0.592600543235359	3	correct	1.0
378.6516488000052	8.344861200079094	go_punish	0.1312169999582693	378.69467779994034	380.06333009991795	382.61119909991976	1.3686522999776116	379.7027536999667	381.59292859991547	385.6653703999473	0.3605763999512419	1.0182705000042915	1.374168600072153	384.65232829994056	0.3690007000695914	383.62861789995804	2	1	44	2	go_punish	1	0	-1	1	1	1	0	0.0	1.0	0	0.1312169999582693	0.3690007000695914	1050.9110412000446	1429.605718999985	1430.6137949000113	1430.9743712999625	1432.50396979996	1433.5222402999643	1434.5396591000026	1435.5633694999851	1436.5764115999918	1437.950580200064	2019-12-24 19:16:42.543125	1.70250541578146	0.0	-2.64577609138163	-2.44815466258466	-0.943270675600163	-2.64577609138163	-1.70250541578146	0.0	-2.64577609138163	-0.943270675600163	-2.64577609138163	0.0	-0.22572596435636672	0.09992262831943931	-2.712412766136139	-3.133014571599766	-0.03526525144739956	-2.712412766136139	0.048778120613588556	-1.4867019909699493	-1.2609760266135892	-0.8816783265961423	-1.7308118112205588	3	correct	1.0
387.0390597999792	8.508359000086784	nogo_reward	1.0	387.08208879991435	389.04076389991656	391.5790030999342	1.9586751000022105	388.0905121000251	390.5557477999246	394.62799379997887	0.9502517998914755	1.0232553000096232	0.9624540000222623	393.6089224999305	0.3916259000543505	392.5829698999878	2	1	45	3	nogo_reward	1	0	1	0	0	1	0	0.0	1.0	1	1.0	0.3916259000543505	1050.9110412000446	1437.993129999959	1439.0015533000696	1439.9518050999611	1441.4667889999691	1442.4900442999788	1443.4940111000324	1444.519963699975	1445.5390350000234	1446.5014890000457	2019-12-24 19:16:42.543125	2.86153680949149	0.0	2.1532520201806	2.1532520201806	-0.708284789310883	2.1532520201806	-2.86153680949149	2.1532520201806	0.0	2.1532520201806	-0.708284789310883	4.3676261164668695	0.9333054293536631	0.09992262831943931	2.086615345426091	1.4683921111654943	0.1997206348418804	2.086615345426091	4.416404237080458	1.6098207048108137	0.6765152754571577	1.2715736935844577	0.914964280161071	3	correct	1.0
395.587503800052	8.28102510003373	go_punish	0.5281566000776365	395.6305327999871	397.20333649998065	399.7420877999393	1.5728036999935284	396.6407887999667	398.73108900000807	402.7726801999379	0.5625477000139654	1.010998799931258	1.1388777000829577	401.7683576999698	0.4378237000200897	400.74874609999824	2	1	46	2	go_punish	1	0	-1	1	1	1	1	1.0	1.0	0	0.5281566000776365	0.4378237000200897	1050.9110412000446	1446.5415740000317	1447.5518300000113	1448.1143777000252	1449.6421302000526	1450.653128999984	1451.6597873000428	1452.6793989000143	1453.6837213999825	1454.8225991000654	2019-12-24 19:16:42.543125	1.72290607467977	0.0	-2.64577609138163	-2.18618906489113	-0.922870016701857	-2.64577609138163	-1.72290607467977	0.0	-2.64577609138163	-0.922870016701857	-2.64577609138163	0.0	-0.20532530545805683	0.09992262831943931	-2.712412766136139	-2.8710489739062357	-0.014864592549093558	-2.712412766136139	0.048778120613588556	-1.4663013320716434	-1.2609760266135892	-0.8816783265961423	-1.7308118112205588	3	correct	1.0
403.89485989999935	8.407525700051337	nogo_punish	1.0	403.9378888999345	405.29102200001944	407.8302255999299	1.3531331000849605	404.947665899992	406.806684399955	410.867880399921	0.34335610002744943	1.023541199974943	1.477534200064838	409.8544678000035	0.6199624000582844	408.8355943999486	2	1	47	1	nogo_punish	0	0	-1	0	0	1	0	0.0	1.0	-1	1.0	0.6199624000582844	1050.9110412000446	1454.848930099979	1455.8587071000366	1456.202063200064	1457.7177255999995	1458.7412667999745	1459.7466355999932	1460.765509000048	1461.7789215999655	1463.2564558000304	2019-12-24 19:16:42.543125	1.81649655713185	-1.50756482339643	-0.512225513581152	-0.851580204459007	-2.32872207071301	-0.512225513581152	-1.81649655713185	-0.512225513581152	-1.50756482339643	-0.512225513581152	-2.32872207071301	-7.612312518594898	-0.1117348230059767	-1.4076421950769908	-0.578862188335661	-1.5364401134741128	-1.4207166465602468	-0.578862188335661	-7.563534397981309	-1.0556568289509385	-0.9439220059449693	-1.3939038401772943	-0.592600543235359	3	correct	1.0
412.32632100000023	9.324229700025171	go_reward	1.0	412.36934999993537	414.84666519996244	417.36420840001665	2.4773152000270784	413.3808224999809	416.35253199993167	420.4030563000124	1.465842699981522	1.0116764000849798	1.2905233999481425	419.389989499934	0.3721622999291867	418.3704831999494	2	1	48	4	go_reward	1	1	0	1	0	0	0	0.0	1.0	0	1.0	0.3721622999291867	1050.9110412000446	1463.28039119998	1464.2918637000255	1465.757706400007	1467.2635731999762	1468.2752496000612	1469.281524399994	1470.3010306999786	1471.314097500057	1472.604620900005	2019-12-24 19:16:42.543125	-0.0969578594894088	1.16065795133219	0.319880942366424	0.86879492550878	0.416838801855833	0.319880942366424	0.0969578594894088	0.319880942366424	1.16065795133219	0.319880942366424	0.416838801855833	-0.319880942366424	-2.0251892396272355	1.2605805796516292	0.2532442676119149	0.18393501649367416	1.3248442260085964	0.2532442676119149	-0.27110282175283545	-0.2235503730033624	1.8016388666238736	-0.5617973842297184	2.075622231493261	3	correct	1.0
421.6943257000528	8.818500999943353	go_punish	0.0432825000025332	421.7373546999879	423.65232400002424	426.20024889998604	1.9149693000363186	422.74417979991995	425.18694719998166	429.2340944999596	0.9081442001042888	1.0133017000043765	1.321761199971661	428.229142999975	0.3004321000771597	427.2106436999745	2	1	49	2	go_punish	1	0	-1	1	1	1	0	0.0	1.0	0	0.0432825000025332	0.3004321000771597	1050.9110412000446	1472.6483959000325	1473.6552209999645	1474.5633652000688	1476.0979884000262	1477.1112901000306	1478.121684900019	1479.1401842000196	1480.1451357000042	1481.4668968999758	2019-12-24 19:16:42.543125	1.74081257359668	0.0	-2.64577609138163	-1.95522388540785	-0.904963517784946	-2.64577609138163	-1.74081257359668	0.0	-2.64577609138163	-0.904963517784946	-2.64577609138163	0.0	-0.18741880654114684	0.09992262831943931	-2.712412766136139	-2.640083794422956	0.0030419063678174263	-2.712412766136139	0.048778120613588556	-1.4483948331547323	-1.2609760266135892	-0.8816783265961423	-1.7308118112205588	3	correct	1.0
430.55426270002476	7.973666700068634	nogo_reward	1.0	430.5972916999599	432.04388180002593	434.5634168999968	1.4465901000660324	431.60679529991467	433.54847709997534	437.6017075999407	0.4370865001112634	1.014939800021466	0.9692508000878206	436.58834070002194	0.6044438000535592	435.57012319995533	2	1	50	3	nogo_reward	1	0	1	0	0	1	0	1.0	0.0	1	1.0	0.6044438000535592	1050.9110412000446	1481.5083329000045	1482.5178364999592	1482.9549230000705	1484.45951830002	1485.4744581000414	1486.4811644	1487.4993819000665	1488.5127487999853	1489.481999600073	2019-12-24 19:16:42.543125	3.24483685538332	0.0	2.5464744394072	2.5464744394072	-0.698362415976124	2.5464744394072	-3.24483685538332	2.5464744394072	0.0	2.5464744394072	-0.698362415976124	3.97440369724027	1.3166054752454932	0.09992262831943931	2.479837764652691	1.8616145303920941	0.2096430081766394	2.479837764652691	4.0231818178538585	2.0030431240374136	0.6864376487919167	1.6647961128110575	0.914964280161071	3	wrong	1.0
438.56851620005887	8.568419300019741	go_punish	1.0	438.611545199994	440.4000166999176	442.9233879999956	1.7884714999236166	439.61209589999635	441.91683479992207	445.96961919998284	0.7879207999212667	1.0065532000735402	1.2103453000308946	444.95699360000435	0.0106727000093087	443.9264059999259	2	1	51	2	go_punish	1	0	-1	1	0	0	1	1.0	1.0	-1	1.0	0.0106727000093087	1050.9110412000446	1489.5225864000386	1490.523137100041	1491.3110578999622	1492.8278759999666	1493.8344292000402	1494.8374471999705	1495.868034800049	1496.8806604000274	1498.0910057000583	2019-12-24 19:16:42.543125	-1.75655225098879	0.0	-2.64577609138163	-1.75123659039089	-0.889223840392838	-2.64577609138163	1.75655225098879	-2.64577609138163	0.0	-2.64577609138163	-0.889223840392838	-5.47876194079442	-3.684783631126617	0.09992262831943931	-2.712412766136139	-2.4360964994059957	0.018781583759925446	-2.712412766136139	-5.429983820180831	-3.1892074067514162	0.49557622437520277	-3.527454417977772	0.914964280161071	3	correct	1.0
447.1759973000733	8.25829619995784	go_punish	1.0	447.2190263000084	448.6901300000027	451.2258119999897	1.4711036999942735	448.2304954000283	450.2027420999948	454.25751050002873	0.45963459997437894	1.02306989999488	1.2198119999375194	453.2536798999645	0.3495435999939218	452.24116330000106	2	1	52	2	go_punish	1	0	-1	1	0	0	0	0.0	1.0	-1	1.0	0.3495435999939218	1050.9110412000446	1498.130067500053	1499.1415366000729	1499.6011712000472	1501.1137833000394	1502.1368532000342	1503.1522045000456	1504.164721100009	1505.1685517000733	1506.3883637000108	2019-12-24 19:16:42.543125	-2.2231418912854	0.0	-3.1580840483073	-2.36840875501306	-0.934942157021899	-3.1580840483073	2.2231418912854	-3.1580840483073	0.0	-3.1580840483073	-0.934942157021899	-4.96645398386875	-4.1513732714232265	0.09992262831943931	-3.224720723061809	-3.053268664028166	-0.02693673286913556	-3.224720723061809	-4.917675863255161	-3.7015153636770863	0.44985790774614176	-4.039762374903442	0.914964280161071	3	correct	1.0
455.4607264000224	8.640977100003283	go_reward	1.0	455.5037553999575	457.19267010001954	459.72189939999953	1.6889147000620142	456.52131699991855	458.6988903000017	462.7858438999392	0.6713531001009869	1.0230090999978074	1.3588886000216007	461.76494050002657	0.6873834999278188	460.73621459992137	2	1	53	4	go_reward	0	0	1	1	0	0	0	0.0	1.0	1	1.0	0.6873834999278188	1050.9110412000446	1506.414796600002	1507.4323581999631	1508.103711300064	1509.6099315000463	1510.632940600044	1511.647255799966	1512.6759817000711	1513.6968850999838	1515.0557737000054	2019-12-24 19:16:42.543125	-0.125848796808424	1.16065795133219	0.288455816164121	0.784391376115467	0.414304612972545	0.288455816164121	0.125848796808424	0.288455816164121	1.16065795133219	0.288455816164121	0.414304612972545	6.232422320483349	-2.054080176946251	1.2605805796516292	0.2218191414096119	0.0995314671003612	1.3223100371253085	0.2218191414096119	6.281200441096938	-0.25497549920566537	1.7991046777405857	-0.5932225104320212	2.075622231493261	3	correct	1.0
464.12466890003975	7.823398799984716	go_reward	1.0	464.1676978999749	465.50849539996125	468.0349776999792	1.3407974999863654	465.1813176999567	467.0144028000068	471.0914435000159	0.3271777000045404	1.0205748999724165	0.8996531999437138	470.07851859997027	0.0181919999886304	469.0483632999237	2	1	54	4	go_reward	1	1	0	1	0	0	0	0.0	1.0	0	1.0	0.0181919999886304	1050.9110412000446	1515.0787391000194	1516.0923589000013	1516.4195366000058	1517.9254440000514	1518.9460189000238	1519.9594044999683	1520.9895598000148	1522.0024847000604	1522.9021379000042	2019-12-24 19:16:42.543125	0.444024892796384	1.16065795133219	0.873283892181518	1.32191781865731	0.429258999385134	0.873283892181518	-0.444024892796384	0.873283892181518	1.16065795133219	0.873283892181518	0.429258999385134	-0.873283892181518	-1.4842064873414427	1.2605805796516292	0.806647217427009	0.6370579096422041	1.3372644235378974	0.806647217427009	-0.8245057715679295	0.32985257681173163	1.8140590641531746	-0.008394434414624286	2.075622231493261	3	correct	1.0
471.9763438000807	8.405426199897192	nogo_punish	1.0	472.01937280001584	473.6003629999468	476.12521789991297	1.580990199930966	473.03357809991576	475.1054834999379	479.18015879997984	0.5667849000310525	1.01973439997505	1.244640199933201	478.17143809993286	0.5778758999658749	477.142732599983	2	1	55	1	nogo_punish	1	-1	0	0	0	1	0	0.0	1.0	0	1.0	0.5778758999658749	1050.9110412000446	1522.9304140000604	1523.9446192999603	1524.5114041999914	1526.0165246999825	1527.0362590999575	1528.0537738000276	1529.0824792999774	1530.0912000000244	1531.3358401999576	2019-12-24 19:16:42.543125	1.12214375664219	-1.50756482339643	-1.26016561141507	-1.56809694115159	-2.38230936805725	-1.26016561141507	-1.12214375664219	-1.26016561141507	-1.50756482339643	-1.26016561141507	-2.38230936805725	1.26016561141507	-0.8060876234956369	-1.4076421950769908	-1.3268022861695792	-2.252956850166696	-1.4743039439044865	-1.3268022861695792	1.3089437320286588	-1.8035969267848566	-0.9975093032892091	-2.1418439380112124	-0.592600543235359	3	correct	1.0
480.42368690005947	8.26608239999041	go_punish	0.1899402999551966	480.4667158999946	482.2435840999242	484.782370199915	1.776868199929595	481.4770999000175	483.7714534000261	487.82652000000235	0.7664841999066994	1.0109167998889461	0.9062782999826595	486.81371719995514	0.4906771000241861	485.80084239994176	2	1	56	2	go_punish	1	0	-1	1	1	1	0	0.0	1.0	0	0.1899402999551966	0.4906771000241861	1050.9110412000446	1531.3777571000392	1532.388141100062	1533.1546252999688	1534.6824946000706	1535.6934113999596	1536.7118835999863	1537.7247583999997	1538.737561200047	1539.6438395000296	2019-12-24 19:16:42.543125	2.64130060969332	0.0	-3.61671357601563	-2.91842660782892	-0.975412966322314	-3.61671357601563	-2.64130060969332	0.0	-3.61671357601563	-0.975412966322314	-3.61671357601563	0.0	0.7130692295554932	0.09992262831943931	-3.6833502507701392	-3.6032865168440256	-0.06740754216955058	-3.6833502507701392	0.048778120613588556	-1.5188442816921004	-2.2319135112475896	-0.8816783265961423	-2.701749295854559	3	correct	1.0
488.73402269999474	9.279907000018284	nogo_reward	1.0	488.77705169992987	491.00013910001144	493.5244881999679	2.2230874000815675	489.7822908000089	492.50762239994947	496.5705362999579	1.2178483000025153	1.0168658000184223	1.4864223999902606	495.5578478999669	0.4672848000191152	494.52843129995745	2	1	57	3	nogo_reward	1	0	1	0	0	1	0	0.0	1.0	1	1.0	0.4672848000191152	1050.9110412000446	1539.6880928999744	1540.6933320000535	1541.911180300056	1543.418663599994	1544.4355294000125	1545.439472500002	1546.4688891000114	1547.4815775000025	1548.9679998999927	2019-12-24 19:16:42.543125	3.58934916034419	0.0	2.89959141504922	2.89959141504922	-0.689757745294971	2.89959141504922	-3.58934916034419	2.89959141504922	0.0	2.89959141504922	-0.689757745294971	3.62128672159825	1.661117780206363	0.09992262831943931	2.832954740294711	2.214731506034114	0.2182476788577924	2.832954740294711	3.6700648422118385	2.3561600996794336	0.6950423194730697	2.017913088453078	0.914964280161071	3	correct	1.0
498.0544498000522	8.73312380001903	go_punish	0.1153514001052826	498.09747879998736	500.46330369997304	503.0020052000182	2.3658248999856824	499.1029968999792	501.97888139996235	506.06332630000543	1.3603067999938503	1.0231238000558278	0.7672763000009581	505.05092740000714	0.1241458000149577	504.0174156000139	2	1	58	2	go_punish	0	-1	0	1	1	1	1	1.0	1.0	-1	0.1153514001052826	0.1241458000149577	1050.9110412000446	1549.008520000032	1550.0140381000238	1551.3743449000176	1552.889922600007	1553.9130464000627	1554.9284568000585	1555.9619686000517	1556.97436750005	1557.741643800051	2019-12-24 19:16:42.543125	2.66499884114548	0.0	-3.61671357601563	-2.61175702440987	-0.951714734870151	-3.61671357601563	-2.66499884114548	0.0	-3.61671357601563	-0.951714734870151	-3.61671357601563	-8.12453803217605	0.7367674610076533	0.09992262831943931	-3.6833502507701392	-3.2966169334249757	-0.043709310717387595	-3.6833502507701392	-8.07575991156246	-1.4951460502399374	-2.2319135112475896	-0.8816783265961423	-2.701749295854559	3	correct	1.0
506.8131751000178	8.490532399970334	nogo_punish	1.0	506.85620409995295	508.9177365999203	511.4471124999691	2.0615324999673703	507.86696949996985	510.4237214999739	514.5049879999133	1.0507670999504626	1.023390999995172	0.8417485000099987	513.5009332000045	0.1067021000199019	512.4610098999692	2	1	59	1	nogo_punish	0	0	-1	0	0	1	0	0.0	1.0	-1	1.0	0.1067021000199019	1050.9110412000446	1557.7672452999975	1558.7780107000144	1559.8287777999649	1561.3347627000185	1562.3581537000136	1563.3720511000138	1564.411974400049	1565.4160291999578	1566.2577776999678	2019-12-24 19:16:42.543125	1.24200927767534	-1.50756482339643	-1.12808910603252	-1.40781058264508	-2.37009838370786	-1.12808910603252	-1.24200927767534	-1.12808910603252	-1.50756482339643	-1.12808910603252	-2.37009838370786	-6.99644892614353	-0.6862221024624868	-1.4076421950769908	-1.194725780787029	-2.092670491660186	-1.4620929595550969	-1.194725780787029	-6.947670805529941	-1.6715204214023065	-0.9852983189398195	-2.0097674326286623	-0.592600543235359	3	correct	1.0
515.3462052000682	8.68626300001074	go_punish	0.0991293999832123	515.3892342000033	517.6694916000124	520.2210736999987	2.280257400009077	516.398504099925	519.1968013999285	523.2693589000264	1.270987500087358	1.0242723000701517	0.8061382999876514	522.264258799958	0.1539310000371188	521.2367249999663	2	1	60	2	go_punish	0	-1	0	1	1	1	1	1.0	1.0	-1	0.0991293999832123	0.1539310000371188	1050.9110412000446	1566.300275400048	1567.3095452999696	1568.580532800057	1570.107842599973	1571.1321149000432	1572.147766200011	1573.1753000000026	1574.180400100071	1574.9865384000586	2019-12-24 19:16:42.543125	1.82863055551444	-0.797635437673793	-3.61671357601563	-3.13840465048098	-1.78808302050119	-3.61671357601563	-1.82863055551444	-0.797635437673793	-3.61671357601563	-1.78808302050119	-3.61671357601563	-7.326902594502257	-0.09960082462338682	-0.6977128093543536	-3.6833502507701392	-3.823264559496086	-0.8800775963484265	-3.6833502507701392	-7.278124473888668	-2.3315143358709762	-2.2319135112475896	-1.6793137642699354	-2.701749295854559	3	correct	1.0
