onset	duration	trial_type	response_time	cueOnset	targetOnset	fbOnset	cueRT	firstfixOnset	secondfixOnset	waitOnset	firstfixdur	secondfixdur	waitdur	nback_fbOnset	nback_response_time	nback_targetOnset	block	wm	trial	cue	cond	is_common	outcome_go	outcome_nogo	key_correct	key_pressed	is_correct	key_correct_nback	key_pressed_nback	is_correct_nback	outcome	rt	rt_nback	time_scan	time_onset	time_isi1	time_circle	time_isi2	time_feedback	time_same	time_correct	time_iti	time_done	timestamp_scan	DV	Qgo	Qnogo	SV	Wgo	Wnogo	mDV	Qchosen	Qunchosen	Wchosen	Wunchosen	PE	DVC	QgoC	QnogoC	SVC	WgoC	WnogoC	PEC	WchosenC	WunchosenC	QchosenC	QunchosenC	run	outcome_nback	nback_targetResp
0.0	6.786503000068478	nogo_reward	1.0	0.027831000043079257	1.8922421000897884	4.431575800059363	1.8644111000467092	1.0320266000926495	3.4065810000756755	5.430972800008021	0.860215499997139	1.0249947999836877	1.3833612001035362	n/a	1.0	n/a	1	0	61	3	nogo_reward	1	0	1	0	0	1	0	n/a	n/a	1	1.0	1.0	537.5977198999608	537.6255509000039	538.6297465000534	539.4899620000506	541.0043009000365	542.0292957000202	n/a	n/a	543.0286926999688	544.4120539000724	2019-12-24 19:08:09.230414	3.88218614386141	0.914422989209479	3.93463357539395	3.79517504912029	0.0524474315325422	3.93463357539395	-3.88218614386141	3.93463357539395	0.914422989209479	3.93463357539395	0.0524474315325422	2.58624456125352	1.953954763723583	1.0143456175289183	3.867996900639441	3.1103151401051843	0.9604528556853056	3.867996900639441	2.6350226818671083	3.391202260024164	1.437247496300583	3.052955248797808	1.82938726937055	2	missed	0.0
6.824573699967004	6.777702899998985	nogo_reward	1.0	6.852404700010084	9.192807400017045	11.705458700074814	2.340402700006962	7.86486580001656	10.700791000039317	12.71457690000534	1.3279416000004858	1.0046677000354975	0.9155307000037283	n/a	1.0	n/a	1	0	62	3	nogo_reward	1	0	1	0	0	1	0	n/a	n/a	1	1.0	1.0	537.5977198999608	544.4501245999709	545.4625856999774	546.7905272999778	548.2985109000001	549.3031786000356	n/a	n/a	550.3122967999661	551.2278274999699	2019-12-24 19:08:09.230414	4.62869567949253	0.914422989209479	4.6646748154274	4.5742125402809	0.0359791359348716	4.6646748154274	-4.62869567949253	4.6646748154274	0.914422989209479	4.6646748154274	0.0359791359348716	1.85620332122007	2.7004642993547034	1.0143456175289183	4.598038140672891	3.8893526312657944	0.943984560087635	4.598038140672891	1.9049814418336586	4.121243500057614	1.4207792007029123	3.782996488831258	1.82938726937055	2	missed	0.0
13.636425100034103	7.559645100031048	nogo_punish	1.0	13.664256100077182	16.200184800080024	18.73605970002245	2.5359287000028417	14.671609100070782	17.71604860003572	19.738708800054155	1.5285757000092417	1.020011099986732	1.4851924000540748	n/a	1.0	n/a	1	0	63	1	nogo_punish	1	-1	0	0	0	1	0	n/a	n/a	0	1.0	1.0	537.5977198999608	551.261976000038	552.2693290000316	553.7979047000408	555.3137684999965	556.3337795999832	n/a	n/a	557.336428700015	558.821621100069	2019-12-24 19:08:09.230414	4.74936270523806	-4.74715081447283	-0.715558397575909	-0.906454503757994	-5.46492110281396	-0.715558397575909	-4.74936270523806	-0.715558397575909	-4.74715081447283	-0.715558397575909	-5.46492110281396	0.715558397575909	2.821131325100233	-4.647228186153391	-0.7821950723304181	-1.5913144127730998	-4.556915678661197	-0.7821950723304181	0.7643365181894975	-1.2589897129456955	-4.080121038045919	-1.5972367241720513	-3.832186534311759	2	missed	0.0
21.22994300001301	7.431466900045052	go_reward	0.143471400020644	21.257774000056088	23.78982230008114	26.33598160010297	2.5320483000250533	22.274518400081433	25.311740200035274	27.335890000103973	1.515303899999708	1.0242414000676945	1.3533508999971673	n/a	1.0	n/a	1	0	64	4	go_reward	1	1	0	1	1	1	0	n/a	n/a	1	0.143471400020644	1.0	537.5977198999608	558.8554939000169	559.8722383000422	561.3875422000419	562.9094600999961	563.9337015000638	n/a	n/a	564.9336099000648	566.2869608000619	2019-12-24 19:08:09.230414	1.72267642395855	2.59733383416437	0.0	2.59733383416437	1.72267642395855	0.0	-1.72267642395855	2.59733383416437	0.0	1.72267642395855	0.0	3.9235443024831	-0.20555495617927688	2.6972564624838093	-0.06663667475450913	1.9124739251492642	2.6306818481113132	-0.06663667475450913	3.9723224230966885	1.1792451085887636	1.3848000647680407	1.7156555075682276	0.914964280161071	2	missed	0.0
28.70010480005294	5.978602599934675	go_reward	1.0	28.72793580009602	30.396182000054978	32.922272700001486	1.6682461999589577	29.73965580004733	31.898914800025523	33.93147900002077	0.6565262000076473	1.023357899975963	0.7750594000099227	n/a	1.0	n/a	1	0	65	4	go_reward	0	0	1	1	0	0	0	n/a	n/a	1	1.0	1.0	537.5977198999608	566.3256557000568	567.3373757000081	567.9939019000158	569.4966346999863	570.5199925999623	n/a	n/a	571.5291988999816	572.3042582999915	2019-12-24 19:08:09.230414	-2.90525933842531	3.7855757085117	0.0	3.7855757085117	2.90525933842531	0.0	2.90525933842531	0.0	3.7855757085117	0.0	2.90525933842531	6.52087813664747	-4.833490718563137	3.8854983368311395	-0.06663667475450913	3.1007157994965944	3.8132647625780733	-0.06663667475450913	6.569656257261059	-0.5434313153697864	4.290059403193351	-0.8816783265961423	4.700539988672771	2	missed	0.0
34.71161939995363	7.313197000068612	nogo_punish	1.0	34.73945039999671	37.56037439999636	40.077014000038616	2.82092399999965	35.732341000111774	39.07556160003878	41.090852400055155	1.828033399884589	1.0014523999998346	0.96179500001017	n/a	1.0	n/a	1	0	66	1	nogo_punish	1	-1	0	0	0	1	0	n/a	n/a	0	1.0	1.0	537.5977198999608	572.3371702999575	573.3300609000726	575.1580942999572	576.6732814999996	577.6747338999994	n/a	n/a	578.688572300016	579.6503673000261	2019-12-24 19:08:09.230414	4.94508602546137	-4.74715081447283	-0.528659263269373	-0.674007698946009	-5.47374528873074	-0.528659263269373	-4.94508602546137	-0.528659263269373	-4.74715081447283	-0.528659263269373	-5.47374528873074	0.528659263269373	3.016854645323543	-4.647228186153391	-0.595295938023882	-1.3588676079611148	-4.565739864577976	-0.595295938023882	0.5774373838829615	-1.0720905786391595	-4.088945223962699	-1.4103375898655153	-3.832186534311759	2	missed	0.0
42.059164299978875	6.7781717000762	nogo_punish	1.0	42.086995300021954	44.15056610002648	46.66526840010192	2.063570800004527	43.103679900057614	45.65541030000895	47.66861700010486	1.046886199968867	1.0098581000929698	1.1965499999932945	n/a	1.0	n/a	1	0	67	1	nogo_punish	1	-1	0	0	0	1	0	n/a	n/a	0	1.0	1.0	537.5977198999608	579.6847151999827	580.7013998000184	581.7482859999873	583.2531301999697	584.2629883000627	n/a	n/a	585.2663369000657	586.462886900059	2019-12-24 19:08:09.230414	5.08759152527848	-4.74715081447283	-0.39338824101398	-0.504637438581954	-5.48097976629246	-0.39338824101398	-5.08759152527848	-0.39338824101398	-4.74715081447283	-0.39338824101398	-5.48097976629246	0.39338824101398	3.159360145140653	-4.647228186153391	-0.46002491576848914	-1.1894973475970598	-4.5729743421396964	-0.46002491576848914	0.44216636162756856	-0.9368195563837665	-4.096179701524419	-1.2750665676101223	-3.832186534311759	2	missed	0.0
48.87863309995737	7.606791500002146	nogo_reward	1.0	48.90646410000045	51.61557200003881	54.154962700093165	2.7091079000383615	49.9056987001095	53.13109450007323	55.15610140003264	1.7098732999293134	1.0238682000199333	1.3571541999699548	n/a	1.0	n/a	1	0	68	3	nogo_reward	1	0	1	0	0	1	0	n/a	n/a	1	1.0	1.0	537.5977198999608	586.5041839999612	587.5034186000703	589.2132918999996	590.728814400034	591.752682600054	n/a	n/a	592.7538212999934	594.1109754999634	2019-12-24 19:08:09.230414	5.1541486596633	0.914422989209479	5.17429739937915	5.1152010092092	0.0201487397158515	5.17429739937915	-5.1541486596633	5.17429739937915	0.914422989209479	5.17429739937915	0.0201487397158515	1.3465807372683196	3.2259172795254734	1.0143456175289183	5.107660724624641	4.430341100194094	0.9281541638686149	5.107660724624641	1.3953588578819083	4.630866084009364	1.4049488044838923	4.292619072783008	1.82938726937055	2	missed	0.0
56.519937000004575	6.132526200031862	nogo_punish	1.0	56.547768000047654	58.126081700087525	60.643308000057004	1.578313700039871	57.56394900009036	59.641185800079256	61.65546430007089	0.5621326999971643	1.002122199977748	1.0248299000086263	n/a	1.0	n/a	1	0	69	1	nogo_punish	1	-1	0	0	0	1	1	n/a	n/a	0	1.0	1.0	537.5977198999608	594.1454879000084	595.1616689000512	595.7238016000483	597.23890570004	598.2410279000178	n/a	n/a	599.2531842000317	600.2780141000403	2019-12-24 19:08:09.230414	5.19214929505688	-4.74715081447283	-0.294687362452628	-0.380261161079847	-5.48683665750951	-0.294687362452628	-5.19214929505688	-0.294687362452628	-4.74715081447283	-0.294687362452628	-5.48683665750951	0.294687362452628	3.263917914919053	-4.647228186153391	-0.3613240372071371	-1.065121070094953	-4.5788312333567465	-0.3613240372071371	0.34346548306621655	-0.8381186778224143	-4.102036592741469	-1.1763656890487704	-3.832186534311759	2	missed	0.0
62.68551360000856	7.151968999998644	nogo_punish	1.0	62.71334460005164	65.32001040002797	67.85625310009345	2.6066657999763265	63.70574630005285	66.83684430003632	68.86591250007041	1.6142640999751166	1.0194088000571355	0.9994010999798775	n/a	1.0	n/a	1	0	70	1	nogo_punish	1	-1	0	0	0	1	0	n/a	n/a	0	1.0	1.0	537.5977198999608	600.3110645000124	601.3034662000136	602.9177302999888	604.4345641999971	605.4539730000542	n/a	n/a	606.4636324000312	607.4630335000111	2019-12-24 19:08:09.230414	5.26941158922596	-4.74715081447283	-0.222129406959956	-0.288265421793522	-5.49154099618592	-0.222129406959956	-5.26941158922596	-0.222129406959956	-4.74715081447283	-0.222129406959956	-5.49154099618592	0.222129406959956	3.3411802090881335	-4.647228186153391	-0.28876608171446516	-0.9731253308086278	-4.583535572033156	-0.28876608171446516	0.2709075275735446	-0.7655607223297424	-4.106740931417879	-1.1038077335560983	-3.832186534311759	2	missed	0.0
69.87577070004772	6.809814799926244	go_reward	0.0078577999956905	69.9036017000908	71.75944110006094	74.31385880010203	1.8558393999701366	70.91634650004562	73.29022590001114	75.31261660007294	0.8430946000153199	1.0236329000908881	1.4007998999441043	n/a	1.0	n/a	1	0	71	4	go_reward	1	1	0	1	1	1	0	n/a	n/a	1	0.0078577999956905	1.0	537.5977198999608	607.5013216000516	608.5140664000064	609.3571610000217	610.8879457999719	611.9115787000628	n/a	n/a	612.9103365000337	614.3111363999778	2019-12-24 19:08:09.230414	0.975893754243157	3.7855757085117	1.91795576652195	4.58875033211022	2.89384952076511	1.91795576652195	-0.975893754243157	3.7855757085117	1.91795576652195	2.89384952076511	1.91795576652195	2.73530242813577	-0.9523376258946697	3.8854983368311395	1.851319091767441	3.9038904230951146	3.8018549449178733	1.851319091767441	2.7840805487493583	2.3504182053953238	3.302755831289991	2.9038973819155576	2.832920046683021	2	missed	0.0
76.72618800005876	6.266475199954584	nogo_reward	1.0	76.75401900010183	78.09194390010089	80.611580900033	1.3379248999990523	77.76455250009894	79.60750180005562	81.62135920010041	0.3273914000019431	1.004079099977389	1.3991349999560043	n/a	1.0	n/a	1	0	72	3	nogo_reward	1	0	1	0	0	1	0	n/a	n/a	1	1.0	1.0	537.5977198999608	614.3517389000626	615.3622724000597	615.6896638000617	617.2052217000164	618.2093007999938	n/a	n/a	619.2190791000612	620.6182141000172	2019-12-24 19:08:09.230414	5.52838757743368	0.914422989209479	5.53463787618364	5.49583286021486	0.0062502987499642	5.53463787618364	-5.52838757743368	5.53463787618364	0.914422989209479	5.53463787618364	0.0062502987499642	0.9862402604638296	3.600156197295853	1.0143456175289183	5.468001201429131	4.810972951199754	0.9142557229027276	5.468001201429131	1.0350183810774183	4.991206560813854	1.391050363518005	4.652959549587498	1.82938726937055	2	missed	0.0
83.02936449996196	6.614602799993008	nogo_reward	1.0	83.05719550000504	84.91412450000644	87.44285900006071	1.8569290000014007	84.07145700010005	86.41965020005591	88.45258160005324	0.8426674999063835	1.0232088000047952	1.219216699944809	n/a	1.0	n/a	1	0	73	3	nogo_reward	1	0	1	0	0	1	0	n/a	n/a	1	1.0	1.0	537.5977198999608	620.6549153999658	621.6691769000608	622.5118443999672	624.0173701000167	625.0405789000215	n/a	n/a	626.050301500014	627.2695181999588	2019-12-24 19:08:09.230414	5.79771729726456	0.914422989209479	5.7923064520854	5.76674263304436	-0.0054108451791643	5.7923064520854	-5.79771729726456	5.7923064520854	0.914422989209479	5.7923064520854	-0.0054108451791643	0.7285716845620698	3.8694859171267333	1.0143456175289183	5.725669777330891	5.081882724029254	0.9025945789735991	5.725669777330891	0.7773498051756583	5.248875136715614	1.3793892195888764	4.910628125489258	1.82938726937055	2	missed	0.0
89.68093030003365	6.284675000002608	nogo_punish	1.0	89.70876130007673	91.519199600094	94.04375430010259	1.8104383000172675	90.70547060004901	93.02376130002085	95.05644290009513	0.8137290000449866	1.0199930000817403	0.9369933999842033	n/a	1.0	n/a	1	0	74	1	nogo_punish	1	-1	0	0	0	1	0	n/a	n/a	0	1.0	1.0	537.5977198999608	627.3064812000375	628.3031905000098	629.1169195000548	630.6214811999816	631.6414742000634	n/a	n/a	632.6541628000559	633.5911562000401	2019-12-24 19:08:09.230414	5.32688293184391	-4.74715081447283	-0.168418217074332	-0.219762776243798	-5.49530114891825	-0.168418217074332	-5.32688293184391	-0.168418217074332	-4.74715081447283	-0.168418217074332	-5.49530114891825	0.168418217074332	3.398651551706083	-4.647228186153391	-0.23505489182884112	-0.9046226852589039	-4.587295724765486	-0.23505489182884112	0.21719633768792054	-0.7118495324441184	-4.110501084150209	-1.0500965436704743	-3.832186534311759	2	missed	0.0
96.00183960003778	6.356653299997561	go_punish	0.0687100000213831	96.02967060008086	97.39276150008664	99.93408600008115	1.3630909000057727	97.03396220004652	98.91424270009156	100.93975350004621	0.3587993000401184	1.0198432999895886	1.4465704000322148	n/a	1.0	n/a	1	0	75	2	go_punish	1	0	-1	1	1	1	0	n/a	n/a	0	0.0687100000213831	1.0	537.5977198999608	633.6273905000417	634.6316821000073	634.9904814000474	636.5119626000524	637.531805900042	n/a	n/a	638.537473400007	639.9840438000392	2019-12-24 19:08:09.230414	0.84283057031321	-1.17716549721835	-2.74987752057992	-0.948877969971361	-1.90704695026671	-2.74987752057992	-0.84283057031321	-1.17716549721835	-2.74987752057992	-1.90704695026671	-2.74987752057992	1.17716549721835	-1.0854008098246168	-1.0772428688989109	-2.8165141953344293	-1.6337378789864667	-0.9990415261139466	-2.8165141953344293	1.2259436178319387	-2.4504782656364963	-1.3650774558118794	-2.0588438238144926	-1.834913240418849	2	missed	0.0
102.3926735999994	6.430762300034985	nogo_punish	1.0	102.42050460004248	104.12420020007994	106.64160410000477	1.703695600037463	103.43698340002447	105.62962250004057	107.6543960000854	0.6872168000554666	1.0119815999642015	1.1968708999920636	n/a	1.0	n/a	1	0	76	1	nogo_punish	1	-1	0	0	0	1	1	n/a	n/a	0	1.0	1.0	537.5977198999608	640.0182245000033	641.0347032999853	641.7219201000407	643.2273424000014	644.2393239999656	n/a	n/a	645.2521159000462	646.4489868000383	2019-12-24 19:08:09.230414	5.36989809045835	-4.74715081447283	-0.128399847000755	-0.168433439319526	-5.4982979374591	-0.128399847000755	-5.36989809045835	-0.128399847000755	-4.74715081447283	-0.128399847000755	-5.4982979374591	0.128399847000755	3.4416667103205234	-4.647228186153391	-0.19503652175526412	-0.8532933483346319	-4.590292513306336	-0.19503652175526412	0.17717796761434354	-0.6718311623705414	-4.113497872691059	-1.0100781735968973	-3.832186534311759	2	missed	0.0
108.86256419995334	6.442868600017391	go_reward	0.5665058000013232	108.89039519999642	110.32590630010236	112.85660610010382	1.4355111001059413	109.8980057000881	111.8423432999989	113.86597880010959	0.42790060001425445	1.014262800104916	1.4672849999042228	n/a	1.0	n/a	1	0	77	4	go_reward	1	1	0	1	1	1	0	n/a	n/a	1	0.5665058000013232	1.0	537.5977198999608	646.4881150999572	647.4957256000489	647.9236262000632	649.4400631999597	650.4543260000646	n/a	n/a	651.4636987000704	652.9309836999746	2019-12-24 19:08:09.230414	1.7666118749667	4.58875033211022	1.91795576652195	5.14025883330437	3.68456764148865	1.91795576652195	-1.7666118749667	4.58875033211022	1.91795576652195	3.68456764148865	1.91795576652195	1.9321278045372496	-0.1616195051711269	4.68867296042966	1.851319091767441	4.4553989242892635	4.592573065641414	1.851319091767441	1.9809059251508383	3.141136326118864	3.302755831289991	3.7070720055140782	2.832920046683021	2	missed	0.0
115.33714930003043	7.117493800004013	nogo_punish	1.0	115.36498030007351	117.72886100003961	120.25882060010917	2.363880699966103	116.36975880002137	119.24396890006028	121.27065040008165	1.359102200018242	1.0148517000488937	1.2118236999958754	n/a	1.0	n/a	1	0	78	1	nogo_punish	0	0	-1	0	0	1	1	n/a	n/a	-1	1.0	1.0	537.5977198999608	652.9627002000343	653.9674786999822	655.3265809000004	656.8416888000211	657.85654050007	n/a	n/a	658.8683703000424	660.0801940000383	2019-12-24 19:08:09.230414	5.40228094755711	-4.74715081447283	-0.0984017659355063	-0.129745476622011	-5.50068271349262	-0.0984017659355063	-5.40228094755711	-0.0984017659355063	-4.74715081447283	-0.0984017659355063	-5.50068271349262	-8.026136266240544	3.4740495674192835	-4.647228186153391	-0.16503844069001544	-0.8146053856371168	-4.592677289339856	-0.16503844069001544	-7.977358145626955	-0.6418330813052927	-4.115882648724579	-0.9800800925316486	-3.832186534311759	2	missed	0.0
122.48748929996509	6.321058200090192	nogo_punish	1.0	122.51532030000817	123.97082899999805	126.49803120002616	1.4555086999898776	123.53436710010283	125.47591690008994	127.51001440000255	0.436461899895221	1.02211429993622	1.326364100095816	n/a	1.0	n/a	1	0	79	1	nogo_punish	1	-1	0	0	0	1	0	n/a	n/a	0	1.0	1.0	537.5977198999608	660.113040199969	661.1320870000636	661.5685488999588	663.0736368000507	664.095751099987	n/a	n/a	665.1077342999633	666.4340984000592	2019-12-24 19:08:09.230414	3.08154628011623	-4.74715081447283	-2.40076338497558	-2.42540110144	-5.4823096650918	-2.40076338497558	-3.08154628011623	-2.40076338497558	-4.74715081447283	-2.40076338497558	-5.4823096650918	2.40076338497558	1.1533148999784033	-4.647228186153391	-2.467400059730089	-3.1102610104551056	-4.574304240939036	-2.467400059730089	2.4495415055891683	-2.944194700345366	-4.097509600323759	-3.282441711571722	-3.832186534311759	2	missed	0.0
128.8460894000018	7.107912400038913	go_reward	0.2142151999287307	128.87392040004488	130.927246700041	133.48209860001225	2.0533262999961153	129.88704070006497	132.45813440007623	134.49148770002648	1.040205999976024	1.0239641999360174	1.4903451000573114	n/a	1.0	n/a	1	0	80	4	go_reward	1	1	0	1	1	1	0	n/a	n/a	1	0.2142151999287307	1.0	537.5977198999608	666.4716403000057	667.4847606000258	668.5249666000018	670.055854300037	671.079818499973	n/a	n/a	672.0892075999873	673.5795527000446	2019-12-24 19:08:09.230414	2.30656816498214	5.14025883330437	1.91795576652195	5.5241544977766	4.22452393150409	1.91795576652195	-2.30656816498214	5.14025883330437	1.91795576652195	4.22452393150409	1.91795576652195	1.3806193033431002	0.3783367848443131	5.240181461623809	1.851319091767441	4.8392945887614935	5.132529355656854	1.851319091767441	1.429397423956689	3.681092616134304	3.302755831289991	4.258580506708228	2.832920046683021	2	missed	0.0
135.99399850005284	6.5959491999819875	nogo_reward	1.0	136.02182950009592	137.59479870006908	140.12632230005693	1.5729691999731585	137.03241760004312	139.11024450010154	141.14005380007438	0.5623811000259593	1.016077799955383	1.4777249000035226	n/a	1.0	n/a	1	0	81	3	nogo_reward	1	0	1	0	0	1	0	n/a	n/a	1	1.0	1.0	537.5977198999608	673.6195494000567	674.6301375000039	675.1925186000299	676.7079644000623	677.7240422000177	n/a	n/a	678.7377737000352	680.2154986000387	2019-12-24 19:08:09.230414	5.9933627736932	0.914422989209479	5.97841271087919	5.9615504374674	-0.0149500628140131	5.97841271087919	-5.9933627736932	5.97841271087919	0.914422989209479	5.97841271087919	-0.0149500628140131	0.5424654257682802	4.065131393555372	1.0143456175289183	5.911776036124681	5.276690528452294	0.8930553613387503	5.911776036124681	0.5912435463818687	5.4349813955094035	1.3698500019540276	5.096734384283048	1.82938726937055	2	missed	0.0
142.62946500000544	5.784895200049505	nogo_reward	1.0	142.65729600004852	144.0035091000609	146.51782840001397	1.3462131000123918	143.6685457000276	145.49632200005	147.52707930002362	0.3349634000333026	1.0215063999639824	0.9151119000744075	n/a	1.0	n/a	1	0	82	3	nogo_reward	1	0	1	0	0	1	0	n/a	n/a	1	1.0	1.0	537.5977198999608	680.2550159000093	681.2662655999884	681.6012290000217	683.0940419000108	684.1155482999748	n/a	n/a	685.1247991999844	686.0399111000588	2019-12-24 19:08:09.230414	6.1366893455086	0.914422989209479	6.11405165442939	6.10293931458791	-0.0226376910792129	6.11405165442939	-6.1366893455086	6.11405165442939	0.914422989209479	6.11405165442939	-0.0226376910792129	0.40682648221808027	4.208457965370773	1.0143456175289183	6.047414979674881	5.418079405572803	0.8853677330735505	6.047414979674881	0.4556046028316688	5.570620339059603	1.3621623736888278	5.232373327833248	1.82938726937055	2	missed	0.0
148.45375039998908	6.611950600054115	nogo_punish	1.0	148.48158140003216	150.28043310006615	152.80567850009538	1.7988517000339925	149.49266190000344	151.7859361000592	153.81872840004507	0.7877712000627071	1.0197424000361934	1.2748036000411958	n/a	1.0	n/a	1	0	83	1	nogo_punish	1	-1	0	0	0	1	0	n/a	n/a	0	1.0	1.0	537.5977198999608	686.079301299993	687.0903817999642	687.8781530000269	689.38365600002	690.4033984000562	n/a	n/a	691.4164483000059	692.6912519000471	2019-12-24 19:08:09.230414	3.80456425664708	-4.74715081447283	-1.67302849631913	-1.69246905962438	-5.47759275296621	-1.67302849631913	-3.80456425664708	-1.67302849631913	-4.74715081447283	-1.67302849631913	-5.47759275296621	1.67302849631913	1.8763328765092533	-4.647228186153391	-1.739665171073639	-2.377328968639486	-4.569587328813446	-1.739665171073639	1.7218066169327186	-2.2164598116889165	-4.092792688198169	-2.5547068229152723	-3.832186534311759	2	missed	0.0
155.10202650004067	7.456031100009568	go_punish	0.2508320000488311	155.12985750008374	157.5560086000478	160.09758440009318	2.426151099964045	156.13496040005703	159.0884050000459	161.10217110009398	1.4210481999907643	1.0091794000472873	1.4837174999993294	n/a	1.0	n/a	1	0	84	2	go_punish	1	0	-1	1	1	1	0	n/a	n/a	0	0.2508320000488311	1.0	537.5977198999608	692.7275774000445	693.7326803000178	695.1537285000086	696.6861249000067	697.695304300054	n/a	n/a	698.6998910000548	700.1836085000541	2019-12-24 19:08:09.230414	1.17484758281709	-0.839811420969249	-2.74987752057992	-0.688391659355103	-1.57502993776283	-2.74987752057992	-1.17484758281709	-0.839811420969249	-2.74987752057992	-1.57502993776283	-2.74987752057992	0.839811420969249	-0.7533837973207369	-0.7398887926498097	-2.8165141953344293	-1.373251568370209	-0.6670245136100666	-2.8165141953344293	0.8885895415828375	-2.1184612531326166	-1.3650774558118794	-1.7214897475653914	-1.834913240418849	2	missed	0.0
162.59748490003403	6.361726999981329	go_punish	0.31755689997226	162.6253159000771	164.37692599999718	166.9181067000609	1.7516100999200717	163.64261480001733	165.8979987000348	167.93105220003054	0.7343111999798566	1.0201080000260845	1.0559907000279054	n/a	1.0	n/a	1	0	85	2	go_punish	1	0	-1	1	1	1	0	n/a	n/a	0	0.31755689997226	1.0	537.5977198999608	700.2230358000379	701.2403346999781	701.974645899958	703.4957185999956	704.5158266000217	n/a	n/a	705.5287720999913	706.5847628000192	2019-12-24 19:08:09.230414	1.40445659311878	-0.605258751767198	-2.74987752057992	-0.503940333338539	-1.34542092746114	-2.74987752057992	-1.40445659311878	-0.605258751767198	-2.74987752057992	-1.34542092746114	-2.74987752057992	0.605258751767198	-0.5237747870190468	-0.5053361234477587	-2.8165141953344293	-1.1888002423536448	-0.43741550330837653	-2.8165141953344293	0.6540368723807866	-1.8888522428309265	-1.3650774558118794	-1.4869370783633404	-1.834913240418849	2	missed	0.0
169.00294699997175	7.379934100084938	nogo_reward	1.0	169.03077800001483	171.45618770003784	173.9954001000151	2.4254097000230104	170.02721420000307	172.9716118000215	175.00459980010055	1.4289735000347719	1.0237882999936119	1.4061122999992222	n/a	1.0	n/a	1	0	86	3	nogo_reward	1	0	1	0	0	1	0	n/a	n/a	1	1.0	1.0	537.5977198999608	706.6284978999756	707.6249340999639	709.0539075999986	710.5693316999823	711.5931199999759	n/a	n/a	712.6023197000613	714.0084320000606	2019-12-24 19:08:09.230414	6.24250345629183	0.914422989209479	6.21372580227188	6.20642842959989	-0.0287776540199456	6.21372580227188	-6.24250345629183	6.21372580227188	0.914422989209479	6.21372580227188	-0.0287776540199456	0.30715233437558975	4.314272076154003	1.0143456175289183	6.147089127517371	5.5215685205847835	0.8792277701328178	6.147089127517371	0.3559304549891783	5.670294486902094	1.3560224107480952	5.332047475675738	1.82938726937055	2	missed	0.0
176.41748399997596	6.451490800012834	go_reward	0.0673032000195235	176.44531500001904	178.43632020009682	180.95665270008612	1.9910052000777796	177.46131700009573	179.9515173000982	181.96625000005588	0.9750032000010833	1.0051353999879211	0.9305557999759912	n/a	1.0	n/a	1	0	87	4	go_reward	1	1	0	1	1	1	0	n/a	n/a	1	0.0673032000195235	1.0	537.5977198999608	714.0430348999798	715.0590369000565	716.0340401000576	717.549237200059	718.5543726000469	n/a	n/a	719.5639699000167	720.4945256999927	2019-12-24 19:08:09.230414	2.68049254706896	5.5241544977766	1.91795576652195	5.79460107514373	4.59844831359091	1.91795576652195	-2.68049254706896	5.5241544977766	1.91795576652195	4.59844831359091	1.91795576652195	0.9967236388708702	0.7522611669311332	5.624077126096039	1.851319091767441	5.109741166128623	5.506453737743674	1.851319091767441	1.045501759484459	4.055016998221124	3.302755831289991	4.642476171180458	2.832920046683021	2	missed	0.0
182.91038230003323	6.5681479999329895	nogo_reward	1.0	182.9382133000763	184.49443030008115	187.0225074000191	1.5562170000048354	183.94776040001307	185.99919300002512	188.0319390000077	0.5466699000680819	1.0233143999939784	1.4744223000016063	n/a	1.0	n/a	1	0	88	3	nogo_reward	1	0	1	0	0	1	1	n/a	n/a	1	1.0	1.0	537.5977198999608	720.5359332000371	721.5454802999739	722.0921502000419	723.5969128999859	724.6202272999799	n/a	n/a	725.6296588999685	727.1040811999701	2019-12-24 19:08:09.230414	6.32118267718124	0.914422989209479	6.2875272762351	6.28276756680464	-0.0336554009461319	6.2875272762351	-6.32118267718124	6.2875272762351	0.914422989209479	6.2875272762351	-0.0336554009461319	0.23335086041236952	4.392951297043414	1.0143456175289183	6.220890601480591	5.597907657789534	0.8743500232066315	6.220890601480591	0.28212898102595807	5.744095960865314	1.351144663821909	5.405848949638958	1.82938726937055	2	missed	0.0
189.51787560002413	5.805346400011331	go_punish	0.7303702000062913	189.5457066000672	190.83198920008726	193.38358540006448	1.2862826000200585	190.5649778000079	192.3625980000943	194.3888874000404	0.26701140007935464	1.0209873999701813	0.9621656000381336	n/a	1.0	n/a	1	0	89	2	go_punish	1	0	-1	1	1	1	0	n/a	n/a	0	0.7303702000062913	1.0	537.5977198999608	727.143426500028	728.1626976999687	728.4297091000481	729.9603179000551	730.9813053000253	n/a	n/a	731.9866073000012	732.9487729000393	2019-12-24 19:08:09.230414	1.56517636656518	-0.440245060647425	-2.74987752057992	-0.371962976036552	-1.18470115401474	-2.74987752057992	-1.56517636656518	-0.440245060647425	-2.74987752057992	-1.18470115401474	-2.74987752057992	0.440245060647425	-0.3630550135726467	-0.3403224323279857	-2.8165141953344293	-1.056822885051658	-0.27669572986197666	-2.8165141953344293	0.4890231812610136	-1.7281324693845264	-1.3650774558118794	-1.3219233872435674	-1.834913240418849	2	missed	0.0
195.3578440999845	7.223406800068915	go_reward	0.0399568000575527	195.38567510002758	198.16358140006196	200.71569490002003	2.777906300034374	196.39224630000535	199.6942851000931	201.72515030007344	1.7713351000566036	1.0214097999269143	0.883931600023061	n/a	1.0	n/a	1	0	90	4	go_reward	1	1	0	1	1	1	0	n/a	n/a	1	0.0399568000575527	1.0	537.5977198999608	732.9833949999884	733.9899661999661	735.7613013000228	737.2920050000539	738.3134147999808	n/a	n/a	739.3228702000342	740.2068018000573	2019-12-24 19:08:09.230414	2.94265216692433	5.79460107514373	1.91795576652195	5.98717376751877	4.86060793344628	1.91795576652195	-2.94265216692433	5.79460107514373	1.91795576652195	4.86060793344628	1.91795576652195	0.7262770615037404	1.0144207867865034	5.894523703463169	1.851319091767441	5.3023138585036635	5.768613357599044	1.851319091767441	0.7750551821173289	4.317176618076494	3.302755831289991	4.9129227485475875	2.832920046683021	2	missed	0.0
202.6151547000045	6.678233899991028	nogo_punish	1.0	202.64298570004757	204.58196770003997	207.10695250006393	1.938981999992393	203.65963870007545	206.0868224001024	208.10852000000887	0.9223289999645203	1.0201300999615341	1.2126996000297368	n/a	1.0	n/a	1	0	91	1	nogo_punish	1	-1	0	0	0	1	0	n/a	n/a	0	1.0	1.0	537.5977198999608	740.2407056000084	741.2573586000362	742.1796876000008	743.6845423000632	744.7046724000247	n/a	n/a	745.7062398999697	746.9189394999994	2019-12-24 19:08:09.230414	4.29778923196354	-4.74715081447283	-1.1810746073815	-1.19647084904443	-5.47886383934504	-1.1810746073815	-4.29778923196354	-1.1810746073815	-4.74715081447283	-1.1810746073815	-5.47886383934504	1.1810746073815	2.369557851825713	-4.647228186153391	-1.247711282136009	-1.8813307580595358	-4.570858415192276	-1.247711282136009	1.2298527279950886	-1.7245059227512862	-4.094063774576999	-2.0627529339776425	-3.832186534311759	2	missed	0.0
209.33033160003833	7.329428200027905	nogo_punish	1.0	209.3581626000814	212.3113994000014	214.85042350005824	2.953236799919978	210.35280710004736	213.82675900007598	215.85038240009453	1.9585922999540344	1.0236644999822602	0.8372084000147879	n/a	1.0	n/a	1	0	92	1	nogo_punish	0	0	-1	0	0	1	0	n/a	n/a	-1	1.0	1.0	537.5977198999608	746.9558825000422	747.9505270000082	749.9091192999622	751.4244789000368	752.448143400019	n/a	n/a	753.4481023000553	754.2853107000701	2019-12-24 19:08:09.230414	4.63909008482829	-4.74715081447283	-0.843370903781675	-0.855607527326947	-5.48246098860997	-0.843370903781675	-4.63909008482829	-0.843370903781675	-4.74715081447283	-0.843370903781675	-5.48246098860997	-7.281167128394374	2.710858704690463	-4.647228186153391	-0.9100075785361841	-1.5404674363420527	-4.574455564457207	-0.9100075785361841	-7.232389007780785	-1.3868022191514613	-4.0976609238419295	-1.7250492303778173	-3.832186534311759	2	missed	0.0
216.69559919997118	7.451420200057328	nogo_punish	1.0	216.72343020001426	219.50323270005174	222.03489840007387	2.7798025000374764	217.73819679999724	221.01375740009826	223.04653730010614	1.7650359000544995	1.0211409999756142	1.1283130999654531	n/a	1.0	n/a	1	0	93	1	nogo_punish	1	-1	0	0	0	1	1	n/a	n/a	0	1.0	1.0	537.5977198999608	754.3211500999751	755.335916699958	757.1009526000125	758.611477300059	759.6326183000347	n/a	n/a	760.6442572000669	761.7725703000324	2019-12-24 19:08:09.230414	2.53299393836882	-4.74715081447283	-2.93340294988792	-2.94316176051523	-5.46639688825674	-2.93340294988792	-2.53299393836882	-2.93340294988792	-4.74715081447283	-2.93340294988792	-5.46639688825674	2.93340294988792	0.604762558230993	-4.647228186153391	-3.000039624642429	-3.6280216695303356	-4.558391464103976	-3.000039624642429	2.9821810705015084	-3.4768342652577062	-4.081596823488699	-3.8150812764840625	-3.832186534311759	2	missed	0.0
224.18243330006953	6.956852299976163	go_punish	0.090504000079818	224.2102643001126	226.18503030005377	228.74124620005023	1.9747659999411553	225.2254016000079	227.72120730008464	229.75420620001387	0.9596287000458688	1.0200388999655843	1.4129104000749066	n/a	1.0	n/a	1	0	94	2	go_punish	1	0	-1	1	1	1	0	n/a	n/a	0	0.090504000079818	1.0	537.5977198999608	761.8079842000734	762.8231214999687	763.7827502000146	765.3189272000454	766.338966100011	n/a	n/a	767.3519260999747	768.7648365000496	2019-12-24 19:08:09.230414	1.6789011983821	-0.32291946863223	-2.74987752057992	-0.276637575500772	-1.07097632219782	-2.74987752057992	-1.6789011983821	-0.32291946863223	-2.74987752057992	-1.07097632219782	-2.74987752057992	0.32291946863223	-0.24933018175572674	-0.22299684031279066	-2.8165141953344293	-0.9614974845158779	-0.1629708980450565	-2.8165141953344293	0.3716975892458185	-1.6144076375676062	-1.3650774558118794	-1.2045977952283722	-1.834913240418849	2	missed	0.0
231.17669190000743	6.295051499968395	go_reward	0.0598520999774336	231.2045229000505	232.68670630000997	235.23711170000024	1.4821833999594674	232.21785850008018	234.2172163000796	236.2558857999975	0.4688477999297902	1.0198953999206424	1.2436886000214145	n/a	1.0	n/a	1	0	95	4	go_reward	0	0	1	1	1	1	0	n/a	n/a	0	0.0598520999774336	1.0	537.5977198999608	768.8022428000113	769.815578400041	770.2844261999708	771.8149362000404	772.834831599961	n/a	n/a	773.8536056999583	775.0972942999797	2019-12-24 19:08:09.230414	3.1284862960239	5.98717376751877	1.91795576652195	6.12562588115707	5.04644206254585	1.91795576652195	-3.1284862960239	5.98717376751877	1.91795576652195	5.04644206254585	1.91795576652195	-5.98717376751877	1.2002549158860734	6.087096395838209	1.851319091767441	5.440765972141964	5.954447486698614	1.851319091767441	-5.938395646905181	4.503010747176064	3.302755831289991	5.105495440922628	2.832920046683021	2	missed	0.0
237.5079314999748	6.652208300074562	go_reward	1.0	237.53576250001788	239.2066750000231	241.72580800007563	1.6709125000052154	238.55022230010945	240.7007041000761	242.73483830003534	0.6564526999136433	1.0251038999995217	1.4531325000571087	n/a	1.0	n/a	1	0	96	4	go_reward	0	0	1	1	0	0	0	n/a	n/a	1	1.0	1.0	537.5977198999608	775.1334823999787	776.1479422000702	776.8043948999839	778.2984240000369	779.3235279000364	n/a	n/a	780.3325581999961	781.7856907000532	2019-12-24 19:08:09.230414	-1.36915846005467	4.20767011463512	1.91795576652195	4.30809103022675	3.28711422657663	1.91795576652195	1.36915846005467	1.91795576652195	4.20767011463512	1.91795576652195	3.28711422657663	4.60292237012552	-3.297389840192497	4.30759274295456	1.851319091767441	3.6232311212116444	4.195119650729394	1.851319091767441	4.651700490739109	1.3745244511521637	4.671914291344671	1.0362774399258077	5.122634394796191	2	missed	0.0
244.20029960002284	6.90174590004608	nogo_reward	1.0	244.22813060006592	246.67272400006186	249.21177819999866	2.444593399995938	245.2291648000246	248.18848330003675	250.2227186000673	1.4435592000372708	1.0232948999619111	0.9071579000446945	n/a	1.0	n/a	1	0	97	3	nogo_reward	1	0	1	0	0	1	0	n/a	n/a	1	1.0	1.0	537.5977198999608	781.8258505000267	782.8268846999854	784.2704439000227	785.7862031999975	786.8094980999595	n/a	n/a	787.8204385000281	788.7275964000728	2019-12-24 19:08:09.230414	6.38007452402135	0.914422989209479	6.34255567314376	6.33948563245599	-0.0375188508775902	6.34255567314376	-6.38007452402135	6.34255567314376	0.914422989209479	6.34255567314376	-0.0375188508775902	0.17832246350370973	4.451843143883524	1.0143456175289183	6.275918998389251	5.654625723440883	0.8704865732751732	6.275918998389251	0.22710058411729828	5.799124357773974	1.3472812138904506	5.460877346547618	1.82938726937055	2	missed	0.0
251.1455393000506	5.996976399910636	nogo_reward	1.0	251.17337030009367	252.67988170008175	255.20825980009977	1.506511399988085	252.18042140000034	254.18482650001533	256.2082217000425	0.4994603000814095	1.0234333000844344	0.9621249999618158	n/a	1.0	n/a	1	0	98	3	nogo_reward	1	0	1	0	0	1	0	n/a	n/a	1	1.0	1.0	537.5977198999608	788.7710902000545	789.7781412999611	790.2776016000425	791.7825463999761	792.8059797000606	n/a	n/a	793.8059416000033	794.7680665999651	2019-12-24 19:08:09.230414	6.42442917145266	0.914422989209479	6.38385457313099	6.3819086629796	-0.0405745983216757	6.38385457313099	-6.42442917145266	6.38385457313099	0.914422989209479	6.38385457313099	-0.0405745983216757	0.13702356351647982	4.496197791314833	1.0143456175289183	6.317217898376481	5.697048753964494	0.8674308258310877	6.317217898376481	0.18580168413006837	5.840423257761204	1.344225466446365	5.502176246534848	1.82938726937055	2	missed	0.0
257.17942349996883	5.8801426000427455	go_reward	0.0123891000403091	257.2072545000119	258.7751073000254	261.30343020008877	1.5678528000134975	258.2214022000553	260.3030263000401	262.3124563000165	0.5537050999701023	1.0004039000486955	0.7749408000381663	n/a	1.0	n/a	1	0	99	4	go_reward	1	1	0	1	1	1	0	n/a	n/a	1	0.0123891000403091	1.0	537.5977198999608	794.8049743999727	795.8191221000161	796.3728271999862	797.9007462000009	798.9011501000496	n/a	n/a	799.9101761999773	800.6851170000155	2019-12-24 19:08:09.230414	0.0533788830713254	4.20767011463512	3.23285731036796	4.9845726639607	3.28623619343929	3.23285731036796	-0.0533788830713254	4.20767011463512	3.23285731036796	3.28623619343929	3.23285731036796	2.3132080220123497	-1.8748524970665015	4.30759274295456	3.166220635613451	4.299712754945594	4.194241617592054	3.166220635613451	2.361986142625938	2.742804878069504	4.617657375136001	3.325991788038978	4.1478215905290305	2	missed	0.0
263.0948451999575	6.365842300001532	go_reward	0.6559353999327868	263.12267620000057	264.7006839000387	267.2346531000221	1.5780077000381425	264.1379443000769	266.2215839000419	268.2450835000491	0.5627395999617875	1.0130691999802366	1.243434999953024	n/a	1.0	n/a	1	0	100	4	go_reward	1	1	0	1	1	1	0	n/a	n/a	1	0.6559353999327868	1.0	537.5977198999608	800.7203960999614	801.7356642000377	802.2984037999995	803.8193038000027	804.8323729999829	n/a	n/a	805.8428034000099	807.0862383999629	2019-12-24 19:08:09.230414	0.751695143113462	4.9111452529027	3.23285731036796	5.4391439913749	3.98455245348143	3.23285731036796	-0.751695143113462	4.9111452529027	3.23285731036796	3.98455245348143	3.23285731036796	1.60973288374477	-1.1765362370243648	5.011067881222139	3.166220635613451	4.754284082359794	4.892557877634194	3.166220635613451	1.6585110043583586	3.4411211381116438	4.617657375136001	4.029466926306558	4.1478215905290305	2	missed	0.0
269.50038490002044	5.892653099959716	go_punish	1.0	269.5282159000635	270.84711640002206	273.38692170009017	1.318900499958545	270.53002350009046	272.36333990003914	274.39628760004416	0.31709289993159473	1.0235818000510335	1.0245813999790698	n/a	1.0	n/a	1	0	101	2	go_punish	1	0	-1	1	0	0	0	n/a	n/a	-1	1.0	1.0	537.5977198999608	807.1259358000243	808.1277434000513	808.4448362999829	809.9610597999999	810.984641600051	n/a	n/a	811.994007500005	813.018588899984	2019-12-24 19:08:09.230414	-1.76016555406649	-0.23869783700285	-2.74987752057992	-0.207190651985117	-0.989711966513433	-2.74987752057992	1.76016555406649	-2.74987752057992	-0.23869783700285	-2.74987752057992	-0.989711966513433	-5.3746605115961295	-3.6883969342043166	-0.1387752086834107	-2.8165141953344293	-0.8920505610002228	-0.08170654236066954	-2.8165141953344293	-5.325882390982541	-3.2933088359497065	0.3950880982546078	-3.6315558471760623	0.676266443158221	2	missed	0.0
275.4332104000496	7.551697899936698	nogo_reward	1.0	275.46104140009265	278.2322847000323	280.76832600007765	2.7712432999396697	276.46771290001925	279.7486024000682	281.7691176000517	1.7645718000130728	1.0197236000094563	1.2436216999776661	n/a	1.0	n/a	1	0	102	3	nogo_reward	1	0	1	0	0	1	0	n/a	n/a	1	1.0	1.0	537.5977198999608	813.0587613000534	814.06543279998	815.8300045999931	817.346322300029	818.3660459000384	n/a	n/a	819.3668375000125	820.6104591999901	2019-12-24 19:08:09.230414	6.45802977309587	0.914422989209479	6.41503906900512	6.41383885201889	-0.0429907040907531	6.41503906900512	-6.45802977309587	6.41503906900512	0.914422989209479	6.41503906900512	-0.0429907040907531	0.10583906764234996	4.5297983929580425	1.0143456175289183	6.348402394250611	5.728978943003784	0.8650147200620103	6.348402394250611	0.1546171882559385	5.871607753635334	1.3418093606772876	5.533360742408978	1.82938726937055	2	missed	0.0
283.02351890003774	6.744735799962655	go_punish	0.0248238000785931	283.0513499000808	285.23271570005454	287.7904351000907	2.181365799973719	284.06378600001335	286.76956760010216	288.80255260004196	1.1689297000411898	1.020867499988526	0.993533100001514	n/a	1.0	n/a	1	0	103	2	go_punish	1	0	-1	1	1	1	1	n/a	n/a	0	0.0248238000785931	1.0	537.5977198999608	820.6490698000416	821.6615058999741	822.8304356000153	824.367287500063	825.3881550000515	n/a	n/a	826.4002725000028	827.3938056000043	2019-12-24 19:08:09.230414	3.29641784202728	-0.23869783700285	-4.26825779450625	-2.48117253878569	-0.971839952478977	-4.26825779450625	-3.29641784202728	-0.23869783700285	-4.26825779450625	-0.971839952478977	-4.26825779450625	0.23869783700285	1.368186461889453	-0.1387752086834107	-4.334894469260759	-3.166032447800796	-0.06383452832621361	-4.334894469260759	0.28747595761643857	-1.5152712678487634	-2.8834577297382094	-1.1203761635989924	-3.353293514345179	2	missed	0.0
289.8114072000608	6.666123799979687	nogo_reward	1.0	289.83923820010386	291.6248748000944	294.1450831000693	1.7856365999905393	290.84266350010876	293.12984950002283	295.1536651001079	0.7822112999856472	1.0152336000464857	1.35169689997565	n/a	1.0	n/a	1	0	104	3	nogo_reward	1	0	1	0	0	1	1	n/a	n/a	1	1.0	1.0	537.5977198999608	827.4369581000647	828.4403834000695	829.2225947000552	830.7275693999836	831.7428030000301	n/a	n/a	832.7513850000687	834.1030819000443	2019-12-24 19:08:09.230414	6.48362355080134	0.914422989209479	6.43872166872303	6.43801336204662	-0.0449018820783126	6.43872166872303	-6.48362355080134	6.43872166872303	0.914422989209479	6.43872166872303	-0.0449018820783126	0.08215646792443998	4.555392170663513	1.0143456175289183	6.372084993968521	5.753153453031514	0.8631035420744508	6.372084993968521	0.13093458853802853	5.895290353353244	1.339898182689728	5.557043342126888	1.82938726937055	2	missed	0.0
296.51221870002337	6.167697999975644	go_reward	0.3674552000593394	296.54004970006645	297.91896530007944	300.46314670005813	1.3789156000129879	297.55949370004237	299.4497287000995	301.4642673000926	0.35947160003706813	1.0134179999586195	1.2434803999494761	n/a	1.0	n/a	1	0	105	4	go_reward	1	1	0	1	1	1	0	n/a	n/a	1	0.3674552000593394	1.0	537.5977198999608	834.1377696000272	835.1572136000032	835.5166852000402	837.0474486000603	838.0608666000189	n/a	n/a	839.0619872000534	840.3054676000029	2019-12-24 19:08:09.230414	1.21931550389649	5.38505121859723	3.23285731036796	5.74982234348561	4.45217281426446	3.23285731036796	-1.21931550389649	5.38505121859723	3.23285731036796	4.45217281426446	3.23285731036796	1.13582691805024	-0.7089158762413368	5.484973846916669	3.166220635613451	5.0649624344705035	5.360178238417224	3.166220635613451	1.1846050386638287	3.908741498894674	4.617657375136001	4.503372892001088	4.1478215905290305	2	missed	0.0
302.7159513999941	6.082971399999224	go_reward	0.4961607001023367	302.74378240003716	304.22733030002564	306.77251500007696	1.48354789998848	303.75828070007265	305.7472275000764	307.7816461001057	0.4690495999529958	1.0252875000005588	1.0451076999306679	n/a	1.0	n/a	1	0	106	4	go_reward	1	1	0	1	1	1	0	n/a	n/a	1	0.4961607001023367	1.0	537.5977198999608	840.341502299998	841.3560006000334	841.8250501999864	843.3449474000372	844.3702349000378	n/a	n/a	845.3793660000665	846.4244736999972	2019-12-24 19:08:09.230414	1.53789300119718	5.70969481120518	3.23285731036796	5.96527402836935	4.77075031156514	3.23285731036796	-1.53789300119718	5.70969481120518	3.23285731036796	4.77075031156514	3.23285731036796	0.8111833254422898	-0.3903383789406467	5.80961743952462	3.166220635613451	5.280414119354244	5.678755735717904	3.166220635613451	0.8599614460558783	4.227318996195354	4.617657375136001	4.828016484609038	4.1478215905290305	2	missed	0.0
308.8385111000389	6.551744799944572	go_punish	0.1608748999424278	308.86634210008197	311.0726250000298	313.6117007000139	2.206282899947837	309.8657718000468	312.59346970007755	314.6107114000479	1.2068531999830157	1.0182309999363497	0.8073754999786615	n/a	1.0	n/a	1	0	107	2	go_punish	0	-1	0	1	1	1	0	n/a	n/a	-1	0.1608748999424278	1.0	537.5977198999608	846.4640620000428	847.4634917000076	848.6703448999906	850.1911896000383	851.2094205999747	n/a	n/a	852.2084313000087	853.0158067999873	2019-12-24 19:08:09.230414	3.36170400957108	-0.177708878726885	-4.26825779450625	-1.73285870255238	-0.906553784935175	-4.26825779450625	-3.36170400957108	-0.177708878726885	-4.26825779450625	-0.906553784935175	-4.26825779450625	-7.946829153449165	1.4334726294332532	-0.0777862504074457	-4.334894469260759	-2.417718611567486	0.0014516392175883963	-4.334894469260759	-7.898051032835576	-1.4499851003049615	-2.8834577297382094	-1.0593872053230273	-3.353293514345179	2	missed	0.0
315.42575960000977	6.565032199956477	go_punish	0.0821123999776318	315.45359060005285	317.3084670000244	319.84379440010525	1.8548763999715447	316.46489390009083	318.8228758000769	320.8519498000387	0.8435730999335647	1.0209186000283808	1.166672999970615	n/a	1.0	n/a	1	0	108	2	go_punish	1	0	-1	1	1	1	0	n/a	n/a	0	0.0821123999776318	1.0	537.5977198999608	853.0513105000136	854.0626138000516	854.9061868999852	856.4205957000377	857.441514300066	n/a	n/a	858.4496696999995	859.6163426999701	2019-12-24 19:08:09.230414	1.0999045133852	-2.45816471446878	-4.26825779450625	-3.55084952130065	-3.16835328112105	-4.26825779450625	-1.0999045133852	-2.45816471446878	-4.26825779450625	-3.16835328112105	-4.26825779450625	2.45816471446878	-0.8283268667526269	-2.3582420861493407	-4.334894469260759	-4.235709430315756	-2.260347856968287	-4.334894469260759	2.5069428350823686	-3.7117845964908365	-2.8834577297382094	-3.3398430410649222	-3.353293514345179	2	missed	0.0
322.026441300055	6.888400699943304	go_punish	0.2221839999547228	322.0542723000981	324.0602892000461	326.58288240002	2.0060168999480084	323.05879880010616	325.58115950005595	327.5968035000842	1.0014903999399394	1.0017228999640793	1.345869499957189	n/a	1.0	n/a	1	0	109	2	go_punish	1	0	-1	1	1	1	1	n/a	n/a	0	0.2221839999547228	1.0	537.5977198999608	859.6519922000589	860.656518700067	861.6580091000069	863.1788794000167	864.1806022999808	n/a	n/a	865.194523400045	866.5403929000022	2019-12-24 19:08:09.230414	1.84559408849909	-1.71482920679813	-4.26825779450625	-2.49149647274375	-2.42266370600716	-4.26825779450625	-1.84559408849909	-1.71482920679813	-4.26825779450625	-2.42266370600716	-4.26825779450625	1.71482920679813	-0.08263729163873679	-1.6149065784786907	-4.334894469260759	-3.176356381758856	-1.5146582818543965	-4.334894469260759	1.7636073274117186	-2.966095021376946	-2.8834577297382094	-2.596507533394272	-3.353293514345179	2	missed	0.0
328.95886600005906	7.0411121000070125	nogo_reward	1.0	328.98669700010214	331.71718870010227	334.2534155000467	2.7304917000001296	329.98597330006305	333.23250560008455	335.26248340005986	1.7312154000392184	1.0209098999621347	0.7653257000492886	n/a	1.0	n/a	1	0	110	3	nogo_reward	1	0	1	0	0	1	0	n/a	n/a	1	1.0	1.0	537.5977198999608	866.5844169000629	867.5836932000238	869.3149086000631	870.8302255000453	871.8511354000075	n/a	n/a	872.8602033000207	873.62552900007	2019-12-24 19:08:09.230414	6.50321981854655	0.914422989209479	6.4568046924367	6.45641796426268	-0.0464151261098485	6.4568046924367	-6.50321981854655	6.4568046924367	0.914422989209479	6.4568046924367	-0.0464151261098485	0.06407344421076999	4.574988438408724	1.0143456175289183	6.390168017682191	5.771558055247574	0.8615902980429149	6.390168017682191	0.11285156482435854	5.913373377066914	1.3383849386581923	5.575126365840558	1.82938726937055	2	missed	0.0
336.0362048000097	5.968422599951737	nogo_punish	1.0	336.0640358000528	337.7379131000489	340.2736843000166	1.673877299996093	337.08249640010763	339.25377730000764	341.2833046000451	0.65541669994127	1.0199070000089705	0.7491537999594584	n/a	1.0	n/a	1	0	111	1	nogo_punish	1	-1	0	0	0	1	0	n/a	n/a	0	1.0	1.0	537.5977198999608	873.6617557000136	874.6802163000684	875.3356330000097	876.8514971999684	877.8714041999774	n/a	n/a	878.8810245000059	879.6301782999653	2019-12-24 19:08:09.230414	3.40681493804266	-4.74715081447283	-2.05740351129127	-2.06521208014736	-5.46421844933393	-2.05740351129127	-3.40681493804266	-2.05740351129127	-4.74715081447283	-2.05740351129127	-5.46421844933393	2.05740351129127	1.478583557904833	-4.647228186153391	-2.124040186045779	-2.750071989162466	-4.556213025181166	-2.124040186045779	2.1061816319048585	-2.6008348266610564	-4.079418384565889	-2.9390818378874126	-3.832186534311759	2	missed	0.0
342.039221300045	6.836257999995723	go_reward	1.0	342.0670523000881	343.9794559000293	346.4973012000555	1.9124035999411717	343.0726110000396	345.4865354000358	347.50980350002646	0.9068448999896646	1.0107658000197262	1.3935068000573665	n/a	1.0	n/a	1	0	112	4	go_reward	1	1	0	1	0	0	0	n/a	n/a	0	1.0	1.0	537.5977198999608	879.6647722000489	880.6703309000004	881.5771757999901	883.0842552999966	884.0950211000163	n/a	n/a	885.1075233999873	886.5010302000446	2019-12-24 19:08:09.230414	-1.75817086083434	5.93531186258149	3.23285731036796	6.1166032616817	4.9910281712023	3.23285731036796	1.75817086083434	3.23285731036796	5.93531186258149	3.23285731036796	4.9910281712023	-3.23285731036796	-3.686402240972167	6.03523449090093	3.166220635613451	5.431743352666594	5.899033595355064	3.166220635613451	-3.1840791897543714	2.6894259949981736	6.375828235970341	2.3511789837718178	6.850276142742561	2	missed	0.0
348.91878830001224	6.894220300018787	nogo_reward	1.0	348.9466193000553	351.4196469000308	353.95744090003427	2.4730275999754667	349.95376320008654	352.9351228000596	354.96734260011	1.4658836999442428	1.0223180999746546	0.873496999964118	n/a	1.0	n/a	1	0	113	3	nogo_reward	1	0	1	0	0	1	0	n/a	n/a	1	1.0	1.0	537.5977198999608	886.5443392000161	887.5514831000473	889.0173667999916	890.5328427000204	891.5551607999951	n/a	n/a	892.5650625000708	893.4385595000349	2019-12-24 19:08:09.230414	6.51829804134841	0.914422989209479	6.47068311247825	6.47050371470863	-0.0476149288701558	6.47068311247825	-6.51829804134841	6.47068311247825	0.914422989209479	6.47068311247825	-0.0476149288701558	0.05019502416921995	4.590066661210583	1.0143456175289183	6.404046437723741	5.785643805693524	0.8603904952826076	6.404046437723741	0.0989731447828085	5.927251797108464	1.337185135897885	5.589004785882108	1.82938726937055	2	missed	0.0
355.84889050002676	5.903858199948445	go_punish	0.3489770999876782	355.87672150006983	357.27563889999874	359.8086191000184	1.398917399928905	356.88542420009617	358.7968580001034	360.81178550003096	0.39021469990257174	1.0117610999150202	0.9687941999873146	n/a	1.0	n/a	1	0	114	2	go_punish	1	0	-1	1	1	1	0	n/a	n/a	0	0.3489770999876782	1.0	537.5977198999608	893.4744414000306	894.483144100057	894.8733587999595	896.3945779000642	897.4063389999792	n/a	n/a	898.4095053999918	899.3782995999791	2019-12-24 19:08:09.230414	2.34424221404316	-1.21168779164327	-4.26825779450625	-1.7694723380227	-1.92401558046309	-4.26825779450625	-2.34424221404316	-1.21168779164327	-4.26825779450625	-1.92401558046309	-4.26825779450625	1.21168779164327	0.4160108339053332	-1.1117651633238308	-4.334894469260759	-2.4543322470378057	-1.0160101563103265	-4.334894469260759	1.2604659122568587	-2.4674468958328766	-2.8834577297382094	-2.0933661182394125	-3.353293514345179	2	missed	0.0
361.793194900034	6.213599200011345	nogo_reward	1.0	361.8210259000771	363.190309100086	365.729256700026	1.3692832000089084	362.8310875000898	364.7057440000352	366.7443523000692	0.3592215999962036	1.0235126999907607	1.2902728000192383	n/a	1.0	n/a	1	0	115	3	nogo_reward	1	0	1	0	0	1	1	n/a	n/a	1	1.0	1.0	537.5977198999608	899.4187458000379	900.4288074000506	900.7880290000468	902.303463899996	903.3269765999868	n/a	n/a	904.34207220003	905.6323450000492	2019-12-24 19:08:09.230414	6.52995439507575	0.914422989209479	6.48138660921961	6.48133809489591	-0.0485677858561327	6.48138660921961	-6.52995439507575	6.48138660921961	0.914422989209479	6.48138660921961	-0.0485677858561327	0.03949152742785955	4.601723014937923	1.0143456175289183	6.414749934465101	5.796478185880804	0.8594376382966307	6.414749934465101	0.0882696480414481	5.937955293849824	1.336232278911908	5.599708282623468	1.82938726937055	2	missed	0.0
368.0445495999885	6.2661351000424474	nogo_punish	1.0	368.0723806000316	369.8439567000604	372.36607690004166	1.771576100028824	369.08660960011184	371.354137300048	373.3751904000528	0.7573470999485608	1.0119395999936387	0.9633253000212108	n/a	1.0	n/a	1	0	116	1	nogo_punish	1	-1	0	0	0	1	0	n/a	n/a	0	1.0	1.0	537.5977198999608	905.6701004999924	906.6843295000726	907.4416766000212	908.9518572000088	909.9637968000025	n/a	n/a	910.9729103000136	911.9362356000348	2019-12-24 19:08:09.230414	4.00706047034511	-4.74715081447283	-1.46081343820927	-1.46708158533474	-5.46787390855438	-1.46081343820927	-4.00706047034511	-1.46081343820927	-4.74715081447283	-1.46081343820927	-5.46787390855438	1.46081343820927	2.078829090207283	-4.647228186153391	-1.527450112963779	-2.151941494349846	-4.559868484401616	-1.527450112963779	1.5095915588228586	-2.0042447535790564	-4.083073843786339	-2.342491764805412	-3.832186534311759	2	missed	0.0
374.3509608999593	6.273504800046794	nogo_reward	1.0	374.3787919000024	375.8789592999964	378.40451930009283	1.500167399993984	375.38868130010076	377.38480530004017	379.41732620005496	0.4902779998956248	1.0197140000526588	1.2349704999942333	n/a	1.0	n/a	1	0	117	3	nogo_reward	0	1	0	0	0	1	1	n/a	n/a	0	1.0	1.0	537.5977198999608	911.9765117999632	912.9864012000616	913.4766791999572	914.982525200001	916.0022392000536	n/a	n/a	917.0150461000158	918.25001660001	2019-12-24 19:08:09.230414	6.53900586209503	0.914422989209479	6.48967993018557	6.48971137911451	-0.0493259319094551	6.48967993018557	-6.53900586209503	6.48967993018557	0.914422989209479	6.48967993018557	-0.0493259319094551	-6.48967993018557	4.610774481957204	1.0143456175289183	6.423043255431061	5.804851470099404	0.8586794922433083	6.423043255431061	-6.440901809571981	5.946248614815784	1.3354741328585857	5.608001603589428	1.82938726937055	2	missed	0.0
380.66588490002334	6.72670610004559	nogo_reward	1.0	380.6937159000664	382.98917610000365	385.5290574000684	2.2954601999372244	381.7084385000636	384.50482950010337	386.52874950005196	1.2807375999400392	1.0242278999650125	0.8916725000600536	n/a	1.0	n/a	1	0	118	3	nogo_reward	1	0	1	0	0	1	0	n/a	n/a	1	1.0	1.0	537.5977198999608	918.2914358000272	919.3061584000244	920.5868959999644	922.1025494000642	923.1267773000292	n/a	n/a	924.1264694000128	925.0181419000728	2019-12-24 19:08:09.230414	4.60252510592821	0.914422989209479	4.57817859970114	4.57825634325332	-0.0243465062270678	4.57817859970114	-4.60252510592821	4.57817859970114	0.914422989209479	4.57817859970114	-0.0243465062270678	1.9426995369463302	2.6742937257903834	1.0143456175289183	4.511541924946631	3.893396434238214	0.8836589179256956	4.511541924946631	1.991477657559919	4.034747284331353	1.360453558540973	3.6965002731049976	1.82938726937055	2	missed	0.0
387.43555060005735	7.533962599933147	nogo_reward	1.0	387.46338160010043	390.04814190010086	392.5830101000612	2.5847603000004256	388.4709569000406	391.55944430001557	393.5921535000672	1.5771850000602399	1.023565800045617	1.405190699966397	n/a	1.0	n/a	1	0	119	3	nogo_reward	1	0	1	0	0	1	1	n/a	n/a	1	1.0	1.0	537.5977198999608	925.0611015000612	926.0686768000014	927.6458618000617	929.1571641999764	930.180730000022	n/a	n/a	931.189873400028	932.5950640999944	2019-12-24 19:08:09.230414	5.20767926025309	0.914422989209479	5.18627749681916	5.18637951992403	-0.0214017634339324	5.18627749681916	-5.20767926025309	5.18627749681916	0.914422989209479	5.18627749681916	-0.0214017634339324	1.3346006398283103	3.279447880115263	1.0143456175289183	5.1196408220646505	4.5015196109089235	0.886603660718831	5.1196408220646505	1.383378760441899	4.642846181449373	1.3633983013341084	4.3045991702230175	1.82938726937055	2	missed	0.0
395.0051396000199	7.146535699954256	go_punish	0.0964371000882238	395.032970600063	397.5242116000736	400.07054810004763	2.491241000010632	396.0382952000946	399.05430990003515	401.07537410000805	1.4859163999790326	1.0162382000124808	1.1041322000091895	n/a	1.0	n/a	1	0	120	2	go_punish	0	-1	0	1	1	1	0	n/a	n/a	-1	0.0964371000882238	1.0	537.5977198999608	932.6306905000238	933.6360151000554	935.1219315000344	936.652029799996	937.6682680000084	n/a	n/a	938.6730939999688	939.777226199978	2019-12-24 19:08:09.230414	2.68316202290461	-0.865909553758166	-4.26825779450625	-1.27026395948485	-1.58509577160164	-4.26825779450625	-2.68316202290461	-0.865909553758166	-4.26825779450625	-1.58509577160164	-4.26825779450625	-7.258628478417884	0.7549306427667832	-0.7659869254387267	-4.334894469260759	-1.955123868499956	-0.6770903474488766	-4.334894469260759	-7.209850357804295	-2.1285270869714266	-2.8834577297382094	-1.7475878803543083	-3.353293514345179	2	missed	0.0
