onset	duration	trial_type	response_time	cueOnset	targetOnset	fbOnset	cueRT	firstfixOnset	secondfixOnset	waitOnset	firstfixdur	secondfixdur	waitdur	nback_fbOnset	nback_response_time	nback_targetOnset	block	wm	trial	cue	cond	is_common	outcome_go	outcome_nogo	key_correct	key_pressed	is_correct	key_correct_nback	key_pressed_nback	is_correct_nback	outcome	rt	rt_nback	time_scan	time_onset	time_isi1	time_circle	time_isi2	time_feedback	time_same	time_correct	time_iti	time_done	timestamp_scan	DV	Qgo	Qnogo	SV	Wgo	Wnogo	mDV	Qchosen	Qunchosen	Wchosen	Wunchosen	PE	DVC	QgoC	QnogoC	SVC	WgoC	WnogoC	PEC	WchosenC	WunchosenC	QchosenC	QunchosenC	run	outcome_nback	nback_targetResp
0.0	8.53228939999849	nogo_reward	1.0	0.029942800058051944	2.0938326000468805	4.603655699989531	2.0638897999888286	1.046740000019554	3.586979700019583	7.6541863000020385	1.0470926000273266	1.016675999969948	0.9080459000545034	6.644491499988362	0.0240714999381452	5.622321700095199	2	1	61	3	nogo_reward	1	0	1	0	0	1	0	0.0	1.0	1	1.0	0.0240714999381452	1645.8784369999776	1645.9083798000356	1646.9251769999971	1647.9722696000244	1649.4654166999971	1650.482092699967	1651.5007587000728	1652.522928499966	1653.5326232999796	1654.440669200034	2019-12-24 19:26:37.510983	3.899455116035	0.0	3.21716038384482	3.21716038384482	-0.682294732190179	3.21716038384482	-3.899455116035	3.21716038384482	0.0	3.21716038384482	-0.682294732190179	3.30371775280265	1.9712237358971731	0.09992262831943931	3.150523709090311	2.5323004748297144	0.22571069196258442	3.150523709090311	3.3524958734162382	2.673729068475034	0.7025053325778617	2.3354820572486776	0.914964280161071	4	correct	1.0
8.5737731999252	8.163597900071181	nogo_reward	1.0	8.603715999983251	10.273916300036944	12.811185199999954	1.6702003000536934	9.60369470005412	11.790847300085943	15.851771300076507	0.670221599982824	1.0203378999140114	0.9155425999779254	14.838639100082219	0.0194314999971538	13.819014100008644	2	1	62	3	nogo_reward	0	1	0	0	0	1	0	0.0	1.0	0	1.0	0.0194314999971538	1645.8784369999776	1654.4821529999608	1655.4821317000317	1656.1523533000145	1657.6692843000635	1658.6896221999775	1659.6974510999862	1660.7170761000598	1661.730208300054	1662.645750900032	2019-12-24 19:26:37.510983	4.17898915250142	0.0	3.50316748802379	3.50316748802379	-0.675821664477622	3.50316748802379	-4.17898915250142	3.50316748802379	0.0	3.50316748802379	-0.675821664477622	-3.50316748802379	2.250757772363593	0.09992262831943931	3.436530813269281	2.8183075790086844	0.23218375967514138	3.436530813269281	-3.4543893674102017	2.959736172654004	0.7089784002904187	2.6214891614276477	0.914964280161071	4	correct	1.0
16.77743759995792	8.339081900077872	nogo_reward	1.0	16.807380400015973	18.185212400043383	20.71014490001835	1.3778320000274107	17.805886500049382	19.697773099993356	23.739289400051348	0.3793258999940008	1.0123718000249937	1.4071729000424966	22.736887600040063	0.0502060999860987	21.724157500080764	2	1	63	3	nogo_reward	1	0	1	0	0	1	1	1.0	1.0	1	1.0	0.0502060999860987	1645.8784369999776	1662.6858173999935	1663.684323500027	1664.063649400021	1665.576210099971	1666.588581899996	1667.6025945000583	1668.6153246000176	1669.617726400029	1671.0248993000714	2019-12-24 19:26:37.510983	3.83564593263615	0.0	3.14828030947735	3.14828030947735	-0.687365623158806	3.14828030947735	-3.83564593263615	3.14828030947735	0.0	3.14828030947735	-0.687365623158806	3.37259782717012	1.9074145524983233	0.09992262831943931	3.081643634722841	2.4634204004622444	0.2206398009939574	3.081643634722841	3.4213759477837082	2.604848994107564	0.6974344416092347	2.266601982881208	0.914964280161071	4	correct	1.0
25.158316600020044	8.32164019998163	go_punish	1.0	25.188259400078095	26.55549230007432	29.094561800011434	1.3672328999962247	26.196758400066756	28.07187350001186	32.157211099984124	0.35873390000756444	1.0226882999995723	1.352688500075601	31.144591900054365	0.213233400019817	30.115100000053644	2	1	64	2	go_punish	1	0	-1	1	0	0	0	0.0	1.0	-1	1.0	0.213233400019817	1645.8784369999776	1671.0666964000557	1672.0751954000443	1672.433929300052	1673.9503104999894	1674.972998799989	1675.9935370000312	1677.023028900032	1678.0356480999617	1679.3883366000373	2019-12-24 19:26:37.510983	-1.08437067566854	-1.50756482339643	-3.61671357601563	-3.60847099426587	-2.53234290034709	-3.61671357601563	1.08437067566854	-3.61671357601563	-1.50756482339643	-3.61671357601563	-2.53234290034709	-4.507824456160419	-3.012602055806367	-1.4076421950769908	-3.6833502507701392	-4.293330903280976	-1.6243374761943268	-3.6833502507701392	-4.45904633554683	-4.160144891385417	-1.1475428355790493	-4.498391902611773	-0.592600543235359	4	correct	1.0
33.520714699989185	7.825290699955303	nogo_reward	1.0	33.55065750004724	34.90454260003753	37.429483400075696	1.3538850999902934	34.55750940006692	36.41317549999803	40.476117699989345	0.34703319997061044	1.0163079000776634	0.899830500013195	39.462606200017035	0.1410019000759348	38.444381600013	2	1	65	3	nogo_reward	1	0	1	0	0	1	1	1.0	1.0	1	1.0	0.1410019000759348	1645.8784369999776	1679.4290945000248	1680.4359464000445	1680.782979600015	1682.2916124999756	1683.3079204000533	1684.3228185999906	1685.3410431999946	1686.354554699967	1687.25438519998	2019-12-24 19:26:37.510983	4.12642710289507	0.0	3.44621099058151	3.44621099058151	-0.680216112313562	3.44621099058151	-4.12642710289507	3.44621099058151	0.0	3.44621099058151	-0.680216112313562	3.07466714606596	2.198195722757243	0.09992262831943931	3.379574315827001	2.761351081566404	0.22778931183920137	3.379574315827001	3.1234452666795485	2.9027796752117236	0.7045839524544787	2.564532663985368	0.914964280161071	4	correct	1.0
41.37366019992646	9.48643130005803	nogo_punish	1.0	41.403602999984514	43.84291840007063	46.37005800008774	2.439315400086116	42.41699440008961	45.3501557999989	49.40344400005392	1.4259239999810234	1.0199022000888363	1.4865902999886202	48.40137470001355	0.1658618999645114	47.387397499987856	2	1	66	1	nogo_punish	1	-1	0	0	0	1	0	0.0	1.0	0	1.0	0.1658618999645114	1645.8784369999776	1687.282039999962	1688.2954314000672	1689.7213554000482	1691.2285927999765	1692.2484950000653	1693.2658344999654	1694.2798116999911	1695.2818810000315	1696.76847130002	2019-12-24 19:26:37.510983	0.609891161304209	-1.50756482339643	-1.80901477716284	-2.06338091210364	-2.41890593846705	-1.80901477716284	-0.609891161304209	-1.80901477716284	-1.50756482339643	-1.80901477716284	-2.41890593846705	1.80901477716284	-1.318340218833618	-1.4076421950769908	-1.875651451917349	-2.748240821118746	-1.5109005143142866	-1.875651451917349	1.8577928977764286	-2.3524460925326265	-1.0341058736990092	-2.6906931037589823	-0.592600543235359	4	correct	1.0
50.90160019998439	8.684219500049949	go_punish	0.7305697000119835	50.93154300004244	52.49470170005225	55.056596099981334	1.563158700009808	51.93156360008288	54.03317120007705	58.11631700000726	0.5631380999693647	1.0234248999042848	1.4994455000851303	57.103434000047855	0.0336332999868318	56.07571770006325	2	1	67	2	go_punish	1	0	-1	1	1	1	0	0.0	1.0	0	0.7305697000119835	0.0336332999868318	1645.8784369999776	1696.80998000002	1697.8100006000604	1698.3731387000298	1699.9116082000546	1700.935033099959	1701.9541547000408	1702.9818710000254	1703.9947539999848	1705.49419950007	2019-12-24 19:26:37.510983	1.46506840039228	-1.50756482339643	-4.027880655904	-4.0286995296331	-2.56281225551172	-4.027880655904	-1.46506840039228	-1.50756482339643	-4.027880655904	-2.56281225551172	-4.027880655904	1.50756482339643	-0.46316297974554677	-1.4076421950769908	-4.094517330658509	-4.713559438648206	-1.6548068313589566	-4.094517330658509	1.5563429440100187	-3.106243570881506	-2.643080591135959	-2.3892431499925726	-3.112916375742929	4	correct	1.0
59.629805400036275	8.415388499968685	nogo_reward	1.0	59.65974820009433	61.53051950002555	64.06387690000702	1.8707712999312207	60.6641303000506	63.04623740003444	67.10665570001584	0.8663891999749467	1.0176394999725744	0.9684810000471771	66.09411730000284	0.1632231000112369	65.08003150008153	2	1	68	3	nogo_reward	1	0	1	0	0	1	0	0.0	1.0	1	1.0	0.1632231000112369	1645.8784369999776	1705.538185200072	1706.5425673000282	1707.4089565000031	1708.924674400012	1709.9423138999846	1710.958468500059	1711.9725542999804	1712.9850926999934	1713.9535737000406	2019-12-24 19:26:37.510983	4.38820171799101	0.0	3.71417773892633	3.71417773892633	-0.67402397906468	3.71417773892633	-4.38820171799101	3.71417773892633	0.0	3.71417773892633	-0.67402397906468	2.8067003977211398	2.4599703378531834	0.09992262831943931	3.647541064171821	3.0293178299112244	0.23398144508808338	3.647541064171821	2.855478518334728	3.170746423556544	0.7107760857033607	2.832499412330188	0.914964280161071	4	correct	1.0
68.07239410001807	7.782156599918153	nogo_punish	1.0	68.10233690007612	69.3679986000061	71.90813310001954	1.2656616999299786	69.09740460000467	70.88473150006052	74.95322630007286	0.27059400000143796	1.0234015999590156	0.9312671999214217	73.95035699999426	0.6230215000687167	72.9262466999935	2	1	69	1	nogo_punish	1	-1	0	0	0	1	0	0.0	1.0	0	1.0	0.6230215000687167	1645.8784369999776	1713.9807739000537	1714.9758415999822	1715.2464355999837	1716.763168500038	1717.786570099997	1718.804683699971	1719.8287939999718	1720.8316633000504	1721.7629304999718	2019-12-24 19:26:37.510983	0.784513279221855	-1.50756482339643	-1.61799864602129	-1.84954844673115	-2.40251192524314	-1.61799864602129	-0.784513279221855	-1.61799864602129	-1.50756482339643	-1.61799864602129	-2.40251192524314	1.61799864602129	-1.1437181009159718	-1.4076421950769908	-1.6846353207757991	-2.534408355746256	-1.4945065010903766	-1.6846353207757991	1.6667767666348787	-2.1614299613910766	-1.0177118604750992	-2.4996769726174324	-0.592600543235359	4	correct	1.0
75.87921059993096	8.58448950003367	go_reward	1.0	75.90915339998901	77.42680450005014	79.94170450000092	1.51765110006113	76.92636000004131	78.93081749998964	83.00112400006037	0.5004445000088253	1.0108870000112802	1.492518899962306	81.98780700005614	0.1662647000048309	80.95903020002879	2	1	70	4	go_reward	1	1	0	1	0	0	0	0.0	1.0	0	1.0	0.1662647000048309	1645.8784369999776	1721.7875903999666	1722.8047970000189	1723.3052415000277	1724.8092544999672	1725.8201414999785	1726.8374672000064	1727.8662440000337	1728.879561000038	1730.3720799000002	2019-12-24 19:26:37.510983	0.358249593702205	1.16065795133219	0.783309619102022	1.18965082126831	0.425060025399817	0.783309619102022	-0.358249593702205	0.783309619102022	1.16065795133219	0.783309619102022	0.425060025399817	-0.783309619102022	-1.5699817864356218	1.2605805796516292	0.7166729443475128	0.504790912253204	1.3330654495525804	0.7166729443475128	-0.7345314984884335	0.23987830373223562	1.8098600901678576	-0.0983687074941203	2.075622231493261	4	correct	1.0
84.48827570001595	8.39386289997492	nogo_punish	1.0	84.518218500074	86.08302360004745	88.61892160004936	1.564805099973455	85.52058280003234	87.59817360003944	91.66863640001952	0.5624408000151107	1.0207480000099167	1.2434450000293964	90.65599360002693	0.150965700042434	89.62737450003624	2	1	71	1	nogo_punish	1	-1	0	0	0	1	1	1.0	1.0	0	1.0	0.150965700042434	1645.8784369999776	1730.3966555000516	1731.39901980001	1731.961460600025	1733.476610600017	1734.497358600027	1735.5058115000138	1736.5344306000045	1737.547073399997	1738.7905184000265	2019-12-24 19:26:37.510983	0.938724393086494	-1.50756482339643	-1.4493561057391	-1.6603508840539	-2.38808049882559	-1.4493561057391	-0.938724393086494	-1.4493561057391	-1.50756482339643	-1.4493561057391	-2.38808049882559	1.4493561057391	-0.9895069870513328	-1.4076421950769908	-1.515992780493609	-2.345210793069006	-1.4800750746728268	-1.515992780493609	1.4981342263526887	-1.9927874211088863	-1.0032804340575494	-2.331034432335242	-0.592600543235359	4	correct	1.0
92.927648199955	8.391704000066966	nogo_reward	1.0	92.95759100001305	94.81461910007033	97.35482450004201	1.8570281000572777	93.96479250001721	96.33038509998005	100.40190840000287	0.8498266000531203	1.024439400061965	0.9473866000771523	99.39765320008155	0.6709616999141872	98.36732560000382	2	1	72	3	nogo_reward	1	0	1	0	0	1	0	0.0	1.0	1	1.0	0.6709616999141872	1645.8784369999776	1738.8360279999906	1739.8432294999948	1740.693056100048	1742.2088220999576	1743.2332615000196	1744.2457625999814	1745.2760902000591	1746.2803453999804	1747.2277320000576	2019-12-24 19:26:37.510983	4.62421323369311	0.0	3.95555192227566	3.95555192227566	-0.668661311417451	3.95555192227566	-4.62421323369311	3.95555192227566	0.0	3.95555192227566	-0.668661311417451	2.56532621437181	2.6959818535552835	0.09992262831943931	3.888915247521151	3.2706920132605544	0.23934411273531242	3.888915247521151	2.6141043349853983	3.412120606905874	0.7161387533505897	3.073873595679518	0.914964280161071	4	correct	1.0
101.36144310003147	9.568087399937212	go_punish	0.2160580999916419	101.39138590008952	103.92636520008091	106.48823960009054	2.5349792999913916	102.39075120002963	105.46732659998793	109.53606740001123	1.5356140000512823	1.0209130001026097	1.4234059000154957	108.53381360007916	0.1383487000130117	107.50592989998404	2	1	73	2	go_punish	1	0	-1	1	1	1	0	0.0	1.0	0	0.2160580999916419	0.1383487000130117	1645.8784369999776	1747.269822900067	1748.2691882000072	1749.8048022000585	1751.3457635999655	1752.366676600068	1753.3843668999616	1754.4122506000567	1755.4145043999888	1756.8379103000043	2019-12-24 19:26:37.510983	1.66230955953449	-1.34281845917335	-4.027880655904	-3.6073145879474	-2.36557109636952	-4.027880655904	-1.66230955953449	-1.34281845917335	-4.027880655904	-2.36557109636952	-4.027880655904	1.34281845917335	-0.2659218206033367	-1.2428958308539109	-4.094517330658509	-4.292174496962506	-1.4575656722167567	-4.094517330658509	1.3915965797869387	-2.9090024117393063	-2.643080591135959	-2.2244967857694924	-3.112916375742929	4	correct	1.0
110.95517029997427	7.9433611000420115	nogo_punish	1.0	110.98511310003232	112.35295030009001	114.86956170003396	1.3678372000576928	111.99461840000004	113.85842170007527	117.91959890001453	0.35833190008997917	1.0111399999586865	1.008875300059799	116.90648030000739	0.1271095001138746	115.88724820001516	2	1	74	1	nogo_punish	1	-1	0	0	0	1	0	0.0	1.0	0	1.0	0.1271095001138746	1645.8784369999776	1756.86355010001	1757.8730553999776	1758.2313873000676	1759.7368587000528	1760.7479987000115	1761.7656851999927	1762.784917299985	1763.798035899992	1764.806911200052	2019-12-24 19:26:37.510983	1.07515255910105	-1.50756482339643	-1.30020613952491	-1.49266243392131	-2.37535869862596	-1.30020613952491	-1.07515255910105	-1.30020613952491	-1.50756482339643	-1.30020613952491	-2.37535869862596	1.30020613952491	-0.8530788210367768	-1.4076421950769908	-1.3668428142794191	-2.177522342936416	-1.4673532744731967	-1.3668428142794191	1.3489842601384987	-1.8436374548946963	-0.9905586338579193	-2.181884466121052	-0.592600543235359	4	correct	1.0
118.9417474999791	8.880401800037362	nogo_reward	1.0	118.97169030003715	121.32908280007541	123.85788610007148	2.3573925000382587	119.97030240006279	122.8446095000254	126.89010329998564	1.3587804000126198	1.0132766000460833	0.961988800088875	125.87698350008554	0.037941800081171	124.86459310003556	2	1	75	3	nogo_reward	1	0	1	0	0	1	0	0.0	1.0	1	1.0	0.037941800081171	1645.8784369999776	1764.8501273000147	1765.8487394000404	1767.207519800053	1768.723046500003	1769.736323100049	1770.7430301000131	1771.755420500063	1772.7685402999632	1773.730529100052	2019-12-24 19:26:37.510983	4.8373027671002	0.0	4.17328492838515	4.17328492838515	-0.664017838715058	4.17328492838515	-4.8373027671002	4.17328492838515	0.0	4.17328492838515	-0.664017838715058	2.34759320826232	2.9090713869623728	0.09992262831943931	4.106648253630641	3.488425019370044	0.24398758543770538	4.106648253630641	2.3963713288759085	3.6298536130153636	0.7207822260529827	3.2916066017890078	0.914964280161071	4	correct	1.0
127.84587930003181	9.259168099961471	go_reward	1.0	127.87582210008986	130.36303220002446	132.89842910005245	2.4872100999346003	128.8892463000957	131.87894309998956	135.94434630009346	1.473785899928771	1.0194860000628978	1.1906438999578768	134.93163950007875	0.1241450000088661	133.91115370008652	2	1	76	4	go_reward	1	1	0	1	0	0	0	0.0	1.0	0	1.0	0.1241450000088661	1645.8784369999776	1773.7542591000674	1774.7676833000733	1776.241469200002	1777.7573800999671	1778.77686610003	1779.789590700064	1780.8100765000563	1781.822783300071	1783.013427200029	2019-12-24 19:26:37.510983	0.282237801710281	1.16065795133219	0.703655792304062	1.07213094219077	0.421417990593781	0.703655792304062	-0.282237801710281	0.703655792304062	1.16065795133219	0.703655792304062	0.421417990593781	-0.703655792304062	-1.6459935784275457	1.2605805796516292	0.637019117549553	0.38727103317566425	1.3294234147465445	0.637019117549553	-0.6548776716904735	0.16022447693427566	1.8062180553618217	-0.17802253429208026	2.075622231493261	4	correct	1.0
137.1491789999418	8.519363700062968	nogo_reward	1.0	137.17912179999985	138.66019940003753	141.19006719998993	1.481077600037679	138.18549040006474	140.16607999999542	144.23715790000279	0.4747089999727905	1.023987199994508	1.4613276000600308	143.23489670001436	0.1906318999826908	142.20463829999812	2	1	77	3	nogo_reward	1	0	1	0	0	1	1	0.0	0.0	1	1.0	0.1906318999826908	1645.8784369999776	1783.0575587999774	1784.0639274000423	1784.538636400015	1786.044516999973	1787.0685041999675	1788.0830752999757	1789.113333699992	1790.1155948999804	1791.5769225000404	2019-12-24 19:26:37.510983	5.02996408634774	0.0	4.36996567994912	4.36996567994912	-0.65999840639862	4.36996567994912	-5.02996408634774	4.36996567994912	0.0	4.36996567994912	-0.65999840639862	2.15091245669835	3.1017327062099134	0.09992262831943931	4.303329005194611	3.685105770934014	0.24800701775414347	4.303329005194611	2.1996905773119386	3.8265343645793335	0.7248016583694208	3.4882873533529777	0.914964280161071	4	wrong	1.0
145.69306479999796	8.493479499942623	go_reward	1.0	145.723007600056	147.70070500008273	150.22635270003252	1.9776974000267273	146.72377919999394	149.21669410006143	153.263051200076	0.976925800088793	1.0096585999710896	0.9534358999226242	152.24972870002966	0.0192041000118479	151.23521990003064	2	1	78	4	go_reward	1	1	0	1	0	0	1	0.0	0.0	0	1.0	0.0192041000118479	1645.8784369999776	1791.6014446000336	1792.6022161999715	1793.5791420000603	1795.095131100039	1796.10478970001	1797.1136569000082	1798.1281657000072	1799.1414882000536	1800.0949240999762	2019-12-24 19:26:37.510983	0.214760892650901	1.16065795133219	0.63301747784481	0.967544749043831	0.418256585193909	0.63301747784481	-0.214760892650901	0.63301747784481	1.16065795133219	0.63301747784481	0.418256585193909	-0.63301747784481	-1.7134704874869258	1.2605805796516292	0.5663808030903008	0.2826848400287252	1.3262620093466724	0.5663808030903008	-0.5842393572312214	0.0895861624750236	1.8030566499619498	-0.24866084875133232	2.075622231493261	4	wrong	1.0
154.22946499998216	9.838346499949921	go_punish	0.4543533000396564	154.2594078000402	157.03297559998487	159.57964010001115	2.773567799944658	155.25789350003492	158.56540359999053	162.62741090008035	1.775082099949941	1.0142365000206155	1.4703433999097797	161.62235100008547	0.721161299967207	160.59524370008148	2	1	79	2	go_punish	0	-1	0	1	1	1	0	0.0	1.0	-1	0.4543533000396564	0.721161299967207	1645.8784369999776	1800.1378448000178	1801.1363305000125	1802.9114125999624	1804.443840599968	1805.4580770999887	1806.473680700059	1807.500788000063	1808.505847900058	1809.9761912999677	2019-12-24 19:26:37.510983	1.83573469460193	-1.19798102055043	-4.027880655904	-3.23476019919023	-2.19214596130208	-4.027880655904	-1.83573469460193	-1.19798102055043	-4.027880655904	-2.19214596130208	-4.027880655904	-6.926557011625619	-0.09249668553589685	-1.0980583922309908	-4.094517330658509	-3.919620108205336	-1.2841405371493169	-4.094517330658509	-6.8777788910120305	-2.7355772766718665	-2.643080591135959	-2.0796593471465723	-3.112916375742929	4	correct	1.0
164.09414890001085	8.685417699976597	nogo_punish	1.0	164.1240917000689	165.90769840008602	168.44134330004454	1.783606700017117	165.12305090005952	167.42489630007162	171.4947167000505	0.7846475000264945	1.0164469999729135	1.314792699994996	170.48913550004318	0.2667833999730646	169.4546047000913	2	1	80	1	nogo_punish	0	0	-1	0	0	1	0	0.0	1.0	-1	1.0	0.2667833999730646	1645.8784369999776	1810.0025287000465	1811.001487900037	1811.7861354000636	1813.3033333000492	1814.319780300022	1815.3330417000689	1816.3675725000207	1817.373153700028	1818.687946400023	2019-12-24 19:26:37.510983	1.19605553361886	-1.50756482339643	-1.1680728744504	-1.34379116424607	-2.36412840806926	-1.1680728744504	-1.19605553361886	-1.1680728744504	-1.50756482339643	-1.1680728744504	-2.36412840806926	-6.956465157725649	-0.7321758465189667	-1.4076421950769908	-1.2347095492049092	-2.0286510732611758	-1.4561229839164969	-1.2347095492049092	-6.90768703711206	-1.7115041898201864	-0.9793283433012194	-2.0497512010465426	-0.592600543235359	4	correct	1.0
172.80275549995713	8.211641900008544	go_reward	1.0	172.83269830001518	174.25688580004476	176.7827982000308	1.424187500029575	173.8445466000121	175.76217860006727	179.83221690007485	0.41233920003264757	1.0206195999635383	1.2121232999488711	178.8291392000392	0.0440255999565124	177.79941670002881	2	1	81	4	go_reward	1	1	0	1	0	0	0	0.0	1.0	0	1.0	0.0440255999565124	1645.8784369999776	1818.7111352999927	1819.7229835999897	1820.1353228000223	1821.6406156000448	1822.6612352000084	1823.6778537000064	1824.7075762000168	1825.7106539000524	1826.9227772000013	2019-12-24 19:26:37.510983	0.154760001339153	1.16065795133219	0.570270368913881	0.874323055992552	0.415510367574728	0.570270368913881	-0.154760001339153	0.570270368913881	1.16065795133219	0.570270368913881	0.415510367574728	-0.570270368913881	-1.7734713787986738	1.2605805796516292	0.503633694159372	0.18946314697744615	1.3235157917274913	0.503633694159372	-0.5214922483002925	0.02683905354409466	1.8003104323427688	-0.31140795768226126	2.075622231493261	4	correct	1.0
181.0392696999479	8.263545399997383	go_reward	1.0	181.06921250000596	182.63822620001133	185.15479589998722	1.569013700005371	182.08974249998596	184.14381010003854	188.20030010002642	0.548483700025372	1.0109857999486849	1.132457799976919	187.18716050009243	0.1158818000694736	186.17448030004743	2	1	82	4	go_reward	1	1	0	1	0	0	0	0.0	1.0	0	1.0	0.1158818000694736	1645.8784369999776	1826.9476494999835	1827.9681794999635	1828.516663199989	1830.022247100016	1831.0332328999648	1832.052917300025	1833.06559750007	1834.078737100004	1835.211194899981	2019-12-24 19:26:37.510983	0.101320411362527	1.16065795133219	0.51444357367861	0.79110509014813	0.413123162316083	0.51444357367861	-0.101320411362527	0.51444357367861	1.16065795133219	0.51444357367861	0.413123162316083	-0.51444357367861	-1.8269109687752998	1.2605805796516292	0.4478068989241009	0.10624518113302417	1.3211285864688465	0.4478068989241009	-0.4656654530650215	-0.02898774169117635	1.7979232270841237	-0.36723475291753227	2.075622231493261	4	correct	1.0
189.34874099993635	9.30756310000993	nogo_reward	1.0	189.3786837999944	192.15401270007715	194.67292869999073	2.775328900082741	190.38907660008408	193.66938380000647	197.73295610002242	1.764936099993065	1.0035448999842629	0.9532907999819145	196.72096340009034	0.0290187000064179	195.6924372999929	2	1	83	3	nogo_reward	0	1	0	0	0	1	0	0.0	1.0	0	1.0	0.0290187000064179	1645.8784369999776	1835.257120799972	1836.2675136000616	1838.0324497000547	1839.547820799984	1840.5513656999683	1841.5708742999705	1842.599400400068	1843.6113931	1844.564683899982	2019-12-24 19:26:37.510983	5.2043903658557	0.0	4.54786954205125	4.54786954205125	-0.656520823804452	4.54786954205125	-5.2043903658557	4.54786954205125	0.0	4.54786954205125	-0.656520823804452	-4.54786954205125	3.276158985717873	0.09992262831943931	4.4812328672967405	3.863009633036144	0.25148460034831144	4.4812328672967405	-4.499091421437661	4.004438226681463	0.7282792409635888	3.6661912154551075	0.914964280161071	4	correct	1.0
198.68080869992286	8.588083300041035	go_reward	1.0	198.71075149998092	200.26162270002533	202.80074770003534	1.550871200044412	199.71074530005012	201.7771019000793	205.85225440003	0.5508773999752066	1.023645799956057	1.4465803999919444	204.8394477000693	0.1925469000125304	203.81430169998248	2	1	84	4	go_reward	0	0	1	1	0	0	1	0.0	0.0	1	1.0	0.1925469000125304	1645.8784369999776	1844.5891884999585	1845.5891823000277	1846.140059700003	1847.6555389000569	1848.679184700013	1849.69273869996	1850.7178847000469	1851.7306914000076	1853.1772717999995	2019-12-24 19:26:37.510983	0.0536501392134503	1.16065795133219	0.464696839469169	0.716708354068198	0.411046700255719	0.464696839469169	-0.0536501392134503	0.464696839469169	1.16065795133219	0.464696839469169	0.411046700255719	6.056181297178301	-1.8745812409243765	1.2605805796516292	0.3980601647146599	0.031848445053092145	1.3190521244084823	0.3980601647146599	6.10495941779189	-0.07873447590061738	1.7958467650237597	-0.4169814871269733	2.075622231493261	4	wrong	1.0
207.29388699994888	9.00779830000829	nogo_punish	1.0	207.32382980000693	209.76199660007842	212.29757080005948	2.4381668000714853	208.33415610005613	211.27677830005973	215.33790719998092	1.4278405000222847	1.020792499999743	0.9937209000343046	214.33507130004	0.3405062999809161	213.3149822000414	2	1	85	1	nogo_punish	1	-1	0	0	0	1	0	0.0	1.0	0	1.0	0.3405062999809161	1645.8784369999776	1853.2022667999845	1854.2125931000337	1855.640433600056	1857.1552153000373	1858.176007800037	1859.193419200019	1860.2135083000176	1861.2163441999585	1862.2100650999928	2019-12-24 19:26:37.510983	0.565314839513001	-1.50756482339643	-1.84845916764218	-2.00904895658632	-2.41377400715518	-1.84845916764218	-0.565314839513001	-1.84845916764218	-1.50756482339643	-1.84845916764218	-2.41377400715518	1.84845916764218	-1.3629165406248258	-1.4076421950769908	-1.915095842396689	-2.6939088656014256	-1.5057685830024168	-1.915095842396689	1.8972372882557687	-2.3918904830119665	-1.0289739423871394	-2.7301374942383223	-0.592600543235359	4	correct	1.0
216.32475030003116	8.83668059995398	go_reward	1.0	216.3546931000892	218.27349310007435	220.79884060006611	1.91879999998514	217.36652070004493	219.77782590000402	223.85785800009035	0.9069724000294173	1.0210147000620964	1.3335156999528408	222.84453860006715	0.1584592999424785	221.8159682999833	2	1	86	4	go_reward	1	1	0	1	0	0	1	1.0	1.0	0	1.0	0.1584592999424785	1645.8784369999776	1862.2331301000668	1863.2449577000225	1864.151930100052	1865.6562628999816	1866.6772776000437	1867.6944052999609	1868.7229756000447	1869.736295000068	1871.0698107000208	2019-12-24 19:26:37.510983	0.606729743686183	1.16065795133219	1.03312716073418	1.26292893415727	0.426397417047994	1.03312716073418	-0.606729743686183	1.03312716073418	1.16065795133219	1.03312716073418	0.426397417047994	-1.03312716073418	-1.3215016364516439	1.2605805796516292	0.966490485979671	0.5780690251421642	1.3344028412007574	0.966490485979671	-0.9843490401205915	0.4896958453643937	1.8111974818160348	0.15144883413803778	2.075622231493261	4	correct	1.0
225.18700279993936	8.109677500091493	nogo_punish	1.0	225.21694559999742	226.72846580005717	229.25424859998748	1.5115202000597492	226.22650510002882	228.23339509998914	232.29553150001448	0.5019607000283486	1.0208534999983385	1.0310916000744328	231.28060709999454	0.2111258000368252	230.26333560002968	2	1	87	1	nogo_punish	1	-1	0	0	0	1	1	1.0	1.0	0	1.0	0.2111258000368252	1645.8784369999776	1871.095382599975	1872.1049421000064	1872.6069028000347	1874.1118320999667	1875.132685599965	1876.1417726000072	1877.159044099972	1878.173968499992	1879.2050601000665	2019-12-24 19:26:37.510983	0.741549764305718	-1.50756482339643	-1.65654714144482	-1.80344890338593	-2.39809690575054	-1.65654714144482	-0.741549764305718	-1.65654714144482	-1.50756482339643	-1.65654714144482	-2.39809690575054	1.65654714144482	-1.186681615832109	-1.4076421950769908	-1.7231838161993291	-2.4883088124010357	-1.4900914815977768	-1.7231838161993291	1.7053252620584087	-2.1999784568146064	-1.0132968409824994	-2.538225468040962	-0.592600543235359	4	correct	1.0
233.3404749999754	9.004593500053033	go_punish	0.1273539001122117	233.37041780003347	235.29609980003443	237.8466320000589	1.9256820000009611	234.36827750003454	236.82703210006002	240.8971178000793	0.9278222999998889	1.019599899998866	1.4778935000072124	239.88383290008642	0.1553667999105528	238.86408259999052	2	1	88	2	go_punish	1	0	-1	1	1	1	0	0.0	1.0	0	0.1273539001122117	0.1553667999105528	1645.8784369999776	1879.248854800011	1880.246714500012	1881.174536800012	1882.7054691000376	1883.7250690000365	1884.742519599968	1885.762269900064	1886.7755548000569	1888.253448300064	2019-12-24 19:26:37.510983	1.13127901630497	-1.868049579308	-4.027880655904	-3.70245820191934	-2.89660163959903	-4.027880655904	-1.13127901630497	-1.868049579308	-4.027880655904	-2.89660163959903	-4.027880655904	1.868049579308	-0.7969523638328568	-1.7681269509885609	-4.094517330658509	-4.387318110934446	-1.9885962154462669	-4.094517330658509	1.9168276999215887	-3.4400329549688164	-2.643080591135959	-2.7497279059041424	-3.112916375742929	4	correct	1.0
242.3681588999459	8.186845400021639	go_reward	1.0	242.39810170000396	243.84677459998034	246.3774427000901	1.4486728999763727	243.4099242000375	245.35796550009445	249.4288998000552	0.43685039994284125	1.0194771999956629	1.1560472999703961	248.41900360002205	0.8445385000668466	247.3958599000473	2	1	89	4	go_reward	1	1	0	1	0	0	0	0.0	1.0	0	1.0	0.8445385000668466	1645.8784369999776	1888.2765386999815	1889.288361200015	1889.725211599958	1891.236402500072	1892.2558797000677	1893.2742969000249	1894.2974405999996	1895.3073368000328	1896.4633841000032	2019-12-24 19:26:37.510983	0.505914211161133	1.16065795133219	0.928456288339401	1.13822360804943	0.422542077178268	0.928456288339401	-0.505914211161133	0.928456288339401	1.16065795133219	0.928456288339401	0.422542077178268	-0.928456288339401	-1.4223171689766938	1.2605805796516292	0.8618196135848919	0.45336369903432405	1.3305475013310315	0.8618196135848919	-0.8796781677258124	0.3850249729696146	1.8073421419463087	0.046777961743258656	2.075622231493261	4	correct	1.0
250.57841860002395	8.277774099958833	go_reward	1.0	250.608361400082	252.40065239998535	254.91713070007972	1.7922909999033436	251.61990629998036	253.91649010009132	257.97664990008343	0.7807461000049898	1.000640599988401	0.9094855999574065	256.9641675000312	0.0178336000535637	255.93464770005085	2	1	90	4	go_reward	1	1	0	1	0	0	0	0.0	1.0	0	1.0	0.0178336000535637	1645.8784369999776	1896.4867984000596	1897.498343299958	1898.279089399963	1899.794927100069	1900.7955677000573	1901.8130847000284	1902.8426045000087	1903.855086900061	1904.7645725000184	2019-12-24 19:26:37.510983	0.41641413424052	1.16065795133219	0.835612529965336	1.02728700346691	0.419198395724815	0.835612529965336	-0.41641413424052	0.835612529965336	1.16065795133219	0.835612529965336	0.419198395724815	-0.835612529965336	-1.5118172458973067	1.2605805796516292	0.7689758552108268	0.3424270944518041	1.3272038198775784	0.7689758552108268	-0.7868344093517474	0.2921812145955496	1.8039984604928558	-0.046065796630806344	2.075622231493261	4	correct	1.0
258.88013609999325	9.154589899932034	go_reward	1.0	258.9100789000513	261.08241999999154	263.61868720001075	2.1723410999402404	259.91068570001516	262.59867630002555	266.6592059000395	1.1717342999763787	1.020010899985209	1.4054628999438137	265.6466490000025	0.0240191000048071	264.6274599999888	2	1	91	4	go_reward	1	1	0	1	0	0	1	0.0	0.0	0	1.0	0.0240191000048071	1645.8784369999776	1904.7885159000289	1905.7891226999927	1906.960856999969	1908.477113300003	1909.4971241999883	1910.5058969999664	1911.52508599998	1912.537642900017	1913.943105799961	2019-12-24 19:26:37.510983	0.336824394568978	1.16065795133219	0.753120784203069	0.928437636324432	0.416296389634092	0.753120784203069	-0.336824394568978	0.753120784203069	1.16065795133219	0.753120784203069	0.416296389634092	-0.753120784203069	-1.5914069855688489	1.2605805796516292	0.6864841094485599	0.24357772730932614	1.3243018137868554	0.6864841094485599	-0.7043426635894805	0.20968946883328266	1.8010964544021326	-0.12855754239307327	2.075622231493261	4	wrong	1.0
268.0798851000143	9.451999799930945	nogo_reward	1.0	268.10982790007233	270.6845483999932	273.2226601000875	2.574720499920886	269.1158041000597	272.1995170000009	276.27142660005484	1.5687442999335417	1.0231431000865996	1.2904010999484399	275.2518266000552	0.5059596999781206	274.23245820007287	2	1	92	3	nogo_reward	1	0	1	0	0	1	0	0.0	1.0	1	1.0	0.5059596999781206	1645.8784369999776	1913.98826490005	1914.9942411000372	1916.5629853999708	1918.0779539999785	1919.101097100065	1920.1108952000504	1921.1302636000328	1922.1498636000324	1923.4402646999808	2019-12-24 19:26:37.510983	4.7668462783847	0.0	4.0961742961445	4.0961742961445	-0.670671982240202	4.0961742961445	-4.7668462783847	4.0961742961445	0.0	4.0961742961445	-0.670671982240202	2.4247038405029704	2.8386148982468735	0.09992262831943931	4.0295376213899905	3.411314387129394	0.23733344191256145	4.0295376213899905	2.473481961116559	3.5527429807747133	0.7141280825278388	3.2144959695483575	0.914964280161071	4	correct	1.0
277.5570180999348	8.059935400029644	nogo_punish	1.0	277.58696089999285	279.24352480005473	281.7784687000094	1.656563900061883	278.59714229998644	280.75501429999713	284.8299782000249	0.6463825000682846	1.0234544000122696	0.8169180999975652	283.8216483000433	0.1088580000214278	282.792538800044	2	1	93	1	nogo_punish	0	0	-1	0	0	1	0	0.0	1.0	-1	1.0	0.1088580000214278	1645.8784369999776	1923.4653978999704	1924.475579299964	1925.1219618000323	1926.6334512999747	1927.656905699987	1928.6709758000216	1929.7000853000209	1930.7084152000025	1931.5253333	2019-12-24 19:26:37.510983	0.897527978462363	-1.50756482339643	-1.48675143243529	-1.62125584025946	-2.38427941089765	-1.48675143243529	-0.897527978462363	-1.48675143243529	-1.50756482339643	-1.48675143243529	-2.38427941089765	-6.6377865997407595	-1.030703401675464	-1.4076421950769908	-1.553388107189799	-2.3061157492745656	-1.4762739867448866	-1.553388107189799	-6.589008479127171	-2.0301827478050765	-0.9994793461296092	-2.3684297590314323	-0.592600543235359	4	correct	1.0
285.6621491999831	9.267635199939605	nogo_reward	1.0	285.69209200004116	287.97884820005834	290.5092020999873	2.28675620001718	286.69875900005013	289.494726500008	293.56474340008594	1.2800892000082058	1.0144755999792778	1.394983799894817	292.5516154000072	0.0299561000429093	291.5226349000584	2	1	94	3	nogo_reward	1	0	1	0	0	1	1	1.0	1.0	1	1.0	0.0299561000429093	1645.8784369999776	1931.5705290000187	1932.5771960000277	1933.857285200036	1935.3731634999856	1936.3876390999649	1937.401071900036	1938.4300523999848	1939.4431804000635	1940.8381641999583	2019-12-24 19:26:37.510983	4.97308507860452	0.0	4.30729218467572	4.30729218467572	-0.665792893928794	4.30729218467572	-4.97308507860452	4.30729218467572	0.0	4.30729218467572	-0.665792893928794	2.2135859519717496	3.0448536984666936	0.09992262831943931	4.240655509921211	3.6224322756606147	0.24221253022396938	4.240655509921211	2.262364072585338	3.763860869305934	0.7190071708392467	3.4256138580795783	0.914964280161071	4	correct	1.0
294.95293189992685	8.620261200005189	go_reward	1.0	294.9828746999849	296.81407110008877	299.34989459998883	1.8311964001038632	295.9959023999984	298.3300008000808	302.390308400034	0.8181687000903821	1.0198937999080044	1.21282749995612	301.37796130008087	0.0631038000574335	300.35945960006234	2	1	95	4	go_reward	1	1	0	1	0	0	0	0.0	1.0	0	1.0	0.0631038000574335	1645.8784369999776	1940.8613116999625	1941.874339399976	1942.6925081000663	1944.2084378000584	1945.2283315999664	1946.23789660004	1947.2563983000584	1948.2687454000115	1949.4815728999677	2019-12-24 19:26:37.510983	0.265931567810549	1.16065795133219	0.679707588336775	0.840219511769849	0.413776020526226	0.679707588336775	-0.265931567810549	0.679707588336775	1.16065795133219	0.679707588336775	0.413776020526226	-0.679707588336775	-1.6622998123272779	1.2605805796516292	0.6130709135822658	0.15535960275474314	1.3217814446789893	0.6130709135822658	-0.6309294677231865	0.13627627296698863	1.7985760852942667	-0.2019707382593673	2.075622231493261	4	correct	1.0
303.61610360001237	8.960548499948118	go_punish	0.3205857001012191	303.6460464000704	305.96386280003935	308.50722220004536	2.317816399968933	304.6438663000008	307.49433200003114	311.56642360007413	1.3199965000385419	1.0128902000142261	1.0401712999444044	310.55320670001674	0.3616678999969736	309.52385690005053	2	1	96	2	go_punish	1	0	-1	1	1	1	0	0.0	1.0	0	0.3205857001012191	0.3616678999969736	1645.8784369999776	1949.524483400048	1950.5223032999784	1951.842299800017	1953.3727690000087	1954.385659200023	1955.402293900028	1956.4316436999943	1957.4448606000517	1958.485031899996	2019-12-24 19:26:37.510983	1.36064790878784	-1.66778978461756	-4.027880655904	-3.32208069702026	-2.66723274711617	-4.027880655904	-1.36064790878784	-1.66778978461756	-4.027880655904	-2.66723274711617	-4.027880655904	1.66778978461756	-0.5675834713499868	-1.5678671562981208	-4.094517330658509	-4.006940606035366	-1.7592273229634068	-4.094517330658509	1.7165679052311487	-3.2106640624859564	-2.643080591135959	-2.5494681112137023	-3.112916375742929	4	correct	1.0
312.61877850000747	8.6553598999742	go_punish	1.0	312.6487213000655	314.3745037000624	316.9048395000864	1.7257823999968878	313.6480134000303	315.8814306000713	319.9496486000712	0.7264903000320828	1.0234089000150561	1.3544325999685043	318.94812499999534	0.3603159000631422	317.9202261000173	2	1	97	2	go_punish	1	0	-1	1	0	0	0	0.0	1.0	-1	1.0	0.3603159000631422	1645.8784369999776	1958.527158300043	1959.526450400008	1960.25294070004	1961.759867600049	1962.783276500064	1963.7986630999949	1964.826561999973	1965.8280856000488	1967.1825182000173	2019-12-24 19:26:37.510983	-1.56282263467121	-1.49127281534543	-4.027880655904	-2.98501664636485	-2.4650580212328	-4.027880655904	1.56282263467121	-4.027880655904	-1.49127281534543	-4.027880655904	-2.4650580212328	-4.0966573762720495	-3.4910540148090368	-1.3913501870259908	-4.094517330658509	-3.6698765553799557	-1.5570525970800366	-4.094517330658509	-4.047879255658461	-4.571311971273786	-1.0802579564647592	-4.909558982500142	-0.576308535184359	4	correct	1.0
321.30083810002543	8.700802000006888	go_reward	0.8883477000053972	321.3307809000835	323.1820713999914	325.7338580000214	1.8512904999079183	322.33908160007513	324.71893410000484	328.79223500005924	0.8429897999162677	1.0149239000165835	1.2393479000311345	327.78009520005435	0.5450853999936953	326.74645790003683	2	1	98	4	go_reward	1	1	0	1	1	1	0	0.0	1.0	1	0.8883477000053972	0.5450853999936953	1645.8784369999776	1967.209217900061	1968.2175186000527	1969.060508399969	1970.5973710999824	1971.612294999999	1972.6248949000144	1973.658532200032	1974.6706720000368	1975.910019900068	2019-12-24 19:26:37.510983	-0.202685352749054	1.16065795133219	0.614271085064766	0.761369112463632	0.411585732315712	0.614271085064766	0.202685352749054	1.16065795133219	0.614271085064766	0.411585732315712	0.614271085064766	5.3602201853152796	-2.130916732886881	1.2605805796516292	0.5476344103102568	0.07650920344852619	1.3195911564684755	0.5476344103102568	5.408998305928868	-0.1318455830540744	1.9990711498328069	0.27897962473604765	1.529235365225837	4	correct	1.0
330.0244895999788	8.782961299991939	go_reward	0.045379199902527	330.05443240003683	331.90117700002156	334.4530489000024	1.8467445999847314	331.05869340000254	333.43889960006345	337.48478160006925	0.8424836000190226	1.0141492999389357	1.352612099959515	336.47215580008924	0.1972904000431299	335.45914230006747	2	1	99	4	go_reward	1	1	0	1	1	1	0	0.0	1.0	1	0.045379199902527	0.1972904000431299	1645.8784369999776	1975.9328694000144	1976.93713039998	1977.7796139999991	1979.317336600041	1980.33148589998	1981.337579300045	1982.3505928000668	1983.3632186000468	1984.7158307000063	2019-12-24 19:26:37.510983	0.30306733633801	1.65115721013358	0.614271085064766	1.30361335857396	0.917338421402776	0.614271085064766	-0.30306733633801	1.65115721013358	0.614271085064766	0.917338421402776	0.614271085064766	4.86972092651389	-1.625164043799817	1.7510798384530193	0.5476344103102568	0.6187534495588541	1.8253438455555395	0.5476344103102568	4.9184990471274785	0.3739071060329896	1.9990711498328069	0.7694788835374378	1.529235365225837	4	correct	1.0
338.8312060999451	9.264671200071234	go_reward	0.3750984999351203	338.8611489000032	341.62787070008926	344.18233109999005	2.7667218000860885	339.8722993000408	343.15910960000474	347.24138330004644	1.7555714000484386	1.0232214999853113	0.8844368000279701	346.2286279000109	0.1319110000040382	345.1935871000169	2	1	100	4	go_reward	1	1	0	1	1	1	1	1.0	1.0	1	0.3750984999351203	0.1319110000040382	1645.8784369999776	1984.7395858999807	1985.7507363000184	1987.5063077000668	1989.0375465999823	1990.0607680999676	1991.0720240999945	1992.1070648999885	1993.119820300024	1994.004257100052	2019-12-24 19:26:37.510983	0.756119628989891	2.09099001931478	0.614271085064766	1.78817551476879	1.37039071405466	0.614271085064766	-0.756119628989891	2.09099001931478	0.614271085064766	1.37039071405466	0.614271085064766	4.429888117332689	-1.1721117511479358	2.1909126476342196	0.5476344103102568	1.1033156057536844	2.2783961382074236	0.5476344103102568	4.478666237946278	0.8269593986848737	1.9990711498328069	1.2093116927186378	1.529235365225837	4	correct	1.0
348.1397282999244	8.942466500098362	nogo_reward	1.0	348.16967109998245	350.1501338999951	352.6901575000952	1.980462800012674	349.17627540009516	351.6665959000825	355.7279631000713	0.9738584998999613	1.0235616000127266	1.3841745000095216	354.7236462000292	0.1020659999921917	353.70434270007536	2	1	101	3	nogo_reward	1	0	1	0	0	1	0	0.0	1.0	1	1.0	0.1020659999921917	1645.8784369999776	1994.04810809996	1995.0547124000727	1996.0285708999727	1997.54503290006	1998.5685945000728	1999.582779700053	2000.6020832000067	2001.6064001000489	2002.9905746000584	2019-12-24 19:26:37.510983	5.1588838859076	0.0	4.49730507569218	4.49730507569218	-0.661578810215415	4.49730507569218	-5.1588838859076	4.49730507569218	0.0	4.49730507569218	-0.661578810215415	2.0235730609552895	3.2306525057697733	0.09992262831943931	4.430668400937671	3.8124451666770747	0.24642661393734844	4.430668400937671	2.072351181568878	3.953873760322394	0.7232212545526258	3.6156267490960383	0.914964280161071	4	correct	1.0
357.11016889999155	9.684476400027279	nogo_punish	1.0	357.1401117000496	359.84873610001523	362.3660470000468	2.708624399965629	358.1474186000414	361.3546680000145	365.4252336000793	1.7013174999738112	1.0113790000323206	1.399354499997571	364.4165400000056	0.044370700023137	363.3832273000153	2	1	102	1	nogo_punish	1	-1	0	0	0	1	0	0.0	1.0	0	1.0	0.044370700023137	1645.8784369999776	2003.0185487000272	2004.025855600019	2005.7271730999928	2007.233104999992	2008.2444840000244	2009.2616642999928	2010.2949769999832	2011.3036706000569	2012.7030251000544	2019-12-24 19:26:37.510983	0.297752286775083	-1.50756482339643	-2.13390434532821	-2.25716914392112	-2.4316566321033	-2.13390434532821	-0.297752286775083	-2.13390434532821	-1.50756482339643	-2.13390434532821	-2.4316566321033	2.13390434532821	-1.6304790933627438	-1.4076421950769908	-2.200541020082719	-2.942029052936226	-1.5236512079505369	-2.200541020082719	2.1826824659417983	-2.677335660697996	-1.0468565673352594	-3.015582671924352	-0.592600543235359	4	correct	1.0
366.8218605000293	9.060024499893188	nogo_punish	1.0	366.85180330008734	369.0809032000834	371.606009099982	2.229099899996072	367.8596023999853	370.5856313999975	374.662403100054	1.2213008000981063	1.020377699984465	1.2494246999265215	373.6578676000936	0.1685632000444457	372.62291480007116	2	1	103	1	nogo_punish	1	-1	0	0	0	1	0	0.0	1.0	0	1.0	0.1685632000444457	1645.8784369999776	2012.730240300065	2013.7380393999629	2014.959340200061	2016.464068399975	2017.4844460999595	2018.5013518000487	2019.5363046000712	2020.5408401000316	2021.790264799958	2019-12-24 19:26:37.510983	0.501373764340704	-1.50756482339643	-1.91261396935557	-2.0256788021413	-2.41398773369627	-1.91261396935557	-0.501373764340704	-1.91261396935557	-1.50756482339643	-1.91261396935557	-2.41398773369627	1.91261396935557	-1.4268576157971227	-1.4076421950769908	-1.979250644110079	-2.710538711156406	-1.5059823095435068	-1.979250644110079	1.9613920899691586	-2.456045284725356	-1.0291876689282293	-2.7942922959517125	-0.592600543235359	4	correct	1.0
375.90552599995885	9.250699999974813	go_reward	0.006855999934487	375.9354688000169	378.38493669999275	380.9350108000219	2.4494678999758435	376.9466767000267	379.92049930000235	383.97774040000513	1.4382599999660215	1.0145115000195801	1.2084283999865875	382.9777723000152	0.1544468000065535	381.9490757000169	2	1	104	4	go_reward	1	1	0	1	1	1	0	0.0	1.0	1	0.006855999934487	0.1544468000065535	1645.8784369999776	2021.8139057999945	2022.8251137000043	2024.2633736999703	2025.79893629998	2026.8134477999995	2027.8275126999945	2028.8562092999928	2029.8561773999827	2031.0646057999693	2019-12-24 19:26:37.510983	1.16256120268744	2.48596990700556	0.614271085064766	2.22188008995306	1.77683228775221	0.614271085064766	-1.16256120268744	2.48596990700556	0.614271085064766	1.77683228775221	0.614271085064766	4.0349082296419105	-0.7656701774503869	2.5858925353249993	0.5476344103102568	1.5370201809379544	2.6848377119049736	0.5476344103102568	4.083686350255499	1.2334009723824235	1.9990711498328069	1.6042915804094176	1.529235365225837	4	correct	1.0
385.1991792999909	8.994200999964733	go_punish	0.1174528000410646	385.2291221000489	387.85296430008	390.39430010004435	2.6238422000310493	386.2382501000541	389.3839739999969	393.4484172000084	1.614714200025901	1.0103261000474504	0.7749059000052512	392.43558120005764	0.1239111999748274	391.40643020009134	2	1	105	2	go_punish	1	0	-1	1	1	1	0	0.0	1.0	0	0.1174528000410646	0.1239111999748274	1645.8784369999776	2031.1075591000265	2032.1166871000316	2033.7314013000575	2035.2624109999745	2036.272737100022	2037.284867200069	2038.3140182000352	2039.326854199986	2040.1017600999912	2019-12-24 19:26:37.510983	1.89502853612137	-1.49127281534543	-4.39701268177252	-3.48348455708783	-2.50198414565114	-4.39701268177252	-1.89502853612137	-1.49127281534543	-4.39701268177252	-2.50198414565114	-4.39701268177252	1.49127281534543	-0.0332028440164569	-1.3913501870259908	-4.463649356527029	-4.168344466102936	-1.5939787214983765	-4.463649356527029	1.5400509359590187	-3.045415461020926	-3.0122126170044794	-2.3729511419415723	-3.4820484016114492	4	correct	1.0
394.23698019993003	8.970072300057154	nogo_reward	1.0	394.2669229999881	396.7982055000027	399.3374752000673	2.5312825000146404	395.27738270000555	398.3142436000053	402.36848720000125	1.5208227999971768	1.0232316000619903	0.8685081000439823	401.35565300006397	0.0704838000237941	400.34310559998244	2	1	106	3	nogo_reward	1	0	1	0	0	1	0	0.0	1.0	1	1.0	0.0704838000237941	1645.8784369999776	2040.1453599999656	2041.155819699983	2042.6766424999803	2044.1926805999829	2045.2159122000448	2046.22154259996	2047.2340900000415	2048.246924199979	2049.115432300023	2019-12-24 19:26:37.510983	5.32652931434303	0.0	4.66858917534968	4.66858917534968	-0.657940138993347	4.66858917534968	-5.32652931434303	4.66858917534968	0.0	4.66858917534968	-0.657940138993347	1.8522889612977895	3.398297934205203	0.09992262831943931	4.601952500595171	3.9837292663345747	0.2500652851594164	4.601952500595171	1.9010670819113782	4.125157859979894	0.7268599257746937	3.7869108487535383	0.914964280161071	4	correct	1.0
403.2501415000297	9.058955199900083	nogo_reward	1.0	403.28008430008776	406.00283610005863	408.54170350008644	2.7227517999708652	404.2873376000207	407.51853040000424	411.58005140000023	1.7154985000379384	1.0231731000822037	0.7589880999876186	410.575713200029	0.0829326999373734	409.55566920002457	2	1	107	3	nogo_reward	1	0	1	0	0	1	0	0.0	1.0	1	1.0	0.0829326999373734	1645.8784369999776	2049.1585213000653	2050.1657745999983	2051.881273100036	2053.396967399982	2054.420140500064	2055.434106200002	2056.4541502000066	2057.458488399978	2058.2174764999654	2019-12-24 19:26:37.510983	5.47802253508451	0.0	4.82322282176185	4.82322282176185	-0.65479971332266	4.82322282176185	-5.47802253508451	4.82322282176185	0.0	4.82322282176185	-0.65479971332266	1.69765531488562	3.5497911549466834	0.09992262831943931	4.756586147007341	4.138362912746744	0.25320571083010346	4.756586147007341	1.7464334354992086	4.279791506392064	0.7300003514453808	3.941544495165708	0.914964280161071	4	correct	1.0
412.352032899973	7.949176699970849	go_punish	0.1894131998997181	412.38197570003103	413.94315850001294	416.5068555000471	1.561182799981907	413.38980420003645	415.4859114000574	419.54936990002216	0.5533542999764904	1.0209440999897197	0.7817824999797267	418.53436649998184	1.0	417.5254900000291	2	1	108	2	go_punish	1	0	-1	1	1	1	0	n/a	0.0	-1	0.1894131998997181	1.0	1645.8784369999776	2058.2604127000086	2059.268241200014	2059.8215954999905	2061.364348400035	2062.3852925000247	2063.4039270000067	2064.4128034999594	2065.4278068999997	2066.2095893999794	2019-12-24 19:26:37.510983	2.07779534385099	-1.33541189769622	-4.39701268177252	-3.12982982156754	-2.31921733792152	-4.39701268177252	-2.07779534385099	-1.33541189769622	-4.39701268177252	-2.31921733792152	-4.39701268177252	1.33541189769622	0.14956396371316316	-1.2354892693767807	-4.463649356527029	-3.814689730582646	-1.4112119137687569	-4.463649356527029	1.3841900183098086	-2.8626486532913065	-3.0122126170044794	-2.2170902242923622	-3.4820484016114492	4	missed	0.0
420.3421054999344	8.714652299997397	go_punish	0.0829980999696999	420.37204829999246	422.1306379000889	424.6618180000223	1.7585896000964567	421.3697054000804	423.6461173000275	427.69540780002717	0.7609325000084937	1.0157006999947953	1.3912927999626845	426.6926235000142	0.144183799973689	425.66728689998854	2	1	109	2	go_punish	0	-1	0	1	1	1	0	0.0	1.0	-1	0.0829980999696999	0.144183799973689	1645.8784369999776	2066.25048529997	2067.248142400058	2068.0090749000665	2069.524554300005	2070.540255	2071.545723899966	2072.5710604999917	2073.5738448000047	2074.9651375999674	2019-12-24 19:26:37.510983	1.38218493883971	-1.99519294666694	-4.39701268177252	-3.61364719046362	-3.01482774293281	-4.39701268177252	-1.38218493883971	-1.99519294666694	-4.39701268177252	-3.01482774293281	-4.39701268177252	-6.12934508550911	-0.5460464412981167	-1.8952703183475008	-4.463649356527029	-4.298507099478726	-2.1068223187800466	-4.463649356527029	-6.080566964895521	-3.558259058302596	-3.0122126170044794	-2.8768712732630823	-3.4820484016114492	4	correct	1.0
429.08125099993777	8.147992399986833	go_reward	0.1859818999655544	429.1111937999958	430.81360170000744	433.3686806000769	1.7024079000116217	430.1261150999926	432.3453751000343	436.4219697000226	0.6874866000148359	1.0233055000426248	0.83721649996005	435.4089366000844	0.0021341000683605	434.38827200001106	2	1	110	4	go_reward	1	1	0	1	1	1	0	0.0	1.0	1	0.1859818999655544	0.0021341000683605	1645.8784369999776	2074.9896307999734	2076.00455209997	2076.692038699985	2078.223812100012	2079.2471176000545	2080.2667089999886	2081.287373600062	2082.3004067	2083.13762319996	2019-12-24 19:26:37.510983	1.52770915142861	2.84117669070825	0.614271085064766	2.6106622726556	2.14198023649338	0.614271085064766	-1.52770915142861	2.84117669070825	0.614271085064766	2.14198023649338	0.614271085064766	3.67970144593922	-0.4005222287092167	2.9410993190276895	0.5476344103102568	1.9258023636404942	3.0499856606461435	0.5476344103102568	3.7284795665528083	1.598548921123594	1.9990711498328069	1.9594983641121078	1.529235365225837	4	correct	1.0
437.2719803999644	9.683176000020467	go_punish	0.0920360999880358	437.30192320002243	440.1375888000475	442.6978947999887	2.835665600025095	438.30989120004233	441.6744912000145	445.7415881000925	1.8276976000051945	1.0234035999742446	1.2435110999504104	444.73818630003416	0.1090684999944642	443.7134179000277	2	1	111	2	go_punish	0	-1	0	1	1	1	1	0.0	0.0	-1	0.0920360999880358	0.1090684999944642	1645.8784369999776	2083.1803602	2084.18832820002	2086.016025800025	2087.552928199992	2088.5763317999663	2089.5918549000053	2090.6166233000117	2091.62002510007	2092.8635362000205	2019-12-24 19:26:37.510983	0.762681270158058	-2.5829951013616	-4.39701268177252	-4.0446624846262	-3.63433141161446	-4.39701268177252	-0.762681270158058	-2.5829951013616	-4.39701268177252	-3.63433141161446	-4.39701268177252	-5.541542930814449	-1.165550109979769	-2.4830724730421605	-4.463649356527029	-4.729522393641306	-2.7263259874616965	-4.463649356527029	-5.49276481020086	-4.1777627269842466	-3.0122126170044794	-3.4646734279577425	-3.4820484016114492	4	wrong	1.0
446.9991802999284	9.2601355999941	nogo_reward	1.0	447.02912309998646	449.5102381000761	452.03562129999045	2.4811150000896305	448.0361211000709	451.0165781000396	455.0713802999817	1.474117000005208	1.0190431999508291	1.217878399998881	454.0665947999805	0.2083377999952063	453.05332120007415	2	1	112	3	nogo_reward	0	1	0	0	0	1	0	0.0	1.0	0	1.0	0.2083377999952063	1645.8784369999776	2092.907560099964	2093.9145581000485	2095.3886751000537	2096.895015100017	2097.914058299968	2098.9317582000517	2099.945031799958	2100.9498172999592	2102.167695699958	2019-12-24 19:26:37.510983	5.61511872668679	0.0	4.96302772070624	4.96302772070624	-0.652091005980549	4.96302772070624	-5.61511872668679	4.96302772070624	0.0	4.96302772070624	-0.652091005980549	-4.96302772070624	3.686887346548963	0.09992262831943931	4.896391045951731	4.278167811691134	0.2559144181722144	4.896391045951731	-4.914249600092651	4.419596405336454	0.7327090587874917	4.081349394110098	0.914964280161071	4	correct	1.0
456.30323459999636	7.988836399978027	nogo_reward	0.63267810002435	456.3331774000544	457.6669589000521	460.2076440000674	1.3337814999977127	457.33995350007945	459.1989706000313	463.26599069999065	0.32700539997267697	1.0086734000360593	1.0560231000417843	462.25507040007506	0.4796185999875888	461.2280337000266	2	1	113	3	nogo_reward	1	0	1	0	1	0	0	0.0	1.0	0	0.63267810002435	0.4796185999875888	1645.8784369999776	2102.211614400032	2103.218390500057	2103.5453959000297	2105.077407600009	2106.086081000045	2107.106470700004	2108.1335074000526	2109.144427699968	2110.20045080001	2019-12-24 19:26:37.510983	-5.1436927580022	0.0	4.47677819638283	4.47677819638283	-0.666914561619365	4.47677819638283	5.1436927580022	0.0	4.47677819638283	-0.666914561619365	4.47677819638283	0.0	-7.071924138140027	0.09992262831943931	4.410141521628321	3.7919182873677246	0.2410908625333984	4.410141521628321	0.048778120613588556	-1.2103458769891513	5.861578261150871	-0.8816783265961423	5.391742476543901	4	correct	1.0
464.3346750999335	7.697445800062269	nogo_reward	0.0810131999896839	464.3646178999916	465.70754650002345	468.2532389999833	1.3429286000318825	465.3788149000611	467.23353690002114	471.3028319000732	0.3287315999623388	1.01970209996216	0.7592317999806255	470.2883420999865	0.0630413999315351	469.2706079999916	2	1	114	3	nogo_reward	1	0	1	0	1	0	1	1.0	1.0	0	0.0810131999896839	0.0630413999315351	1645.8784369999776	2110.243054899969	2111.2572519000387	2111.585983500001	2113.1119738999987	2114.131675999961	2115.149044999969	2116.166779099964	2117.181268900051	2117.9405007000314	2019-12-24 19:26:37.510983	-5.15655945495832	0.0	4.47677819638283	4.04370161675105	-0.679781258575482	4.47677819638283	5.15655945495832	0.0	4.47677819638283	-0.679781258575482	4.47677819638283	0.0	-7.084790835096147	0.09992262831943931	4.410141521628321	3.358841707735944	0.22822416557728142	4.410141521628321	0.048778120613588556	-1.2232125739452684	5.861578261150871	-0.8816783265961423	5.391742476543901	4	correct	1.0
472.0748936999589	8.542201700038277	go_punish	0.6045083000790328	472.104836500017	473.5809765000595	476.12833199999295	1.4761400000425056	473.11251450004056	475.1182657000609	479.17852469999343	0.468462000018917	1.0100662999320775	1.4685135000618175	478.16569310007617	0.1577811000170186	477.1377797999885	2	1	115	2	go_punish	1	0	-1	1	1	1	0	0.0	1.0	0	0.6045083000790328	0.1577811000170186	1645.8784369999776	2117.9832734999945	2118.990951500018	2119.459413500037	2120.9967027000384	2122.0067689999705	2123.016216799966	2124.0441301000537	2125.056961699971	2126.525475200033	2019-12-24 19:26:37.510983	0.210069361462275	-3.10751887220309	-4.39701268177252	-4.42927579291218	-4.18694332031024	-4.39701268177252	-0.210069361462275	-3.10751887220309	-4.39701268177252	-4.18694332031024	-4.39701268177252	3.10751887220309	-1.7181620186755517	-3.0075962438836505	-4.463649356527029	-5.114135701927286	-3.2789378961574767	-4.463649356527029	3.1562969928166784	-4.730374635680026	-3.0122126170044794	-3.989197198799232	-3.4820484016114492	4	correct	1.0
480.6625946999993	8.04860550002195	nogo_reward	1.0	480.69253750005737	482.05616150004744	484.5815809000046	1.3636239999900681	481.6976453000675	483.5723755999934	487.6333946000086	0.3585161999799311	1.0092053000112173	1.1077484000707045	486.61992420000024	0.4042112999595701	485.5914367000805	2	1	116	3	nogo_reward	0	1	0	0	0	1	1	1.0	1.0	0	1.0	0.4042112999595701	1645.8784369999776	2126.570974500035	2127.576082300045	2127.934598500025	2129.450812599971	2130.460017899982	2131.469873700058	2132.498361199978	2133.511831599986	2134.619580000057	2019-12-24 19:26:37.510983	5.16773541357108	0.0	4.47677819638283	3.65737906319935	-0.690957217188243	4.47677819638283	-5.16773541357108	4.47677819638283	0.0	4.47677819638283	-0.690957217188243	-4.47677819638283	3.239504033433253	0.09992262831943931	4.410141521628321	2.972519154184244	0.21704820696452043	4.410141521628321	-4.4280000757692415	3.933346881013044	0.6938428475797978	3.5950998697866883	0.914964280161071	4	correct	1.0
488.73529620002955	9.544864799943753	go_reward	0.16307579993736	488.7652390000876	491.7344175000908	494.2981441000006	2.9691785000031814	489.77599510003347	493.2719596000388	497.33204100001603	1.9584224000573158	1.0261844999618006	0.9780628000153229	496.31913930003066	0.0979231999954208	495.30458420002833	2	1	117	4	go_reward	1	1	0	1	1	1	0	0.0	1.0	1	0.16307579993736	0.0979231999954208	1645.8784369999776	2134.643676000065	2135.654432100011	2137.6128545000684	2139.1503966000164	2140.176581099978	2141.183021200006	2142.197576300008	2143.2104779999936	2144.188540800009	2019-12-24 19:26:37.510983	1.8562148143932	3.16105763307467	0.614271085064766	2.95969467817666	2.47048589945796	0.614271085064766	-1.8562148143932	3.16105763307467	0.614271085064766	2.47048589945796	0.614271085064766	3.3598205035728	-0.07201656574462678	3.2609802613941095	0.5476344103102568	2.2748347691615542	3.3784913236107235	0.5476344103102568	3.4085986241863884	1.9270545840881739	1.9990711498328069	2.2793793064785275	1.529235365225837	4	correct	1.0
498.3234480000101	8.551489599980414	go_punish	0.1993349000113085	498.35339080006815	500.0192742000795	502.59022920008283	1.665883400011353	499.3606097000884	501.56830849999096	505.6308061000891	0.6586644999911186	1.0219207000918686	1.2740742999594659	504.6249283000361	0.5156469000503421	503.607819100027	2	1	118	2	go_punish	1	0	-1	1	1	1	0	1.0	0.0	0	0.1993349000113085	0.5156469000503421	1645.8784369999776	2144.2318278000457	2145.239046700066	2145.897711200057	2147.4467454999685	2148.4686662000604	2149.4862561000045	2150.5033653000137	2151.5092431000667	2152.783317400026	2019-12-24 19:26:37.510983	0.573566561888512	-2.77867403904618	-4.39701268177252	-3.9753982737368	-3.823446119884	-4.39701268177252	-0.573566561888512	-2.77867403904618	-4.39701268177252	-3.823446119884	-4.39701268177252	2.77867403904618	-1.3546648182493148	-2.6787514107267407	-4.463649356527029	-4.660258182751906	-2.915440695731237	-4.463649356527029	2.8274521596597686	-4.3668774352537865	-3.0122126170044794	-3.6603523656423222	-3.4820484016114492	4	wrong	1.0
506.92058379994705	8.617260100087151	nogo_reward	1.0	506.9505266000051	508.96512220008344	511.4860875000013	2.014595600078337	507.9617631000001	510.4612245000899	514.5509240999822	1.003359100083344	1.02486299991142	1.0168626001100165	513.532231500023	0.5278024000581354	512.4997283000266	2	1	119	3	nogo_reward	1	0	1	0	0	1	0	1.0	0.0	1	1.0	0.5278024000581354	1645.8784369999776	2152.8289635999827	2153.8402000999777	2154.843559200061	2156.3396615000675	2157.364524499979	2158.378165300004	2159.4106685000006	2160.42936109996	2161.44622370007	2019-12-24 19:26:37.510983	4.74437254760504	0.0	4.04370161675105	3.31224080080628	-0.700670930853989	4.04370161675105	-4.74437254760504	4.04370161675105	0.0	4.04370161675105	-0.700670930853989	2.47717651989642	2.816141167467213	0.09992262831943931	3.9770649419965407	2.6273808917911743	0.2073344932987744	3.9770649419965407	2.5259546405100086	3.5002703013812635	0.6841291339140517	3.1620232901549077	0.914964280161071	4	wrong	1.0
515.5790410999907	8.874644799972884	go_punish	0.682442499906756	515.6089839000488	517.6649833000265	520.2204027000116	2.055999399977736	516.6184107000008	519.1962057000492	523.2870286999969	1.0465726000256836	1.0241969999624416	1.1966000000247732	522.2744552000659	0.0969385999487713	521.2407237000302	2	1	120	2	go_punish	0	-1	0	1	1	1	1	1.0	1.0	-1	0.682442499906756	0.0969385999487713	1645.8784369999776	2161.4874209000263	2162.4968476999784	2163.543420300004	2165.0746427000267	2166.098839699989	2167.119160700008	2168.1528922000434	2169.1654656999744	2170.362065699999	2019-12-24 19:26:37.510983	0.894424551628024	-2.48835941195174	-4.39701268177252	-3.57318883265567	-3.50258813014449	-4.39701268177252	-0.894424551628024	-2.48835941195174	-4.39701268177252	-3.50258813014449	-4.39701268177252	-5.63617862022431	-1.0338068285098028	-2.3884367836323004	-4.463649356527029	-4.258048741670776	-2.594582705991727	-4.463649356527029	-5.587400499610721	-4.046019445514276	-3.0122126170044794	-3.3700377385478824	-3.4820484016114492	4	correct	1.0
