onset	duration	trial_type	response_time	cueOnset	targetOnset	fbOnset	cueRT	firstfixOnset	secondfixOnset	waitOnset	firstfixdur	secondfixdur	waitdur	nback_fbOnset	nback_response_time	nback_targetOnset	block	wm	trial	cue	cond	is_common	outcome_go	outcome_nogo	key_correct	key_pressed	is_correct	key_correct_nback	key_pressed_nback	is_correct_nback	outcome	rt	rt_nback	time_scan	time_onset	time_isi1	time_circle	time_isi2	time_feedback	time_same	time_correct	time_iti	time_done	timestamp_scan	DV	Qgo	Qnogo	SV	Wgo	Wnogo	mDV	Qchosen	Qunchosen	Wchosen	Wunchosen	PE	DVC	QgoC	QnogoC	SVC	WgoC	WnogoC	PEC	WchosenC	WunchosenC	QchosenC	QunchosenC	run	outcome_nback	nback_targetResp
0.0	8.308454300044104	go_punish	0.6566173998871818	0.011889399960409719	1.9317298999519608	4.481246899929602	1.919840499991551	1.009493799996335	3.4607498999682775	7.545090399915125	0.9222360999556258	1.020496999961324	0.7752533000893891	6.535356199950456	0.4819429999915883	5.510349999996606	2	1	61	1	go_punish	1	0	-1	1	1	1	0	0.0	1.0	0	0.6566173998871818	0.4819429999915883	1930.3947258000264	1930.4066151999868	1931.4042196000228	1932.3264556999784	1933.8554756999947	1934.875972699956	1935.905075800023	1936.930081999977	1937.9398161999416	1938.715069500031	2020-01-30 16:44:12.053339	0.0366483041124646	-0.0514567782495144	0.0	-0.0514567782495144	0.0366483041124646	0.0	-0.0366483041124646	-0.0514567782495144	0.0	0.0366483041124646	0.0	0.0514567782495144	-10.482025699431368	-5.040150150415267	-3.6361196640277433	-9.245829627835455	-8.4577423943902	-3.6361196640277433	-1.576077808097765	-11.28794387892466	-0.8059181794932863	-9.378467727871156	0.7021979134281422	4	correct	1.0
8.354858899954706	8.47462690004636	go_reward	0.4599238999653607	8.366748299915116	9.835469099925604	12.386701699927926	1.4687208000104874	9.377631600014638	11.3637210999143	15.444330499973148	0.45783749991096556	1.022980600013625	1.397044699988328	14.42729979997921	0.6211493000155315	13.407162299961556	2	1	62	3	go_reward	1	1	0	1	1	1	1	0.0	0.0	1	0.4599238999653607	0.6211493000155315	1930.3947258000264	1938.7614740999416	1939.772357400041	1940.230194899952	1941.7584468999407	1942.7814274999544	1943.801888099988	1944.8220256000056	1945.8390562999996	1947.236100999988	2020-01-30 16:44:12.053339	35.8266458420163	28.5788556717126	0.0	28.5788556717126	35.8266458420163	0.0	-35.8266458420163	28.5788556717126	0.0	35.8266458420163	0.0	3.2180319099542025	25.307971838472465	23.590162299546847	-3.6361196640277433	19.384482822126657	27.332255143513635	-3.6361196640277433	1.590497323606923	24.50205365897917	-0.8059181794932863	19.251844722090958	0.7021979134281422	4	wrong	1.0
16.8710585000224	8.723035599919967	go_reward	0.410195600008592	16.88294789998281	18.547104600002058	21.08004549995485	1.664156700019248	17.8921738999195	20.069538399926387	24.138960900017537	0.6549307000825593	1.0105071000284624	1.4670225998852402	23.126508199958835	0.455865400028415	22.09833069995466	2	1	63	3	go_reward	0	0	1	1	1	1	0	0.0	1.0	0	0.410195600008592	0.455865400028415	1930.3947258000264	1947.2776737000092	1948.286899699946	1948.9418304000285	1950.4642641999528	1951.4747712999813	1952.493056499981	1953.5212339999853	1954.533686700044	1956.0007092999292	2020-01-30 16:44:12.053339	36.9789063534795	29.50390263528	0.0	29.50390263528	36.9789063534795	0.0	-36.9789063534795	29.50390263528	0.0	36.9789063534795	0.0	-29.50390263528	26.46023234993567	24.515209263114247	-3.6361196640277433	20.30952978569406	28.48451565497684	-3.6361196640277433	-31.13143722162728	25.654314170442376	-0.8059181794932863	20.176891685658358	0.7021979134281422	4	correct	1.0
25.63719060004223	8.905790099991009	nogo_punish	1.0	25.64908000000264	27.500647399923537	30.018042300012667	1.8515673999208957	26.65809519996401	29.005613400018547	33.068872399977636	0.8425521999595276	1.01242889999412	1.4859977000160143	32.054203599923994	0.3374316999688744	31.031906099989556	2	1	64	2	nogo_punish	1	-1	0	0	0	1	0	0.0	1.0	0	1.0	0.3374316999688744	1930.3947258000264	1956.043805800029	1957.0528209999904	1957.89537319995	1959.400339200045	1960.412768100039	1961.426631900016	1962.4489293999504	1963.463598200004	1964.94959590002	2020-01-30 16:44:12.053339	1.21160790490918	-2.23068167127342	-1.27848678493407	-1.48993154522115	-2.49009468984326	-1.27848678493407	-1.21160790490918	-1.27848678493407	-2.23068167127342	-1.27848678493407	-2.49009468984326	1.27848678493407	-9.307066098634653	-7.219375043439172	-4.9146064489618135	-10.684304394807091	-10.984485388345924	-4.9146064489618135	-0.34904780141320946	-12.603078967971195	-3.296012869336546	-10.605497734555712	-1.528483757845278	4	correct	1.0
34.58280430000764	8.768404099973623	nogo_punish	1.0	34.59469369996805	36.42389939993109	38.95931399997767	1.8292056999630404	35.59449299995322	37.93957069993462	42.009301599929586	0.82940639997787	1.0197433000430465	1.3537962000120842	41.00361000001408	0.4685856999130919	39.96968879993051	2	1	65	2	nogo_punish	1	-1	0	0	0	1	0	0.0	1.0	0	1.0	0.4685856999130919	1930.3947258000264	1964.9894194999945	1965.9892187999797	1966.8186251999575	1968.334296499961	1969.354039800004	1970.364414599957	1971.3983358000405	1972.404027399956	1973.757823599968	2020-01-30 16:44:12.053339	1.51532320450996	-2.23068167127342	-0.855273426289463	-1.01028009496091	-2.37059663079942	-0.855273426289463	-1.51532320450996	-0.855273426289463	-2.23068167127342	-0.855273426289463	-2.37059663079942	0.855273426289463	-9.003350799033873	-7.219375043439172	-4.491393090317207	-10.20465294454685	-10.864987329302085	-4.491393090317207	-0.7722611600578164	-12.179865609326587	-3.1765148102927063	-10.182284375911104	-1.528483757845278	4	correct	1.0
43.37560799997323	8.086491900030296	nogo_reward	1.0	43.387497399933636	44.944524899940006	47.47856550000165	1.5570275000063702	44.39821349992394	46.455498099909164	50.505751499905955	0.5463114000160658	1.0230674000924864	0.9682378000579774	49.50288119993593	0.5384942999808118	48.48876059998247	2	1	66	4	nogo_reward	1	0	1	0	0	1	0	0.0	1.0	1	1.0	0.5384942999808118	1930.3947258000264	1973.78222319996	1974.7929392999504	1975.3392506999664	1976.8502238999356	1977.873291300028	1978.883486400009	1979.8976069999624	1980.9004772999324	1981.8687150999904	2020-01-30 16:44:12.053339	17.4517281918988	0.71084590346574	24.5226706665106	24.737160116133	7.07094247461179	24.5226706665106	-17.4517281918988	24.5226706665106	0.71084590346574	24.5226706665106	7.07094247461179	7.274216915156202	6.933054188354966	-4.277847468700012	20.886551002482857	15.54278726654706	-1.4234482238908743	20.886551002482857	5.646682328808923	13.198078483473475	6.265024295118504	15.195659716888958	1.4130438168938821	4	correct	1.0
51.5057854000479	8.132081199902814	nogo_punish	1.0	51.51767480000831	52.85276009992185	55.391520299948525	1.335085299913544	52.52516499999865	54.36817629996199	58.45317889994453	0.3275950999232009	1.0233439999865368	1.1965770999665892	57.44095949991606	0.4975544000044465	56.41266299993708	2	1	67	2	nogo_punish	0	0	-1	0	0	1	1	1.0	1.0	-1	1.0	0.4975544000044465	1930.3947258000264	1981.9124006000347	1982.919890800025	1983.2474858999483	1984.7629020999884	1985.786246099975	1986.8073887999635	1987.8356852999425	1988.847904699971	1990.0444817999376	2020-01-30 16:44:12.053339	1.7085111068823	-2.23068167127342	-0.586399095565469	-0.701406708974292	-2.29491020244777	-0.586399095565469	-1.7085111068823	-0.586399095565469	-2.23068167127342	-0.586399095565469	-2.29491020244777	-3.088278699089691	-8.810162896661533	-7.219375043439172	-4.222518759593212	-9.895779558560232	-10.789300900950435	-4.222518759593212	-4.715813285436971	-11.910991278602593	-3.100828381941056	-9.91341004518711	-1.528483757845278	4	correct	1.0
59.663866500021186	7.945738199981633	go_punish	1.0	59.675755899981596	61.149970599915605	63.67621870001312	1.4742146999340093	60.67995329992846	62.65451229992277	66.72134289995279	0.47001729998714836	1.021706400090352	0.9001512000104412	65.71251919993642	0.9401500999229028	64.69013249990508	2	1	68	1	go_punish	1	0	-1	1	0	0	0	0.0	1.0	-1	1.0	0.9401500999229028	1930.3947258000264	1990.070481700008	1991.074679099955	1991.544696399942	1993.0492380999492	1994.0709445000396	1995.0848582999315	1996.1072449999629	1997.1160686999792	1998.0162198999897	2020-01-30 16:44:12.053339	-0.052079236724477	-0.0388735225176343	0.0	-0.0388735225176343	0.052079236724477	0.0	0.052079236724477	0.0	-0.0388735225176343	0.0	0.052079236724477	-3.67467779465516	-10.57075324026831	-5.027566894683386	-3.6361196640277433	-9.233246372103576	-8.442311461778187	-3.6361196640277433	-5.302212381002439	-11.324592183037124	-0.7538389427688093	-9.327010949621641	0.6633243909105079	4	correct	1.0
67.63467079994757	7.836212399997521	nogo_reward	1.0	67.64656019990798	69.01572089991487	71.5299398999191	1.369160700006887	68.65639319992601	70.52109779999546	74.58334509993438	0.35932769998885306	1.0088420999236405	0.8994274999711251	73.57050869998034	0.4956450000172481	72.5496080999726	2	1	69	4	nogo_reward	0	1	0	0	0	1	0	0.0	1.0	0	1.0	0.4956450000172481	1930.3947258000264	1998.0412859999344	1999.0511189999525	1999.4104466999413	2000.915823600022	2001.9246656999455	2002.944333899999	2003.9652345000068	2004.9780708999608	2005.877498399932	2020-01-30 16:44:12.053339	18.9802855910066	0.71084590346574	26.5234494673124	26.6865125953837	7.54316387630581	26.5234494673124	-18.9802855910066	26.5234494673124	0.71084590346574	26.5234494673124	7.54316387630581	-26.5234494673124	8.461611587462766	-4.277847468700012	22.887329803284658	17.492139745797758	-0.9512268221968547	22.887329803284658	-28.15098405365968	15.198857284275276	6.737245696812524	17.19643851769076	1.4130438168938821	4	correct	1.0
75.51532300002918	8.403781299944285	nogo_punish	1.0	75.5272123999896	77.35124009998958	79.85733399994206	1.8240276999999878	76.5390795000128	78.84758219996002	82.89070300001163	0.812160599976778	1.0097517999820411	1.0402906999222523	81.87800349993586	0.5358081000158563	80.86445079999953	2	1	70	2	nogo_punish	1	-1	0	0	0	1	0	0.0	1.0	0	1.0	0.5358081000158563	1930.3947258000264	2005.921938200016	2006.9338053000392	2007.745965900016	2009.2423079999865	2010.2520597999685	2011.259176600026	2012.2727292999623	2013.285428800038	2014.3257194999603	2020-01-30 16:44:12.053339	0.979688218347337	-2.23068167127342	-1.5446567107105	-1.63091808147572	-2.52434492905784	-1.5446567107105	-0.979688218347337	-1.5446567107105	-2.23068167127342	-1.5446567107105	-2.52434492905784	1.5446567107105	-9.538985785196495	-7.219375043439172	-5.180776374738244	-10.82529093106166	-11.018735627560504	-5.180776374738244	-0.0828778756367794	-12.869248893747624	-3.3302631085511263	-10.871667660332141	-1.528483757845278	4	correct	1.0
83.94557580002606	8.316517699975066	go_punish	1.0	83.95746519998647	85.73593879991654	88.26343819999602	1.7784735999300665	84.96643959998596	87.25284239998996	91.31945469998709	0.7694991999305785	1.0105958000060582	0.9545281999744475	90.31629009998846	0.4373217999236658	89.28194349992555	2	1	71	1	go_punish	0	-1	0	1	0	0	0	0.0	1.0	0	1.0	0.4373217999236658	1930.3947258000264	2014.352191000013	2015.3611654000124	2016.130664599943	2017.6475682000164	2018.6581640000225	2019.676669299952	2020.711015900015	2021.7141805000135	2022.668708699988	2020-01-30 16:44:12.053339	-0.909557969850093	-0.0388735225176343	-1.13424050798543	-1.16386143440859	-0.224682538135338	-1.13424050798543	0.909557969850093	-1.13424050798543	-0.0388735225176343	-1.13424050798543	-0.224682538135338	1.13424050798543	-11.428231973393926	-5.027566894683386	-4.770360172013174	-10.35823428399453	-8.719073236638003	-4.770360172013174	-0.49329407836184935	-12.458832691022554	-1.0306007176286243	-10.461251457607071	0.6633243909105079	4	correct	1.0
92.28934430005006	8.45940229995199	go_punish	1.0	92.30123370001047	93.97193140001036	96.47993699996687	1.6706976999998915	93.31485339999199	95.47586659993954	99.52119279990393	0.6570780000183731	1.0040704000273308	1.2394432000585311	98.50782870000626	0.5702640999807045	97.49491489992965	2	1	72	1	go_punish	1	0	-1	1	0	0	0	1.0	0.0	-1	1.0	0.5702640999807045	1930.3947258000264	2022.695959500037	2023.7095792000184	2024.3666572000368	2025.870592399966	2026.8746627999933	2027.889640699956	2028.9025545000327	2029.9159185999304	2031.155361799989	2020-01-30 16:44:12.053339	-0.622392900636446	-0.0388735225176343	-0.74765023215277	-0.770401981224985	-0.125257331516324	-0.74765023215277	0.622392900636446	-0.74765023215277	-0.0388735225176343	-0.74765023215277	-0.125257331516324	-2.92702756250239	-11.14106690418028	-5.027566894683386	-4.383769896180514	-9.964774830810926	-8.619648030018988	-4.383769896180514	-4.554562148849669	-12.072242415189894	-0.9311755110096103	-10.074661181774411	0.6633243909105079	4	wrong	1.0
100.77512190002017	8.29693940002494	go_punish	0.4537750999443233	100.78701129998058	102.14940479991446	104.69693819992244	1.3623934999338871	101.79662379994966	103.6730995000105	107.73828539997362	0.35278099996480705	1.0238386999119484	1.3456653000318965	106.72145049995765	0.5166962000075728	105.70042070001364	2	1	73	1	go_punish	0	-1	0	1	1	1	1	1.0	1.0	-1	0.4537750999443233	0.5166962000075728	1930.3947258000264	2031.181737100007	2032.191349599976	2032.544130599941	2034.067825300037	2035.0916639999489	2036.09514650004	2037.116176299984	2038.1330112	2039.478676500032	2020-01-30 16:44:12.053339	1.29701996157028	-0.0388735225176343	-1.63956189887823	-1.65716851469896	-0.342541937307948	-1.63956189887823	-1.29701996157028	-0.0388735225176343	-1.63956189887823	-0.342541937307948	-1.63956189887823	-3.6358042721375257	-9.221654041973553	-5.027566894683386	-5.275681562905973	-10.8515413642849	-8.836932635810612	-5.275681562905973	-5.263338858484805	-11.667134120345072	-2.4454800783715163	-9.365884472139276	-0.9373639854500877	4	correct	1.0
109.0984367999481	9.526872000074945	go_punish	0.5051663999911398	109.11032619990851	111.54397539992306	114.09833720000438	2.4336492000145427	110.11613819992635	113.07469269994158	117.15931269992166	1.4278371999967021	1.023644500062801	1.4778855000618023	116.14690279995511	0.5950510000111535	115.11211459990545	2	1	74	1	go_punish	0	-1	0	1	1	1	1	1.0	1.0	-1	0.5051663999911398	0.5950510000111535	1930.3947258000264	2039.505051999935	2040.5108639999528	2041.9387011999495	2043.469418499968	2044.4930630000308	2045.506840399932	2046.5416285999815	2047.554038499948	2049.03192400001	2020-01-30 16:44:12.053339	0.0304067988036824	-1.16386143440859	-1.63956189887823	-2.24440263629025	-1.60915510007454	-1.63956189887823	-0.0304067988036824	-1.16386143440859	-1.63956189887823	-1.60915510007454	-1.63956189887823	-2.5108163602465696	-10.48826720474015	-6.152554806574342	-5.275681562905973	-11.43877548587619	-10.103545798577205	-5.275681562905973	-4.1383509465938495	-12.933747283111664	-2.4454800783715163	-10.490872384030231	-0.9373639854500877	4	correct	1.0
118.65169990004506	9.609116100008123	go_punish	1.0	118.66358930000547	121.63877419999358	124.17729989997974	2.9751848999881076	119.67534770001635	123.15397839993216	127.21594569995045	1.9634264999772313	1.0233215000475866	1.0567597000631395	126.2123589999976	0.7080246999394149	125.19225779990643	2	1	75	1	go_punish	1	0	-1	1	0	0	1	1.0	1.0	-1	1.0	0.7080246999394149	1930.3947258000264	2049.058315100032	2050.070073500043	2052.03350000002	2053.5487041999586	2054.572025700006	2055.586983599933	2056.607084800024	2057.610671499977	2058.66743120004	2020-01-30 16:44:12.053339	0.80512258188775	-1.90464248921042	-1.63956189887823	-2.64309177331406	-2.44468448076598	-1.63956189887823	-0.80512258188775	-1.63956189887823	-1.90464248921042	-1.63956189887823	-2.44468448076598	-2.03511589577693	-9.713551421656083	-6.893335861376172	-5.275681562905973	-11.8374646229	-10.939075179268645	-5.275681562905973	-3.6626504821242096	-12.964154081915353	-3.250602660259266	-10.96657284849987	-1.2024445757822777	4	correct	1.0
128.2847823000052	9.756928700021945	nogo_reward	1.0	128.2966716999656	131.01396689994658	133.53359639993846	2.717295199980981	129.30787799996256	132.51767600001745	136.59150009998098	1.7060888999840245	1.015920399921015	1.4621003000065684	135.58097809995456	0.5936421999940649	134.55253719992447	2	1	76	4	nogo_reward	1	0	1	0	0	1	0	0.0	1.0	1	1.0	0.5936421999940649	1930.3947258000264	2058.691397499992	2059.702603799989	2061.408692699973	2062.912401800044	2063.928322199965	2064.947262999951	2065.975703899981	2066.9862259000074	2068.448326200014	2020-01-30 16:44:12.053339	12.2208782162594	0.71084590346574	17.3729085143559	17.4979673540383	5.15203029809654	17.3729085143559	-12.2208782162594	17.3729085143559	0.71084590346574	17.3729085143559	5.15203029809654	14.423979067310903	1.7022042127155679	-4.277847468700012	13.736788850328155	8.303594504452358	-3.3423604004061245	13.736788850328155	12.796444480963624	6.048316331318775	4.346112118603254	8.045897564734258	1.4130438168938821	4	correct	1.0
138.06618029996753	9.515495700063184	nogo_reward	1.0	138.07806969992794	140.62716789997626	143.15459439996607	2.54909820004832	139.08879269997055	142.13117089995626	146.19438909995347	1.538375200005703	1.0234235000098124	1.3991763000376523	145.19058659998677	0.443295200006105	144.16087029990717	2	1	77	4	nogo_reward	1	0	1	0	0	1	0	0.0	1.0	1	1.0	0.443295200006105	1930.3947258000264	2068.4727954999544	2069.483518499997	2071.0218937000027	2072.5258966999827	2073.5493201999925	2074.5555960999336	2075.585312400013	2076.58911489998	2077.9882912000176	2020-01-30 16:44:12.053339	15.8185301485441	0.71084590346574	22.2203538363583	22.3170596427118	6.40182368781418	22.2203538363583	-15.8185301485441	22.2203538363583	0.71084590346574	22.2203538363583	6.40182368781418	9.576533745308502	5.299856145000268	-4.277847468700012	18.584234172330557	13.12268679312586	-2.0925670106884846	18.584234172330557	7.948999158961223	10.895761653321175	5.595905508320894	12.893342886736658	1.4130438168938821	4	correct	1.0
147.6257050000131	8.772291400004178	go_reward	0.4007945999037474	147.63759439997352	149.62909069994907	152.18306650000136	1.9914962999755517	148.6445732999125	151.17056949995435	155.2223553999786	0.984517400036566	1.0124970000470057	1.1875303999991047	154.2095469000053	0.6780779000837356	153.19608509994555	2	1	78	3	go_reward	1	1	0	1	1	1	0	0.0	1.0	1	0.4007945999037474	0.6780779000837356	1930.3947258000264	2078.0323202	2079.039299099939	2080.0238164999755	2081.565295299981	2082.577792300028	2083.590810899972	2084.6042727000317	2085.617081200005	2086.804611600004	2020-01-30 16:44:12.053339	24.5032560973752	19.5906223979316	0.0	19.5906223979316	24.5032560973752	0.0	-24.5032560973752	19.5906223979316	0.0	24.5032560973752	0.0	12.206265183735201	13.984582093831367	14.601929025765848	-3.6361196640277433	10.39624954834566	16.008865398872537	-3.6361196640277433	10.578730597387922	13.178663914338076	-0.8059181794932863	10.263611448309959	0.7021979134281422	4	correct	1.0
156.42338209995023	8.973988400074631	nogo_reward	1.0	156.43527149991064	158.61636039998825	161.15286189992935	2.1810889000776115	157.44507239991776	160.1363525999475	164.19722639990528	1.17128800007049	1.0165092999818626	1.2120335000799969	163.1848450999239	0.6393709999974817	162.16395939991367	2	1	79	4	nogo_reward	1	0	1	0	0	1	1	1.0	1.0	1	1.0	0.6393709999974817	1930.3947258000264	2086.829997299937	2087.839798199944	2089.0110862000147	2090.531078399974	2091.547587699956	2092.55868519994	2093.5795708999503	2094.5919521999317	2095.8039857000117	2020-01-30 16:44:12.053339	18.0834188213036	0.71084590346574	25.2507596328998	25.3261249570068	7.16734081159619	25.2507596328998	-18.0834188213036	25.2507596328998	0.71084590346574	25.2507596328998	7.16734081159619	6.546127948767001	7.564744817759767	-4.277847468700012	21.61463996887206	16.13175210742086	-1.327049886906475	21.61463996887206	4.918593362419722	13.926167449862676	6.3614226321029035	15.92374868327816	1.4130438168938821	4	correct	1.0
165.42519139999058	9.14070690004155	go_punish	0.7964119999669492	165.437080799951	167.72866489994317	170.28766859997972	2.2915840999921784	166.44774249999296	169.27242169994838	173.33451640000544	1.2809223999502137	1.015246900031343	1.2432712999871	172.32122609997145	0.7930750000523403	171.292052799952	2	1	80	1	go_punish	0	-1	0	1	1	1	0	0.0	1.0	-1	0.7964119999669492	0.7930750000523403	1930.3947258000264	2095.8318065999774	2096.8424683000194	2098.1233906999696	2099.667147499975	2100.682394400006	2101.6867785999784	2102.715951899998	2103.729242200032	2104.972513500019	2020-01-30 16:44:12.053339	-0.278787321324383	-1.90464248921042	-2.23068167127342	-2.9194722580571	-2.5094689925978	-2.23068167127342	0.278787321324383	-1.90464248921042	-2.23068167127342	-2.5094689925978	-2.23068167127342	-1.77003530544474	-10.797461324868216	-6.893335861376172	-5.866801335301163	-12.11384510764304	-11.003859691100464	-5.866801335301163	-3.3975698917920196	-13.834061175634924	-3.0365998507667062	-11.231653438832062	-1.528483757845278	4	correct	1.0
174.6108495000517	9.676647499902174	go_reward	0.1281563000520691	174.6227389000121	177.34298319998175	179.89383800001792	2.720244299969636	175.62825780000935	178.87403319997225	182.94681339990325	1.7147253999723944	1.0198048000456765	1.3525730000110343	181.93697839998617	0.4439068000065163	180.9080106000181	2	1	81	3	go_reward	0	0	1	1	1	1	0	0.0	1.0	0	0.1281563000520691	0.4439068000065163	1930.3947258000264	2105.0174647000385	2106.022983600036	2107.737709000008	2109.2687589999987	2110.2885638000444	2111.3027364000445	2112.3317042000126	2113.3415391999297	2114.6941121999407	2020-01-30 16:44:12.053339	29.9303898128617	23.8894544729535	0.0	23.8894544729535	29.9303898128617	0.0	-29.9303898128617	23.8894544729535	0.0	29.9303898128617	0.0	-23.8894544729535	19.41171580931787	18.900761100787747	-3.6361196640277433	14.695081623367559	21.435999114359035	-3.6361196640277433	-25.51698905930078	18.60579762982458	-0.8059181794932863	14.562443523331858	0.7021979134281422	4	correct	1.0
184.31344289996196	7.927599600050598	go_punish	1.0	184.32533229992237	185.7715380999723	188.30031019996363	1.4462058000499383	185.33463169995207	187.27731819997985	191.33746629999928	0.4369064000202343	1.0229919999837875	0.915465599973686	190.3344618999397	0.6474305998999625	189.31467739993218	2	1	82	1	go_punish	1	0	-1	1	0	0	1	1.0	1.0	-1	1.0	0.6474305998999625	1930.3947258000264	2114.720058099949	2115.7293574999785	2116.1662638999987	2117.6720440000063	2118.69503599999	2119.7094031999586	2120.729187699966	2121.7321921000257	2122.6476576999994	2020-01-30 16:44:12.053339	0.82409195307579	-2.40481874685173	-2.23068167127342	-3.11450287651651	-3.05477362434921	-2.23068167127342	-0.82409195307579	-2.23068167127342	-2.40481874685173	-2.23068167127342	-3.05477362434921	-1.4439961233817398	-9.694582050468043	-7.3935121190174815	-5.866801335301163	-12.30887572610245	-11.549164322851874	-5.866801335301163	-3.071530709729019	-13.555273854310544	-3.860691803842496	-11.557692620895061	-1.7026208334235877	4	correct	1.0
192.2639830999542	8.383420700090937	nogo_reward	1.0	192.2758724999146	193.84097979997773	196.36230489995773	1.5651073000631186	193.27890399994772	195.34769999992545	199.42521809996128	0.5620758000300157	1.0146049000322819	1.2340751000442651	198.41271519998577	0.5013863000785932	197.3837065999394	2	1	83	4	nogo_reward	1	0	1	0	0	1	0	0.0	1.0	1	1.0	0.5013863000785932	1930.3947258000264	2122.670598299941	2123.673629799974	2124.235705600004	2125.742425799952	2126.757030699984	2127.778432399966	2128.807441000012	2129.8199438999877	2131.054019000032	2020-01-30 16:44:12.053339	19.5581400009947	0.71084590346574	27.2112892579901	27.2704587871536	7.65314925699539	27.2112892579901	-19.5581400009947	27.2112892579901	0.71084590346574	27.2112892579901	7.65314925699539	4.585598323676702	9.039465997450868	-4.277847468700012	23.575169593962357	18.07608593756766	-0.8412414415072744	23.575169593962357	2.958063737329423	15.886697074952975	6.847231077502104	17.884278308368458	1.4130438168938821	4	correct	1.0
200.67435250000563	8.61704479996115	go_punish	1.0	200.68624189996603	202.2644471999954	204.80469689995493	1.5782053000293672	201.7011505999833	203.78149839991215	207.8506379999451	0.5632966000121087	1.0231985000427812	1.4526486999820918	206.83788599993545	0.6056163999019191	205.81847119994904	2	1	84	1	go_punish	1	0	-1	1	0	0	1	0.0	0.0	-1	1.0	0.6056163999019191	1930.3947258000264	2131.0809676999925	2132.0958764000097	2132.659173000022	2134.1762241999386	2135.1994226999814	2136.2131969999755	2137.232611799962	2138.2453637999715	2139.6980124999536	2020-01-30 16:44:12.053339	0.454393356301798	-2.40481874685173	-2.63232791333751	-3.25426955298483	-3.08672126963931	-2.63232791333751	-0.454393356301798	-2.63232791333751	-2.40481874685173	-2.63232791333751	-3.08672126963931	-1.0423498813176497	-10.064280647242034	-7.3935121190174815	-6.2684475773652535	-12.448642402570771	-11.581111968141975	-6.2684475773652535	-2.669884467664929	-13.956920096374635	-3.892639449132596	-11.959338862959152	-1.7026208334235877	4	wrong	1.0
209.31695380003657	8.44321579998359	go_punish	0.8108956998912618	209.32884319999698	210.67624109995063	213.2323265000016	1.3473978999536484	210.32815660000756	212.20942299999274	216.27898299996718	0.3480844999430701	1.0229035000088516	1.4930760000133887	215.27465739997547	0.7637270999839529	214.24827719992004	2	1	85	1	go_punish	0	-1	0	1	1	1	0	1.0	0.0	-1	0.8108956998912618	0.7637270999839529	1930.3947258000264	2139.7235690000234	2140.722882400034	2141.070966899977	2142.604148800019	2143.627052300028	2144.6430029999465	2145.669383200002	2146.6737087999936	2148.166784800007	2020-01-30 16:44:12.053339	-0.198686554435323	-2.40481874685173	-2.91097510836424	-3.35580423126116	-3.10966166279956	-2.91097510836424	0.198686554435323	-2.40481874685173	-2.91097510836424	-3.10966166279956	-2.91097510836424	-1.26985904780343	-10.717360557979156	-7.3935121190174815	-6.547094772391983	-12.550177080847101	-11.604052361302225	-6.547094772391983	-2.8973936341507094	-14.434253845836684	-3.716893287857526	-11.73182969647337	-2.208777194936098	4	wrong	1.0
217.78551650000736	9.819149999995716	nogo_reward	1.0	217.79740589996777	220.64142639993202	223.18002520001005	2.8440204999642447	218.8072729000121	222.15686170000095	226.23299869999778	1.8341534999199212	1.0231635000091046	1.3835571999657077	225.2233373000056	0.77788910001982	224.19419840001478	2	1	86	4	nogo_reward	1	0	1	0	0	1	0	0.0	1.0	1	1.0	0.77788910001982	1930.3947258000264	2148.192131699994	2149.2019987000385	2151.0361521999585	2152.5515875000274	2153.5747510000365	2154.588924200041	2155.618063100032	2156.627724500024	2158.01128169999	2020-01-30 16:44:12.053339	20.545904709697	0.71084590346574	28.5167228469703	28.5635049674246	7.97081813727329	28.5167228469703	-20.545904709697	28.5167228469703	0.71084590346574	28.5167228469703	7.97081813727329	3.280164734696502	10.027230706153166	-4.277847468700012	24.880603182942558	19.36913211783866	-0.5235725612293747	24.880603182942558	1.6526301483492225	17.192130663933177	7.164899957780004	19.18971189734866	1.4130438168938821	4	correct	1.0
227.64870959997688	9.077590700005658	go_reward	0.3328987000277266	227.6605989999373	230.1861094000053	232.73291709995806	2.525510400068015	228.66612529999088	231.7094657999694	235.78550319990586	1.519984100014426	1.0234512999886647	0.952686500037089	234.77562580001518	0.5889319999841973	233.74805589998164	2	1	87	3	go_reward	1	1	0	1	1	1	0	0.0	1.0	1	0.3328987000277266	0.5889319999841973	1930.3947258000264	2158.0553247999637	2159.0608511000173	2160.5808352000317	2162.104191599996	2163.1276428999845	2164.142781700008	2165.1703516000416	2166.1802289999323	2167.1329154999694	2020-01-30 16:44:12.053339	19.9784477531471	15.9748365204778	0.0	15.9748365204778	19.9784477531471	0.0	-19.9784477531471	15.9748365204778	0.0	19.9784477531471	0.0	15.822051061189002	9.459773749603269	10.986143148312047	-3.6361196640277433	6.780463670891859	11.484057054644436	-3.6361196640277433	14.194516474841723	8.653855570109977	-0.8059181794932863	6.647825570856158	0.7021979134281422	4	correct	1.0
236.75069939997047	8.582779600051708	nogo_reward	1.0	236.76258879993088	238.55524379992835	241.07968640001468	1.7926549999974668	237.7742682999226	240.07011709990934	244.13293439999666	0.7809755000057521	1.0095693001053405	1.212433999985933	243.11417399998732	0.7158209999324754	242.08522389992163	2	1	88	4	nogo_reward	1	0	1	0	0	1	1	1.0	1.0	1	1.0	0.7158209999324754	1930.3947258000264	2167.1573145999573	2168.168994099949	2168.949969599955	2170.464842899936	2171.474412200041	2172.479949699948	2173.5088998000138	2174.527660200023	2175.740094200009	2020-01-30 16:44:12.053339	21.2235990133503	0.71084590346574	29.4075143600562	29.444752010509	8.18391534670587	29.4075143600562	-21.2235990133503	29.4075143600562	0.71084590346574	29.4075143600562	8.18391534670587	2.389373221610601	10.704925009806466	-4.277847468700012	25.77139469602846	20.25037916092306	-0.31047535179679464	25.77139469602846	0.7618386352633215	18.08292217701908	7.377997167212584	20.08050341043456	1.4130438168938821	4	correct	1.0
245.35770910000429	9.282964400015771	nogo_reward	1.0	245.3695984999647	248.13699149992294	250.66717739996943	2.767392999958247	246.3719549999803	249.65232579992175	253.7057431999126	1.7650364999426529	1.0148516000476775	0.9468197000678629	252.692260499927	0.535311600076966	251.67273549991637	2	1	89	4	nogo_reward	1	0	1	0	0	1	0	0.0	1.0	1	1.0	0.535311600076966	1930.3947258000264	2175.764324299991	2176.7666808000067	2178.5317172999494	2180.047051599948	2181.061903199996	2182.067461299943	2183.0869862999534	2184.100468999939	2185.047288700007	2020-01-30 16:44:12.053339	21.6982770518889	0.71084590346574	30.0283233810919	30.0581555829516	8.33004632920305	30.0283233810919	-21.6982770518889	30.0283233810919	0.71084590346574	30.0283233810919	8.33004632920305	1.7685642005749003	11.179603048345069	-4.277847468700012	26.39220371706416	20.86378273336566	-0.1643443692996147	26.39220371706416	0.14102961422762084	18.703731198054776	7.524128149709764	20.70131243147026	1.4130438168938821	4	correct	1.0
254.66805039998144	8.927020900067873	go_punish	0.5898865000344813	254.67993979994185	257.01712689991086	259.5735834999939	2.3371870999690145	255.6821354000133	258.5527733999768	262.6136276000177	1.3349914998975692	1.0208101000171155	0.9933330999920145	261.6044114999238	0.8314498999388888	260.58153819991253	2	1	90	1	go_punish	1	0	-1	1	1	1	0	0.0	1.0	0	0.5898865000344813	0.8314498999388888	1930.3947258000264	2185.0746655999683	2186.0768612000397	2187.4118526999373	2188.947499200003	2189.9683093000203	2190.976263999939	2191.9991372999502	2193.008353400044	2194.001686500036	2020-01-30 16:44:12.053339	-0.560274532793479	-2.74972402718305	-2.91097510836424	-3.43046642732261	-3.47124964115772	-2.91097510836424	0.560274532793479	-2.74972402718305	-2.91097510836424	-3.47124964115772	-2.91097510836424	2.74972402718305	-11.078948536337311	-7.738417399348802	-6.547094772391983	-12.624839276908551	-11.965640339660386	-6.547094772391983	1.1221894408357707	-14.795841824194845	-3.716893287857526	-12.07673497680469	-2.208777194936098	4	correct	1.0
263.6196862000502	8.944540999947094	nogo_reward	1.0	263.6315756000106	266.25512370001456	268.776586599997	2.6235481000039726	264.642155600013	267.7572090999454	271.81720059993654	1.6129681000015808	1.0193775000516325	0.758916000021145	270.81329640001036	0.5506956999888644	269.7952558000104	2	1	91	4	nogo_reward	0	1	0	0	0	1	1	1.0	1.0	0	1.0	0.5506956999888644	1930.3947258000264	2194.026301400037	2195.0368814000394	2196.649849500041	2198.151934899972	2199.1713124000235	2200.189981600037	2201.208022200037	2202.211926399963	2202.970842399984	2020-01-30 16:44:12.053339	22.0368082416843	0.71084590346574	30.4690026672932	30.4930508081889	8.43219442560889	30.4690026672932	-22.0368082416843	30.4690026672932	0.71084590346574	30.4690026672932	8.43219442560889	-30.4690026672932	11.518134238140469	-4.277847468700012	26.832883003265458	21.29867795860296	-0.06219627289377527	26.832883003265458	-32.09653725364048	19.144410484256078	7.626276246115603	21.14199171767156	1.4130438168938821	4	correct	1.0
272.5921795000322	8.471049299929291	nogo_reward	1.0	272.6040688999926	274.11546379991364	276.6368883999528	1.5113948999210152	273.611273499904	275.6315583999965	279.68472909997195	0.5041903000096681	1.0053299999563023	1.3903890999499708	278.6714236999394	0.5847134999930859	277.65033759991616	2	1	92	4	nogo_reward	1	0	1	0	0	1	0	1.0	0.0	1	1.0	0.5847134999930859	1930.3947258000264	2202.998794700019	2204.0059992999304	2204.51018959994	2206.026284200023	2207.0316141999792	2208.0450633999426	2209.066149499966	2210.0794548999984	2211.4698439999484	2020-01-30 16:44:12.053339	14.4522716408733	0.71084590346574	20.2416053093648	20.2611070682987	5.7893336684915	20.2416053093648	-14.4522716408733	20.2416053093648	0.71084590346574	20.2416053093648	5.7893336684915	11.555282272302001	3.933597637329468	-4.277847468700012	16.60548564533706	11.066734218712758	-2.7050570300111643	16.60548564533706	9.927747685954722	8.917013126327676	4.983415488998214	10.914594359743159	1.4130438168938821	4	wrong	1.0
281.0878276999574	8.175447400076791	nogo_reward	1.0	281.0997170999178	282.8234349999109	285.3466933999441	1.723717899993062	282.10522579995427	284.321555299917	288.3912421999264	0.7182091999566182	1.0251381000271067	0.8839223000682068	287.3800504999233	0.4097616999642923	286.3521654999347	2	1	93	4	nogo_reward	1	0	1	0	0	1	1	0.0	0.0	1	1.0	0.4097616999642923	1930.3947258000264	2211.4944428999443	2212.4999515999807	2213.2181607999373	2214.7162810999434	2215.7414191999706	2216.746891299961	2217.7747762999497	2218.785967999953	2219.669890300021	2020-01-30 16:44:12.053339	17.4684078445984	0.71084590346574	24.3332908239579	24.3491972942123	6.86488297935953	24.3332908239579	-17.4684078445984	24.3332908239579	0.71084590346574	24.3332908239579	6.86488297935953	7.463596757708903	6.949733841054567	-4.277847468700012	20.697171159930157	15.154824444626358	-1.6295077191431346	20.697171159930157	5.836062171361624	13.008698640920775	6.058964799866244	15.006279874336258	1.4130438168938821	4	wrong	1.0
289.30793300003324	9.016536299953714	nogo_punish	1.0	289.31982239999365	291.313382699969	293.8435157999627	1.9935602999753428	290.31545879994496	292.8285778999559	296.8898941999066	0.9979239000240341	1.014937900006771	1.4464645000407472	295.88578369992297	0.4650055000092834	294.8569707999702	2	1	94	2	nogo_punish	0	0	-1	0	0	1	0	0.0	1.0	-1	1.0	0.4650055000092834	1930.3947258000264	2219.71454820002	2220.7101845999714	2221.7081084999954	2223.2233036999824	2224.238241599989	2225.2516965999966	2226.2805094999494	2227.284619999933	2228.731084499974	2020-01-30 16:44:12.053339	1.35339159794114	-2.23068167127342	-1.03999355670318	-1.1053366482605	-2.39338515464433	-1.03999355670318	-1.35339159794114	-1.03999355670318	-2.23068167127342	-1.03999355670318	-2.39338515464433	-2.63468423795198	-9.165282405602692	-7.219375043439172	-4.676113220730923	-10.299709497846441	-10.887775853146994	-4.676113220730923	-4.262218824299259	-12.364585739740305	-3.1993033341376163	-10.367004506324822	-1.528483757845278	4	correct	1.0
298.3507515999954	7.848666799953207	go_punish	0.0950353000080213	298.36264099995583	299.69890780001856	302.2323676999656	1.336266800062731	299.3715337999163	301.2105568000113	305.2914644000118	0.32737400010228157	1.0218108999542892	0.9198433998972178	304.27839889994334	0.4425864999648183	303.2513910999985	2	1	95	1	go_punish	1	0	-1	1	1	1	0	0.0	1.0	0	0.0950353000080213	0.4425864999648183	1930.3947258000264	2228.7573667999823	2229.7662595999427	2230.093633600045	2231.6052826000378	2232.627093499992	2233.646116900025	2234.67312469997	2235.6861902000383	2236.6060335999355	2020-01-30 16:44:12.053339	0.598371240773468	-1.85764219646384	-2.91097510836424	-2.35173294053906	-2.31260386759077	-2.91097510836424	-0.598371240773468	-1.85764219646384	-2.91097510836424	-2.31260386759077	-2.91097510836424	1.85764219646384	-9.920302762770365	-6.846335568629592	-6.547094772391983	-11.546105790125	-10.806994566093435	-6.547094772391983	0.23010761011656067	-13.637196050627894	-3.716893287857526	-11.18465314608548	-2.208777194936098	4	correct	1.0
306.2246331999777	9.394536899984814	nogo_reward	1.0	306.2365225999381	308.7121970999285	311.21844480000414	2.4756744999904186	307.23677529999964	310.2173561999805	314.27835519995983	1.4754217999288812	1.0010886000236496	1.3527042999630794	313.2644595999734	0.6058068999554962	312.2361517999086	2	1	96	4	nogo_reward	0	1	0	0	0	1	0	0.0	1.0	0	1.0	0.6058068999554962	1930.3947258000264	2236.6312483999645	2237.631501100026	2239.106922899955	2240.612082000007	2241.6131706000306	2242.630877599935	2243.6591854	2244.6730809999863	2246.0257852999493	2020-01-30 16:44:12.053339	19.3174940269083	0.71084590346574	26.8254047631261	26.8384514622215	7.50791073621779	26.8254047631261	-19.3174940269083	26.8254047631261	0.71084590346574	26.8254047631261	7.50791073621779	-26.8254047631261	8.798820023364467	-4.277847468700012	23.18928509909836	17.64407861263556	-0.986479962284875	23.18928509909836	-28.452939349473382	15.500812580088978	6.701992556724504	17.49839381350446	1.4130438168938821	4	correct	1.0
315.6438999000238	9.143750399933197	nogo_reward	1.0	315.65578929998424	318.4380678000159	320.9685301999559	2.78227850003168	316.66195009998023	319.9540829999603	324.0209126999832	1.7761177000356838	1.0144471999956295	0.7786269999342039	323.0174543999599	0.5177788999862969	321.9888903999233	2	1	97	4	nogo_reward	1	0	1	0	0	1	0	0.0	1.0	1	1.0	0.5177788999862969	1930.3947258000264	2246.0505151000107	2247.0566759000067	2248.8327936000424	2250.3488087999867	2251.3632559999824	2252.3836161999498	2253.4121801999863	2254.4156385000097	2255.194265499944	2020-01-30 16:44:12.053339	12.6611686512561	0.71084590346574	17.8521067119738	17.862865899122	5.19093806071778	17.8521067119738	-12.6611686512561	17.8521067119738	0.71084590346574	17.8521067119738	5.19093806071778	13.944780869693002	2.142494647712267	-4.277847468700012	14.215987047946056	8.668493049536059	-3.3034526377848845	14.215987047946056	12.317246283345723	6.527514528936676	4.385019881224494	8.525095762352159	1.4130438168938821	4	correct	1.0
324.8323937000241	8.190052899997681	nogo_punish	1.0	324.8442830999845	326.63851520000003	329.1743082000178	1.7942321000155061	325.8514708	328.15379129990447	332.2286316999232	0.7870444000000134	1.0205169001133072	0.8057043000590056	331.21473819995276	0.9891040000366048	330.1908789000006	2	1	98	2	nogo_punish	1	-1	0	0	0	1	0	1.0	0.0	0	1.0	0.9891040000366048	1930.3947258000264	2255.239008900011	2256.2461966000265	2257.0332410000265	2258.548517099931	2259.569034000044	2260.585604700027	2261.609463999979	2262.6233574999496	2263.4290618000086	2020-01-30 16:44:12.053339	0.738198274661976	-2.23068167127342	-1.8510066591653	-1.90095549694974	-2.58920493382728	-1.8510066591653	-0.738198274661976	-1.8510066591653	-2.23068167127342	-1.8510066591653	-2.58920493382728	1.8510066591653	-9.780475728881857	-7.219375043439172	-5.487126323193044	-11.09532834653568	-11.083595632329946	-5.487126323193044	0.22347207281802062	-13.175598842202424	-3.395123113320566	-11.178017608786941	-1.528483757845278	4	wrong	1.0
333.0460737999533	8.000277500017091	nogo_reward	1.0	333.05796319991373	334.4911529999224	337.0167737000154	1.4331898000086767	334.0697787000097	336.00662010000065	340.0591025999745	0.42137429991271347	1.0101536000147462	0.9991380999563262	339.05537730001356	0.552997599937953	338.03494079993084	2	1	99	4	nogo_reward	0	1	0	0	0	1	1	1.0	1.0	0	1.0	0.552997599937953	1930.3947258000264	2263.45268899994	2264.464504500036	2264.885878799949	2266.401345900027	2267.411499500042	2268.4296665999573	2269.45010310004	2270.453828400001	2271.4529664999573	2020-01-30 16:44:12.053339	16.2639973077712	0.71084590346574	22.7327489360879	22.7416684377179	6.4687516283167	22.7327489360879	-16.2639973077712	22.7327489360879	0.71084590346574	22.7327489360879	6.4687516283167	-22.7327489360879	5.745323304227366	-4.277847468700012	19.09662927206016	13.547295588131961	-2.0256390701859646	19.09662927206016	-24.360283522435182	11.408156753050777	5.662833448823414	13.40573798646626	1.4130438168938821	4	correct	1.0
341.09105449996423	8.711866300087422	nogo_punish	1.0	341.10294389992464	343.06827379995934	345.60741029994074	1.9653299000347033	342.1095673999514	344.58373199996936	348.6481935000045	0.9587064000079408	1.0236782999713796	1.1666167000075802	347.640089399996	0.5570869999937713	346.61175569996635	2	1	100	2	nogo_punish	0	0	-1	0	0	1	1	0.0	0.0	-1	1.0	0.5570869999937713	1930.3947258000264	2271.497669699951	2272.504293199978	2273.462999599986	2274.978457799996	2276.002136099967	2277.006481499993	2278.0348152000224	2279.042919300031	2280.2095360000385	2020-01-30 16:44:12.053339	1.1856656532268	-2.23068167127342	-1.25144783195943	-1.28995098882659	-2.43711348518623	-1.25144783195943	-1.1856656532268	-1.25144783195943	-2.23068167127342	-1.25144783195943	-2.43711348518623	-2.42322996269573	-9.333008350317034	-7.219375043439172	-4.887567495987174	-10.48432383841253	-10.931504183688894	-4.887567495987174	-4.050764549043009	-12.576040014996554	-3.243031664679516	-10.578458781581071	-1.528483757845278	4	wrong	1.0
349.82873439998366	8.483776899985969	nogo_reward	1.0	349.84062379994407	351.9042058999182	354.44376209995175	2.0635820999741554	350.85177649999946	353.4198824999619	357.49659959995165	1.0524293999187648	1.0238795999898684	0.8278010999783874	356.4837737999626	0.5196280999807641	355.45643799996446	2	1	101	4	nogo_reward	1	0	1	0	0	1	1	0.0	0.0	1	1.0	0.5196280999807641	1930.3947258000264	2280.2353495999705	2281.246502300026	2282.2989316999447	2283.8146082999883	2284.838487899978	2285.851163799991	2286.878499599989	2287.891325399978	2288.7191264999565	2020-01-30 16:44:12.053339	10.6631332144171	0.71084590346574	15.188225349833	15.1956575706956	4.52509213541588	15.188225349833	-10.6631332144171	15.188225349833	0.71084590346574	15.188225349833	4.52509213541588	16.6086622318338	0.14445921087326674	-4.277847468700012	11.552105685805257	6.001284721109659	-3.9692985630867845	11.552105685805257	14.981127645486522	3.8636331667958768	3.719173955922594	5.8612144002113595	1.4130438168938821	4	wrong	1.0
358.35800520004705	8.296399699990161	go_reward	0.551359299919568	358.36989460000746	359.8663985999299	362.4005321000002	1.4965039999224246	359.36592619994167	361.3759255999464	365.440477899974	0.5004723999882117	1.0246065000537783	1.225816400023632	364.42730879993155	0.5552353999810293	363.4139045999616	2	1	102	3	go_reward	1	1	0	1	1	1	0	0.0	1.0	1	0.551359299919568	0.5552353999810293	1930.3947258000264	2288.764620400034	2289.760651999968	2290.2611243999563	2291.770651399973	2292.7952579000266	2293.808630399988	2294.822034599958	2295.8352037000004	2297.061020100024	2020-01-30 16:44:12.053339	26.9487127303642	21.4997324066383	0.0	21.4997324066383	26.9487127303642	0.0	-26.9487127303642	21.4997324066383	0.0	26.9487127303642	0.0	10.2971551750285	16.430038726820367	16.51103903447255	-3.6361196640277433	12.30535955705236	18.454322031861537	-3.6361196640277433	8.669620588681221	15.624120547327076	-0.8059181794932863	12.17272145701666	0.7021979134281422	4	correct	1.0
366.6804715000326	8.772354000015184	go_punish	0.4357811000663787	366.692360899993	368.9189950999573	371.454438799992	2.2266341999643373	367.70187370001736	370.4405738000057	374.50316149997457	1.2171213999399697	1.0138649999862537	0.9615534000336083	373.4899404000023	0.7359125999500975	372.46104309998896	2	1	103	1	go_punish	0	-1	0	1	1	1	0	0.0	1.0	-1	0.4357811000663787	0.7359125999500975	1930.3947258000264	2297.0870867000194	2298.096599500044	2299.3137208999838	2300.835299600032	2301.8491646000184	2302.8557689000154	2303.8846662000287	2304.897887300001	2305.8594407000346	2020-01-30 16:44:12.053339	1.3451303503494	-1.28269730022541	-2.91097510836424	-1.64576306162694	-1.56584475801484	-2.91097510836424	-1.3451303503494	-1.28269730022541	-2.91097510836424	-1.56584475801484	-2.91097510836424	-2.39198049442975	-9.173543653194432	-6.271390672391162	-6.547094772391983	-10.840135911212881	-10.060235456517505	-6.547094772391983	-4.01951508077703	-12.890436941051965	-3.716893287857526	-10.609708249847051	-2.208777194936098	4	correct	1.0
375.4787108999449	8.539669800084084	nogo_reward	1.0	375.4906002999053	377.0508709999265	379.5903575000118	1.5602707000211922	376.4912468999389	378.56676179997135	382.62472969992064	0.559624099987559	1.0235957000404596	1.4055404000687304	381.613735499908	0.4967967999400571	380.59399839991215	2	1	104	4	nogo_reward	1	0	1	0	0	1	0	1.0	0.0	1	1.0	0.4967967999400571	1930.3947258000264	2305.8853260999317	2306.8859726999654	2307.445596799953	2308.961487599998	2309.9850833000382	2310.9887241999386	2312.0084612999344	2313.019455499947	2314.424995900016	2020-01-30 16:44:12.053339	14.9236671468142	0.71084590346574	20.9542635268206	20.9604872690736	6.03059638000642	20.9542635268206	-14.9236671468142	20.9542635268206	0.71084590346574	20.9542635268206	6.03059638000642	10.842624054846201	4.404993143270367	-4.277847468700012	17.31814386279286	11.766114419487659	-2.4637943184962445	17.31814386279286	9.215089468498922	9.629671343783476	5.224678200513134	11.62725257719896	1.4130438168938821	4	wrong	1.0
384.04628530004993	8.092293499968946	go_punish	0.5288714999333024	384.05817470001034	385.41892610001355	387.9695050999287	1.3607514000032097	385.0576077000003	386.948615400004	391.00983519991837	0.36131840001326054	1.0208896999247372	1.140633000060916	390.00734599994007	0.5651225000619888	388.97674209997035	2	1	105	1	go_punish	1	0	-1	1	1	1	1	0.0	0.0	0	0.5288714999333024	0.5651225000619888	1930.3947258000264	2314.452900500037	2315.4523335000267	2315.81365190004	2317.3433412000304	2318.364230899955	2319.371467899997	2320.4020717999665	2321.404560999945	2322.5451940000057	2020-01-30 16:44:12.053339	0.426161159013572	-2.03650329966897	-2.91097510836424	-2.30626829422298	-2.48481394935067	-2.91097510836424	-0.426161159013572	-2.03650329966897	-2.91097510836424	-2.48481394935067	-2.91097510836424	2.03650329966897	-10.09251284453026	-7.025196671834722	-6.547094772391983	-11.50064114380892	-10.979204647853335	-6.547094772391983	0.4089687133216904	-13.809406132387794	-3.716893287857526	-11.363514249290612	-2.208777194936098	4	wrong	1.0
392.16693760000635	7.934271099977195	go_punish	1.0	392.17882699996676	393.5765403999246	396.1166910999457	1.3977133999578655	393.18687209999166	395.0929848999947	399.15081379993376	0.38966829993296415	1.0237061999509933	0.9622843000101966	398.1485926000166	0.4606628000037744	397.1351864999158	2	1	106	1	go_punish	1	0	-1	1	0	0	0	1.0	0.0	-1	1.0	0.4606628000037744	1930.3947258000264	2322.573552799993	2323.581597900018	2323.971266199951	2325.487710700021	2326.511416899972	2327.529912299942	2328.543318400043	2329.54553959996	2330.5078238999704	2020-01-30 16:44:12.053339	-1.24488445835165	-1.39255291584555	-2.91097510836424	-1.59502734854881	-1.66609065001259	-2.91097510836424	1.24488445835165	-2.91097510836424	-1.39255291584555	-2.91097510836424	-1.66609065001259	-0.76370268629092	-11.763558461895483	-6.381246288011302	-6.547094772391983	-10.78940019813475	-10.160481348515255	-6.547094772391983	-2.3912372726381994	-14.235567291401363	-2.472008829505876	-12.237986057985882	-0.6903550024174079	4	wrong	1.0
400.1471922999481	9.041673200088553	nogo_punish	1.0	400.1590816999085	402.55763779999666	405.09379169996805	2.3985561000881717	401.15460120001785	404.07400849997043	408.1747079999184	1.4030365999788046	1.0197831999976188	1.0260469000786543	407.15132079995215	0.7520638999994844	406.11776739999164	2	1	107	2	nogo_punish	1	-1	0	0	0	1	0	0.0	1.0	0	1.0	0.7520638999994844	1930.3947258000264	2330.553807499935	2331.5493270000443	2332.952363600023	2334.468734299997	2335.4885174999945	2336.512493200018	2337.5460465999786	2338.569433799945	2339.5954807000235	2020-01-30 16:44:12.053339	0.619592810620584	-2.23068167127342	-1.99968529459357	-2.02959819190672	-2.61927810521415	-1.99968529459357	-0.619592810620584	-1.99968529459357	-2.23068167127342	-1.99968529459357	-2.61927810521415	1.99968529459357	-9.899081192923248	-7.219375043439172	-5.635804958621313	-11.22397104149266	-11.113668803716815	-5.635804958621313	0.3721507082462905	-13.324277477630694	-3.425196284707436	-11.326696244215212	-1.528483757845278	4	correct	1.0
409.2180870999582	9.643473100033134	go_punish	1.0	409.2299764999186	411.8101520999337	414.34951450000494	2.5801756000150817	410.236072200001	413.3260177999034	417.39607069990575	1.5740798999327126	1.023496700101532	1.4773789000460056	416.38156699994556	0.6163360000355169	415.36350169999037	2	1	108	1	go_punish	1	0	-1	1	0	0	1	0.0	0.0	-1	1.0	0.6163360000355169	1930.3947258000264	2339.624702299945	2340.6307980000274	2342.20487789996	2343.72074359993	2344.7442403000314	2345.758227500017	2346.776292799972	2347.790796499932	2349.268175399978	2020-01-30 16:44:12.053339	-1.27621883063989	-1.39255291584555	-3.10775503734689	-2.26041889421668	-1.831536206707	-3.10775503734689	1.27621883063989	-3.10775503734689	-1.39255291584555	-3.10775503734689	-1.831536206707	-0.5669227573082698	-11.794892834183722	-6.381246288011302	-6.743874701374633	-11.45479174380262	-10.325926905209664	-6.743874701374633	-2.1944573436555492	-14.432347220384013	-2.6374543862002864	-12.434765986968532	-0.6903550024174079	4	wrong	1.0
418.9075418000575	9.32388619997073	nogo_punish	1.0	418.9194312000179	421.405780599918	423.92020319995913	2.486349399900064	419.9244636999208	422.9129583999745	426.9528340999966	1.4813168999971822	1.007244799984619	1.2904832999920473	425.94905089994404	0.7398432000773028	424.9389008999567	2	1	109	2	nogo_punish	1	-1	0	0	0	1	1	1.0	1.0	0	1.0	0.7398432000773028	1930.3947258000264	2349.3141570000444	2350.3191894999472	2351.8005063999444	2353.307684200001	2354.3149289999856	2355.333626699983	2356.3437766999705	2357.347559900023	2358.638043200015	2020-01-30 16:44:12.053339	1.10048010121465	-2.23068167127342	-1.35767458025123	-1.38108410613038	-2.45815468146588	-1.35767458025123	-1.10048010121465	-1.35767458025123	-2.23068167127342	-1.35767458025123	-2.45815468146588	1.35767458025123	-9.418193902329183	-7.219375043439172	-4.993794244278973	-10.575456955716321	-10.952545379968544	-4.993794244278973	-0.26986000609604943	-12.682266763288354	-3.2640728609591663	-10.684685529872871	-1.528483757845278	4	correct	1.0
428.2578642000449	9.438950699986435	go_punish	0.8640691000036895	428.2697536000053	430.7167177000081	433.2747910999458	2.4469641000027877	429.2784036999799	432.2549288999287	436.3337337999835	1.4383140000281855	1.0198622000170872	1.374970500008203	435.3214083999626	0.7344461999600753	434.29230639990396	2	1	110	1	go_punish	1	0	-1	1	1	1	1	1.0	1.0	0	0.8640691000036895	0.7344461999600753	1930.3947258000264	2358.6644794000317	2359.6731295000063	2361.1114435000345	2362.649654699955	2363.669516899972	2364.6870321999304	2365.716134199989	2366.72845960001	2368.103430100018	2020-01-30 16:44:12.053339	1.31197258423321	-1.39255291584555	-3.24888038936988	-2.69099718451541	-1.93690780513668	-3.24888038936988	-1.31197258423321	-1.39255291584555	-3.24888038936988	-1.93690780513668	-3.24888038936988	1.39255291584555	-9.206701419310622	-6.381246288011302	-6.885000053397624	-11.885370034101351	-10.431298503639345	-6.885000053397624	-0.23498167050172936	-13.261499988173805	-4.054798568863166	-10.719563865467192	-2.546682475941738	4	correct	1.0
437.74299479997717	8.848795300000347	nogo_punish	1.0	437.7548841999376	439.80292089993577	442.3219849999298	2.0480366999981925	438.75670349993766	441.30815629998665	445.35539889999177	1.0462173999981133	1.013828699943133	1.2482805999461561	444.34264269995015	0.5364698000485078	443.33036799996603	2	1	111	2	nogo_punish	0	0	-1	0	0	1	1	0.0	0.0	-1	1.0	0.5364698000485078	1930.3947258000264	2368.149609999964	2369.151429299964	2370.197646699962	2371.702882100013	2372.716710799956	2373.7250937999925	2374.7373684999766	2375.750124700018	2376.9984052999644	2020-01-30 16:44:12.053339	1.41297260453377	-2.23068167127342	-0.94241645763079	-0.960862708357456	-2.35538906216456	-0.94241645763079	-1.41297260453377	-0.94241645763079	-2.23068167127342	-0.94241645763079	-2.35538906216456	-2.73226133702437	-9.105701399010062	-7.219375043439172	-4.578536121658534	-10.155235557943397	-10.849779760667225	-4.578536121658534	-4.3597959233716495	-12.267008640667914	-3.161307241657846	-10.269427407252431	-1.528483757845278	4	wrong	1.0
446.6189776000101	8.496500100009143	go_punish	0.4258646999951452	446.6308669999705	448.32684869994387	450.8548549999248	1.6959816999733448	447.64014769997425	449.8426341000011	453.9089768999254	0.6867009999696165	1.0122208999237046	1.218390200054273	452.89618689997565	0.4796747000655159	451.8620889999436	2	1	112	1	go_punish	1	0	-1	1	1	1	1	1.0	1.0	0	0.4258646999951452	0.4796747000655159	1930.3947258000264	2377.025592799997	2378.0348735000007	2378.7215744999703	2380.2373599000275	2381.249580799951	2382.25681479997	2383.290912700002	2384.303702699952	2385.522092900006	2020-01-30 16:44:12.053339	1.94153851288829	-0.972796276380357	-3.24888038936988	-1.84304295470571	-1.3073418764816	-3.24888038936988	-1.94153851288829	-0.972796276380357	-3.24888038936988	-1.3073418764816	-3.24888038936988	0.972796276380357	-8.577135490655543	-5.9614896485461095	-6.885000053397624	-11.037415804291651	-9.801732574984264	-6.885000053397624	-0.6547383099669224	-12.631934059518724	-4.054798568863166	-10.299807226001999	-2.546682475941738	4	correct	1.0
455.1626458000392	9.203423999948427	nogo_punish	1.0	455.1745351999996	457.51927699998464	460.0545901999574	2.3447417999850586	456.1697263999374	459.03495909995377	463.1033354999961	1.3495506000472233	1.0196311000036076	1.274623699951917	462.0906215999273	0.7561694000614807	461.06663579994324	2	1	113	2	nogo_punish	1	-1	0	0	0	1	1	1.0	1.0	0	1.0	0.7561694000614807	1930.3947258000264	2385.569261000026	2386.564452199964	2387.914002800011	2389.42968489998	2390.449315999984	2391.4613615999697	2392.4853473999538	2393.4980613000225	2394.7726849999744	2020-01-30 16:44:12.053339	0.766073921829778	-2.23068167127342	-1.80074182180224	-1.81537160669625	-2.56681574363202	-1.80074182180224	-0.766073921829778	-1.80074182180224	-2.23068167127342	-1.80074182180224	-2.56681574363202	1.80074182180224	-9.752600081714055	-7.219375043439172	-5.436861485829983	-11.00974445628219	-11.061206442134685	-5.436861485829983	0.17320723545496053	-13.125334004839363	-3.372733923125306	-11.127752771423882	-1.528483757845278	4	correct	1.0
464.40926520002495	8.882906400016964	nogo_punish	1.0	464.42115459998536	466.334570799954	468.853428400005	1.9134161999686512	465.42860759992595	467.83970849995944	471.89422949997174	0.9059632000280544	1.013719900045544	1.4098315000305774	470.8904484999364	0.618758299970068	469.8709185000041	2	1	114	2	nogo_punish	1	-1	0	0	0	1	0	0.0	1.0	0	1.0	0.618758299970068	1930.3947258000264	2394.815880400012	2395.8233333999524	2396.7292965999804	2398.234434299986	2399.2481542000314	2400.2656443000305	2401.285174299963	2402.288955299998	2403.6987868000288	2020-01-30 16:44:12.053339	1.19699475027812	-2.23068167127342	-1.22665503581966	-1.23832944374732	-2.42364978609779	-1.22665503581966	-1.19699475027812	-1.22665503581966	-2.23068167127342	-1.22665503581966	-2.42364978609779	1.22665503581966	-9.321679253265712	-7.219375043439172	-4.862774699847403	-10.43270229333326	-10.918040484600455	-4.862774699847403	-0.4008795505276195	-12.551247218856783	-3.2295679655910763	-10.5536659854413	-1.528483757845278	4	correct	1.0
473.3345302999951	8.126780900056474	nogo_punish	0.8897005999460816	473.3464196999555	475.02598109992664	477.5714412999803	1.679561399971135	474.35499189991947	476.5469723999265	480.6128158000063	0.6709892000071704	1.024468900053762	0.8603848000057042	479.5992559000149	0.5369417000329122	478.58677059994056	2	1	115	2	nogo_punish	1	-1	0	0	1	0	1	0.0	0.0	-1	0.8897005999460816	0.5369417000329122	1930.3947258000264	2403.741145499982	2404.749717699946	2405.420706899953	2406.941698199953	2407.9661671000067	2408.981496399967	2409.9939817000413	2411.0075416000327	2411.8679264000384	2020-01-30 16:44:12.053339	-1.47776833808336	-2.23068167127342	-0.854452611352618	-0.863823230200166	-2.33222094943598	-0.854452611352618	1.47776833808336	-2.23068167127342	-0.854452611352618	-2.33222094943598	-0.854452611352618	-1.4439961233817398	-11.996442341627192	-7.219375043439172	-4.490572275380361	-10.058196079786107	-10.826611647938645	-4.490572275380361	-3.071530709729019	-13.656813132473104	-1.6603707908459042	-11.557692620895061	-0.15225469792447577	4	wrong	1.0
481.50388700002804	7.9829599999357015	nogo_punish	1.0	481.51577639998845	482.8062660999133	485.3414917999178	1.2904896999248194	482.52516789990455	484.32166079990543	488.3961367999434	0.28109820000872787	1.0198310000123456	1.1025995999807492	487.3835763999957	0.6346077000489458	486.3590496999675	2	1	116	2	nogo_punish	1	-1	0	0	0	1	1	1.0	1.0	0	1.0	0.6346077000489458	1930.3947258000264	2411.910502200015	2412.919893699931	2413.2009918999397	2414.716386599932	2415.736217599944	2416.753775499994	2417.778302200022	2418.79086259997	2419.8934621999506	2020-01-30 16:44:12.053339	2.09817270166517	-2.63232791333751	-0.854452611352618	-1.74826383253681	-2.95262531301779	-0.854452611352618	-2.09817270166517	-0.854452611352618	-2.63232791333751	-0.854452611352618	-2.95262531301779	0.854452611352618	-8.420501301878662	-7.621021285503263	-4.490572275380361	-10.942636682122751	-11.447016011520455	-4.490572275380361	-0.7730819749946615	-12.179044794389743	-3.7585434925110763	-10.18146356097426	-1.930129999909368	4	correct	1.0
489.53389419999394	9.39800389995844	go_reward	0.3902114999946207	489.54578359995435	492.30840049998346	494.85632129991404	2.7626169000291156	490.5552893999263	493.8394112999083	497.91925189993367	1.75311110005714	1.016910000005737	1.0245355999791173	496.9067913999313	0.4151877000695094	495.8726237999506	2	1	117	3	go_reward	1	1	0	1	1	1	0	0.0	1.0	1	0.3902114999946207	0.4151877000695094	1930.3947258000264	2419.940509399981	2420.9500151999528	2422.70312630001	2424.2341370999347	2425.2510470999405	2426.267349599977	2427.3015171999577	2428.31397769996	2429.338513299939	2020-01-30 16:44:12.053339	31.2298044473848	24.9052451456536	0.0	24.9052451456536	31.2298044473848	0.0	-31.2298044473848	24.9052451456536	0.0	31.2298044473848	0.0	6.891642436013203	20.71113044384097	19.916551773487846	-3.6361196640277433	15.710872296067658	22.735413748882138	-3.6361196640277433	5.264107849665924	19.905212264347675	-0.8059181794932863	15.578234196031957	0.7021979134281422	4	correct	1.0
498.9557870000135	7.897957299952395	nogo_reward	1.0	498.9676763999739	500.5406439999349	503.05217099993	1.5729675999609753	499.97914459998697	502.03794049995463	506.09981099993433	0.5614993999479339	1.0142304999753833	0.7658226999919862	505.08676299999865	0.5948694000253454	504.05782899993915	2	1	118	4	nogo_reward	1	0	1	0	0	1	0	0.0	1.0	1	1.0	0.5948694000253454	1930.3947258000264	2429.3624022000004	2430.3738704000134	2430.9353697999613	2432.432666299981	2433.4468967999564	2434.4525547999656	2435.481488800025	2436.4945367999608	2437.2603594999528	2020-01-30 16:44:12.053339	17.5746456181846	0.71084590346574	24.5202787228705	24.525515698012	6.94563310468597	24.5202787228705	-17.5746456181846	24.5202787228705	0.71084590346574	24.5202787228705	6.94563310468597	7.276608858796301	7.055971614640768	-4.277847468700012	20.88415905884276	15.33114284842606	-1.5487575938166946	20.88415905884276	5.649074272449022	13.195686539833376	6.139714925192684	15.19326777324886	1.4130438168938821	4	correct	1.0
506.89928729995154	8.77802210010168	go_reward	0.3588740000268444	506.91117669991195	508.77500209992263	511.3209442999216	1.8638254000106826	507.916642499971	510.3061859000006	514.3678558999666	0.8583595999516547	1.0147583999209928	1.321342900047057	513.3494814999865	0.8442658999701962	512.3273631999034	2	1	119	3	go_reward	1	1	0	1	1	1	1	0.0	0.0	1	0.3588740000268444	0.8442658999701962	1930.3947258000264	2437.3059024999384	2438.3113682999974	2439.169727899949	2440.700911700027	2441.715670099948	2442.72208899993	2443.744207300013	2444.762581699993	2446.08392460004	2020-01-30 16:44:12.053339	33.9464796196416	27.0734726328443	0.0	27.0734726328443	33.9464796196416	0.0	-33.9464796196416	27.0734726328443	0.0	33.9464796196416	0.0	4.7234149488225015	23.427805616097768	22.08477926067855	-3.6361196640277433	17.87909978325836	25.452088921138937	-3.6361196640277433	3.095880362475222	22.621887436604474	-0.8059181794932863	17.74646168322266	0.7021979134281422	4	wrong	1.0
515.7049801000394	8.366152799921565	go_punish	0.4227063999278471	515.7168694999998	517.5579302000112	520.1001065999737	1.8410607000114396	516.7138015999224	519.0892929999388	523.1524898000059	0.8441286000888795	1.0108136000349077	0.9305324999154436	522.1359934000063	0.91130240005441	521.1135580999542	2	1	120	1	go_punish	1	0	-1	1	1	1	0	0.0	1.0	0	0.4227063999278471	0.91130240005441	1930.3947258000264	2446.1115953000262	2447.108527399949	2447.9526560000377	2449.4840187999653	2450.4948324	2451.5082838999806	2452.5307192000328	2453.5472156000324	2454.477748099948	2020-01-30 16:44:12.053339	2.35705557134594	-0.691916139406134	-3.24888038936988	-1.29011961094593	-0.891824818023945	-3.24888038936988	-2.35705557134594	-0.691916139406134	-3.24888038936988	-0.891824818023945	-3.24888038936988	0.691916139406134	-8.161618432197892	-5.680609511571886	-6.885000053397624	-10.484492460531872	-9.38621551652661	-6.885000053397624	-0.9356184469411455	-12.21641700106107	-4.054798568863166	-10.018927089027775	-2.546682475941738	4	correct	1.0
