onset	duration	trial_type	response_time	cueOnset	targetOnset	fbOnset	cueRT	firstfixOnset	secondfixOnset	waitOnset	firstfixdur	secondfixdur	waitdur	nback_fbOnset	nback_response_time	nback_targetOnset	block	wm	trial	cue	cond	is_common	outcome_go	outcome_nogo	key_correct	key_pressed	is_correct	key_correct_nback	key_pressed_nback	is_correct_nback	outcome	rt	rt_nback	time_scan	time_onset	time_isi1	time_circle	time_isi2	time_feedback	time_same	time_correct	time_iti	time_done	timestamp_scan	DV	Qgo	Qnogo	SV	Wgo	Wnogo	mDV	Qchosen	Qunchosen	Wchosen	Wunchosen	PE	DVC	QgoC	QnogoC	SVC	WgoC	WnogoC	PEC	WchosenC	WunchosenC	QchosenC	QunchosenC	run	outcome_nback	nback_targetResp
0.0	8.481652499991469	nogo_punish	1.0	0.046673199977021795	1.898055500001874	4.432713799993735	1.8513823000248522	1.0531818999445477	3.411752699990984	7.481026699999575	0.8448736000573263	1.0209611000027508	1.0472989999689162	6.46844929992244	1.0	5.460015999968618	2	1	1	2	nogo_punish	1	-1	0	0	0	1	0	n/a	0.0	0	1.0	1.0	1338.9464475000275	1338.9931207000045	1339.999629399972	1340.8445030000294	1342.3582002000185	1343.3791613000212	1344.406463499996	1345.41489679995	1346.427474200027	1347.474773199996	2020-01-30 16:34:20.616083	-0.0994063512013846	0.0	0.0	0.0	0.0994063512013846	0.0	0.0994063512013846	0.0	0.0	0.0	0.0994063512013846	0.0	-10.618080354745217	-4.988693372165752	-3.6361196640277433	-9.19437284958594	-8.39498434730128	-3.6361196640277433	-1.6275345863472794	-11.324592183037124	-0.7065118282919016	-9.327010949621641	0.7021979134281422	3	missed	0.0
8.533822400029976	9.079550399910431	go_reward	1.0	8.580495600006998	11.143105199910224	13.667228200007457	2.562609599903226	9.598399600014318	12.657881499966834	16.713455099961948	1.5447055998959058	1.0093467000406235	0.9465908999554813	15.715087299933884	0.6130190000403672	14.685325999977294	2	1	2	3	go_reward	1	1	0	1	0	0	0	0.0	1.0	0	1.0	0.6130190000403672	1338.9464475000275	1347.5269431000345	1348.5448471000418	1350.0895526999377	1351.6043289999943	1352.613675700035	1353.6317735000048	1354.6615347999614	1355.6599025999894	1356.606493499945	2020-01-30 16:34:20.616083	-0.0994063512013846	0.0	0.0	0.0	0.0994063512013846	0.0	0.0994063512013846	0.0	0.0	0.0	0.0994063512013846	0.0	-10.618080354745217	-4.988693372165752	-3.6361196640277433	-9.19437284958594	-8.39498434730128	-3.6361196640277433	-1.6275345863472794	-11.324592183037124	-0.7065118282919016	-9.327010949621641	0.7021979134281422	3	correct	1.0
17.648913400014862	8.303386899991892	go_punish	0.366117600002326	17.695586599991884	19.03123719990299	21.56476979993772	1.335650599911105	18.69887650001351	20.55431999999587	24.60838340001669	0.3323606998894775	1.0104497999418527	1.3905900999670848	23.591979799908813	1.0	22.583793899975944	2	1	3	1	go_punish	1	0	-1	1	1	1	0	n/a	0.0	-1	0.366117600002326	1.0	1338.9464475000275	1356.6420341000194	1357.645324000041	1357.9776846999305	1359.5007675000234	1360.5112172999652	1361.5302414000034	1362.5384272999363	1363.5548309000442	1364.9454210000113	2020-01-30 16:34:20.616083	0.0994063512013846	0.0	0.0	0.0	0.0994063512013846	0.0	-0.0994063512013846	0.0	0.0	0.0994063512013846	0.0	0.0	-10.419267652342448	-4.988693372165752	-3.6361196640277433	-9.19437284958594	-8.39498434730128	-3.6361196640277433	-1.6275345863472794	-11.22518583183574	-0.8059181794932863	-9.327010949621641	0.7021979134281422	3	missed	0.0
25.985017300001573	8.196588099933933	nogo_reward	0.425716400030069	26.031690499978595	27.457538299961243	29.998677199939493	1.4258477999826482	27.036433100002114	28.974210200016614	33.039793399977725	0.4211051999591291	1.024466999922879	1.188485199934803	32.031152399955545	0.9241775000700728	31.009134499938455	2	1	4	4	nogo_reward	0	1	0	0	1	0	0	0.0	1.0	1	0.425716400030069	0.9241775000700728	1338.9464475000275	1364.978138000006	1365.9828806000296	1366.4039857999887	1367.920657700044	1368.945124699967	1369.955581999966	1370.977599899983	1371.9862409000052	1373.17472609994	2020-01-30 16:34:20.616083	0.0994063512013846	0.0	0.0	0.0	0.0994063512013846	0.0	-0.0994063512013846	0.0	0.0	0.0994063512013846	0.0	31.7968875816668	-10.419267652342448	-4.988693372165752	-3.6361196640277433	-9.19437284958594	-8.39498434730128	-3.6361196640277433	30.16935299531952	-11.22518583183574	-0.8059181794932863	-9.327010949621641	0.7021979134281422	3	correct	1.0
34.22581710002851	9.27672129997518	go_reward	0.3004113000351935	34.27249030000553	36.988890299923014	39.527722499915626	2.716399999917485	35.27933009993308	38.50367719994415	42.5880473000002	1.7095601999899372	1.0240452999714762	0.9611642999805099	41.57866749994014	0.5254832000937313	40.539806199959	2	1	5	3	go_reward	1	1	0	1	1	1	0	1.0	0.0	1	0.3004113000351935	0.5254832000937313	1338.9464475000275	1373.218937800033	1374.2257775999606	1375.9353377999505	1377.4501246999716	1378.4741699999431	1379.4862536999865	1380.5251149999676	1381.5344948000277	1382.4956591000082	2020-01-30 16:34:20.616083	0.0994063512013846	0.0	0.0	0.0	0.0994063512013846	0.0	-0.0994063512013846	0.0	0.0	0.0994063512013846	0.0	31.7968875816668	-10.419267652342448	-4.988693372165752	-3.6361196640277433	-9.19437284958594	-8.39498434730128	-3.6361196640277433	30.16935299531952	-11.22518583183574	-0.8059181794932863	-9.327010949621641	0.7021979134281422	3	wrong	1.0
43.52517779998038	8.425960800028179	nogo_reward	0.3553729000268504	43.571850999957405	45.07388009992451	47.631590600009304	1.5020290999671033	44.58436819992539	46.61188539990712	50.68577919993572	0.4895118999991155	1.0197052001021802	1.3120326000498608	49.673370499979	0.7226310999831185	48.6546751999997	2	1	6	4	nogo_reward	1	0	1	0	1	0	1	0.0	0.0	0	0.3553729000268504	0.7226310999831185	1338.9464475000275	1382.518298499985	1383.5308156999529	1384.020327599952	1385.5583328999346	1386.5780381000368	1387.6011227000272	1388.6198180000065	1389.6322266999632	1390.944259300013	2020-01-30 16:34:20.616083	13.3602064513628	10.5453225859654	0.0	10.5453225859654	13.3602064513628	0.0	-13.3602064513628	10.5453225859654	0.0	13.3602064513628	0.0	-10.5453225859654	2.8415324478189667	5.556629213799647	-3.6361196640277433	1.3509497363794587	4.865815752860135	-3.6361196640277433	-12.172857172312678	2.0356142683256753	-0.8059181794932863	1.218311636343758	0.7021979134281422	3	wrong	1.0
51.97300599992741	8.728185500018299	nogo_reward	0.3596932999789715	52.01967919990443	53.81348509993427	56.3550162999893	1.793805900029838	53.033090199926164	55.3450979999036	59.39903099997923	0.7803949000081047	1.009918300085701	1.3488336999434978	58.386740099988174	0.520003900048323	57.374212499940995	2	1	7	4	nogo_reward	1	0	1	0	1	0	0	0.0	1.0	0	0.3596932999789715	0.520003900048323	1338.9464475000275	1390.966126699932	1391.9795376999537	1392.7599325999618	1394.291545499931	1395.3014638000168	1396.3206599999685	1397.3331876000157	1398.3454785000067	1399.6943121999502	2020-01-30 16:34:20.616083	8.4780752487779	6.68633932555865	0.0	6.68633932555865	8.4780752487779	0.0	-8.4780752487779	6.68633932555865	0.0	8.4780752487779	0.0	-6.68633932555865	-2.0405987547659326	1.6976459533928976	-3.6361196640277433	-2.508033524027291	-0.01631544972476462	-3.6361196640277433	-8.31387391190593	-2.846516934259224	-0.8059181794932863	-2.6406716240629917	0.7021979134281422	3	correct	1.0
60.744450099999085	8.982693700003438	nogo_punish	0.230542300036177	60.79112329997611	63.26768619997915	65.81722969992575	2.476562900003046	61.7996837999674	64.80450819991552	68.85854519996815	1.4680024000117555	1.0127215000102296	0.9152718000113964	67.84651069995061	0.5527566999662668	66.8324540000176	2	1	8	2	nogo_punish	1	-1	0	0	1	0	0	0.0	1.0	-1	0.230542300036177	0.5527566999662668	1338.9464475000275	1399.7375708000036	1400.7461312999949	1402.2141337000066	1403.750955699943	1404.7636771999532	1405.778901500045	1406.792958199978	1407.8049926999956	1408.720264500007	2020-01-30 16:34:20.616083	0.0994063512013846	0.0	0.0	0.0	0.0994063512013846	0.0	-0.0994063512013846	0.0	0.0	0.0994063512013846	0.0	-3.67467779465516	-10.419267652342448	-4.988693372165752	-3.6361196640277433	-9.19437284958594	-8.39498434730128	-3.6361196640277433	-5.302212381002439	-11.22518583183574	-0.8059181794932863	-9.327010949621641	0.7021979134281422	3	correct	1.0
69.74999519996345	9.208620800054632	nogo_reward	0.3196896999143064	69.79666839994047	72.57756729994458	75.128765599919	2.780898900004104	70.80437279993203	74.1083279999441	78.1681563999739	1.7731945000125506	1.0204375999749118	0.8371328000212088	77.165672399919	0.5565318000735715	76.13769679993902	2	1	9	4	nogo_reward	1	0	1	0	1	0	1	1.0	1.0	0	0.3196896999143064	0.5565318000735715	1338.9464475000275	1408.743115899968	1409.7508202999595	1411.524014799972	1413.0547754999716	1414.0752130999465	1415.0841442999665	1416.1121198999465	1417.1146039000014	1417.9517367000226	2020-01-30 16:34:20.616083	5.5538120563026	4.36677943248283	0.0	4.36677943248283	5.5538120563026	0.0	-5.5538120563026	4.36677943248283	0.0	5.5538120563026	0.0	-4.36677943248283	-4.964861947241233	-0.6219139396829219	-3.6361196640277433	-4.8275934171031105	-2.940578642200065	-3.6361196640277433	-5.99431401883011	-5.7707801267345245	-0.8059181794932863	-4.960231517138811	0.7021979134281422	3	correct	1.0
78.98359590000473	9.449462199932668	go_punish	0.2910479999845847	79.03026909998175	81.46518860000674	84.01584289991342	2.4349195000249892	80.04022709990409	82.99586669995938	87.06462399999168	1.424961500102654	1.0199761999540442	1.415107299922738	86.0566523999446	0.9279265000950544	85.03332039993302	2	1	10	1	go_punish	1	0	-1	1	1	1	0	1.0	0.0	0	0.2910479999845847	0.9279265000950544	1338.9464475000275	1417.9767166000092	1418.9866745999316	1420.4116361000342	1421.9423141999869	1422.962290399941	1423.9797678999605	1425.003099899972	1426.0110715000192	1427.426178799942	2020-01-30 16:34:20.616083	-1.31366942226246	-1.13424050798543	0.0	-1.13424050798543	-1.31366942226246	0.0	1.31366942226246	-1.13424050798543	0.0	-1.31366942226246	0.0	1.13424050798543	-11.832343425806293	-6.122933880151182	-3.6361196640277433	-10.32861335757137	-9.808060120765125	-3.6361196640277433	-0.49329407836184935	-12.638261605299585	-0.8059181794932863	-10.461251457607071	0.7021979134281422	3	wrong	1.0
88.47678259992972	8.890521200024523	go_reward	0.4603662000736221	88.52345579990674	90.37987229996361	92.92200969997816	1.8564165000568664	89.53089459997159	91.90146739990473	95.96023809991334	0.8489776999920196	1.02054230007343	1.4537389000179246	94.95769239997048	0.5309000000124797	93.92928749998123	2	1	11	3	go_reward	1	1	0	1	1	1	0	0.0	1.0	1	0.4603662000736221	0.5309000000124797	1338.9464475000275	1427.4699032999342	1428.477342099999	1429.326319799991	1430.8479148999322	1431.8684572000057	1432.8757350000087	1433.904139899998	1434.9066855999408	1436.3604244999588	2020-01-30 16:34:20.616083	13.3602064513628	10.5453225859654	0.0	10.5453225859654	13.3602064513628	0.0	-13.3602064513628	10.5453225859654	0.0	13.3602064513628	0.0	21.2515649957014	2.8415324478189667	5.556629213799647	-3.6361196640277433	1.3509497363794587	4.865815752860135	-3.6361196640277433	19.62403040935412	2.0356142683256753	-0.8059181794932863	1.218311636343758	0.7021979134281422	3	correct	1.0
97.392253399943	8.306582699995488	go_punish	0.4476895000552758	97.43892659992002	98.90842069999803	101.45068469992862	1.469494100078009	98.4403916000158	100.44014959991932	104.5020997999236	0.46802909998223186	1.0105351000092924	1.2434094999919125	103.49202899995748	0.9253543999511749	102.4688432000114	2	1	12	1	go_punish	1	0	-1	1	1	1	1	0.0	0.0	0	0.4476895000552758	0.9253543999511749	1338.9464475000275	1436.3853740999475	1437.3868391000433	1437.8548682000255	1439.3865970999468	1440.397132199956	1441.415290700039	1442.438476499985	1443.448547299951	1444.691956799943	2020-01-30 16:34:20.616083	-0.829178788153731	-0.74765023215277	0.0	-0.74765023215277	-0.829178788153731	0.0	0.829178788153731	-0.74765023215277	0.0	-0.829178788153731	0.0	0.74765023215277	-11.347852791697564	-5.736343604318522	-3.6361196640277433	-9.94202308173871	-9.323569486656396	-3.6361196640277433	-0.8798843541945094	-12.153770971190855	-0.8059181794932863	-10.074661181774411	0.7021979134281422	3	wrong	1.0
105.74111750000156	8.517799400025979	nogo_punish	1.0	105.78779069997859	107.7874786999314	110.319910499966	1.9996879999528119	106.80268969992221	109.30217319994722	113.34311569994338	0.9847890000091866	1.01773730001878	0.9624744000611827	112.34249179996573	1.0	111.33224639995046	2	1	13	2	nogo_punish	1	-1	0	0	0	1	0	n/a	0.0	0	1.0	1.0	1338.9464475000275	1444.734238200006	1445.7491371999497	1446.733926199959	1448.2486206999747	1449.2663579999935	1450.278693899978	1451.2889392999932	1452.2895631999709	1453.252037600032	2020-01-30 16:34:20.616083	1.31366942226246	-1.13424050798543	0.0	-1.13424050798543	-1.31366942226246	0.0	-1.31366942226246	0.0	-1.13424050798543	0.0	-1.31366942226246	0.0	-9.205004581281372	-6.122933880151182	-3.6361196640277433	-10.32861335757137	-9.808060120765125	-3.6361196640277433	-1.6275345863472794	-11.324592183037124	-2.1195876017557462	-9.327010949621641	-0.4320425945572879	3	missed	0.0
114.28285219997633	9.618835999979638	nogo_reward	0.4160922000883147	114.32952539995335	117.30711159994848	119.85795549990166	2.9775861999951303	115.34075599990342	118.83798089996003	122.89264099998422	1.9663556000450626	1.0199745999416336	1.0557203999487683	121.88562369998567	0.3736976999789476	120.86647989996732	2	1	14	4	nogo_reward	1	0	1	0	1	0	0	0.0	1.0	0	0.4160922000883147	0.3736976999789476	1338.9464475000275	1453.2759728999808	1454.287203499931	1456.253559099976	1457.7844283999875	1458.8044029999292	1459.8129273999948	1460.8320712000132	1461.8390885000117	1462.8948088999605	2020-01-30 16:34:20.616083	3.74112869223574	2.9242293225037	0.0	2.9242293225037	3.74112869223574	0.0	-3.74112869223574	2.9242293225037	0.0	3.74112869223574	0.0	-2.9242293225037	-6.777545311308092	-2.064464049662052	-3.6361196640277433	-6.27014352708224	-4.753262006266924	-3.6361196640277433	-4.55176390885098	-7.583463490801384	-0.8059181794932863	-6.402781627117941	0.7021979134281422	3	correct	1.0
123.94503319996875	8.69935989996884	go_reward	0.4448330999584868	123.99170639994577	126.16233979992126	128.71030949999135	2.170633399975486	124.99928839993686	127.68446739995875	131.7572557999522	1.163051399984397	1.0258421000326052	0.9338104999624193	130.7384714999937	0.642366599990055	129.71475079993274	2	1	15	3	go_reward	1	1	0	1	1	1	0	0.0	1.0	1	0.4448330999584868	0.642366599990055	1338.9464475000275	1462.9381538999733	1463.9457358999643	1465.1087872999487	1466.6309148999862	1467.6567570000188	1468.6611982999602	1469.6849190000212	1470.7037032999797	1471.637513799942	2020-01-30 16:34:20.616083	21.7388753489393	17.231661911524	0.0	17.231661911524	21.7388753489393	0.0	-21.7388753489393	17.231661911524	0.0	21.7388753489393	0.0	14.565225670142802	11.220201345395466	12.242968539358248	-3.6361196640277433	8.03728906193806	13.244484650436634	-3.6361196640277433	12.937691083795523	10.414283165902175	-0.8059181794932863	7.904650961902359	0.7021979134281422	3	correct	1.0
132.67042989993934	9.917951400042512	go_punish	0.306552299996838	132.71710309991636	135.56267559994035	138.12772119999886	2.845572500023991	133.72615899995458	137.107733699959	141.16794019995746	1.8365165999857709	1.0199875000398606	1.4671143000014126	140.16857749992073	0.9470683999825268	139.14510029996768	2	1	16	1	go_punish	1	0	-1	1	1	1	0	1.0	0.0	0	0.306552299996838	0.9470683999825268	1338.9464475000275	1471.6635505999438	1472.672606499982	1474.5091230999678	1476.0541811999865	1477.0741687000263	1478.0915477999952	1479.1150249999482	1480.114387699985	1481.5815019999864	2020-01-30 16:34:20.616083	-0.526430980788428	-0.505321390892794	0.0	-0.505321390892794	-0.526430980788428	0.0	0.526430980788428	-0.505321390892794	0.0	-0.526430980788428	0.0	0.505321390892794	-11.04510498433226	-5.494014763058546	-3.6361196640277433	-9.699694240478735	-9.020821679291092	-3.6361196640277433	-1.1222131954544854	-11.851023163825552	-0.8059181794932863	-9.832332340514435	0.7021979134281422	3	wrong	1.0
142.63126759999432	8.243954699952155	go_reward	0.3158631999976933	142.67794079997134	144.52320169995096	147.0642757000171	1.8452608999796212	143.68697779998206	146.0425705999371	150.1253262999237	0.8362238999688998	1.0217051000799984	0.7965691999997944	149.11321179999527	0.4521053000353277	148.07588909997162	2	1	17	3	go_reward	0	0	1	1	1	1	1	1.0	1.0	0	0.3158631999976933	0.4521053000353277	1338.9464475000275	1481.6243882999988	1482.6334253000095	1483.4696491999784	1484.9890180999646	1486.0107232000446	1487.022336599999	1488.0596593000228	1489.0717737999512	1489.868342999951	2020-01-30 16:34:20.616083	27.1932810540405	21.5984413440069	0.0	21.5984413440069	27.1932810540405	0.0	-27.1932810540405	21.5984413440069	0.0	27.1932810540405	0.0	-21.5984413440069	16.674607050496668	16.60974797184115	-3.6361196640277433	12.40406849442096	18.698890355537834	-3.6361196640277433	-23.22597593035418	15.868688871003377	-0.8059181794932863	12.27143039438526	0.7021979134281422	3	correct	1.0
150.91696699999738	8.420680699986406	nogo_punish	1.0	150.9636401999744	152.66623109998204	155.17902539996453	1.7025909000076354	151.97810109995794	154.1709756999046	158.21890589990676	0.6881300000241026	1.008049700059928	1.165415000054054	157.21277599991322	0.5407066999468952	156.1834781999935	2	1	18	2	nogo_punish	0	0	-1	0	0	1	0	1.0	0.0	-1	1.0	0.5407066999468952	1338.9464475000275	1489.910087700002	1490.9245485999854	1491.6126786000095	1493.117423199932	1494.125472899992	1495.129925700021	1496.1592234999407	1497.1653533999342	1498.3307683999883	2020-01-30 16:34:20.616083	1.21576906398639	-1.13424050798543	0.0	-0.74765023215277	-1.21576906398639	0.0	-1.21576906398639	0.0	-1.13424050798543	0.0	-1.21576906398639	-3.67467779465516	-9.302904939557443	-6.122933880151182	-3.6361196640277433	-9.94202308173871	-9.710159762489054	-3.6361196640277433	-5.302212381002439	-11.324592183037124	-2.0216872434796764	-9.327010949621641	-0.4320425945572879	3	wrong	1.0
159.36612200003583	9.563642099965364	nogo_reward	0.368825199897401	159.41279520001285	162.17428989999485	164.7160184999234	2.761494699981995	160.41722119995416	163.69564169994578	167.76450159994442	1.7570687000406906	1.0203767999776119	1.2119357000337914	166.7531056000155	0.590093299979344	165.7340826999864	2	1	19	4	nogo_reward	1	0	1	0	1	0	0	0.0	1.0	0	0.368825199897401	0.590093299979344	1338.9464475000275	1498.3592427000403	1499.3636686999816	1501.1207374000223	1502.6420891999733	1503.6624659999509	1504.680530200014	1505.699553100043	1506.710949099972	1507.9228848000057	2020-01-30 16:34:20.616083	2.58425021871221	2.00077880080181	0.0	2.00077880080181	2.58425021871221	0.0	-2.58425021871221	2.00077880080181	0.0	2.58425021871221	0.0	-2.00077880080181	-7.934423784831623	-2.987914571363942	-3.6361196640277433	-7.193594048784131	-5.910140479790455	-3.6361196640277433	-3.6283133871490896	-8.740341964324914	-0.8059181794932863	-7.326232148819831	0.7021979134281422	3	correct	1.0
168.97371639998164	8.34942410001554	go_reward	0.3582702999701723	169.02038959995866	170.39171050000027	172.93648519995645	1.37132090004161	170.02765109995403	171.91388899995968	175.98637119994987	0.36405940004624426	1.0225961999967694	1.38344250002433	174.9736096999843	0.5711314000654966	173.94400749995862	2	1	20	3	go_reward	0	0	1	1	1	1	0	1.0	0.0	0	0.3582702999701723	0.5711314000654966	1338.9464475000275	1507.9668370999862	1508.9740985999815	1509.3381580000278	1510.8603364999872	1511.882932699984	1512.890454999986	1513.9200572000118	1514.9328186999774	1516.3162612000017	2020-01-30 16:34:20.616083	17.5742032949135	13.9773480805452	0.0	13.9773480805452	17.5742032949135	0.0	-17.5742032949135	13.9773480805452	0.0	17.5742032949135	0.0	-13.9773480805452	7.055529291369666	8.988654708379448	-3.6361196640277433	4.782975230959259	9.079812596410834	-3.6361196640277433	-15.604882666892479	6.249611111876375	-0.8059181794932863	4.650337130923559	0.7021979134281422	3	wrong	1.0
177.3475831999674	7.780136200017523	go_punish	0.5351241999305785	177.39425639994442	178.71899889991641	181.2464119999206	1.3247424999719897	178.4024980999534	180.23573429998964	184.30596529995114	0.3165007999630234	1.010677699930966	0.8684273000108078	183.29305069998395	0.496073400019668	182.2640291999562	2	1	21	1	go_punish	1	0	-1	1	1	1	0	0.0	1.0	0	0.5351241999305785	0.496073400019668	1338.9464475000275	1516.340703899972	1517.3489455999809	1517.665446399944	1519.1821818000171	1520.192859499948	1521.2104766999837	1522.2394982000114	1523.2524127999786	1524.1208400999894	2020-01-30 16:34:20.616083	-0.331437935492014	-0.348790931135218	0.0	-0.348790931135218	-0.331437935492014	0.0	0.331437935492014	-0.348790931135218	0.0	-0.331437935492014	0.0	0.348790931135218	-10.850111939035846	-5.33748430330097	-3.6361196640277433	-9.543163780721159	-8.825828633994679	-3.6361196640277433	-1.2787436552120615	-11.656030118529138	-0.8059181794932863	-9.67580188075686	0.7021979134281422	3	correct	1.0
185.15234879998025	7.895879799965542	nogo_reward	0.365129700046964	185.19902199995727	186.74646289995894	189.28804119990696	1.547440900001675	186.19833479996328	188.2680508999622	192.34380819997773	0.5481280999956653	1.0199902999447659	0.7510935999450794	191.33020969992526	0.3520449999487027	190.3060377999211	2	1	22	4	nogo_reward	1	0	1	0	1	0	0	1.0	0.0	0	0.365129700046964	0.3520449999487027	1338.9464475000275	1524.1454694999848	1525.1447822999908	1525.6929103999864	1527.2144983999897	1528.2344886999344	1529.2524852999486	1530.2766571999528	1531.2902557000052	1532.0413492999503	2020-01-30 16:34:20.616083	1.82719902832544	1.39478163300891	0.0	1.39478163300891	1.82719902832544	0.0	-1.82719902832544	1.39478163300891	0.0	1.82719902832544	0.0	-1.39478163300891	-8.691474975218393	-3.593911739156842	-3.6361196640277433	-7.7995912165770305	-6.667191670177225	-3.6361196640277433	-3.022316219356189	-9.497393154711684	-0.8059181794932863	-7.932229316612731	0.7021979134281422	3	wrong	1.0
193.07366729993373	9.637344300048653	go_punish	0.3201260999776423	193.12034049991075	195.74594109994382	198.2858273999302	2.625600600033067	194.1299219999928	197.26613609993387	201.34267359995283	1.6160190999510178	1.0196912999963388	1.4150112000065747	200.33208959992066	0.5718058000784367	199.30327599996258	2	1	23	1	go_punish	1	0	-1	1	1	1	1	1.0	1.0	0	0.3201260999776423	0.5718058000784367	1338.9464475000275	1532.0667879999382	1533.0763695000203	1534.6923885999713	1536.2125835999614	1537.2322748999577	1538.24972349999	1539.2785370999482	1540.2891210999803	1541.704132299987	2020-01-30 16:34:20.616083	-0.20263424156565	-0.245115782306517	0.0	-0.245115782306517	-0.20263424156565	0.0	0.20263424156565	-0.245115782306517	0.0	-0.20263424156565	0.0	0.245115782306517	-10.721308245109483	-5.233809154472269	-3.6361196640277433	-9.439488631892457	-8.697024940068316	-3.6361196640277433	-1.3824188040407623	-11.527226424602775	-0.8059181794932863	-9.572126731928158	0.7021979134281422	3	correct	1.0
202.754290199955	8.851195599999983	go_reward	0.4467860999284312	202.80096339993202	205.29322789993603	207.83563519991003	2.492264500004012	203.8088646999097	206.8185474999484	210.89036029996373	1.484363200026337	1.0170876999616212	0.7617986999682671	209.87346669996646	0.5837015999713913	208.84937559999548	2	1	24	3	go_reward	1	1	0	1	1	1	0	0.0	1.0	1	0.4467860999284312	0.5837015999713913	1338.9464475000275	1541.7474108999595	1542.7553121999372	1544.2396753999635	1545.764994999976	1546.7820826999375	1547.795823100023	1548.819914199994	1549.8368077999912	1550.5986064999595	2020-01-30 16:34:20.616083	11.6803782648478	9.29178755578834	0.0	9.29178755578834	11.6803782648478	0.0	-11.6803782648478	9.29178755578834	0.0	11.6803782648478	0.0	22.505100025878463	1.1617042613039672	4.303094183622587	-3.6361196640277433	0.09741470620239845	3.185987566345135	-3.6361196640277433	20.877565439531182	0.3557860818106757	-0.8059181794932863	-0.0352233938333022	0.7021979134281422	3	correct	1.0
211.62997410004027	8.311577799962834	go_punish	0.3940045000053942	211.6766473000173	213.40212459990312	215.95393249997892	1.7254772998858243	212.67661229998362	214.93409489991632	219.01981709990673	0.725512299919501	1.0198376000626013	0.9684080000733957	218.00580839999043	0.5629782000323758	216.97698309994325	2	1	25	1	go_punish	1	0	-1	1	1	1	1	1.0	1.0	0	0.3940045000053942	0.5629782000323758	1338.9464475000275	1550.6230948000448	1551.623059800011	1552.3485720999306	1553.8805423999438	1554.9003800000064	1555.9234305999707	1556.952255900018	1557.9662645999342	1558.9346726000076	2020-01-30 16:34:20.616083	-0.115707393301561	-0.174972046198026	0.0	-0.174972046198026	-0.115707393301561	0.0	0.115707393301561	-0.174972046198026	0.0	-0.115707393301561	0.0	0.174972046198026	-10.634381396845393	-5.163665418363778	-3.6361196640277433	-9.369344895783966	-8.610098091804225	-3.6361196640277433	-1.4525625401492535	-11.440299576338685	-0.8059181794932863	-9.501982995819667	0.7021979134281422	3	correct	1.0
219.96656149998307	8.69128080003452	go_punish	0.5715654999949038	220.0132346999601	221.8704624999084	224.42187129997205	1.857227799948305	221.0200929999121	223.4011899000036	227.48641309991967	0.8503694999963045	1.0206813999684528	1.2181024000749403	226.47372209990885	0.4182623999658972	225.43978429993172	2	1	26	1	go_punish	1	0	-1	1	1	1	0	0.0	1.0	0	0.5715654999949038	0.4182623999658972	1338.9464475000275	1558.9596821999876	1559.9665404999396	1560.816909999936	1562.347637400031	1563.3683187999995	1564.3862317999592	1565.4201695999363	1566.4328605999472	1567.650963000022	2020-01-30 16:34:20.616083	-0.0559468707026174	-0.126636192874163	0.0	-0.126636192874163	-0.0559468707026174	0.0	0.0559468707026174	-0.126636192874163	0.0	-0.0559468707026174	0.0	0.126636192874163	-10.57462087424645	-5.115329565039915	-3.6361196640277433	-9.321009042460103	-8.550337569205283	-3.6361196640277433	-1.5008983934731164	-11.380539053739742	-0.8059181794932863	-9.453647142495804	0.7021979134281422	3	correct	1.0
228.7026341999881	9.651820100029	go_reward	0.4640391999855637	228.74930739996512	231.31295089994114	233.86910030001332	2.563643499976024	229.74658539996062	232.8445662999295	236.92196289997082	1.5663654999805203	1.0245340000838041	1.4791646000232959	235.91096619993937	0.7449291000375524	234.88191859994572	2	1	27	3	go_reward	1	1	0	1	1	1	0	0.0	1.0	1	0.4640391999855637	0.7449291000375524	1338.9464475000275	1567.6957548999926	1568.693032899988	1570.2593983999686	1571.791013799957	1572.8155478000408	1573.8283660999732	1574.8574136999669	1575.8684103999983	1577.3475750000216	2020-01-30 16:34:20.616083	21.214565337032	16.8651123422798	0.0	16.8651123422798	21.214565337032	0.0	-21.214565337032	16.8651123422798	0.0	21.214565337032	0.0	14.931775239387001	10.695891333488166	11.876418970114049	-3.6361196640277433	7.67073949269386	12.720174638529334	-3.6361196640277433	13.304240653039722	9.889973153994875	-0.8059181794932863	7.5381013926581595	0.7021979134281422	3	correct	1.0
238.39536810002755	8.522277599899098	go_reward	0.5736840000608936	238.44204130000458	240.01534699997887	242.5805931999348	1.5733056999742985	239.4522645999682	241.55653449997794	245.6206205999481	0.5630824000106713	1.0240586999568677	1.3436982999555767	244.60795089998282	0.460418599890545	243.58946159994252	2	1	28	3	go_reward	1	1	0	1	1	1	0	0.0	1.0	1	0.5736840000608936	0.460418599890545	1338.9464475000275	1577.388488800032	1578.3987120999957	1578.9617945000064	1580.5029820000054	1581.5270406999623	1582.53590909997	1583.5543984000103	1584.5670680999756	1585.9107663999312	2020-01-30 16:34:20.616083	27.1730232653167	21.6156844069304	0.0	21.6156844069304	27.1730232653167	0.0	-27.1730232653167	21.6156844069304	0.0	27.1730232653167	0.0	10.181203174736403	16.654349261772868	16.626991034764647	-3.6361196640277433	12.421311557344458	18.678632566814038	-3.6361196640277433	8.553668588389124	15.848431082279577	-0.8059181794932863	12.288673457308757	0.7021979134281422	3	correct	1.0
246.95890530000906	9.30317600001581	nogo_punish	0.5958510000491515	247.0055784999861	249.4301899999848	251.99745819997042	2.4246114999987185	248.00689530000113	250.969714600011	255.02861849998612	1.4232946999836713	1.0277435999594218	1.2801360000157729	254.0215053999566	1.0	253.0110910999358	2	1	29	2	nogo_punish	1	-1	0	0	1	0	0	n/a	0.0	0	0.5958510000491515	1.0	1338.9464475000275	1585.9520260000136	1586.9533428000286	1588.3766375000123	1589.9161621000385	1590.943905699998	1591.9575385999633	1592.967952899984	1593.9750660000136	1595.2552020000294	2020-01-30 16:34:20.616083	-0.29994485537405	-1.13424050798543	-1.13424050798543	-1.63956189887823	-1.43418536335948	-1.13424050798543	0.29994485537405	-1.13424050798543	-1.13424050798543	-1.43418536335948	-1.13424050798543	-2.5404372866697296	-10.818618858917883	-6.122933880151182	-4.770360172013174	-10.83393474846417	-9.928576061862145	-4.770360172013174	-4.167971873017009	-12.758777546396605	-1.9401586874787164	-10.461251457607071	-0.4320425945572879	3	missed	0.0
256.30467630003113	7.938531199936051	go_reward	0.3644330999813974	256.35134950000815	257.72054679994494	260.25966310000535	1.3691972999367863	257.3608352999438	259.2356355999366	263.2888510999039	0.35971150000113994	1.0240275000687689	1.0010296000402832	262.282566500013	0.475745000061579	261.2672669999306	2	1	30	3	go_reward	1	1	0	1	1	1	1	1.0	1.0	1	0.3644330999813974	0.475745000061579	1338.9464475000275	1595.2977970000356	1596.3072827999713	1596.6669942999724	1598.182083099964	1599.2061106000328	1600.213714499958	1601.2290140000405	1602.2352985999314	1603.2363281999717	2020-01-30 16:34:20.616083	31.0190188611976	24.6925309420771	0.0	24.6925309420771	31.0190188611976	0.0	-31.0190188611976	24.6925309420771	0.0	31.0190188611976	0.0	7.104356639589703	20.50034485765377	19.703837569911347	-3.6361196640277433	15.498158092491158	22.52462816269494	-3.6361196640277433	5.476822053242424	19.694426678160475	-0.8059181794932863	15.365519992455457	0.7021979134281422	3	correct	1.0
264.2838807000078	8.278166599921406	nogo_punish	1.0	264.3305538999848	266.2579084999163	268.7936942999954	1.9273545999315047	265.3405932999451	267.77379259991017	271.8339897999542	0.917315199971199	1.0199017000852564	0.7747306999519878	270.83092310000234	0.5129519000183791	269.81203469994966	2	1	31	2	nogo_punish	1	-1	0	0	0	1	1	1.0	1.0	0	1.0	0.5129519000183791	1338.9464475000275	1603.2770014000123	1604.2870407999726	1605.2043559999438	1606.7202400999377	1607.740141800023	1608.7584821999772	1609.7773706000298	1610.7804372999817	1611.5551679999337	2020-01-30 16:34:20.616083	-0.223008364273519	-0.74765023215277	-1.13424050798543	-1.09644116328799	-0.911232143711912	-1.13424050798543	0.223008364273519	-1.13424050798543	-0.74765023215277	-1.13424050798543	-0.911232143711912	1.13424050798543	-10.74168236781735	-5.736343604318522	-4.770360172013174	-10.29081401287393	-9.405622842214576	-4.770360172013174	-0.49329407836184935	-12.458832691022554	-1.7171503232051983	-10.461251457607071	-0.04545231872462785	3	correct	1.0
272.58812359999865	9.081081799929962	go_punish	0.429000899894163	272.6347967999757	274.6489815999523	277.1813318999484	2.014184799976647	273.6493040999633	276.18007779994537	280.234266899992	0.9996774999890476	1.0012541000030524	1.4816116999136284	279.2243469000098	0.3684006000403315	278.19538819999457	2	1	32	1	go_punish	1	0	-1	1	1	1	0	0.0	1.0	0	0.429000899894163	0.3684006000403315	1338.9464475000275	1611.5812443000032	1612.5957515999908	1613.5954290999798	1615.1265252999729	1616.127779399976	1617.141835700022	1618.1707944000373	1619.1807144000195	1620.6623260999331	2020-01-30 16:34:20.616083	-0.014192543020103	-0.0927894986991292	0.0	-0.0927894986991292	-0.014192543020103	0.0	0.014192543020103	-0.0927894986991292	0.0	-0.014192543020103	0.0	0.0927894986991292	-10.532866546563936	-5.081482870864881	-3.6361196640277433	-9.28716234828507	-8.508583241522768	-3.6361196640277433	-1.5347450876481503	-11.338784726057227	-0.8059181794932863	-9.419800448320771	0.7021979134281422	3	correct	1.0
281.7136237999657	9.739876999985427	go_reward	0.411432099994272	281.76029699994274	284.52653229993325	287.0708936000012	2.7662352999905124	282.7682260000149	286.0568280000009	290.1029956999703	1.7583062999183312	1.0140656000003219	1.3971782999578863	289.09055359999206	0.5507839000783861	288.0772014999534	2	1	33	3	go_reward	1	1	0	1	1	1	0	1.0	0.0	1	0.411432099994272	0.5507839000783861	1338.9464475000275	1620.7067444999702	1621.7146735000424	1623.4729797999607	1625.0032755000284	1626.0173411000287	1627.0236489999809	1628.0370011000196	1629.0494431999978	1630.4466214999557	2020-01-30 16:34:20.616083	33.5701919640694	26.739958146683	0.0	26.739958146683	33.5701919640694	0.0	-33.5701919640694	26.739958146683	0.0	33.5701919640694	0.0	5.0569294349838	23.05151796052557	21.75126477451725	-3.6361196640277433	17.545585297097062	25.07580126556674	-3.6361196640277433	3.429394848636521	22.245599781032276	-0.8059181794932863	17.41294719706136	0.7021979134281422	3	wrong	1.0
291.4951408000197	8.954884900012985	nogo_punish	1.0	291.54181399999675	293.5115171999207	296.03166539990366	1.9697031999239698	292.54408149991673	295.01719099993375	299.06110199994896	0.967435700003989	1.014474399969913	1.435596900060773	298.04807049990654	0.5831529999850318	297.0358217000032	2	1	34	2	nogo_punish	0	0	-1	0	0	1	0	1.0	0.0	-1	1.0	0.5831529999850318	1338.9464475000275	1630.4882615000242	1631.4905289999442	1632.4579646999482	1633.9636384999612	1634.9781128999311	1635.9822692000307	1636.994517999934	1638.0075494999764	1639.4431464000372	2020-01-30 16:34:20.616083	0.0780344003561517	-0.74765023215277	-0.74765023215277	-0.750437173199311	-0.825684632508921	-0.74765023215277	-0.0780344003561517	-0.74765023215277	-0.74765023215277	-0.74765023215277	-0.825684632508921	-2.92702756250239	-10.44063960318768	-5.736343604318522	-4.383769896180514	-9.944810022785251	-9.320075331011585	-4.383769896180514	-4.554562148849669	-12.072242415189894	-1.6316028120022072	-10.074661181774411	-0.04545231872462785	3	wrong	1.0
300.4959793000014	8.750632199924667	go_reward	0.5355913999956101	300.54265249997843	302.82231859990884	305.3607191999911	2.2796660999304095	301.5402945999524	304.33743620000337	308.3937829999488	1.2820239999564365	1.023282999987714	0.8995016999542713	307.3885014000118	0.6254321000305936	306.365548799979	2	1	35	3	go_reward	1	1	0	1	1	1	1	1.0	1.0	1	0.5355913999956101	0.6254321000305936	1338.9464475000275	1639.489100000006	1640.48674209998	1641.7687660999363	1643.2838837000309	1644.3071667000186	1645.3119963000065	1646.3349489000393	1647.3402304999763	1648.2397321999306	2020-01-30 16:34:20.616083	35.3024672850037	28.1342579531676	0.0	28.1342579531676	35.3024672850037	0.0	-35.3024672850037	28.1342579531676	0.0	35.3024672850037	0.0	3.6626296284992	24.783793281459868	23.14556458100185	-3.6361196640277433	18.93988510358166	26.808076586501038	-3.6361196640277433	2.0350950421519207	23.977875101966575	-0.8059181794932863	18.80724700354596	0.7021979134281422	3	correct	1.0
309.2902897000313	8.395314699970186	go_reward	0.406444099964574	309.3369629000083	310.7144732999152	313.27959980000765	1.377510399906896	310.3527556000047	312.2548286999811	316.3313997999069	0.36171769991051406	1.0247711000265554	1.400877800071612	315.30906230001733	0.4643365999218076	314.28459189995215	2	1	36	3	go_reward	1	1	0	1	1	1	0	0.0	1.0	1	0.406444099964574	0.4643365999218076	1338.9464475000275	1648.2834104000358	1649.2992031000322	1649.6609207999427	1651.2012762000086	1652.2260473000351	1653.2310393999796	1654.2555098000448	1655.2778472999344	1656.678725100006	2020-01-30 16:34:20.616083	36.502738694594	29.1029880280037	0.0	29.1029880280037	36.502738694594	0.0	-36.502738694594	29.1029880280037	0.0	36.502738694594	0.0	2.693899553663101	25.98406469105017	24.11429465583795	-3.6361196640277433	19.90861517841776	28.008347996091338	-3.6361196640277433	1.0663649673158218	25.178146511556875	-0.8059181794932863	19.77597707838206	0.7021979134281422	3	correct	1.0
317.7284271999961	8.270567800034769	go_reward	0.4690966999623924	317.7751003999731	319.4358963000125	321.9941161000172	1.6607959000393748	318.7830944999589	320.9801013999388	325.0460450999674	0.6528018000535667	1.0140147000784054	0.9996231000404805	324.0280396000019	0.6194898000685498	323.0117181999376	2	1	37	3	go_reward	1	1	0	1	1	1	1	1.0	1.0	1	0.4690966999623924	0.6194898000685498	1338.9464475000275	1656.7215479000006	1657.7295419999864	1658.38234380004	1659.9265488999663	1660.9405636000447	1661.958165699965	1662.9744871000294	1663.9924925999949	1664.9921157000354	2020-01-30 16:34:20.616083	37.3492599195793	29.7879600241107	0.0	29.7879600241107	37.3492599195793	0.0	-37.3492599195793	29.7879600241107	0.0	37.3492599195793	0.0	2.0089275575561025	26.83058591603547	24.799266651944947	-3.6361196640277433	20.593587174524757	28.85486922107664	-3.6361196640277433	0.3813929712088231	26.024667736542177	-0.8059181794932863	20.460949074489058	0.7021979134281422	3	correct	1.0
326.0427967000287	8.431579899974167	go_reward	0.4347579999594018	326.0894699000057	327.64908709994074	330.2020285999174	1.559617199935019	327.09508859994844	329.1788800999059	333.2546451999808	0.5539984999923036	1.02314850001153	1.2664045999990776	332.24268059991323	0.4823951000580564	331.2072498999771	2	1	38	3	go_reward	1	1	0	1	1	1	1	0.0	0.0	1	0.4347579999594018	0.4823951000580564	1338.9464475000275	1665.0359174000332	1666.041536099976	1666.5955345999682	1668.1253275999334	1669.148476099945	1670.1536974000046	1671.1891280999407	1672.2010927000083	1673.4674973000074	2020-01-30 16:34:20.616083	37.955734158342	30.2798859883694	0.0	30.2798859883694	37.955734158342	0.0	-37.955734158342	30.2798859883694	0.0	37.955734158342	0.0	1.517001593297401	27.437060154798164	25.29119261620365	-3.6361196640277433	21.085513138783462	29.461343459839334	-3.6361196640277433	-0.1105329930498784	26.63114197530487	-0.8059181794932863	20.95287503874776	0.7021979134281422	3	wrong	1.0
334.5017072999617	8.61608090007212	go_punish	0.7215125999646261	334.54838049993873	336.46639959991467	339.0184529999974	1.9180190999759361	335.5559966999574	337.99901309993606	342.0712455000032	0.910402899957262	1.019439900061343	1.0932159000076354	341.0680849999194	0.4701686000917107	340.03440529992827	2	1	39	1	go_punish	1	0	-1	1	1	1	0	0.0	1.0	0	0.7215125999646261	0.4701686000917107	1338.9464475000275	1673.4948279999662	1674.502444199985	1675.4128470999422	1676.9454605999636	1677.964900500025	1678.9808527999558	1680.0145324999469	1681.0176930000307	1682.1109089000383	2020-01-30 16:34:20.616083	0.0154018749813079	-0.068749671619059	0.0	-0.068749671619059	0.0154018749813079	0.0	-0.0154018749813079	-0.068749671619059	0.0	0.0154018749813079	0.0	0.068749671619059	-10.503272128562525	-5.0574430437848115	-3.6361196640277433	-9.263122521205	-8.478988823521357	-3.6361196640277433	-1.5587849147282204	-11.309190308055816	-0.8059181794932863	-9.3957606212407	0.7021979134281422	3	correct	1.0
343.16471329994965	7.951591600081883	go_reward	0.357520000077784	343.2113864999267	344.67533210001443	347.2140691999814	1.4639456000877544	344.206120099989	346.2037219000051	350.2719561000124	0.4692120000254363	1.0103472999762744	0.8910219999961555	349.2596378999299	0.5920916000613943	348.2317562999674	2	1	40	3	go_reward	0	0	1	1	1	1	1	1.0	1.0	0	0.357520000077784	0.5920916000613943	1338.9464475000275	1682.1578339999542	1683.1525676000165	1683.621779600042	1685.1501694000326	1686.1605167000089	1687.178203799995	1688.2060853999574	1689.21840360004	1690.109425600036	2020-01-30 16:34:20.616083	38.3963770156673	30.63812999787	0.0	30.63812999787	38.3963770156673	0.0	-38.3963770156673	30.63812999787	0.0	38.3963770156673	0.0	-30.63812999787	27.877703012123465	25.649436625704247	-3.6361196640277433	21.443757148284057	29.901986317164635	-3.6361196640277433	-32.26566458421728	27.071784832630172	-0.8059181794932863	21.311119048248358	0.7021979134281422	3	correct	1.0
351.1589709999971	8.383270299993455	nogo_punish	1.0	351.20564419997413	352.9873550999914	355.52443170000356	1.7817109000172877	352.21918279991974	354.5038876999174	358.56293949997075	0.7681723000716829	1.0205440000861472	1.0259749999968335	357.5612774000042	0.5452589000342414	356.53256500000157	2	1	41	2	nogo_punish	1	-1	0	0	0	1	0	0.0	1.0	0	1.0	0.5452589000342414	1338.9464475000275	1690.1520917000016	1691.1656302999472	1691.933802600019	1693.450335199945	1694.470879200031	1695.479012500029	1696.5077249000317	1697.5093869999982	1698.535361999995	2020-01-30 16:34:20.616083	-0.590287698585322	-0.74765023215277	-1.63956189887823	-1.65800348531867	-1.0492742002929	-1.63956189887823	0.590287698585322	-1.63956189887823	-0.74765023215277	-1.63956189887823	-1.0492742002929	1.63956189887823	-11.108961702129154	-5.736343604318522	-5.275681562905973	-10.85237633490461	-9.543664898795566	-5.275681562905973	0.012027312530950462	-12.964154081915353	-1.8551923797861862	-10.96657284849987	-0.04545231872462785	3	correct	1.0
359.5831451999254	8.247978800093051	nogo_punish	0.4313929000636562	359.62981839990243	361.05844439996895	363.6179034999807	1.4286260000665152	360.6302836999532	362.5948615999662	366.665589499986	0.4281607000157237	1.0230419000145048	1.2122077000094578	365.66138069995236	0.523721200064756	364.63304889993765	2	1	42	2	nogo_punish	1	-1	0	0	1	0	0	0.0	1.0	-1	0.4313929000636562	0.523721200064756	1338.9464475000275	1698.57626589993	1699.5767311999807	1700.0048918999964	1701.5413090999937	1702.5643510000082	1703.5794963999651	1704.6078281999798	1705.6120370000135	1706.824244700023	2020-01-30 16:34:20.616083	0.181620535643898	-0.74765023215277	-1.09644116328799	-1.11940220733345	-0.914820627644089	-1.09644116328799	-0.181620535643898	-0.74765023215277	-1.09644116328799	-0.914820627644089	-1.09644116328799	-2.92702756250239	-10.337053467899935	-5.736343604318522	-4.732560827315734	-10.31377505691939	-9.409211326146753	-4.732560827315734	-4.554562148849669	-12.239412810681213	-1.9023593427812764	-10.074661181774411	-0.3942432498598478	3	correct	1.0
367.85603649995755	9.09601640002802	nogo_reward	0.4002548001008108	367.9027096999346	370.2706784999466	372.810053099995	2.3679688000120223	368.91202179994457	371.79735459992685	375.8584795999343	1.3586567000020295	1.0126985000681543	1.1402465000282973	374.8504254999573	0.8970345999114215	373.8278698999204	2	1	43	4	nogo_reward	1	0	1	0	1	0	0	1.0	0.0	0	0.4002548001008108	0.8970345999114215	1338.9464475000275	1706.849157199962	1707.858469299972	1709.217125999974	1710.7438020999543	1711.7565006000225	1712.774317399948	1713.7968729999848	1714.8049270999618	1715.94517359999	2020-01-30 16:34:20.616083	1.3209177229439	0.988462061595613	0.0	0.988462061595613	1.3209177229439	0.0	-1.3209177229439	0.988462061595613	0.0	1.3209177229439	0.0	-0.988462061595613	-9.197756280599933	-4.000231310570139	-3.6361196640277433	-8.205910787990328	-7.173472975558765	-3.6361196640277433	-2.615996647942892	-10.003674460093224	-0.8059181794932863	-8.338548888026029	0.7021979134281422	3	wrong	1.0
377.0022705999436	8.310951300081797	nogo_punish	1.0	377.0489437999206	378.40277519996766	380.9188619999916	1.3538314000470564	378.0591862999138	379.9078517999735	383.9605817999693	0.34358890005387366	1.0110102000180632	1.3993133000331	382.94773559994087	0.5360402000369504	381.9267742999366	2	1	44	2	nogo_punish	1	-1	0	0	0	1	1	1.0	1.0	0	1.0	0.5360402000369504	1338.9464475000275	1715.995391299948	1717.0056337999413	1717.3492226999952	1718.854299300001	1719.865309500019	1720.873221799964	1721.8941830999684	1722.9070292999968	1724.30634260003	2020-01-30 16:34:20.616083	0.904016684791567	-1.63956189887823	-1.09644116328799	-1.90732344377538	-2.00045784807955	-1.09644116328799	-0.904016684791567	-1.09644116328799	-1.63956189887823	-1.09644116328799	-2.00045784807955	1.09644116328799	-9.614657318752265	-6.628255271043982	-4.732560827315734	-11.101696293361321	-10.494848546582215	-4.732560827315734	-0.5310934230592894	-12.421033346325114	-2.806376027572836	-10.423452112909631	-0.9373639854500877	3	correct	1.0
385.35606649995316	8.570399000076577	go_reward	0.3816430000588298	385.4027396999302	387.18315669999015	389.73298139998246	1.7804170000599697	386.4109386999628	388.7089929999786	392.76334790000715	0.7722180000273511	1.0239884000038728	1.2097907999996096	391.76168529992015	0.5876726999413222	390.737267499906	2	1	45	3	go_reward	1	1	0	1	1	1	0	0.0	1.0	1	0.3816430000588298	0.5876726999413222	1338.9464475000275	1724.3491871999577	1725.3573861999903	1726.1296042000176	1727.655440500006	1728.67942890001	1729.6837149999335	1730.7081327999476	1731.7097954000346	1732.9195862000342	2020-01-30 16:34:20.616083	25.4598214616522	20.357006835914	0.0	20.357006835914	25.4598214616522	0.0	-25.4598214616522	20.357006835914	0.0	25.4598214616522	0.0	11.439880745752802	14.941147458108368	15.368313463748247	-3.6361196640277433	11.162633986328059	16.965430763149534	-3.6361196640277433	9.812346159405523	14.135229278615077	-0.8059181794932863	11.029995886292358	0.7021979134281422	3	correct	1.0
393.96905079996213	8.370798800024204	nogo_punish	0.3918329000007361	394.01572399993915	395.57400469994195	398.11554679996357	1.558280700002797	395.02422369993315	397.09194219997175	401.1528956999539	0.5497810000088066	1.0236045999918133	1.2336271000094712	400.1494348999115	0.5566164000192657	399.1291901000079	2	1	46	2	nogo_punish	1	-1	0	0	1	0	1	1.0	1.0	-1	0.3918329000007361	0.5566164000192657	1338.9464475000275	1732.9621714999666	1733.9706711999606	1734.5204521999694	1736.0383896999992	1737.061994299991	1738.0756376000354	1739.095882399939	1740.0993431999814	1741.3329702999908	2020-01-30 16:34:20.616083	-1.09667847086891	-1.63956189887823	-0.750437173199311	-1.29182702778121	-1.84711564406822	-0.750437173199311	1.09667847086891	-1.63956189887823	-0.750437173199311	-1.84711564406822	-0.750437173199311	-2.03511589577693	-11.615352474412742	-6.628255271043982	-4.3865568372270545	-10.48619987736715	-10.341506342570884	-4.3865568372270545	-3.6626504821242096	-13.171707827105344	-1.5563553526925973	-10.96657284849987	-0.04823925977116883	3	correct	1.0
402.36277499992866	8.88353910006117	nogo_reward	1.0	402.4094481999057	404.9364969999299	407.4654419999574	2.527048800024204	403.42231189995096	406.45220229995925	410.51179139991314	1.5141850999789312	1.0132396999981665	0.7811959000537172	409.50788409996335	0.8621023999294266	408.485697599943	2	1	47	4	nogo_reward	1	0	1	0	0	1	0	0.0	1.0	1	1.0	0.8621023999294266	1338.9464475000275	1741.3558956999332	1742.3687593999784	1743.8829444999574	1745.3986497999867	1746.411889499985	1747.4321450999705	1748.4543315999908	1749.4582388999406	1750.2394347999943	2020-01-30 16:34:20.616083	-0.975840109491935	0.71084590346574	0.0	0.71084590346574	0.975840109491935	0.0	0.975840109491935	0.0	0.71084590346574	0.0	0.975840109491935	31.7968875816668	-11.494514113035768	-4.277847468700012	-3.6361196640277433	-8.4835269461202	-7.518550589010729	-3.6361196640277433	30.16935299531952	-11.324592183037124	0.16992192999864875	-9.327010949621641	1.4130438168938821	3	correct	1.0
411.2915675999832	8.894010200048797	nogo_punish	1.0	411.3382407999602	413.3959682999414	415.9322372999743	2.0577274999811834	412.34955209994246	414.911802299903	418.9836057999639	1.04641619999893	1.020435000071302	1.2486452000450754	417.9681239000058	0.5727868999820203	416.9390283999967	2	1	48	2	nogo_punish	1	-1	0	0	0	1	1	0.0	0.0	0	1.0	0.5727868999820203	1338.9464475000275	1750.2846882999877	1751.29599959997	1752.3424157999689	1753.8582497999305	1754.8786848000018	1755.8854759000242	1756.9145714000333	1757.9300532999914	1759.1786985000365	2020-01-30 16:34:20.616083	1.86922482827044	-2.23068167127342	-0.750437173199311	-2.02892395813339	-2.61966200146975	-0.750437173199311	-1.86922482827044	-0.750437173199311	-2.23068167127342	-0.750437173199311	-2.61966200146975	0.750437173199311	-8.649449175273393	-7.219375043439172	-4.3865568372270545	-11.223296807719331	-11.114052699972415	-4.3865568372270545	-0.8770974131479684	-12.075029356236435	-3.425580180963036	-10.077448122820952	-1.528483757845278	3	wrong	1.0
420.2080775999932	8.421658299979526	nogo_reward	1.0	420.2547507999702	421.7627044999974	424.28586900001415	1.5079537000272012	421.25895829999376	423.27170859999046	427.3329481999392	0.5037462000036612	1.014160400023684	1.343460900010541	426.3291407999352	0.5739849999081343	425.3008075999096	2	1	49	4	nogo_reward	1	0	1	0	0	1	1	1.0	1.0	1	1.0	0.5739849999081343	1338.9464475000275	1759.2011982999977	1760.2054058000213	1760.709152000025	1762.218156100018	1763.2323165000416	1764.247255099937	1765.2755882999627	1766.2793956999667	1767.6228565999772	2020-01-30 16:34:20.616083	6.90032889325193	0.71084590346574	10.5453225859654	11.0633021010765	3.64499369271346	10.5453225859654	-6.90032889325193	10.5453225859654	0.71084590346574	10.5453225859654	3.64499369271346	21.2515649957014	-3.6183451102919024	-4.277847468700012	6.909202921937656	1.8689292514905596	-4.849397005789205	6.909202921937656	19.62403040935412	-0.7792695970717247	2.8390755132201737	1.218311636343758	1.4130438168938821	3	correct	1.0
428.67605479992926	8.533247800078243	go_reward	0.3192136000143364	428.7227279999063	430.40058149991114	432.9469204999043	1.6778535000048578	429.7287358000176	431.9264998999424	436.00558529992145	0.671845699893538	1.0204205999618807	1.2503905000630766	434.993568099919	0.3756671999581158	433.9641464999879	2	1	50	3	go_reward	0	0	1	1	1	1	0	0.0	1.0	0	0.3192136000143364	0.3756671999581158	1338.9464475000275	1767.6691754999338	1768.675183300045	1769.3470289999386	1770.87294739997	1771.8933679999318	1772.9105940000154	1773.9400155999465	1774.952032799949	1776.202423300012	2020-01-30 16:34:20.616083	30.5833223498515	24.4130866376494	0.0	24.4130866376494	30.5833223498515	0.0	-30.5833223498515	24.4130866376494	0.0	30.5833223498515	0.0	-24.4130866376494	20.064648346307667	19.424393265483648	-3.6361196640277433	15.218713788063459	22.088931651348837	-3.6361196640277433	-26.04062122399668	19.258730166814374	-0.8059181794932863	15.086075688027758	0.7021979134281422	3	correct	1.0
437.25153410003986	8.65327399992384	go_reward	0.422047600033693	437.2982073000169	439.34675969998375	441.87237929995194	2.048552399966866	438.2984127999516	440.8572019999849	444.92686909995996	1.0483469000321293	1.0151772999670357	1.0246121999807656	443.9145866999172	0.4565939999883994	442.8882414000111	2	1	51	3	go_reward	1	1	0	1	1	1	0	0.0	1.0	1	0.422047600033693	0.4565939999883994	1338.9464475000275	1776.2446548000444	1777.244860299979	1778.2932072000112	1779.8036495000124	1780.8188267999794	1781.8346889000386	1782.8610341999447	1783.8733165999874	1784.8979287999682	2020-01-30 16:34:20.616083	20.4283827982622	16.3359240838634	0.0	16.3359240838634	20.4283827982622	0.0	-20.4283827982622	16.3359240838634	0.0	20.4283827982622	0.0	15.460963497803402	9.909708794718366	11.347230711697648	-3.6361196640277433	7.141551234277459	11.933992099759534	-3.6361196640277433	13.833428911456123	9.103790615225074	-0.8059181794932863	7.008913134241759	0.7021979134281422	3	correct	1.0
445.9460502000293	8.721203899942111	go_reward	0.4864557000109926	445.9927234000063	448.2122840000086	450.76550689991586	2.2195606000022963	446.9935963000173	449.742268299917	453.7984656000044	1.2186876999912784	1.0232385999988765	0.9154616999439895	452.7898904999022	0.7097310000099242	451.7750628999206	2	1	52	3	go_reward	1	1	0	1	1	1	1	1.0	1.0	1	0.4864557000109926	0.7097310000099242	1338.9464475000275	1784.9391709000338	1785.9400438000448	1787.158731500036	1788.6887157999445	1789.7119543999434	1790.721510399948	1791.7363379999297	1792.744913100032	1793.660374799976	2020-01-30 16:34:20.616083	27.2611753922403	21.7505968964214	0.0	21.7505968964214	27.2611753922403	0.0	-27.2611753922403	21.7505968964214	0.0	27.2611753922403	0.0	10.046290685245403	16.742501388696468	16.761903524255647	-3.6361196640277433	12.556224046835458	18.766784693737634	-3.6361196640277433	8.418756098898124	15.936583209203176	-0.8059181794932863	12.423585946799758	0.7021979134281422	3	correct	1.0
454.69085529993754	8.91840860003117	nogo_reward	1.0	454.73752849991456	457.0854167999935	459.6244197000053	2.347888300078921	455.7501737999264	458.5903312999294	462.67828399990685	1.3352430000670665	1.034088400075916	0.9776531000388786	461.6595410999146	0.6924929999513552	460.6442472999918	2	1	53	4	nogo_reward	1	0	1	0	0	1	0	0.0	1.0	1	1.0	0.6924929999513552	1338.9464475000275	1793.683975999942	1794.696621299954	1796.031864300021	1797.536778799957	1798.5708672000328	1799.5906948000193	1800.605988599942	1801.6247314999343	1802.6023845999732	2020-01-30 16:34:20.616083	11.9266428127554	0.71084590346574	17.231661911524	17.6136449788024	5.30501909876865	17.231661911524	-11.9266428127554	17.231661911524	0.71084590346574	17.231661911524	5.30501909876865	14.565225670142802	1.4079688092115674	-4.277847468700012	13.595542247496256	8.419272129216461	-3.189371599734015	13.595542247496256	12.937691083795523	5.907069728486876	4.499100919275364	7.904650961902359	1.4130438168938821	3	correct	1.0
463.6567653999664	8.714180800016038	nogo_punish	1.0	463.7034385999434	465.3677116999172	467.8779546999142	1.6642730999737978	464.71205929992743	466.8712471999461	470.9165358999744	0.6556523999897763	1.0067074999681154	1.501083499985043	469.91439990000845	0.4331298000179231	468.89162439992697	2	1	54	2	nogo_punish	1	-1	0	0	0	1	0	0.0	1.0	0	1.0	0.4331298000179231	1338.9464475000275	1802.649886099971	1803.658506799955	1804.3141591999447	1805.8176946999736	1806.8244021999417	1807.8380718999545	1808.860847400036	1809.862983400002	1811.364066899987	2020-01-30 16:34:20.616083	1.93435070036453	-2.23068167127342	-0.523762977333243	-1.37903640362271	-2.45811367769777	-0.523762977333243	-1.93435070036453	-0.523762977333243	-2.23068167127342	-0.523762977333243	-2.45811367769777	0.523762977333243	-8.584323303179303	-7.219375043439172	-4.159882641360986	-10.57340925320865	-10.952504376200434	-4.159882641360986	-1.1037716090140366	-11.848355160370367	-3.264031857191056	-9.850773926954885	-1.528483757845278	3	correct	1.0
472.41385050001554	7.739798899972811	nogo_punish	1.0	472.46052369999256	473.73993259994336	476.26631029997975	1.2794088999507949	473.4591866999406	475.25534679996804	479.30064659996447	0.28074590000278477	1.0109635000117123	0.899676000000909	478.2876996999846	0.4882016000337899	477.27552719996334	2	1	55	2	nogo_punish	1	-1	0	0	0	1	0	0.0	1.0	0	1.0	0.4882016000337899	1338.9464475000275	1811.40697120002	1812.405634199968	1812.6863800999708	1814.2017942999955	1815.2127578000072	1816.2219746999908	1817.234147200012	1818.247094099992	1819.1467700999929	2020-01-30 16:34:20.616083	1.98336249565881	-2.23068167127342	-0.371751975180679	-0.958151070746148	-2.35511447083949	-0.371751975180679	-1.98336249565881	-0.371751975180679	-2.23068167127342	-0.371751975180679	-2.35511447083949	0.371751975180679	-8.535311507885023	-7.219375043439172	-4.007871639208422	-10.152523920332088	-10.849505169342155	-4.007871639208422	-1.2557826111666004	-11.696344158217803	-3.161032650332776	-9.69876292480232	-1.528483757845278	3	correct	1.0
480.19768700003624	9.277213800000027	go_reward	0.4220156000228598	480.24436020001326	482.9666678999786	485.5218318999978	2.722307699965313	481.24230029992805	484.49756839999486	488.56995219993405	1.7243676000505275	1.0242635000029168	0.9516218000792378	487.55731820000847	0.6314592000562698	486.53531529998895	2	1	56	3	go_reward	1	1	0	1	1	1	0	0.0	1.0	1	0.4220156000228598	0.6314592000562698	1338.9464475000275	1819.1908077000408	1820.1887477999555	1821.913115400006	1823.4440159000224	1824.4682794000253	1825.4817628000164	1826.503765700036	1827.5163996999615	1828.4680215000408	2020-01-30 16:34:20.616083	31.4481187731102	25.0805384772273	0.0	25.0805384772273	31.4481187731102	0.0	-31.4481187731102	25.0805384772273	0.0	31.4481187731102	0.0	6.716349104439502	20.929444769566366	20.091845105061548	-3.6361196640277433	15.88616562764136	22.953728074607533	-3.6361196640277433	5.088814518092223	20.123526590073077	-0.8059181794932863	15.753527527605659	0.7021979134281422	3	correct	1.0
489.4997677999784	8.648591800010308	nogo_reward	1.0	489.5464409999554	491.1245804999494	493.65549879998457	1.5781394999939948	490.55800069996644	492.6318430999529	496.7110743999949	0.5665797999829465	1.023655700031668	1.4839583999707884	495.6976854999084	0.4999240000033751	494.66979999991645	2	1	57	4	nogo_reward	1	0	1	0	0	1	0	0.0	1.0	1	1.0	0.4999240000033751	1338.9464475000275	1828.4928884999829	1829.504448199994	1830.0710279999769	1831.5782905999804	1832.601946300012	1833.616247499944	1834.644132999936	1835.6575219000224	1837.1414802999932	2020-01-30 16:34:20.616083	15.2286375850436	0.71084590346574	21.5984413440069	21.8832356892999	6.36980375896329	21.5984413440069	-15.2286375850436	21.5984413440069	0.71084590346574	21.5984413440069	6.36980375896329	10.198446237659901	4.709963581499768	-4.277847468700012	17.96232167997916	12.688862839713961	-2.124586939539375	17.96232167997916	8.570911651312622	10.273849160969776	5.5638855794700035	12.27143039438526	1.4130438168938821	3	correct	1.0
498.1916482000379	8.602226899936795	nogo_punish	1.0	498.2383214000149	500.06820969993737	502.5845919999995	1.8298882999224588	499.24591149995126	501.5737657999855	505.6334116999062	0.8222981999861076	1.0108262000139803	1.2071366000454873	504.6210810999621	0.5638571999734268	503.59079009993	2	1	58	2	nogo_punish	1	-1	0	0	0	1	0	0.0	1.0	0	1.0	0.5638571999734268	1338.9464475000275	1837.1847689000424	1838.1923589999788	1839.0146571999649	1840.520213300013	1841.531039500027	1842.5372375999575	1843.5675285999896	1844.5798591999337	1845.7869957999792	2020-01-30 16:34:20.616083	2.01982706951734	-2.23068167127342	-0.267761544897155	-0.678177747622222	-2.28758861441449	-0.267761544897155	-2.01982706951734	-0.267761544897155	-2.23068167127342	-0.267761544897155	-2.28758861441449	0.267761544897155	-8.498846934026492	-7.219375043439172	-3.9038812089248984	-9.872550597208162	-10.781979312917155	-3.9038812089248984	-1.3597730414501243	-11.59235372793428	-3.093506793907776	-9.594772494518796	-1.528483757845278	3	correct	1.0
506.8359567000298	9.474249799968675	nogo_punish	1.0	506.8826299000068	509.31263810000405	511.83067840000126	2.4300081999972463	507.8837672999366	510.8277061999545	514.8949373000069	1.4288708000674433	1.00297220004677	1.4619423999686205	513.8820097999412	0.6417994000948966	512.8468931999525	2	1	59	2	nogo_punish	0	0	-1	0	0	1	0	0.0	1.0	-1	1.0	0.6417994000948966	1338.9464475000275	1845.8290774000343	1846.830214799964	1848.2590856000315	1849.774153699982	1850.7771259000288	1851.79334069998	1852.8284572999687	1853.8413848000343	1855.303327200003	2020-01-30 16:34:20.616083	2.04688976042712	-2.23068167127342	-0.195385864493222	-0.487729189043636	-2.24227562492034	-0.195385864493222	-2.04688976042712	-0.195385864493222	-2.23068167127342	-0.195385864493222	-2.24227562492034	-3.479291930161938	-8.471784243116712	-7.219375043439172	-3.831505528520965	-9.682102038629576	-10.736666323423005	-3.831505528520965	-5.1068265165092175	-11.519978047530346	-3.0481938044136263	-9.522396814114863	-1.528483757845278	3	correct	1.0
516.3533582999371	8.33167870005127	go_reward	0.4510579999769106	516.4000314999141	517.7886207000124	520.3365413999418	1.388589200098295	517.3985541999575	519.3196082999932	523.3791455000176	0.39006650005489973	1.0169330999485737	1.352564699947834	522.3649143999214	0.5551943000173196	521.3416021999442	2	1	60	3	go_reward	1	1	0	1	1	1	0	0.0	1.0	1	0.4510579999769106	0.5551943000173196	1338.9464475000275	1855.3464789999416	1856.345001699985	1856.73506820004	1858.2660558000207	1859.2829888999693	1860.2880496999717	1861.311361899949	1862.325593000045	1863.6781576999929	2020-01-30 16:34:20.616083	34.0996826313352	27.196454234049	0.0	27.196454234049	34.0996826313352	0.0	-34.0996826313352	27.196454234049	0.0	34.0996826313352	0.0	4.600433347617802	23.581008627791366	22.207760861883248	-3.6361196640277433	18.00208138446306	25.605291932832536	-3.6361196640277433	2.9728987612705224	22.775090448298073	-0.8059181794932863	17.86944328442736	0.7021979134281422	3	correct	1.0
