onset	duration	trial_type	response_time	cueOnset	targetOnset	fbOnset	cueRT	firstfixOnset	secondfixOnset	waitOnset	firstfixdur	secondfixdur	waitdur	nback_fbOnset	nback_response_time	nback_targetOnset	block	wm	trial	cue	cond	is_common	outcome_go	outcome_nogo	key_correct	key_pressed	is_correct	key_correct_nback	key_pressed_nback	is_correct_nback	outcome	rt	rt_nback	time_scan	time_onset	time_isi1	time_circle	time_isi2	time_feedback	time_same	time_correct	time_iti	time_done	timestamp_scan	DV	Qgo	Qnogo	SV	Wgo	Wnogo	mDV	Qchosen	Qunchosen	Wchosen	Wunchosen	PE	DVC	QgoC	QnogoC	SVC	WgoC	WnogoC	PEC	WchosenC	WunchosenC	QchosenC	QunchosenC	run	outcome_nback	nback_targetResp
0.0	9.532911300193518	go_reward	0.3590068998746574	0.04427519999444485	2.564296599943191	5.113921700045466	2.520021399948746	1.049161999952048	4.097919800318778	8.19196469988674	1.5151345999911427	1.0160018997266889	1.385221800301224	7.179022100288421	0.8104859003797174	6.144863700028509	2	1	1	3	go_reward	1	1	0	1	1	1	0	0.0	1.0	1	0.3590068998746574	0.8104859003797174	1416.2786109000444	1416.3228861000389	1417.3277728999965	1418.8429074999876	1420.3765307003632	1421.39253260009	1422.423474600073	1423.4576330003329	1424.4705755999312	1425.8557974002324	2020-10-07 10:18:44.098021	-0.915018364189558	0.0	0.0	0.0	-0.915018364189558	0.0	0.915018364189558	0.0	0.0	-0.915018364189558	0.0	26.7729620639332	-9.623091534429463	-4.2924707722465225	-5.016848170836791	-9.058814387420288	-6.408508805315872	-5.016848170836791	25.20853310509594	-10.524224255291069	-0.9011327208616021	-9.028040206472012	-0.2812787366113038	3	correct	1.0
9.575692099984735	8.435631799977273	go_reward	0.234611399937421	9.61996729997918	11.437787299975753	13.984426900278777	1.8178199999965727	10.624589399900287	12.969056600239128	17.035420400090516	0.8131979000754654	1.015370300039649	1.0201786998659372	16.028373800217878	0.721856000367552	15.003417300060391	2	1	2	3	go_reward	1	1	0	1	1	1	0	0.0	1.0	1	0.234611399937421	0.721856000367552	1416.2786109000444	1425.8985782000236	1426.9032002999447	1427.7163982000202	1429.2476675002836	1430.2630378003232	1431.2820282001048	1432.3069847002623	1433.314031300135	1434.334210000001	2020-10-07 10:18:44.098021	12.0972500152033	9.99049085488359	0.0	9.99049085488359	12.0972500152033	0.0	-12.0972500152033	9.99049085488359	0.0	12.0972500152033	0.0	16.78247120904961	3.389176844963396	5.698020082637067	-5.016848170836791	0.9316764674633013	6.603759574076986	-5.016848170836791	15.218042250212347	2.4880441241017905	-0.9011327208616021	0.9624506484115773	-0.2812787366113038	3	correct	1.0
18.054238500073552	8.222068400122453	go_reward	0.2745574996806681	18.098513700067997	19.76471089990787	22.30908130016178	1.6661971998398712	19.10361920017749	21.29554180009268	25.36610609991476	0.6610916997303775	1.0135395000691005	0.9544760002756902	24.35314980009548	0.5013015996664762	23.31997979991138	2	1	3	3	go_reward	1	1	0	1	1	1	1	1.0	1.0	1	0.2745574996806681	0.5013015996664762	1416.2786109000444	1434.3771246001124	1435.382230100222	1436.0433217999523	1437.5741527001371	1438.5876922002062	1439.5985906999558	1440.63176070014	1441.6447169999592	1442.599193000235	2020-10-07 10:18:44.098021	19.5514937983202	15.7722712426889	0.0	15.7722712426889	19.5514937983202	0.0	-19.5514937983202	15.7722712426889	0.0	19.5514937983202	0.0	11.0006908212443	10.843420628080297	11.479800470442378	-5.016848170836791	6.713456855268612	14.058003357193886	-5.016848170836791	9.436261862407036	9.942287907218692	-0.9011327208616021	6.744231036216888	-0.2812787366113038	3	correct	1.0
26.308298900258023	8.278728599659871	go_punish	0.2855925997719168	26.35257410025247	28.198791100177914	30.739558300003637	1.8462169999254456	27.356492900289595	29.730100800283253	33.769435400143266	0.8422981998883188	1.0094574997203836	0.8618672997690737	32.76195489987731	1.0	31.75223240023479	2	1	4	1	go_punish	1	0	-1	1	1	1	0	n/a	0.0	-1	0.2855925997719168	1.0	1416.2786109000444	1442.631185000297	1443.635103800334	1444.4774020002224	1446.0087117003277	1447.018169200048	1448.0308433002792	1449.0405657999218	1450.0480463001877	1450.9099135999568	2020-10-07 10:18:44.098021	-0.915018364189558	0.0	0.0	0.0	-0.915018364189558	0.0	0.915018364189558	0.0	0.0	-0.915018364189558	0.0	0.0	-9.623091534429463	-4.2924707722465225	-5.016848170836791	-9.058814387420288	-6.408508805315872	-5.016848170836791	-1.564428958837263	-10.524224255291069	-0.9011327208616021	-9.028040206472012	-0.2812787366113038	3	missed	0.0
34.61976210027933	9.743966399691999	nogo_reward	1.0	34.664037300273776	37.4948670999147	40.014102400280535	2.8308297996409237	35.66827560029924	39.00003800028935	43.062916200142354	1.8265914996154606	1.0140643999911845	1.3450874998234212	42.056785200256854	0.4836667999625206	41.025668200105656	2	1	5	4	nogo_reward	1	0	1	0	0	1	0	0.0	1.0	1	1.0	0.4836667999625206	1416.2786109000444	1450.9426482003182	1451.9468865003437	1453.7734779999591	1455.2786489003338	1456.292713300325	1457.30427910015	1458.3353961003013	1459.3415271001868	1460.6866146000102	2020-10-07 10:18:44.098021	0.915018364189558	0.0	0.0	0.0	-0.915018364189558	0.0	-0.915018364189558	0.0	0.0	0.0	-0.915018364189558	26.7729620639332	-7.793054806050346	-4.2924707722465225	-5.016848170836791	-9.058814387420288	-6.408508805315872	-5.016848170836791	25.20853310509594	-9.60920589110151	-1.81615108505116	-9.028040206472012	-0.2812787366113038	3	correct	1.0
44.390920700039715	8.838041599839698	go_punish	1.0	44.43519590003416	46.21899610012747	48.734790500253666	1.7838002000933102	45.43981570005417	47.7242848998867	51.78808879991993	0.7791804000733009	1.0105056003669688	1.4851486999539247	50.78116440027952	0.3993890001438558	49.747952200006694	2	1	6	1	go_punish	0	-1	0	1	0	0	1	0.0	0.0	0	1.0	0.3993890001438558	1416.2786109000444	1460.7138068000786	1461.7184266000986	1462.497607000172	1464.0028957999311	1465.013401400298	1466.0265631000511	1467.059775300324	1468.0666996999644	1469.5518483999183	2020-10-07 10:18:44.098021	2.29182707022341	-1.04826290095716	0.0	-1.04826290095716	-2.29182707022341	0.0	-2.29182707022341	0.0	-1.04826290095716	0.0	-2.29182707022341	0.0	-6.416246100016495	-5.340733673203682	-5.016848170836791	-10.107077288377448	-7.785317511349724	-5.016848170836791	-1.564428958837263	-9.60920589110151	-3.192959791085012	-9.028040206472012	-1.3295416375684639	3	wrong	1.0
53.27653490006901	7.930943500250805	go_reward	0.3641995000652969	53.320810100063454	54.66801739996299	57.21400809986517	1.3472072998995372	54.32487480016425	56.20031569991261	60.255317400209606	0.34314259979873896	1.0136923999525607	0.9964362001046538	59.24937380012125	0.7504111002199352	58.22562299994752	2	1	7	3	go_reward	1	1	0	1	1	1	0	1.0	0.0	1	0.3641995000652969	0.7504111002199352	1416.2786109000444	1469.599421000108	1470.6034857002087	1470.9466283000074	1472.478926599957	1473.4926189999096	1474.504233899992	1475.5279847001657	1476.533928300254	1477.5303645003587	2020-10-07 10:18:44.098021	24.0381128462659	19.2878801282379	0.0	19.2878801282379	24.0381128462659	0.0	-24.0381128462659	19.2878801282379	0.0	24.0381128462659	0.0	7.485081935695298	15.330039676025995	14.995409355991379	-5.016848170836791	10.229065740817614	18.544622405139584	-5.016848170836791	5.920652976858035	14.42890695516439	-0.9011327208616021	10.25983992176589	-0.2812787366113038	3	wrong	1.0
61.231164100114256	8.562567499931902	nogo_reward	1.0	61.2754393001087	63.04038770031207	65.55950629990548	1.764948400203366	62.28000590018905	64.54543639998883	68.60114570008591	0.7603818001230138	1.0140698999166489	1.2368610999546945	67.59378460003063	0.8108164998702705	66.5716033000499	2	1	8	4	nogo_reward	1	0	1	0	0	1	0	0.0	1.0	1	1.0	0.8108164998702705	1416.2786109000444	1477.5540502001531	1478.5586168002335	1479.3189986003565	1480.8240473000333	1481.83811719995	1482.8502142000943	1483.872395500075	1484.8797566001303	1486.116617700085	2020-10-07 10:18:44.098021	7.88373169456386	0.0	9.99049085488359	9.99049085488359	2.10675916031973	9.99049085488359	-7.88373169456386	9.99049085488359	0.0	9.99049085488359	2.10675916031973	16.78247120904961	-0.8243414756760448	-4.2924707722465225	4.973642684046798	0.9316764674633013	-3.3867312808065844	4.973642684046798	15.218042250212347	0.381284963782079	1.2056264394581282	0.9624506484115773	-0.2812787366113038	3	correct	1.0
69.81776720006019	8.426169599872082	nogo_reward	1.0	69.86204240005463	71.52299509989098	74.04190720012411	1.6609526998363435	70.86627800017595	73.02898389985785	77.08964060014114	0.6567170997150242	1.0129233002662659	1.1985713997855783	76.08195250015706	0.7091728998348117	75.05299720028415	2	1	9	4	nogo_reward	1	0	1	0	0	1	0	0.0	1.0	1	1.0	0.7091728998348117	1416.2786109000444	1486.140653300099	1487.1448889002204	1487.8016059999354	1489.3075947999023	1490.3205181001686	1491.3316081003286	1492.3605634002015	1493.3682515001856	1494.5668228999712	2020-10-07 10:18:44.098021	11.9930486870576	0.0	15.7722712426889	15.7722712426889	3.77922255563131	15.7722712426889	-11.9930486870576	15.7722712426889	0.0	15.7722712426889	3.77922255563131	11.0006908212443	3.2849755168176955	-4.2924707722465225	10.755423071852109	6.713456855268612	-1.7142678854950044	10.755423071852109	9.436261862407036	6.16306535158739	2.878089834769708	6.744231036216888	-0.2812787366113038	3	correct	1.0
78.27125790016703	9.559474799782265	go_punish	0.6143264002166688	78.31553310016147	81.07583240000531	83.61784020019695	2.7602992998438367	79.32048240024596	82.60738920001313	86.65175369987264	1.7553499997593462	1.0104510001838207	1.2232542000710964	85.64559049997479	1.0	84.63102070009336	2	1	10	1	go_punish	1	0	-1	1	1	1	0	n/a	0.0	-1	0.6143264002166688	1.0	1416.2786109000444	1494.594144000206	1495.5990933002904	1497.3544433000498	1498.8860001000576	1499.8964511002414	1500.9096316001378	1501.9242014000192	1502.930364599917	1504.1536187999882	2020-10-07 10:18:44.098021	-2.14844428662204	-1.04826290095716	0.0	-0.617250030085994	-2.14844428662204	0.0	2.14844428662204	-1.04826290095716	0.0	-2.14844428662204	0.0	1.04826290095716	-10.856517456861944	-5.340733673203682	-5.016848170836791	-9.676064417506282	-7.641934727748355	-5.016848170836791	-0.5161660578801031	-11.75765017772355	-0.9011327208616021	-10.076303107429172	-0.2812787366113038	3	missed	0.0
87.88130690017715	9.305006700102467	nogo_punish	1.0	87.9255821001716	90.69558069994673	93.21023030020297	2.7699985997751355	88.92970950016752	92.20029379986227	96.25361610017717	1.7658711997792125	1.0099365003407001	0.9769727000968942	95.24578810017556	0.7388602001592517	94.22241580020636	2	1	11	2	nogo_punish	1	-1	0	0	0	1	0	0.0	1.0	0	1.0	0.7388602001592517	1416.2786109000444	1504.204193000216	1505.208320400212	1506.9741915999912	1508.4789046999067	1509.4888412002474	1510.5010267002508	1511.52439900022	1512.5322270002216	1513.5091997003185	2020-10-07 10:18:44.098021	0.915018364189558	0.0	0.0	0.0	-0.915018364189558	0.0	-0.915018364189558	0.0	0.0	0.0	-0.915018364189558	0.0	-7.793054806050346	-4.2924707722465225	-5.016848170836791	-9.058814387420288	-6.408508805315872	-5.016848170836791	-1.564428958837263	-9.60920589110151	-1.81615108505116	-9.028040206472012	-0.2812787366113038	3	correct	1.0
97.23210590006784	9.601434600073844	go_reward	0.2937426003627479	97.27638110006228	100.03950269985967	102.58650230010971	2.763121599797387	98.28135129995644	101.57228900026507	105.63511410029605	1.7581513999032268	1.0142132998446414	1.2427015998400748	104.62833990016952	0.4812451000325382	103.59688970027491	2	1	12	3	go_reward	1	1	0	1	1	1	0	0.0	1.0	1	0.2937426003627479	0.4812451000325382	1416.2786109000444	1513.5549920001067	1514.5599622000009	1516.318113599904	1517.8508999003095	1518.8651132001542	1519.8755006003194	1520.906950800214	1521.9137250003405	1523.1564266001806	2020-10-07 10:18:44.098021	26.8523671941822	21.5154447835064	0.0	21.5154447835064	26.8523671941822	0.0	-26.8523671941822	21.5154447835064	0.0	26.8523671941822	0.0	5.2575172804268	18.144294023942294	17.22297401125988	-5.016848170836791	12.456630396086112	21.358876753055885	-5.016848170836791	3.6930883215895367	17.24316130308069	-0.9011327208616021	12.487404577034388	-0.2812787366113038	3	correct	1.0
106.86189040029421	8.692966699599992	go_punish	1.0	106.90616560028866	109.12338849995285	111.64284399989992	2.2172228996641934	107.91049280017614	110.62865359988064	114.69018439995125	1.212895699776709	1.014190400019288	0.9089478999374023	113.68354720016964	0.5777791999280453	112.65452100010589	2	1	13	1	go_punish	1	0	-1	1	0	0	0	0.0	1.0	-1	1.0	0.5777791999280453	1416.2786109000444	1523.184776500333	1524.1891037002206	1525.4019993999973	1526.907264499925	1527.9214548999444	1528.9331319001503	1529.962158100214	1530.9687952999957	1531.877743199933	2020-10-07 10:18:44.098021	3.01787533134028	-1.66551293104316	0.0	-1.42770045265225	-3.01787533134028	0.0	-3.01787533134028	0.0	-1.66551293104316	0.0	-3.01787533134028	-2.85080643829373	-5.690197838899625	-5.957983703289683	-5.016848170836791	-10.486514840072537	-8.511365772466595	-5.016848170836791	-4.415235397130993	-9.60920589110151	-3.919008052201882	-9.028040206472012	-1.9467916676544639	3	correct	1.0
115.60002670018002	8.832617199979722	go_reward	0.3149550002999604	115.64430190017447	117.48121519992105	120.02853369992226	1.836913299746584	116.64891920005925	119.01394660025835	123.07970470003806	0.8322959998617989	1.0145870996639132	1.3972144001161269	122.0723772002384	0.5833510998636484	121.04189420025796	2	1	14	3	go_reward	0	0	1	1	1	1	1	1.0	1.0	0	0.3149550002999604	0.5833510998636484	1416.2786109000444	1531.922912800219	1532.9275301001037	1533.7598260999655	1535.2925575003028	1536.3071445999667	1537.3205051003024	1538.3509881002828	1539.3583156000825	1540.7555300001986	2020-10-07 10:18:44.098021	28.6807832543475	22.9771521995398	0.0	22.9771521995398	28.6807832543475	0.0	-28.6807832543475	22.9771521995398	0.0	28.6807832543475	0.0	-22.9771521995398	19.972710084107597	18.684681427293278	-5.016848170836791	13.91833781211951	23.187292813221184	-5.016848170836791	-24.54158115837706	19.07157736324599	-0.9011327208616021	13.949111993067786	-0.2812787366113038	3	correct	1.0
124.4608721002005	8.131520200055093	nogo_reward	1.0	124.50514730019495	125.8676442001015	128.38617529999465	1.3624968999065459	125.50984650012106	127.3728112000972	131.42782230023295	0.35779769998043776	1.0133640998974442	1.2088452000170946	130.42119790008292	0.4854067997075617	129.39785660011694	2	1	15	4	nogo_reward	1	0	1	0	0	1	0	0.0	1.0	1	1.0	0.4854067997075617	1416.2786109000444	1540.7837582002394	1541.7884574001655	1542.146255100146	1543.6514221001416	1544.664786200039	1545.6764675001614	1546.6998088001274	1547.7064332002774	1548.9152784002945	2020-10-07 10:18:44.098021	14.5376474102099	0.0	19.2878801282379	19.2878801282379	4.75023271802799	19.2878801282379	-14.5376474102099	19.2878801282379	0.0	19.2878801282379	4.75023271802799	7.485081935695298	5.829574239969995	-4.2924707722465225	14.27103195740111	10.229065740817614	-0.7432577230983242	14.27103195740111	5.920652976858035	9.678674237136391	3.8490999971663884	10.25983992176589	-0.2812787366113038	3	correct	1.0
132.61977760028094	8.747591599822272	nogo_reward	1.0	132.66405280027539	134.38974050013348	136.90809909999348	1.7256876998580992	133.66849819989875	135.89546809997387	139.9492428000085	0.721242300234735	1.01263100001961	1.4624016000891515	138.94207279989496	0.7703799000009894	137.91980220004916	2	1	16	4	nogo_reward	1	0	1	0	0	1	0	0.0	1.0	1	1.0	0.7703799000009894	1416.2786109000444	1548.9426637003198	1549.9471090999432	1550.668351400178	1552.1740790000183	1553.186710000038	1554.1984131000936	1555.2206836999394	1556.227853700053	1557.690255300142	2020-10-07 10:18:44.098021	16.1785223728306	0.0	21.5154447835064	21.5154447835064	5.33692241067581	21.5154447835064	-16.1785223728306	21.5154447835064	0.0	21.5154447835064	5.33692241067581	5.2575172804268	7.470449202590695	-4.2924707722465225	16.49859661266961	12.456630396086112	-0.15656803045050438	16.49859661266961	3.6930883215895367	11.90623889240489	4.435789689814208	12.487404577034388	-0.2812787366113038	3	correct	1.0
141.3915029000491	8.449418399948627	nogo_reward	1.0	141.43577810004354	142.97616550000407	145.49423430021852	1.5403873999605366	142.44022940006107	144.48166160006076	148.53662620019145	0.535936099943001	1.0125727001577616	1.3485702998007127	147.52898920001462	0.5301350997760892	146.50497970031574	2	1	17	4	nogo_reward	1	0	1	0	0	1	1	1.0	1.0	1	1.0	0.5301350997760892	1416.2786109000444	1557.714389000088	1558.7188403001055	1559.2547764000485	1560.7602725001052	1561.772845200263	1562.7835906003602	1563.807600100059	1564.815237100236	1566.1638074000366	2020-10-07 10:18:44.098021	17.2735211447321	0.0	22.9771521995398	22.9771521995398	5.70363105480773	22.9771521995398	-17.2735211447321	22.9771521995398	0.0	22.9771521995398	5.70363105480773	3.7958098643934015	8.565447974492196	-4.2924707722465225	17.960304028703007	13.91833781211951	0.210140613681415	17.960304028703007	2.231380905556138	13.367946308438288	4.802498333946128	13.949111993067786	-0.2812787366113038	3	correct	1.0
149.88453279994428	8.900857000146061	nogo_punish	1.0	149.92880799993873	152.36785120004788	154.8853690000251	2.439043200109154	150.9334510001354	153.8723559002392	157.92753820028156	1.4344001999124885	1.0130130997858942	0.9021267998032272	156.92067279992625	0.5324424002319574	155.8977204998955	2	1	18	2	nogo_punish	0	0	-1	0	0	1	0	0.0	1.0	-1	1.0	0.5324424002319574	1416.2786109000444	1566.2074188999832	1567.2120619001798	1568.6464621000923	1570.1509668002836	1571.1639799000695	1572.17633139994	1573.1992836999707	1574.206149100326	1575.1082759001292	2020-10-07 10:18:44.098021	0.915018364189558	0.0	0.0	0.0	-0.915018364189558	0.0	-0.915018364189558	0.0	0.0	0.0	-0.915018364189558	-2.85080643829373	-7.793054806050346	-4.2924707722465225	-5.016848170836791	-9.058814387420288	-6.408508805315872	-5.016848170836791	-4.415235397130993	-9.60920589110151	-1.81615108505116	-9.028040206472012	-0.2812787366113038	3	correct	1.0
158.83311530016363	8.55033819982782	go_reward	0.1850749999284744	158.87739050015807	160.8781584999524	163.42263879999518	2.000767999794334	159.88183580012992	162.40918840002269	166.46802450018004	0.9963226998224854	1.0134503999724984	0.9597041998058558	165.46056260028854	0.4526141998358071	164.43369660014287	2	1	19	3	go_reward	1	1	0	1	1	1	0	0.0	1.0	1	0.1850749999284744	0.4526141998358071	1416.2786109000444	1575.1560014002025	1576.1604467001744	1577.1567693999968	1578.6877993000671	1579.7012497000396	1580.7123075001873	1581.739173500333	1582.7466354002245	1583.7063396000303	2020-10-07 10:18:44.098021	16.8930864677035	13.9752020200641	0.0	13.9752020200641	16.8930864677035	0.0	-16.8930864677035	13.9752020200641	0.0	16.8930864677035	0.0	12.7977600438691	8.185013297463597	9.682731247817577	-5.016848170836791	4.916387632643811	11.399596026577186	-5.016848170836791	11.233331085031837	7.283880576601991	-0.9011327208616021	4.947161813592087	-0.2812787366113038	3	correct	1.0
167.4073041002266	8.384102799929678	nogo_reward	1.0	167.45157930022106	169.00720199989155	171.52478410024196	1.5556226996704936	168.45572189986706	170.51227350020804	174.56688089994714	0.5514801000244915	1.0125106000339201	1.2688012002035975	173.55958779994398	0.3860581000335514	172.53717420017347	2	1	20	4	nogo_reward	1	0	1	0	0	1	0	0.0	1.0	1	1.0	0.3860581000335514	1416.2786109000444	1583.7301902002655	1584.7343327999115	1585.285812899936	1586.7908844002525	1587.8033950002864	1588.815785100218	1589.8381986999884	1590.8454917999916	1592.1142930001952	2020-10-07 10:18:44.098021	18.0260309027989	0.0	23.9656928749477	23.9656928749477	5.93966197214872	23.9656928749477	-18.0260309027989	23.9656928749477	0.0	23.9656928749477	5.93966197214872	2.807269188985501	9.317957732558996	-4.2924707722465225	18.948844704110908	14.906878487527411	0.44617153102240525	18.948844704110908	1.2428402301482377	14.356486983846189	5.038529251287118	14.937652668475687	-0.2812787366113038	3	correct	1.0
175.83616380020976	7.877549599856138	nogo_punish	1.0	175.8804390002042	177.23617700021714	179.75239810021594	1.3557380000129342	176.88556180009618	178.74175480008125	182.7950940001756	0.3506152001209557	1.0106433001346886	0.9628945998847485	181.7881668000482	0.5098144002258778	180.7633716003038	2	1	21	2	nogo_punish	1	-1	0	0	0	1	0	0.0	1.0	0	1.0	0.5098144002258778	1416.2786109000444	1592.1590499002486	1593.1641727001406	1593.5147879002616	1595.0203657001257	1596.0310090002604	1597.0419825003482	1598.0667777000926	1599.07370490022	1600.0365995001048	2020-10-07 10:18:44.098021	0.195301268309081	0.0	-1.04826290095716	-1.04826290095716	-1.24356416926624	-1.04826290095716	-0.195301268309081	-1.04826290095716	0.0	-1.04826290095716	-1.24356416926624	1.04826290095716	-8.512771901930824	-4.2924707722465225	-6.065111071793951	-10.107077288377448	-6.737054610392555	-6.065111071793951	-0.5161660578801031	-10.65746879205867	-2.1446968901278423	-10.076303107429172	-0.2812787366113038	3	correct	1.0
183.737165800296	7.8750049998050144	nogo_reward	1.0	183.78144100029044	185.28492980031297	187.8024193001911	1.5034888000225237	184.7864176002331	186.79003609996266	190.85163690010086	0.4985122000798583	1.0123832002284416	0.8048090999945998	189.84606810007244	0.6375910001806915	188.81457330007106	2	1	22	4	nogo_reward	1	0	1	0	0	1	1	1.0	1.0	1	1.0	0.6375910001806915	1416.2786109000444	1600.0600519003349	1601.0650285002775	1601.5635407003574	1603.068647000007	1604.0810302002355	1605.0931842001155	1606.1246790001169	1607.1302478001453	1607.93505690014	2020-10-07 10:18:44.098021	18.5565220279024	0.0	24.6520603717072	24.6520603717072	6.09553834380479	24.6520603717072	-18.5565220279024	24.6520603717072	0.0	24.6520603717072	6.09553834380479	2.120901692225999	9.848448857662495	-4.2924707722465225	19.63521220087041	15.593245984286913	0.6020479026784757	19.63521220087041	0.556472733388736	15.04285448060569	5.194405622943188	15.624020165235189	-0.2812787366113038	3	correct	1.0
191.65584790008143	8.343878500163783	nogo_punish	1.0	191.70012310007587	193.26527950027958	195.783388200216	1.5651564002037048	192.70498709985986	194.77093640016392	198.83286399999633	0.5602924004197121	1.0124518000520766	1.211137600243319	197.8258064999245	0.4467298998497426	196.79438049998134	2	1	23	2	nogo_punish	0	0	-1	0	0	1	1	1.0	1.0	-1	1.0	0.4467298998497426	1416.2786109000444	1607.9787340001203	1608.9835979999043	1609.543890400324	1611.0495473002084	1612.0619991002604	1613.0729914000258	1614.104417399969	1615.1114749000408	1616.322612500284	2020-10-07 10:18:44.098021	0.482931355578882	0.0	-0.617250030085994	-0.617250030085994	-1.10018138566488	-0.617250030085994	-0.482931355578882	-0.617250030085994	0.0	-0.617250030085994	-1.10018138566488	-2.233556408207736	-8.225141814661022	-4.2924707722465225	-5.634098200922786	-9.676064417506282	-6.593671826791194	-5.634098200922786	-3.7979853670449994	-10.226455921187505	-2.001314106526482	-9.645290236558006	-0.2812787366113038	3	correct	1.0
200.022718099877	8.449296800419916	nogo_reward	1.0	200.06699329987146	201.56333820009604	204.08147819992155	1.4963449002245852	201.07193290023133	203.06886530015618	207.12517510028556	0.4914052998647094	1.0126128997653723	1.3911150000058115	206.11858410015725	0.5440238998271525	205.09506769990548	2	1	24	4	nogo_reward	1	0	1	0	0	1	1	0.0	0.0	1	1.0	0.5440238998271525	1416.2786109000444	1616.345604199916	1617.3505438002758	1617.8419491001405	1619.3474762002006	1620.360089099966	1621.37367859995	1622.3971950002017	1623.40378600033	1624.7949010003358	2020-10-07 10:18:44.098021	18.9389402102675	0.0	25.1397938033282	25.1397938033282	6.20085359306076	25.1397938033282	-18.9389402102675	25.1397938033282	0.0	25.1397938033282	6.20085359306076	1.6331682606050002	10.230867040027595	-4.2924707722465225	20.122945632491408	16.080979415907912	0.7073631519344454	20.122945632491408	0.06873930176773713	15.53058791222669	5.299720872199158	16.11175359685619	-0.2812787366113038	3	wrong	1.0
208.49684090027586	8.889120699837576	nogo_reward	1.0	208.5411161002703	211.111773500219	213.6307831001468	2.5706573999486864	209.54479849990457	212.61710119992495	216.67319840006508	1.5669750003144145	1.0136819002218544	0.7570384000428021	215.66620150022186	0.5173822003416717	214.64185049990192	2	1	25	4	nogo_reward	1	0	1	0	0	1	0	0.0	1.0	1	1.0	0.5173822003416717	1416.2786109000444	1624.8197270003147	1625.823409399949	1627.3903844002634	1628.8957120999694	1629.9093940001912	1630.9204613999464	1631.9448124002663	1632.9518093001095	1633.7088477001523	2020-10-07 10:18:44.098021	19.220108782469	0.0	25.493584436127	25.493584436127	6.27347565365801	25.493584436127	-19.220108782469	25.493584436127	0.0	25.493584436127	6.27347565365801	1.2793776278061983	10.512035612229097	-4.2924707722465225	20.47673626529021	16.434770048706714	0.7799852125316953	20.47673626529021	-0.2850513310310647	15.884378545025491	5.372342932796408	16.465544229654988	-0.2812787366113038	3	correct	1.0
217.41197300003842	8.374310600105673	go_punish	1.0	217.45624820003286	219.43395540025085	221.94852979993448	1.977707200217992	218.4601699002087	220.93898499989882	224.99237600015476	0.9737855000421405	1.0095448000356555	0.8381827999837697	223.98480569990352	0.5760699999518692	222.96096140006557	2	1	26	1	go_punish	0	-1	0	1	0	0	0	0.0	1.0	0	1.0	0.5760699999518692	1416.2786109000444	1633.7348591000773	1634.7387808002532	1635.7125663002953	1637.2175958999433	1638.227140699979	1639.23957230011	1640.263416599948	1641.2709869001992	1642.109169700183	2020-10-07 10:18:44.098021	2.11221072207924	-1.66551293104316	-1.04826290095716	-1.90743618576922	-3.1604736230364	-1.04826290095716	-2.11221072207924	-1.04826290095716	-1.66551293104316	-1.04826290095716	-3.1604736230364	1.04826290095716	-6.5958624481606645	-5.957983703289683	-6.065111071793951	-10.966250573189507	-8.653964064162714	-6.065111071793951	-0.5161660578801031	-10.65746879205867	-4.061606343898002	-10.076303107429172	-1.9467916676544639	3	correct	1.0
225.8118354002945	9.087729400023818	go_punish	1.0	225.85611060028896	228.33588000014447	230.85445290012285	2.4797693998555133	226.86091400031	229.84114050027006	233.89728809986264	1.4749659998344669	1.0133123998527935	1.0465519004501402	232.89143000030867	0.4320394000969827	231.86615459993482	2	1	27	1	go_punish	1	0	-1	1	0	0	0	0.0	1.0	-1	1.0	0.4320394000969827	1416.2786109000444	1642.1347215003334	1643.1395249003544	1644.614490900189	1646.1197514003145	1647.1330638001673	1648.1447654999793	1649.1700409003531	1650.175898999907	1651.2224509003572	2020-10-07 10:18:44.098021	2.29882177021664	-1.66551293104316	-0.617250030085994	-1.15587683688947	-2.91607180030263	-0.617250030085994	-2.29882177021664	-0.617250030085994	-1.66551293104316	-0.617250030085994	-2.91607180030263	-2.233556408207736	-6.4092514000232645	-5.957983703289683	-5.634098200922786	-10.214691224309759	-8.409562241428944	-5.634098200922786	-3.7979853670449994	-10.226455921187505	-3.817204521164232	-9.645290236558006	-1.9467916676544639	3	correct	1.0
234.94823080021888	8.502273799851537	go_reward	0.6365741998888552	234.99250600021333	236.84063740028068	239.45279829995707	1.8481314000673592	235.99664250016212	238.43875240022317	242.49475480010733	0.8439949001185596	1.014045899733901	1.0000249999575317	241.48849230026826	0.5024874000810087	240.46567420009524	2	1	28	3	go_reward	1	1	0	1	1	1	0	0.0	1.0	1	0.6365741998888552	0.5024874000810087	1416.2786109000444	1651.2711169002578	1652.2752534002066	1653.1192483003251	1654.7173633002676	1655.7314092000015	1656.7442851001397	1657.7671032003127	1658.7733657001518	1659.7733907001093	2020-10-07 10:18:44.098021	23.2933549323951	18.8702799839019	0.0	18.8702799839019	23.2933549323951	0.0	-23.2933549323951	18.8702799839019	0.0	23.2933549323951	0.0	7.902682080031301	14.585281762155196	14.577809211655376	-5.016848170836791	9.81146559648161	17.799864491268785	-5.016848170836791	6.338253121194038	13.68414904129359	-0.9011327208616021	9.842239777429887	-0.2812787366113038	3	correct	1.0
243.47381759993732	9.048920200206112	nogo_reward	1.0	243.51809279993176	245.5650964002125	248.0833195000887	2.047003600280732	244.52316430024803	247.0709107001312	251.12715920014307	1.0419320999644697	1.012408799957484	1.4398537999948076	250.12020020000637	0.5728382002562284	249.09527780022472	2	1	29	4	nogo_reward	1	0	1	0	0	1	0	0.0	1.0	1	1.0	0.5728382002562284	1416.2786109000444	1659.7967036999762	1660.8017752002925	1661.843707300257	1663.3495216001756	1664.3619304001331	1665.3738887002692	1666.3988111000508	1667.4057701001875	1668.8456239001823	2020-10-07 10:18:44.098021	19.4305012891344	0.0	25.7549870986411	25.7549870986411	6.32448580950672	25.7549870986411	-19.4305012891344	25.7549870986411	0.0	25.7549870986411	6.32448580950672	1.017974965292101	10.722428118894497	-4.2924707722465225	20.738138927804307	16.69617271122081	0.830995368380405	20.738138927804307	-0.546453993545162	16.14578120753959	5.423353088645118	16.72694689216909	-0.2812787366113038	3	correct	1.0
252.54664150020108	8.175595900043845	nogo_reward	1.0	252.59091670019552	254.06074170023203	256.5790651002899	1.4698250000365078	253.59533909987658	255.56611469993345	259.60820550005883	0.46540260035544634	1.0129504003564307	1.1583071001805365	258.60155380005017	1.0	257.5910331001505	2	1	30	4	nogo_reward	1	0	1	0	0	1	0	n/a	0.0	1	1.0	1.0	1416.2786109000444	1668.86952760024	1669.873949999921	1670.3393526002765	1671.844725599978	1672.8576760003343	1673.869644000195	1674.8801647000946	1675.8868164001033	1677.0451235002838	2020-10-07 10:18:44.098021	19.5904391711929	0.0	25.9513617170548	25.9513617170548	6.36092254586188	25.9513617170548	-19.5904391711929	25.9513617170548	0.0	25.9513617170548	6.36092254586188	0.8216003468783981	10.882366000952997	-4.2924707722465225	20.93451354621801	16.892547329634514	0.8674321047355651	20.93451354621801	-0.742828611958865	16.34215582595329	5.459789825000278	16.923321510582788	-0.2812787366113038	3	missed	0.0
260.74987439997494	9.220223400276154	go_punish	0.1859002001583576	260.7941495999694	263.0743231000379	265.6213652002625	2.2801735000684857	261.7989473002963	264.6079031000845	268.6647601001896	1.275375799741596	1.0134621001780033	1.349612900055945	267.6579463998787	0.5194617998786271	266.6336667998694	2	1	31	1	go_punish	0	-1	0	1	1	1	0	0.0	1.0	-1	0.1859002001583576	0.5194617998786271	1416.2786109000444	1677.0727605000138	1678.0775582003407	1679.3529340000823	1680.886514000129	1681.899976100307	1682.9122776999138	1683.9365572999232	1684.943371000234	1686.29298390029	2020-10-07 10:18:44.098021	-1.68322570674576	-1.66551293104316	-1.42770045265225	-1.77730257966331	-3.11092615939802	-1.42770045265225	1.68322570674576	-1.66551293104316	-1.42770045265225	-3.11092615939802	-1.42770045265225	-1.1852935072505701	-10.391298876985665	-5.957983703289683	-6.444548623489041	-10.836116967083598	-8.604416600524335	-6.444548623489041	-2.7497224660878334	-12.72013205049953	-2.328833173513852	-10.693553137515172	-1.708979189263554	3	correct	1.0
269.9944400000388	8.225743300281238	nogo_reward	1.0	270.03871520003327	271.68847230030246	274.20670940028526	1.6497571002691984	271.042755600065	273.19401540001854	277.24706149986014	0.6457167002374717	1.0126940002667197	1.0173970004543662	276.24012380000204	0.3910659002140164	275.2180952001363	2	1	32	4	nogo_reward	1	0	1	0	0	1	1	0.0	0.0	1	1.0	0.3910659002140164	1416.2786109000444	1686.3173261000777	1687.3213665001094	1687.967083200347	1689.472626300063	1690.4853203003297	1691.4967061001807	1692.5187347000465	1693.5256723999046	1694.543069400359	2020-10-07 10:18:44.098021	19.7137716037418	0.0	26.1011250783098	26.1011250783098	6.38735347456806	26.1011250783098	-19.7137716037418	26.1011250783098	0.0	26.1011250783098	6.38735347456806	0.6718369856234006	11.005698433501896	-4.2924707722465225	21.084276907473008	17.04231069088951	0.893863033441745	21.084276907473008	-0.8925919732138625	16.49191918720829	5.486220753706458	17.073084871837786	-0.2812787366113038	3	wrong	1.0
278.2668002001012	9.479866799898218	nogo_punish	0.3098966996185481	278.31107540009566	280.73422400001436	283.29399400018156	2.4231485999187043	279.31524060014635	282.2721947003156	286.322405599989	1.4189833998680115	1.021799299865961	1.4685366000048816	285.3153083003126	1.0	284.3059669001959	2	1	33	2	nogo_punish	1	-1	0	0	1	0	0	n/a	0.0	0	0.3098966996185481	1.0	1416.2786109000444	1694.58968630014	1695.5938515001908	1697.0128349000588	1698.55080560036	1699.572604900226	1700.5845778002404	1701.593919200357	1702.6010165000334	1704.0695531000383	2020-10-07 10:18:44.098021	0.0753380523551299	0.0	-1.42770045265225	-1.42770045265225	-1.35236240029712	-1.42770045265225	-0.0753380523551299	0.0	-1.42770045265225	-1.35236240029712	-1.42770045265225	-2.85080643829373	-8.632735117884774	-4.2924707722465225	-6.444548623489041	-10.486514840072537	-6.845852841423435	-6.444548623489041	-4.415235397130993	-10.96156829139863	-2.328833173513852	-9.028040206472012	-1.708979189263554	3	missed	0.0
287.78992359992117	8.938930300064385	go_reward	0.2249308996833861	287.8341987999156	290.26416209992044	292.8373231999576	2.429963300004829	288.8394125001505	291.82334179989994	295.88099840003997	1.4247495997699389	1.0139814000576735	0.8921306999400258	294.8741323999129	0.4923225003294647	293.8498638998715	2	1	34	3	go_reward	1	1	0	1	1	1	0	0.0	1.0	1	0.2249308996833861	0.4923225003294647	1416.2786109000444	1704.11280969996	1705.118023400195	1706.5427729999649	1708.1019526999444	1709.115934100002	1710.128474799916	1711.1527432999574	1712.1596093000844	1713.0517400000244	2020-10-07 10:18:44.098021	26.8540283484433	21.6241849177792	0.0	21.6241849177792	26.8540283484433	0.0	-26.8540283484433	21.6241849177792	0.0	26.8540283484433	0.0	5.148777146154	18.145955178203394	17.33171414553268	-5.016848170836791	12.565370530358912	21.360537907316985	-5.016848170836791	3.5843481873167367	17.24482245734179	-0.9011327208616021	12.596144711307188	-0.2812787366113038	3	correct	1.0
296.7531858999282	9.34897330030799	nogo_reward	1.0	296.79746109992266	299.12802849989407	301.64462310029194	2.3305673999714145	297.8025708999485	300.63277320005	304.6902373000048	1.3254575999455938	1.0118499002419412	1.456197100225836	303.68407119996846	0.4880263996310532	302.66181150032185	2	1	35	4	nogo_reward	1	0	1	0	0	1	0	0.0	1.0	1	1.0	0.4880263996310532	1416.2786109000444	1713.076071999967	1714.081181799993	1715.4066393999385	1716.9113841000944	1717.9232340003364	1718.9404224003663	1719.962682100013	1720.9688482000493	1722.425045300275	2020-10-07 10:18:44.098021	19.8101227838626	0.0	26.2169236479672	26.2169236479672	6.40680086410468	26.2169236479672	-19.8101227838626	26.2169236479672	0.0	26.2169236479672	6.40680086410468	0.5560384159660003	11.102049613622695	-4.2924707722465225	21.200075477130408	17.15810926054691	0.9133104229783653	21.200075477130408	-1.0083905428712627	16.60771775686569	5.505668143243078	17.188883441495186	-0.2812787366113038	3	correct	1.0
306.1503735999577	8.184834700077772	nogo_punish	1.0	306.1946487999521	307.62936459993966	310.14360459987074	1.4347157999875435	307.1994472001679	309.1337191001512	313.1717169000767	0.42991739977173893	1.0098854997195303	1.2077665999531746	312.16452710004523	1.0	311.15589180029906	2	1	36	2	nogo_punish	1	-1	0	0	0	1	0	n/a	0.0	0	1.0	1.0	1416.2786109000444	1722.4732596999966	1723.4780581002124	1723.907975499984	1725.4123300001957	1726.4222154999152	1727.4345027003435	1728.4431380000897	1729.4503278001212	1730.6580944000743	2020-10-07 10:18:44.098021	-0.261285565735689	0.0	-1.42770045265225	-0.859173284812053	-1.16641488691656	-1.42770045265225	0.261285565735689	-1.42770045265225	0.0	-1.42770045265225	-1.16641488691656	1.42770045265225	-8.969358735975593	-4.2924707722465225	-6.444548623489041	-9.917987672232341	-6.659905328042875	-6.444548623489041	-0.13672850618501298	-11.03690634375376	-2.0675476077781623	-10.455740659124261	-0.2812787366113038	3	missed	0.0
314.37969970004633	8.170586000196863	go_reward	0.5431028003804386	314.4239749000408	315.8180177998727	318.36243430012837	1.394042899831902	315.4292113999836	317.34935630019754	321.40555190015607	0.38880639988906296	1.0130779999308288	1.189009000081569	320.39852839987725	0.5613639997318387	319.3747139000334	2	1	37	3	go_reward	1	1	0	1	1	1	0	0.0	1.0	1	0.5431028003804386	0.5613639997318387	1416.2786109000444	1730.7025858000852	1731.707822300028	1732.0966286999171	1733.627967200242	1734.6410452001728	1735.6533248000778	1736.6771392999217	1737.6841628002005	1738.873171800282	2020-10-07 10:18:44.098021	28.9528057418687	23.2660197808586	0.0	23.2660197808586	28.9528057418687	0.0	-28.9528057418687	23.2660197808586	0.0	28.9528057418687	0.0	3.5069422830746007	20.244732571628795	18.973549008612075	-5.016848170836791	14.207205393438311	23.459315300742386	-5.016848170836791	1.9425133242373376	19.34359985076719	-0.9011327208616021	14.237979574386587	-0.2812787366113038	3	correct	1.0
322.5759391002357	9.101938599720597	go_punish	0.7617084998637438	322.62021430023015	324.7872665999457	327.32751660002396	2.1670522997155786	323.6249323002994	326.31832389999204	330.3773501003159	1.162334299646318	1.0091927000319174	1.3448027996348628	329.3697882001288	0.4004552001133561	328.33868189994246	2	1	38	1	go_punish	1	0	-1	1	1	1	0	0.0	1.0	0	0.7617084998637438	0.4004552001133561	1416.2786109000444	1738.8988252002746	1739.9035432003438	1741.0658774999902	1742.5969348000365	1743.6061275000684	1744.617292799987	1745.6483991001733	1746.6559610003603	1748.0007637999952	2020-10-07 10:18:44.098021	-2.17150720471147	-2.04495048273825	-1.42770045265225	-2.14125686119709	-3.59920765736372	-1.42770045265225	2.17150720471147	-2.04495048273825	-1.42770045265225	-3.59920765736372	-1.42770045265225	2.04495048273825	-10.879580374951374	-6.337421254984772	-6.444548623489041	-11.200071248617377	-9.092698098490034	-6.444548623489041	0.4805215239009868	-13.20841354846523	-2.328833173513852	-11.072990689210261	-1.708979189263554	3	correct	1.0
331.70359910000116	8.079048300161958	go_punish	0.6665417002514005	331.7478742999956	333.10657489998266	335.649257699959	1.3587005999870598	332.7520989999175	334.6401690002531	338.69816720020026	0.35447590006515384	1.0090886997058988	1.1287553999572992	337.68498530006036	0.7275867997668684	336.66156119992957	2	1	39	1	go_punish	1	0	-1	1	1	1	0	0.0	1.0	0	0.6665417002514005	0.7275867997668684	1416.2786109000444	1748.02648520004	1749.030709899962	1749.385185800027	1750.9187799002975	1751.9278686000034	1752.940172099974	1753.9635962001048	1754.9767781002447	1756.105533500202	2020-10-07 10:18:44.098021	-1.10024686430311	-1.23861083650714	-1.42770045265225	-1.31641432587453	-2.52794731695536	-1.42770045265225	1.10024686430311	-1.23861083650714	-1.42770045265225	-2.52794731695536	-1.42770045265225	1.23861083650714	-9.808320034543014	-5.531081608753663	-6.444548623489041	-10.375228713294817	-8.021437758081674	-6.444548623489041	-0.3258181223301231	-12.13715320805687	-2.328833173513852	-10.266651042979152	-1.708979189263554	3	correct	1.0
339.82857330003753	8.761676500085741	nogo_punish	1.0	339.872848500032	341.83848100015894	344.3519978001714	1.965632500126958	340.8769590999	343.34318670025095	347.39613500004634	0.9615219002589583	1.0088110999204218	1.2383900000713766	346.38858540030196	0.4756331997923553	345.36338640004396	2	1	40	2	nogo_punish	1	-1	0	0	0	1	0	1.0	0.0	0	1.0	0.4756331997923553	1416.2786109000444	1756.1514594000764	1757.1555699999444	1758.1170919002034	1759.6217976002954	1760.6306087002158	1761.6419973000884	1762.6671963003464	1763.6747459000908	1764.9131359001622	2020-10-07 10:18:44.098021	0.206222562972102	0.0	-0.859173284812053	-0.538626806803478	-1.06539584778415	-0.859173284812053	-0.206222562972102	-0.859173284812053	0.0	-0.859173284812053	-1.06539584778415	0.859173284812053	-8.501850607267803	-4.2924707722465225	-5.876021455648845	-9.597441194223766	-6.558886288910465	-5.876021455648845	-0.70525567402521	-10.468379175913563	-1.966528568645752	-9.887213491284065	-0.2812787366113038	3	wrong	1.0
348.63451670017093	8.22409259993583	go_reward	0.2279198998585343	348.6787919001654	350.5402836999856	353.0840536998585	1.8614917998202145	349.6841517002322	352.07105050003156	356.13072449993365	0.8561319997534156	1.013003199826926	0.7721600001675597	355.1246075001545	0.5413248999975622	354.0968055999838	2	1	41	3	go_reward	1	1	0	1	1	1	0	0.0	1.0	1	0.2279198998585343	0.5413248999975622	1416.2786109000444	1764.9574028002098	1765.9627626002766	1766.81889460003	1768.349661400076	1769.362664599903	1770.3754165000282	1771.403218400199	1772.409335399978	1773.1814954001456	2020-10-07 10:18:44.098021	30.2510568479825	24.2932796826077	0.0	24.2932796826077	30.2510568479825	0.0	-30.2510568479825	24.2932796826077	0.0	30.2510568479825	0.0	2.4796823813254996	21.542983677742598	20.00080891036118	-5.016848170836791	15.234465295187412	24.757566406856185	-5.016848170836791	0.9152534224882365	20.64185095688099	-0.9011327208616021	15.265239476135688	-0.2812787366113038	3	correct	1.0
356.9009886002168	8.13595120003447	nogo_punish	1.0	356.94526380021125	358.4148369003087	360.9325212999247	1.4695731000974774	357.9501300002448	359.91950730001554	363.9785621999763	0.46470690006390214	1.0130139999091625	1.102652800269425	362.97196070011705	0.4490541997365653	361.9431962999515	2	1	42	2	nogo_punish	0	0	-1	0	0	1	1	0.0	0.0	-1	1.0	0.4490541997365653	1416.2786109000444	1773.2238747002557	1774.2287409002893	1774.6934478003532	1776.19811820006	1777.2111321999691	1778.221807199996	1779.2505716001615	1780.2571731000207	1781.3598259002902	2020-10-07 10:18:44.098021	0.469442385443818	0.0	-0.538626806803478	-0.349602127011057	-1.0080691922473	-0.538626806803478	-0.469442385443818	-0.538626806803478	0.0	-0.538626806803478	-1.0080691922473	-2.312179631490252	-8.238630784796086	-4.2924707722465225	-5.555474977640269	-9.408416514431345	-6.501559633373614	-5.555474977640269	-3.876608590327515	-10.147832697904988	-1.9092019131089022	-9.56666701327549	-0.2812787366113038	3	wrong	1.0
365.0642313002609	9.154728499706835	go_punish	1.0	365.1085065002553	367.46077070012666	369.97545809997246	2.3522641998713425	366.11257479991764	368.9663366000168	373.02122400002554	1.3481959002090207	1.0091214999556541	1.2420109999366105	372.0148763000034	0.2647032001987099	370.98732460010797	2	1	43	1	go_punish	0	-1	0	1	0	0	0	0.0	1.0	0	1.0	0.2647032001987099	1416.2786109000444	1781.3871174002998	1782.391185699962	1783.739381600171	1785.2449475000612	1786.254069000017	1787.2659355001524	1788.2934872000478	1789.29983490007	1790.5418459000066	2020-10-07 10:18:44.098021	0.495667037914531	-0.780550061529536	-1.42770045265225	-0.841841400626269	-1.92336749056678	-1.42770045265225	-0.495667037914531	-1.42770045265225	-0.780550061529536	-1.42770045265225	-1.92336749056678	1.42770045265225	-8.212406132325373	-5.0730208337760585	-6.444548623489041	-9.900655788046556	-7.4168579316930945	-6.444548623489041	-0.13672850618501298	-11.03690634375376	-2.824500211428382	-10.455740659124261	-1.0618287981408399	3	correct	1.0
374.26447300007567	9.226933000143617	go_reward	0.2831593002192676	374.3087482000701	377.01876820018515	379.57489240029827	2.710020000115037	375.313181000296	378.56203690031566	382.62323600007244	1.7055871998891234	1.0128554999826065	0.9124452001412919	381.61592440027766	0.8063962999731302	380.58660589996725	2	1	44	3	go_reward	1	1	0	1	1	1	0	0.0	1.0	1	0.2831593002192676	0.8063962999731302	1416.2786109000444	1790.5873591001146	1791.5917919003405	1793.2973791002296	1794.84064780036	1795.8535033003427	1796.8652168000117	1797.894535300322	1798.9018469001169	1799.8142921002582	2020-10-07 10:18:44.098021	31.0877126701678	24.962821041647	0.0	24.962821041647	31.0877126701678	0.0	-31.0877126701678	24.962821041647	0.0	31.0877126701678	0.0	1.8101410222861993	22.379639499927897	20.67035026940048	-5.016848170836791	15.904006654226713	25.594222229041485	-5.016848170836791	0.24571206344893626	21.47850677906629	-0.9011327208616021	15.934780835174989	-0.2812787366113038	3	correct	1.0
383.53550900006667	8.4100565998815	go_reward	0.4916352001018822	383.5797842000611	384.90165140014165	387.45114400004945	1.3218672000805327	384.58471210021526	386.432037900202	390.500212700106	0.31693929992638914	1.0191060998474768	1.4896280998366365	389.4940605000595	0.5691159996204078	388.4639963000084	2	1	45	3	go_reward	1	1	0	1	1	1	0	1.0	0.0	1	0.4916352001018822	0.5691159996204078	1416.2786109000444	1799.8583951001056	1800.8633230002597	1801.180262300186	1802.7106488002464	1803.729754900094	1804.7426072000528	1805.772671400104	1806.7788236001504	1808.268451699987	2020-10-07 10:18:44.098021	31.6462346844623	25.4147575815503	0.0	25.4147575815503	31.6462346844623	0.0	-31.6462346844623	25.4147575815503	0.0	31.6462346844623	0.0	1.3582044823828987	22.938161514222394	21.12228680930378	-5.016848170836791	16.355943194130013	26.152744243335984	-5.016848170836791	-0.20622447645436437	22.03702879336079	-0.9011327208616021	16.38671737507829	-0.2812787366113038	3	wrong	1.0
391.98790830001235	8.366640500258654	nogo_punish	1.0	392.0321835000068	393.45243680011527	395.96710789995245	1.4202533001084703	393.0371024999763	394.9573639999144	399.01035630004435	0.4153343001389658	1.0097439000380746	1.3884677002210992	398.0041891001165	0.4001756999641657	396.9788162000475	2	1	46	2	nogo_punish	1	-1	0	0	0	1	0	0.0	1.0	0	1.0	0.4001756999641657	1416.2786109000444	1808.3107944000512	1809.3157134000207	1809.7310477001597	1811.2359748999588	1812.245718799997	1813.257427100092	1814.282800000161	1815.2889672000888	1816.67743490031	2020-10-07 10:18:44.098021	-0.0950043760697489	0.0	-1.39786502796822	-1.28208357638504	-1.30286065189847	-1.39786502796822	0.0950043760697489	-1.39786502796822	0.0	-1.39786502796822	-1.30286065189847	1.39786502796822	-8.803077546309654	-4.2924707722465225	-6.4147131988050115	-10.340897963805327	-6.796351093024785	-6.4147131988050115	-0.16656393086904298	-11.00707091906973	-2.2039933727600722	-10.425905234440233	-0.2812787366113038	3	correct	1.0
400.39717470016353	8.912171199917566	nogo_punish	1.0	400.441449900158	402.4838307001628	404.9977001999505	2.042380800004821	401.44590280018747	403.98855030024447	408.0386331998743	1.0379278999753296	1.009149899706017	1.3149879002012312	407.03236760012805	0.3742149001918733	406.00998240010836	2	1	47	2	nogo_punish	1	-1	0	0	0	1	0	0.0	1.0	0	1.0	0.3742149001918733	1416.2786109000444	1816.7200608002024	1817.724513700232	1818.7624416002072	1820.267161200289	1821.276311099995	1822.2885933001528	1823.3109785001725	1824.3172440999188	1825.63223200012	2020-10-07 10:18:44.098021	0.287888291339749	0.0	-0.85107070551387	-0.777787519071053	-1.13895899685362	-0.85107070551387	-0.287888291339749	-0.85107070551387	0.0	-0.85107070551387	-1.13895899685362	0.85107070551387	-8.420184878900155	-4.2924707722465225	-5.867918876350661	-9.83660190649134	-6.632449437979934	-5.867918876350661	-0.7133582533233931	-10.46027659661538	-2.0400917177152222	-9.879110911985881	-0.2812787366113038	3	correct	1.0
409.33566359989345	9.003916100132756	go_punish	0.2596439002081752	409.3799387998879	411.8483803998679	414.3887423998676	2.4684415999799967	410.3843820001928	413.379257200286	417.43093150015966	1.4639983996751198	1.0094851995816043	0.9529233998609925	416.42424650024645	0.4473500000312924	415.39971080003284	2	1	48	1	go_punish	1	0	-1	1	1	1	0	0.0	1.0	0	0.2596439002081752	0.4473500000312924	1416.2786109000444	1825.6585496999323	1826.6629929002372	1828.1269912999123	1829.6578681003305	1830.667353299912	1831.6783217000773	1832.702857400291	1833.709542400204	1834.662465800065	2020-10-07 10:18:44.098021	-0.979653594164839	-0.780550061529536	-0.859173284812053	-0.556651285241348	-1.83882687897689	-0.859173284812053	0.979653594164839	-0.780550061529536	-0.859173284812053	-1.83882687897689	-0.859173284812053	0.780550061529536	-9.687726764404744	-5.0730208337760585	-5.876021455648845	-9.615465672661635	-7.332317320103204	-5.876021455648845	-0.7838788973077271	-11.4480327700784	-1.7603060056736552	-9.808590268001549	-1.1404520214233569	3	correct	1.0
418.38490960001945	9.104133100248873	nogo_punish	1.0	418.4291848000139	421.03983630007156	423.5545331998728	2.6106515000576564	419.4336450002156	422.5454305000603	426.596505000256	1.6061912998559364	1.0091026998125017	0.9368129000067711	425.589758399874	0.4346127002499997	424.56733909994364	2	1	49	2	nogo_punish	1	-1	0	0	0	1	1	1.0	1.0	0	1.0	0.4346127002499997	1416.2786109000444	1834.7077957000583	1835.71225590026	1837.318447200116	1838.8240414001048	1839.8331440999173	1840.845949999988	1841.8683692999184	1842.8751159003004	1843.8119288003072	2020-10-07 10:18:44.098021	0.509791560299361	0.0	-0.539975040680148	-0.492239273615211	-1.04976660097951	-0.539975040680148	-0.509791560299361	-0.539975040680148	0.0	-0.539975040680148	-1.04976660097951	0.539975040680148	-8.198281609940544	-4.2924707722465225	-5.55682321151694	-9.5510536610355	-6.543257042105824	-5.55682321151694	-1.024453918157115	-10.149180931781657	-1.9508993218411121	-9.56801524715216	-0.2812787366113038	3	correct	1.0
427.5329611999914	9.507057500071596	nogo_punish	1.0	427.57723639998585	430.11758710024833	432.63284090021625	2.5403507002624792	428.58137209992856	431.6228660000488	435.68061960022874	1.5362150003197712	1.0099749001674354	1.4036742998287082	434.67312150029466	0.4681278998032212	433.6440238002683	2	1	50	2	nogo_punish	1	-1	0	0	0	1	0	0.0	1.0	0	1.0	0.4681278998032212	1416.2786109000444	1843.8558473000303	1844.859982999973	1846.3961980002928	1847.9014769000933	1848.9114518002607	1849.9226347003128	1850.951732400339	1851.9592305002732	1853.362904800102	2020-10-07 10:18:44.098021	0.644255358168947	0.0	-0.354724976646181	-0.322830609813472	-0.998980334815128	-0.354724976646181	-0.644255358168947	-0.354724976646181	0.0	-0.354724976646181	-0.998980334815128	0.354724976646181	-8.063817812070958	-4.2924707722465225	-5.371573147482972	-9.38164499723376	-6.492470775941443	-5.371573147482972	-1.209703982191082	-9.963930867747692	-1.90011305567673	-9.382765183118194	-0.2812787366113038	3	correct	1.0
437.0669634002261	8.784695500042517	go_punish	0.3802629997953772	437.11123860022053	438.89481580024585	441.43712890008464	1.78357720002532	438.11539159994595	440.42675680015236	444.48612490016967	0.7794242002998999	1.0103720999322832	1.4098092000933775	443.47841860028007	0.3628265000879764	442.44927520025567	2	1	51	1	go_punish	1	0	-1	1	1	1	0	0.0	1.0	0	0.3802629997953772	0.3628265000879764	1416.2786109000444	1853.389849500265	1854.3940024999904	1855.1734267002903	1856.7053677001968	1857.715739800129	1858.7278861003	1859.7570295003245	1860.764735800214	1862.1745450003075	2020-10-07 10:18:44.098021	-0.657333435088298	-0.508791382119446	-0.859173284812053	-0.378836460507559	-1.51650671990035	-0.859173284812053	0.657333435088298	-0.508791382119446	-0.859173284812053	-1.51650671990035	-0.859173284812053	0.508791382119446	-9.365406605328202	-4.801262154365968	-5.876021455648845	-9.437650847927847	-7.009997161026664	-5.876021455648845	-1.055637576717817	-11.12571261100186	-1.7603060056736552	-9.536831588591458	-1.1404520214233569	3	correct	1.0
445.8802614999008	9.904222700278751	nogo_reward	1.0	445.92453669989527	448.8861505999232	451.4045214001087	2.961613900027942	446.9292597002352	450.39165510004386	454.4454705999235	1.9568908996880054	1.012866300064843	1.3832888002505115	453.43866520002484	0.6081102997995913	452.4158824002368	2	1	52	4	nogo_reward	1	0	1	0	0	1	0	0.0	1.0	1	1.0	0.6081102997995913	1416.2786109000444	1862.2031475999397	1863.2078706002796	1865.1647614999677	1866.6702660000883	1867.6831323001531	1868.6944933002812	1869.7172761000693	1870.724081499968	1872.1073703002185	2020-10-07 10:18:44.098021	19.8862995479839	0.0	26.3075996910153	26.3075996910153	6.42130014303147	26.3075996910153	-19.8862995479839	26.3075996910153	0.0	26.3075996910153	6.42130014303147	0.46536237291789817	11.178226377743995	-4.2924707722465225	21.29075152017851	17.248785303595014	0.9278097019051552	21.29075152017851	-1.099066585919365	16.69839379991379	5.520167422169868	17.27955948454329	-0.2812787366113038	3	correct	1.0
455.8328664000144	8.403508600313444	go_reward	0.7148436000570655	455.8771416000088	457.2092351000756	459.76817739987746	1.332093500066776	456.8822666001506	458.7549216998739	462.8117356998846	0.32696849992498755	1.0132557000035831	1.468914500437677	461.80483169993386	0.3995333998464048	460.7815374000927	2	1	53	3	go_reward	1	1	0	1	1	1	0	0.0	1.0	1	0.7148436000570655	0.3995333998464048	1416.2786109000444	1872.1557525000533	1873.160877500195	1873.48784600012	1875.0335325999183	1876.046788299922	1877.0601483001371	1878.0834425999783	1879.090346599929	1880.5592611003667	2020-10-07 10:18:44.098021	32.0306758311949	25.7291902163462	0.0	25.7291902163462	32.0306758311949	0.0	-32.0306758311949	25.7291902163462	0.0	32.0306758311949	0.0	1.0437718475869993	23.322602660954992	21.43671944409968	-5.016848170836791	16.670375828925913	26.537185390068583	-5.016848170836791	-0.5206571112502638	22.421469940093388	-0.9011327208616021	16.70115000987419	-0.2812787366113038	3	correct	1.0
464.26076290011406	8.765139199793566	nogo_reward	1.0	464.3050381001085	466.22369410004467	468.74193370016314	1.9186559999361634	465.3093626000921	467.7290415000168	471.78684929991164	0.9143314999525955	1.0128922001463252	1.2833279999904335	470.7797262002716	0.5600168001838028	469.7529827998951	2	1	54	4	nogo_reward	1	0	1	0	0	1	1	1.0	1.0	1	1.0	0.5600168001838028	1416.2786109000444	1880.583649000153	1881.5879735001365	1882.502305000089	1884.0076524000613	1885.0205446002076	1886.0315936999395	1887.058337100316	1888.065460199956	1889.3487881999465	2020-10-07 10:18:44.098021	19.9471934566935	0.0	26.3794379545736	26.3794379545736	6.43224449788008	26.3794379545736	-19.9471934566935	26.3794379545736	0.0	26.3794379545736	6.43224449788008	0.3935241093595998	11.239120286453597	-4.2924707722465225	21.36258978373681	17.320623567153312	0.9387540567537656	21.36258978373681	-1.1709048494776633	16.77023206347209	5.531111777018478	17.35139774810159	-0.2812787366113038	3	correct	1.0
473.0730888000692	8.203959700185578	go_reward	0.2924178000539541	473.1173640000636	474.6806290000675	477.2337716999464	1.5632650000038666	474.12256920011714	476.2203525998632	480.2774633001536	0.5580597999503425	1.0134191000831834	1.043860400095582	479.2708670999855	0.4795772996731102	478.2464536000043	2	1	55	3	go_reward	1	1	0	1	1	1	1	1.0	1.0	1	0.2924178000539541	0.4795772996731102	1416.2786109000444	1889.395974900108	1890.4011801001616	1890.959239900112	1892.4989634999076	1893.5123825999908	1894.5250645000488	1895.54947800003	1896.556074200198	1897.5999346002936	2020-10-07 10:18:44.098021	32.3024871406508	25.9538090582166	0.0	25.9538090582166	32.3024871406508	0.0	-32.3024871406508	25.9538090582166	0.0	32.3024871406508	0.0	0.8191530057166005	23.59441397041089	21.661338285970075	-5.016848170836791	16.89499467079631	26.80899669952448	-5.016848170836791	-0.7452759531206625	22.693281249549287	-0.9011327208616021	16.925768851744586	-0.2812787366113038	3	correct	1.0
481.30396410031267	7.911229599732451	go_punish	0.3199356002733111	481.3482393003071	482.91509560029954	485.46108999988064	1.5668562999924234	482.3524783998723	484.45089860027656	488.5067317001524	0.5626172004272121	1.010191399604082	0.7527371998871786	487.50046200025827	0.4202499003149569	486.47180030029267	2	1	56	1	go_punish	1	0	-1	1	1	1	0	0.0	1.0	0	0.3199356002733111	0.4202499003149569	1416.2786109000444	1897.6268502003516	1898.6310892999168	1899.193706500344	1900.729509500321	1901.739700899925	1902.750411200337	1903.7790729003027	1904.7853426001968	1905.538079800084	2020-10-07 10:18:44.098021	-0.458848673509212	-0.341499547712875	-0.859173284812053	-0.264388033362867	-1.31802195832126	-0.859173284812053	0.458848673509212	-0.341499547712875	-0.859173284812053	-1.31802195832126	-0.859173284812053	0.341499547712875	-9.166921843749117	-4.633970319959397	-5.876021455648845	-9.323202420783154	-6.811512399447574	-5.876021455648845	-1.222929411124388	-10.92722784942277	-1.7603060056736552	-9.369539754184887	-1.1404520214233569	3	correct	1.0
489.26253290008754	8.2125535001976	go_reward	0.5225483998656273	489.306808100082	490.99948720028647	493.5487951999528	1.6926791002044865	490.31137030012883	492.5323089999147	496.59180180029966	0.6881169001576382	1.0164862000381163	0.9275597999799174	495.5850943000987	0.4090533000417053	494.5600614002906	2	1	57	3	go_reward	1	1	0	1	1	1	1	1.0	1.0	1	0.5225483998656273	0.4090533000417053	1416.2786109000444	1905.5854190001264	1906.5899812001733	1907.278098100331	1908.8109198999591	1909.8274060999972	1910.838672300335	1911.8637052001432	1912.870412700344	1913.797972500324	2020-10-07 10:18:44.098021	32.4992696340909	26.1180352920595	0.0	26.1180352920595	32.4992696340909	0.0	-32.4992696340909	26.1180352920595	0.0	32.4992696340909	0.0	0.6549267718737006	23.791196463850994	21.82556451981298	-5.016848170836791	17.05922090463921	27.005779192964585	-5.016848170836791	-0.9095021869635624	22.89006374298939	-0.9011327208616021	17.08999508558749	-0.2812787366113038	3	correct	1.0
497.5213613002561	8.347463799640536	nogo_punish	1.0	497.56563650025055	499.47253239993006	501.9870342002248	1.9068958996795118	498.57129890006036	500.97823100024834	505.0295521002263	0.9012334998697042	1.0088031999764553	0.8835481996648014	504.02276810025796	0.5945079997181892	502.99943119986006	2	1	58	2	nogo_punish	1	-1	0	0	0	1	0	0.0	1.0	0	1.0	0.5945079997181892	1416.2786109000444	1913.844247400295	1914.8499098001048	1915.7511432999745	1917.2568419002928	1918.2656451002692	1919.2780420999045	1920.3013790003024	1921.3081630002707	1922.1917111999355	2020-10-07 10:18:44.098021	0.728841116396359	0.0	-0.240096610195802	-0.2182989715225	-0.968937726592162	-0.240096610195802	-0.728841116396359	-0.240096610195802	0.0	-0.240096610195802	-0.968937726592162	0.240096610195802	-7.979232053843545	-4.2924707722465225	-5.256944781032593	-9.277113358942788	-6.4624281677184765	-5.256944781032593	-1.324332348641461	-9.849302501297313	-1.8700704474537642	-9.268136816667814	-0.2812787366113038	3	correct	1.0
505.91809719987214	7.60079700034089	nogo_punish	1.0	505.9623723998666	507.2385656000115	509.75296019995585	1.2761932001449168	506.96728660026565	508.74352640006714	512.7957803001627	0.2712789997458458	1.0094337998887113	0.7673891000447384	511.78893470019125	0.404676899779588	510.7642919998616	2	1	59	2	nogo_punish	1	-1	0	0	0	1	0	0.0	1.0	0	1.0	0.404676899779588	1416.2786109000444	1922.240983299911	1923.24589750031	1923.517176500056	1925.0221373001116	1926.0315711000003	1927.042902899906	1928.0675456002357	1929.0743912002072	1929.841780300252	2020-10-07 10:18:44.098021	0.783783816150207	0.0	-0.16678858869911	-0.151586311442744	-0.950572404849317	-0.16678858869911	-0.783783816150207	-0.16678858869911	0.0	-0.16678858869911	-0.950572404849317	0.16678858869911	-7.924289354089698	-4.2924707722465225	-5.183636759535902	-9.210400698863031	-6.4440628459756315	-5.183636759535902	-1.397640370138153	-9.77599447980062	-1.8517051257109192	-9.194828795171121	-0.2812787366113038	3	correct	1.0
513.5454134000463	9.832213900052011	go_punish	0.3130489001050591	513.5896886000407	516.3285190998577	518.9005885003135	2.7388304998169133	514.5955298999324	517.888085800223	521.9417368001305	1.732989199925214	1.0125027000904083	1.4801656999622992	520.9344052001836	0.3644999000243842	519.9125308999796	2	1	60	1	go_punish	1	0	-1	1	1	1	0	0.0	1.0	0	0.3130489001050591	0.3644999000243842	1416.2786109000444	1929.8682995000852	1930.8741407999769	1932.607129999902	1934.1666967002675	1935.179199400358	1936.191141800024	1937.213016100228	1938.220347700175	1939.7005134001372	2020-10-07 10:18:44.098021	-0.332742194886191	-0.235168909304546	-0.859173284812053	-0.188648377181398	-1.19191547969824	-0.859173284812053	0.332742194886191	-0.235168909304546	-0.859173284812053	-1.19191547969824	-0.859173284812053	0.235168909304546	-9.040815365126095	-4.527639681551069	-5.876021455648845	-9.247462764601686	-6.685405920824555	-5.876021455648845	-1.3292600495327171	-10.80112137079975	-1.7603060056736552	-9.263209115776558	-1.1404520214233569	3	correct	1.0
