onset	duration	trial_type	response_time	cueOnset	targetOnset	fbOnset	cueRT	firstfixOnset	secondfixOnset	waitOnset	firstfixdur	secondfixdur	waitdur	nback_fbOnset	nback_response_time	nback_targetOnset	block	wm	trial	cue	cond	is_common	outcome_go	outcome_nogo	key_correct	key_pressed	is_correct	key_correct_nback	key_pressed_nback	is_correct_nback	outcome	rt	rt_nback	time_scan	time_onset	time_isi1	time_circle	time_isi2	time_feedback	time_same	time_correct	time_iti	time_done	timestamp_scan	DV	Qgo	Qnogo	SV	Wgo	Wnogo	mDV	Qchosen	Qunchosen	Wchosen	Wunchosen	PE	DVC	QgoC	QnogoC	SVC	WgoC	WnogoC	PEC	WchosenC	WunchosenC	QchosenC	QunchosenC	run	outcome_nback	nback_targetResp
0.0	6.118227200116962	nogo_reward	1.0	0.025247400160878897	1.5958640002645552	4.1153550003655255	1.5706166001036763	1.0307126003317535	3.100816700141877	5.1232246002182364	0.5651513999328017	1.0145383002236485	1.0202500000596046	n/a	1.0	n/a	1	0	61	4	nogo_reward	1	0	1	0	0	1	0	n/a	n/a	1	1.0	1.0	843.3799463999458	843.4051938001066	844.4106590002775	844.9758104002103	846.4807631000876	847.4953014003113	n/a	n/a	848.503171000164	849.5234210002236	2020-10-07 10:09:11.198868	18.4571298212407	0.0	21.4990228044152	21.4990228044152	3.0418929831745	21.4990228044152	-18.4571298212407	21.4990228044152	0.0	21.4990228044152	3.0418929831745	5.273939259517999	9.749056651000794	-4.2924707722465225	16.48217463357841	12.440208416994913	-2.4515974579518147	16.48217463357841	3.7095103006807353	11.889816913313691	2.140760262312898	12.47098259794319	-0.2812787366113038	2	missed	0.0
6.1580632999539375	6.51452049985528	go_reward	0.3553281002677977	6.183310700114816	8.184140000026673	10.72881680028513	2.0008292999118567	7.187414000276476	9.715351100079715	11.735682300291955	0.9967259997501969	1.0134657002054155	0.9621488996781409	n/a	1.0	n/a	1	0	62	3	go_reward	1	1	0	1	1	1	0	n/a	n/a	1	0.3553281002677977	1.0	843.3799463999458	849.5632571000606	850.5673604002222	851.5640863999724	853.0952975000255	854.1087632002309	n/a	n/a	855.1156287002377	856.0777775999159	2020-10-07 10:09:11.198868	9.05615704356908	14.0824121197276	6.53378549897174	14.124009969456	15.5899425425408	6.53378549897174	-9.05615704356908	14.0824121197276	6.53378549897174	15.5899425425408	6.53378549897174	12.6905499442056	0.3480838733291751	9.789941347481077	1.516937328134949	5.065195582035713	10.096452101414485	1.516937328134949	11.126120985368336	5.98073665143929	5.632652778110138	5.054371913255588	6.2525067623604365	2	missed	0.0
12.71288840007037	5.813147800043225	go_reward	0.2804382001049816	12.738135800231248	14.098072499968112	16.642560800071806	1.3599366997368634	13.742360200267285	15.628738600295037	17.64885380025953	0.3557122997008264	1.0138221997767687	0.9024298000149429	n/a	1.0	n/a	1	0	63	3	go_reward	1	1	0	1	1	1	0	n/a	n/a	1	0.2804382001049816	1.0	843.3799463999458	856.118082200177	857.122306600213	857.4780188999139	859.0086850002408	860.0225072000176	n/a	n/a	861.0288002002053	861.9312300002202	2020-10-07 10:09:11.198868	12.8562347232094	17.2306568319332	6.53378549897174	17.2661650952092	19.3900202221811	6.53378549897174	-12.8562347232094	17.2306568319332	6.53378549897174	19.3900202221811	6.53378549897174	9.542305232	4.148161552969496	12.938186059686677	1.516937328134949	8.207350707788912	13.896529781054785	1.516937328134949	7.977876273162737	9.78081433107959	5.632652778110138	8.202616625461188	6.2525067623604365	2	missed	0.0
18.566991799976677	6.790125099942088	go_reward	0.2560518002137542	18.592239200137556	20.872111100237817	23.415778500027955	2.279871900100261	19.59685240034014	22.401426100172102	24.422758900094777	1.2752586998976767	1.0143523998558521	0.9596053999848664	n/a	1.0	n/a	1	0	64	3	go_reward	1	1	0	1	1	1	1	n/a	n/a	1	0.2560518002137542	1.0	843.3799463999458	861.9721856000833	862.9767988002859	864.2520575001836	865.7813725001179	866.7957248999737	n/a	n/a	867.8027053000405	868.7623107000254	2020-10-07 10:09:11.198868	15.5934119061938	19.5160087221982	6.53378549897174	19.5464812094011	22.1271974051655	6.53378549897174	-15.5934119061938	19.5160087221982	6.53378549897174	22.1271974051655	6.53378549897174	7.256953341734999	6.885338735953896	15.223537949951679	1.516937328134949	10.487666821980813	16.633706964039185	1.516937328134949	5.692524382897735	12.51799151406399	5.632652778110138	10.48796851572619	6.2525067623604365	2	missed	0.0
25.401061499956995	6.29974739998579	go_reward	0.5063156001269817	25.426308900117874	26.789041200187057	29.33090279996395	1.3627323000691831	26.430968400090933	28.320137500297278	30.337860099971294	0.3580728000961244	1.010765299666673	1.38819620013237	n/a	1.0	n/a	1	0	65	3	go_reward	0	0	1	1	1	1	1	n/a	n/a	0	0.5063156001269817	1.0	843.3799463999458	868.8062553000636	869.8109148000367	870.1689876001328	871.700083900243	872.7108491999097	n/a	n/a	873.7178064999171	875.1060027000494	2020-10-07 10:09:11.198868	17.5883017489779	21.1940694950197	6.53378549897174	21.2203372185556	24.1220872479496	6.53378549897174	-17.5883017489779	21.1940694950197	6.53378549897174	24.1220872479496	6.53378549897174	-21.1940694950197	8.880228578737997	16.90159872277318	1.516937328134949	12.161522831135311	18.628596806823285	1.516937328134949	-22.758498453856962	14.51288135684809	5.632652778110138	12.166029288547689	6.2525067623604365	2	missed	0.0
31.77145090000704	6.145069099962711	nogo_punish	1.0	31.796698300167918	33.614407800138	36.129113600123674	1.8177094999700785	32.80204740026966	35.11907510040328	37.13600590033457	0.8123603998683393	1.0100384997203946	0.8057614997960627	n/a	1.0	n/a	1	0	66	2	nogo_punish	1	-1	0	0	0	1	0	n/a	n/a	0	1.0	1.0	843.3799463999458	875.1766447001137	876.1819938002154	876.9943542000838	878.499021500349	879.5090600000694	n/a	n/a	880.5159523002803	881.3217138000764	2020-10-07 10:09:11.198868	1.94463702412833	-1.43227292625726	-0.567093210314795	-0.992901742454151	-2.51173023444313	-0.567093210314795	-1.94463702412833	-0.567093210314795	-1.43227292625726	-0.567093210314795	-2.51173023444313	0.567093210314795	-6.763436146111575	-5.724743698503783	-5.583941381151586	-10.051716129874439	-8.005220675569444	-5.583941381151586	-0.9973357485224681	-10.176299101416305	-3.412862955304732	-9.595133416786807	-1.7135516628685639	2	missed	0.0
37.954512199852616	6.2360622002743185	nogo_punish	1.0	37.979759600013494	39.67189530003816	42.19072990026325	1.6921357000246644	38.984087200369686	41.17728830035776	43.19737660000101	0.687808099668473	1.0134415999054909	1.0184452002868056	n/a	1.0	n/a	1	0	67	2	nogo_punish	0	0	-1	0	0	1	0	n/a	n/a	-1	1.0	1.0	843.3799463999458	881.3597059999593	882.3640336003155	883.0518416999839	884.5572347003035	885.570676300209	n/a	n/a	886.5773229999468	887.5957682002336	2020-10-07 10:09:11.198868	2.0334646202786	-1.43227292625726	-0.435247826290903	-0.765400883770819	-2.4687124465695	-0.435247826290903	-2.0334646202786	-0.435247826290903	-1.43227292625726	-0.435247826290903	-2.4687124465695	-2.415558612002827	-6.674608549961304	-5.724743698503783	-5.452095997127694	-9.824215271191107	-7.962202887695815	-5.452095997127694	-3.9799875708400902	-10.044453717392413	-3.369845167431102	-9.463288032762915	-1.7135516628685639	2	missed	0.0
44.23521189996973	6.968408700078726	go_reward	0.5365896001458168	44.260459300130606	46.236725700087845	48.782497900072485	1.9762663999572396	45.26489820005372	47.76880480023101	49.78920080000535	0.9718275000341237	1.0136930998414755	1.439667200203985	n/a	1.0	n/a	1	0	68	3	go_reward	1	1	0	1	1	1	0	n/a	n/a	1	0.5365896001458168	1.0	843.3799463999458	887.6404057000764	888.6448445999995	889.6166721000336	891.1487512001768	892.1624443000183	n/a	n/a	893.1691471999511	894.6088144001551	2020-10-07 10:09:11.198868	11.2063201818071	15.9061514662877	6.53378549897174	15.9288804243369	17.7401056807788	6.53378549897174	-11.2063201818071	15.9061514662877	6.53378549897174	17.7401056807788	6.53378549897174	10.8668105976455	2.498247011567196	11.613680694041177	1.516937328134949	6.8700660369166116	12.246615239652485	1.516937328134949	9.302381638808237	8.13089978967729	5.632652778110138	6.878111259815688	6.2525067623604365	2	missed	0.0
51.24442909983918	6.062398800160736	go_reward	0.3977823001332581	51.26967650000006	52.73856600001454	55.28229970019311	1.468889500014484	52.274239300284535	54.26877610012889	56.28911120025441	0.46432669973000884	1.013523600064218	1.042964099906385	n/a	1.0	n/a	1	0	69	3	go_reward	1	1	0	1	1	1	0	n/a	n/a	1	0.3977823001332581	1.0	843.3799463999458	894.6496228999458	895.6541857002303	896.1185123999603	897.6487225000747	898.6622461001389	n/a	n/a	899.6690576002002	900.7120217001066	2020-10-07 10:09:11.198868	14.4597348525959	18.6006985526303	6.53378549897174	18.6204298531258	20.9935203515676	6.53378549897174	-14.4597348525959	18.6006985526303	6.53378549897174	20.9935203515676	6.53378549897174	8.172263511302901	5.751661682355996	14.308227780383776	1.516937328134949	9.561615465705511	15.500029910441285	1.516937328134949	6.607834552465638	11.38431446046609	5.632652778110138	9.572658346158287	6.2525067623604365	2	missed	0.0
57.34489140007656	6.727442800067138	nogo_punish	1.0	57.37013880023744	59.094431700185055	61.608641100116074	1.7242928999476135	58.3740537003614	60.59953450039018	62.61614120006561	0.7203779998236541	1.0091065997258966	1.4814404002389665	n/a	1.0	n/a	1	0	70	2	nogo_punish	1	-1	0	0	0	1	0	n/a	n/a	0	1.0	1.0	843.3799463999458	900.7500852001832	901.7540001003072	902.4743781001308	903.979480900336	904.9885875000618	n/a	n/a	905.9960876000114	907.4775280002503	2020-10-07 10:09:11.198868	1.56770785829353	-1.43227292625726	-0.998942399765367	-1.25716717780756	-2.56665025805889	-0.998942399765367	-1.56770785829353	-0.998942399765367	-1.43227292625726	-0.998942399765367	-2.56665025805889	0.998942399765367	-7.140365311946375	-5.724743698503783	-6.015790570602158	-10.315981565227847	-8.060140699185204	-6.015790570602158	-0.565486559071896	-10.608148290866877	-3.467782978920492	-10.026982606237379	-1.7135516628685639	2	missed	0.0
64.12170400004834	6.161801400128638	go_reward	0.2932329997420311	64.14695140020922	65.81410140031949	68.37458880012866	1.6671500001102686	65.15321270003903	67.36123310029507	69.38121470017359	0.6608887002804522	1.0133556998335962	0.92753810016427	n/a	1.0	n/a	1	0	71	3	go_reward	1	1	0	1	1	1	1	n/a	n/a	1	0.2932329997420311	1.0	843.3799463999458	907.526897800155	908.5331590999848	909.1940478002653	910.7411795002408	911.7545352000744	n/a	n/a	912.7611611001194	913.6886992002836	2020-10-07 10:09:11.198868	16.8027226918038	20.5564941165318	6.53378549897174	20.5736724503311	23.3365081907755	6.53378549897174	-16.8027226918038	20.5564941165318	6.53378549897174	23.3365081907755	6.53378549897174	6.2164679474014015	8.094649521563896	16.264023344285278	1.516937328134949	11.514858062910811	17.843017749649185	1.516937328134949	4.652038988564138	13.72730229967399	5.632652778110138	11.528453910059786	6.2525067623604365	2	missed	0.0
70.32073759986099	6.775286199990546	nogo_punish	1.0	70.34598500002187	72.25171730015427	74.76576220011339	1.9057323001323994	71.35010630032048	73.75647310027864	75.77244500024244	0.9016109998337924	1.0092890998347457	1.3488261997699738	n/a	1.0	n/a	1	0	72	2	nogo_punish	1	-1	0	0	0	1	1	n/a	n/a	0	1.0	1.0	843.3799463999458	913.7259313999676	914.7300527002662	915.6316637001	917.1364195002244	918.1457086000592	n/a	n/a	919.1523914001882	920.5012175999582	2020-10-07 10:09:11.198868	1.75226302653768	-1.43227292625726	-0.754719895241671	-0.958347217091685	-2.50698292177935	-0.754719895241671	-1.75226302653768	-0.754719895241671	-1.43227292625726	-0.754719895241671	-2.50698292177935	0.754719895241671	-6.955810143702225	-5.724743698503783	-5.771568066078462	-10.017161604511973	-8.000473362905664	-5.771568066078462	-0.809709063595592	-10.36392578634318	-3.408115642640952	-9.782760101713682	-1.7135516628685639	2	missed	0.0
77.13373820018012	6.9142455998808146	nogo_punish	1.0	77.158985600341	79.63745449995622	82.15758350025862	2.4784688996152227	78.16343120019883	81.14288120018318	83.16410050028946	1.4740232997573912	1.0147023000754416	0.9091306999323479	n/a	1.0	n/a	1	0	73	2	nogo_punish	0	0	-1	0	0	1	0	n/a	n/a	-1	1.0	1.0	843.3799463999458	920.5389320002868	921.5433776001446	923.017400899902	924.522827600129	925.5375299002044	n/a	n/a	926.5440469002352	927.4531776001676	2020-10-07 10:09:11.198868	1.88866718252897	-1.43227292625726	-0.576161835341772	-0.73797505909252	-2.46482901787074	-0.576161835341772	-1.88866718252897	-0.576161835341772	-1.43227292625726	-0.576161835341772	-2.46482901787074	-2.274644602951958	-6.819405987710935	-5.724743698503783	-5.593010006178563	-9.796789446512808	-7.958319458997055	-5.593010006178563	-3.8390735617892213	-10.185367726443282	-3.365961738732342	-9.604202041813783	-1.7135516628685639	2	missed	0.0
84.08763610012818	6.950102099683136	nogo_reward	1.0	84.11288350028906	86.65430130017921	89.17259000008926	2.541417799890155	85.11753030028183	88.1591445002706	90.17955560004339	1.536770999897385	1.0134454998186584	0.8834299999288078	n/a	1.0	n/a	1	0	74	4	nogo_reward	1	0	1	0	0	1	0	n/a	n/a	1	1.0	1.0	843.3799463999458	927.4928299002348	928.4974767002276	930.034247700125	931.5390909002164	932.552536400035	n/a	n/a	933.5595019999892	934.442931999918	2020-10-07 10:09:11.198868	19.3791895763841	0.0	22.6062597614888	22.6062597614888	3.22707018510467	22.6062597614888	-19.3791895763841	22.6062597614888	0.0	22.6062597614888	3.22707018510467	4.166702302444399	10.671116406144195	-4.2924707722465225	17.58941159065201	13.547445374068513	-2.2664202560216444	17.58941159065201	2.602273343607136	12.99705387038729	2.325937464243068	13.578219555016789	-0.2812787366113038	2	missed	0.0
91.08023850014433	5.965268599800652	go_punish	0.371467700228095	91.10548590030521	92.52483770018443	95.06776540027943	1.419351799879223	92.11001710034907	94.05707880016428	96.07440240029246	0.414820599835366	1.0106866001151502	0.9963520998134072	n/a	1.0	n/a	1	0	75	1	go_punish	1	0	-1	1	1	1	0	n/a	n/a	0	0.371467700228095	1.0	843.3799463999458	934.485432300251	935.4899635002948	935.9047841001302	937.43702520011	938.4477118002252	n/a	n/a	939.4543488002382	940.4507009000516	2020-10-07 10:09:11.198868	0.635543879152216	0.0	-1.83270295894676	-1.60236337471879	-1.19715907979455	-1.83270295894676	-0.635543879152216	0.0	-1.83270295894676	-1.19715907979455	-1.83270295894676	0.0	-8.072529291087688	-4.2924707722465225	-6.849551129783551	-10.661177762139078	-6.690649520920864	-6.849551129783551	-1.564428958837263	-10.80636497089606	-2.733835679808362	-9.028040206472012	-2.113981695558064	2	missed	0.0
97.08090960001573	6.958035400137192	go_punish	0.2095965999178588	97.10615700017661	99.27476350031782	101.81544270040467	2.168606500141209	98.11086780019104	100.80580580001708	102.82205870002508	1.1638957001267727	1.0096369003875907	1.2421337002887185	n/a	1.0	n/a	1	0	76	1	go_punish	1	0	-1	1	1	1	0	n/a	n/a	0	0.2095965999178588	1.0	843.3799463999458	940.4861034001224	941.4908142001368	942.6547099002636	944.1857521999628	945.1953891003504	n/a	n/a	946.2020050999708	947.4441388002596	2020-10-07 10:09:11.198868	0.712529387764595	0.0	-1.83270295894676	-1.21878286723879	-1.12017357118217	-1.83270295894676	-0.712529387764595	0.0	-1.83270295894676	-1.12017357118217	-1.83270295894676	0.0	-7.99554378247531	-4.2924707722465225	-6.849551129783551	-10.277597254659078	-6.613664012308485	-6.849551129783551	-1.564428958837263	-10.72937946228368	-2.733835679808362	-9.028040206472012	-2.113981695558064	2	missed	0.0
104.07771550025791	6.78349959990021	go_punish	0.2664445000700652	104.10296290041879	105.86790150031447	108.4107312001288	1.764938599895686	105.1076452000998	107.39834360033262	109.41758880019188	0.760256300214678	1.0123875997961704	1.4688737001271193	n/a	1.0	n/a	1	0	77	1	go_punish	0	-1	0	1	1	1	1	n/a	n/a	-1	0.2664445000700652	1.0	843.3799463999458	947.4829093003646	948.4875916000456	949.2478479002602	950.7782900002784	951.7906776000746	n/a	n/a	952.7975352001376	954.2664089002648	2020-10-07 10:09:11.198868	0.766883522944759	0.0	-1.83270295894676	-0.936343343383779	-1.065819436002	-1.83270295894676	-0.766883522944759	0.0	-1.83270295894676	-1.065819436002	-1.83270295894676	-2.85080643829373	-7.941189647295145	-4.2924707722465225	-6.849551129783551	-9.995157730804067	-6.559309877128315	-6.849551129783551	-4.415235397130993	-10.67502532710351	-2.733835679808362	-9.028040206472012	-2.113981695558064	2	missed	0.0
110.89691010024399	6.9533642996101435	nogo_reward	1.0	110.92215750040486	112.96539970021706	115.48439810005948	2.043242199812198	111.92690620012581	114.47083000000566	116.49125880002987	1.0384935000912492	1.013568100053817	1.3842629999851397	n/a	1.0	n/a	1	0	78	4	nogo_reward	1	0	1	0	0	1	0	n/a	n/a	1	1.0	1.0	843.3799463999458	954.3021039003506	955.3068526000716	956.3453461001628	957.8507763999514	958.8643445000052	n/a	n/a	959.8712051999756	961.2554681999608	2020-10-07 10:09:11.198868	20.0897084362475	0.0	23.451911129347	23.451911129347	3.36220269309958	23.451911129347	-20.0897084362475	23.451911129347	0.0	23.451911129347	3.36220269309958	3.3210509345862	11.381635266007594	-4.2924707722465225	18.43506295851021	14.393096741926712	-2.1312877480267347	18.43506295851021	1.756621975748937	13.84270523824549	2.461069972237978	14.423870922874988	-0.2812787366113038	2	missed	0.0
117.88738830015052	6.908504900056869	nogo_reward	1.0	117.9126357003114	119.8328122003004	122.35180240031343	1.9201764999889974	118.91767840040848	121.33868610020727	123.35864360025141	0.9151337998919189	1.0131163001061623	1.462497000116855	n/a	1.0	n/a	1	0	79	4	nogo_reward	1	0	1	0	0	1	0	n/a	n/a	1	1.0	1.0	843.3799463999458	961.2925821002572	962.2976248003542	963.2127586002462	964.718632500153	965.7317488002592	n/a	n/a	966.7385900001972	968.201087000314	2020-10-07 10:09:11.198868	20.6421883991927	0.0	24.1040383219193	24.1040383219193	3.46184992272656	24.1040383219193	-20.6421883991927	24.1040383219193	0.0	24.1040383219193	3.46184992272656	2.6689237420138987	11.934115228952797	-4.2924707722465225	19.08719015108251	15.045223934499013	-2.0316405183997546	19.08719015108251	1.1044947831766356	14.494832430817791	2.560717201864958	15.07599811544729	-0.2812787366113038	2	missed	0.0
124.83594579994678	7.597530700266361	nogo_punish	1.0	124.86119320010766	127.69364620000124	130.20956850005302	2.832452999893576	125.86600890010584	129.19939810037624	131.21629630029202	1.8276372998954002	1.010170399676781	1.24242760008201	n/a	1.0	n/a	1	0	80	2	nogo_punish	1	-1	0	0	0	1	0	n/a	n/a	0	1.0	1.0	843.3799463999458	968.2411396000534	969.2459553000516	971.073592599947	972.579344500322	973.5895148999988	n/a	n/a	974.5962427002378	975.8386703003198	2020-10-07 10:09:11.198868	1.45756968622715	-1.43227292625726	-1.10594885751095	-1.23546612993132	-2.5635185437381	-1.10594885751095	-1.45756968622715	-1.10594885751095	-1.43227292625726	-1.10594885751095	-2.5635185437381	1.10594885751095	-7.2505034840127545	-5.724743698503783	-6.122797028347741	-10.294280517351607	-8.057008984864414	-6.122797028347741	-0.4584801013263131	-10.71515474861246	-3.464651264599702	-10.133989063982963	-1.7135516628685639	2	missed	0.0
132.47092980006698	6.23985109990474	go_punish	0.7626561997458339	132.49617720022786	133.99469440011308	136.54015800030902	1.4985171998852138	133.50111460033804	135.52641890011728	137.5465510999784	0.4935797997750342	1.0137391001917422	1.189477200154215	n/a	1.0	n/a	1	0	81	1	go_punish	0	-1	0	1	1	1	0	n/a	n/a	-1	0.7626561997458339	1.0	843.3799463999458	975.8761236001736	976.8810610002838	977.3746408000588	978.906365300063	979.9201044002548	n/a	n/a	980.9264974999242	982.1159747000784	2020-10-07 10:09:11.198868	0.0151172967685491	-0.661762683460599	-1.83270295894676	-1.38792910053219	-1.81758566217821	-1.83270295894676	-0.0151172967685491	-0.661762683460599	-1.83270295894676	-1.81758566217821	-1.83270295894676	-2.189043754833131	-8.692955873471355	-4.954233455707121	-6.849551129783551	-10.446743487952478	-7.311076103304525	-6.849551129783551	-3.7534727136703943	-11.42679155327972	-2.733835679808362	-9.689802889932611	-2.113981695558064	2	missed	0.0
138.74661209993053	7.311428199987972	go_punish	0.1577123999595642	138.7718595000914	141.12559329997748	143.6667353999802	2.353733799886072	139.77604970009986	142.65671800030384	144.67365110013623	1.3495435998776202	1.0100173996763715	1.4096365999431555	n/a	1.0	n/a	1	0	82	1	go_punish	1	0	-1	1	1	1	0	n/a	n/a	0	0.1577123999595642	1.0	843.3799463999458	982.1518059000372	983.1559961000456	984.5055396999232	986.0366644002496	987.046681799926	n/a	n/a	988.053597500082	989.4632341000251	2020-10-07 10:09:11.198868	-0.539618877597408	-1.15297425805139	-1.83270295894676	-1.72115216380224	-2.37232183654417	-1.83270295894676	0.539618877597408	-1.15297425805139	-1.83270295894676	-2.37232183654417	-1.83270295894676	1.15297425805139	-9.247692047837312	-5.445445030297913	-6.849551129783551	-10.779966551222527	-7.865812277670484	-6.849551129783551	-0.4114547007858731	-11.98152772764568	-2.733835679808362	-10.181014464523402	-2.113981695558064	2	missed	0.0
146.09891040017817	6.274537099991221	nogo_punish	1.0	146.12415780033905	147.7755548004062	150.28953330032527	1.6513970000671634	147.1282911002636	149.28053220035508	151.29582230001688	0.6472637001426165	1.0090010999701917	1.1028726003133897	n/a	1.0	n/a	1	0	83	2	nogo_punish	1	-1	0	0	0	1	0	n/a	n/a	0	1.0	1.0	843.3799463999458	989.5041042002848	990.5082375002094	991.155501200352	992.6604786003008	993.669479700271	n/a	n/a	994.6757686999626	995.778641300276	2020-10-07 10:09:11.198868	1.66764821183384	-1.43227292625726	-0.836831881755288	-0.941204193021705	-2.50448009358913	-0.836831881755288	-1.66764821183384	-0.836831881755288	-1.43227292625726	-0.836831881755288	-2.50448009358913	0.836831881755288	-7.0404249584060645	-5.724743698503783	-5.853680052592079	-10.000018580441992	-7.997970534715444	-5.853680052592079	-0.7275970770819751	-10.446037772856798	-3.405612814450732	-9.8648720882273	-1.7135516628685639	2	missed	0.0
152.4102774998173	5.68444380024448	nogo_reward	1.0	152.4355248999782	153.8282441999762	156.34726450033486	1.3927192999980207	153.44035510020342	155.3338057002984	157.353684300091	0.3878890997727922	1.0134588000364602	0.7662844001316671	n/a	1.0	n/a	1	0	84	4	nogo_reward	1	0	1	0	0	1	0	n/a	n/a	1	1.0	1.0	843.3799463999458	995.815471299924	996.8203015001492	997.208190599922	998.7137521002442	999.7272109002806	n/a	n/a	1000.7336307000368	1001.4999151001684	2020-10-07 10:09:11.198868	21.0754762165486	0.0	24.6115414845518	24.6115414845518	3.53606526800312	24.6115414845518	-21.0754762165486	24.6115414845518	0.0	24.6115414845518	3.53606526800312	2.1614205793813994	12.367403046308697	-4.2924707722465225	19.59469331371501	15.552727097131513	-1.9574251731231946	19.59469331371501	0.5969916205441363	15.00233559345029	2.634932547141518	15.583501278079789	-0.2812787366113038	2	missed	0.0
158.13033619988698	6.946432200260574	nogo_reward	1.0	158.15558360004786	160.57678330037743	163.09544249996543	2.4211997003295664	159.15989470016223	162.08194020017982	164.10183690022666	1.4168886002152021	1.013502299785614	1.000178900081778	n/a	1.0	n/a	1	0	85	4	nogo_reward	1	0	1	0	0	1	0	n/a	n/a	1	1.0	1.0	843.3799463999458	1001.5355299999936	1002.539841100108	1003.9567297003232	1005.4618866001256	1006.4753888999112	n/a	n/a	1007.4817833001724	1008.4819622002542	2020-10-07 10:09:11.198868	21.4180491635617	0.0	25.0099131909008	25.0099131909008	3.59186402733914	25.0099131909008	-21.4180491635617	25.0099131909008	0.0	25.0099131909008	3.59186402733914	1.7630488730323997	12.709975993321796	-4.2924707722465225	19.99306502006401	15.951098803480512	-1.9016264137871746	19.99306502006401	0.19861991419513658	15.40070729979929	2.690731306477538	15.981872984428788	-0.2812787366113038	2	missed	0.0
165.1176248001866	7.685355999972785	nogo_reward	1.0	165.14287220034748	167.90562540013343	170.42517259996384	2.762753199785948	166.14725420018658	169.41076300013822	171.43207930028439	1.7583711999468505	1.0144095998256262	1.3961489000358824	n/a	1.0	n/a	1	0	86	4	nogo_reward	1	0	1	0	0	1	1	n/a	n/a	1	1.0	1.0	843.3799463999458	1008.5228186002932	1009.5272006001323	1011.2855718000792	1012.790709400084	1013.8051189999096	n/a	n/a	1014.8120257002302	1016.208174600266	2020-10-07 10:09:11.198868	21.6909779354123	0.0	25.325170343483	25.325170343483	3.63419240807068	25.325170343483	-21.6909779354123	25.325170343483	0.0	25.325170343483	3.63419240807068	1.4477917204502013	12.982904765172394	-4.2924707722465225	20.308322172646207	16.26635595606271	-1.8592980330556346	20.308322172646207	-0.11663723838706175	15.715964452381488	2.733059687209078	16.29713013701099	-0.2812787366113038	2	missed	0.0
172.8474082001486	7.336188700050002	go_reward	0.2533388999290764	172.87265560030949	175.34077560016885	177.88684409996506	2.4681199998593684	173.8771315002814	176.87347140023485	178.89334900025267	1.4636440998874605	1.013372699730212	1.315495300106818	n/a	1.0	n/a	1	0	87	3	go_reward	1	1	0	1	1	1	0	n/a	n/a	1	0.2533388999290764	1.0	843.3799463999458	1016.2526020002553	1017.2570779002272	1018.7207220001146	1020.2534178001806	1021.2667904999108	n/a	n/a	1022.2732954001984	1023.5887907003053	2020-10-07 10:09:11.198868	18.5101841486358	21.9925534193077	6.53378549897174	22.0075477137924	25.0439696476075	6.53378549897174	-18.5101841486358	21.9925534193077	6.53378549897174	25.0439696476075	6.53378549897174	4.780408644625499	9.802110978395897	17.70008264706118	1.516937328134949	12.94873332637211	19.550479206481185	1.516937328134949	3.215979685788236	15.43476375650599	5.632652778110138	12.964513212835689	6.2525067623604365	2	missed	0.0
180.22043420001853	6.299607700202728	nogo_reward	1.0	180.2456816001794	181.80892300000414	184.32756460038945	1.563241399824733	181.25080730021	183.31462009996176	185.33435570029542	0.5581156997941434	1.0129445004276931	1.2109336000867188	n/a	1.0	n/a	1	0	88	4	nogo_reward	1	0	1	0	0	1	1	n/a	n/a	1	1.0	1.0	843.3799463999458	1023.6256280001252	1024.6307537001558	1025.18886939995	1026.6945664999075	1027.7075110003352	n/a	n/a	1028.7143021002412	1029.925235700328	2020-10-07 10:09:11.198868	21.9099938099654	0.0	25.5765670806388	25.5765670806388	3.66657327067345	25.5765670806388	-21.9099938099654	25.5765670806388	0.0	25.5765670806388	3.66657327067345	1.1963949832944003	13.201920639725495	-4.2924707722465225	20.559718909802008	16.51775269321851	-1.8269171704528646	20.559718909802008	-0.36803397554286277	15.96736118953729	2.765440549811848	16.54852687416679	-0.2812787366113038	2	missed	0.0
186.56615770002827	6.884097199887037	go_reward	0.234954799991101	186.59140510018915	188.45231140032433	191.00088830012828	1.8609063001351842	187.59596920013428	189.98722010012716	192.00755790015683	0.8563422001900562	1.0136682000011206	1.4679443999193609	n/a	1.0	n/a	1	0	89	3	go_reward	1	1	0	1	1	1	1	n/a	n/a	1	0.234954799991101	1.0	843.3799463999458	1029.971351500135	1030.97591560008	1031.83225780027	1033.367166500073	1034.380834700074	n/a	n/a	1035.3875043001026	1036.855448700022	2020-10-07 10:09:11.198868	19.768888402723	23.0588244916504	6.53378549897174	23.071943217177	26.3026739016947	6.53378549897174	-19.768888402723	23.0588244916504	6.53378549897174	26.3026739016947	6.53378549897174	3.714137572282798	11.060815232483096	18.76635371940388	1.516937328134949	14.013128829756713	20.809183460568384	1.516937328134949	2.1497086134455348	16.69346801059319	5.632652778110138	14.03078428517839	6.2525067623604365	2	missed	0.0
193.48754480015486	6.038767999969423	go_punish	1.0	193.51279220031574	194.79026180040114	197.30891370028257	1.2774696000853965	194.51796430023387	196.2958301003091	198.31554950028658	0.2722975001672694	1.01308359997347	1.2360106999985874	n/a	1.0	n/a	1	0	90	1	go_punish	1	0	-1	1	0	0	0	n/a	n/a	-1	1.0	1.0	843.3799463999458	1036.8927386002615	1037.8979107001796	1038.170208200347	1039.6757765002549	1040.6888601002283	n/a	n/a	1041.6954959002323	1042.931506600231	2020-10-07 10:09:11.198868	0.1629224314511	-0.859734544055226	-1.83270295894676	-1.30800862998996	-1.99562539039786	-1.83270295894676	-0.1629224314511	-1.83270295894676	-0.859734544055226	-1.83270295894676	-1.99562539039786	-1.01810347934697	-8.545150738788804	-5.152205316301749	-6.849551129783551	-10.366823017410248	-7.489115831524175	-6.849551129783551	-2.5825324381842334	-11.44190885004827	-2.8967581112594623	-10.860743165418771	-1.1410132806665298	2	missed	0.0
199.5618281001225	7.46210359968245	go_punish	0.2541129002347588	199.5870755002834	202.54917550040432	205.08945000031963	2.962100000120927	200.59163040015846	204.07904010033212	206.09610430011526	1.9575451002458522	1.0104098999875077	0.9530747998505831	n/a	1.0	n/a	1	0	91	1	go_punish	1	0	-1	1	1	1	0	n/a	n/a	0	0.2541129002347588	1.0	843.3799463999458	1042.9670219002292	1043.9715768001042	1045.92912190035	1047.458986500278	1048.4693964002654	n/a	n/a	1049.476050700061	1050.4291254999116	2020-10-07 10:09:11.198868	-0.0100959211990775	-0.859734544055226	-2.05555033104785	-1.66602655419989	-2.06564625224692	-2.05555033104785	0.0100959211990775	-0.859734544055226	-2.05555033104785	-2.06564625224692	-2.05555033104785	0.859734544055226	-8.718169091438982	-5.152205316301749	-7.072398501884641	-10.724840941620178	-7.559136693373235	-7.072398501884641	-0.7046944147820371	-11.67485214334843	-2.956683051909452	-9.887774750527237	-2.3368290676591537	2	missed	0.0
207.06399649986997	7.345688300207485	go_punish	0.3084093001671135	207.08924390003085	209.66177370026708	212.20549890026473	2.572529800236225	208.09368070028722	211.19221260026097	213.2119293003343	1.5680929999798536	1.013286300003756	1.2230028999040314	n/a	1.0	n/a	1	0	92	1	go_punish	0	-1	0	1	1	1	1	n/a	n/a	-1	0.3084093001671135	1.0	843.3799463999458	1050.4691902999766	1051.473627100233	1053.0417201002128	1054.5721590002067	1055.5854453002105	n/a	n/a	1056.59187570028	1057.814878600184	2020-10-07 10:09:11.198868	0.280981611442319	-0.647821637670314	-2.05555033104785	-1.26973774294573	-1.77456871960553	-2.05555033104785	-0.280981611442319	-0.647821637670314	-2.05555033104785	-1.77456871960553	-2.05555033104785	-2.2029848006234163	-8.427091558797585	-4.940292409916837	-7.072398501884641	-10.328552130366017	-7.268059160731845	-7.072398501884641	-3.7674137594606796	-11.38377461070704	-2.956683051909452	-9.675861844142325	-2.3368290676591537	2	missed	0.0
214.44571739993967	6.367562199942995	nogo_reward	1.0	214.47096480010055	215.8279357003048	218.34659230010584	1.35697090020426	215.4768590000458	217.33292740024626	219.35351240029559	0.35107670025900006	1.0136648998595774	1.4850145997479558	n/a	1.0	n/a	1	0	93	4	nogo_reward	1	0	1	0	0	1	0	n/a	n/a	1	1.0	1.0	843.3799463999458	1057.8509112000463	1058.8568053999916	1059.2078821002506	1060.712873800192	1061.7265387000516	n/a	n/a	1062.7334588002414	1064.2184733999893	2020-10-07 10:09:11.198868	22.0869439514186	0.0	25.7784845195253	25.7784845195253	3.69154056810671	25.7784845195253	-22.0869439514186	25.7784845195253	0.0	25.7784845195253	3.69154056810671	0.9944775444078999	13.378870781178696	-4.2924707722465225	20.76163634868851	16.719670132105012	-1.8019498730196046	20.76163634868851	-0.5699514144293631	16.16927862842379	2.790407847245108	16.750444313053286	-0.2812787366113038	2	missed	0.0
220.8489349000156	7.1865229001268744	go_punish	0.3532769000157714	220.87418230017647	223.30184980016202	225.84419140033424	2.427667499985546	221.87889449996874	224.83337680017576	226.85119640035555	1.42295530019328	1.0108146001584828	1.2095087999477983	n/a	1.0	n/a	1	0	94	1	go_punish	1	0	-1	1	1	1	1	n/a	n/a	0	0.3532769000157714	1.0	843.3799463999458	1064.2541287001222	1065.2588408999145	1066.6817962001078	1068.2133232001215	1069.22413780028	n/a	n/a	1070.2311428003013	1071.440651600249	2020-10-07 10:09:11.198868	-0.298868107469143	-1.15478725742864	-2.05555033104785	-1.63930954278676	-2.35441843851699	-2.05555033104785	0.298868107469143	-1.15478725742864	-2.05555033104785	-2.35441843851699	-2.05555033104785	1.15478725742864	-9.006941277709048	-5.4472580296751625	-7.072398501884641	-10.698123930207048	-7.847908879643304	-7.072398501884641	-0.4096417014086231	-11.9636243296185	-2.956683051909452	-10.18282746390065	-2.3368290676591537	2	missed	0.0
228.07543710013852	6.402837299741805	nogo_reward	1.0	228.1006845002994	229.93586260033794	232.4500947999768	1.8351781000385472	229.10419770004228	231.4411484003067	233.45724100014172	0.8316649002956638	1.0089463996700943	1.0462807998994776	n/a	1.0	n/a	1	0	95	4	nogo_reward	0	1	0	0	0	1	1	n/a	n/a	0	1.0	1.0	843.3799463999458	1071.4806309002452	1072.484144099988	1073.3158090002837	1074.8210948002525	1075.8300411999226	n/a	n/a	1076.8371874000875	1077.883468199987	2020-10-07 10:09:11.198868	22.2308251046852	0.0	25.9417595271213	25.9417595271213	3.71093442243606	25.9417595271213	-22.2308251046852	25.9417595271213	0.0	25.9417595271213	3.71093442243606	-25.9417595271213	13.522751934445294	-4.2924707722465225	20.924911356284507	16.88294513970101	-1.7825560186902547	20.924911356284507	-27.50618848595856	16.33255363601979	2.809801701574458	16.913719320649285	-0.2812787366113038	2	missed	0.0
234.51435950025916	7.002778699621558	go_punish	0.3376695998013019	234.53960690042004	237.05765960039594	239.5987070002593	2.5180526999758968	235.5436897003092	238.58923509996384	240.6055966001004	1.5139699000867495	1.0094719002954662	0.9367889999412	n/a	1.0	n/a	1	0	96	1	go_punish	1	0	-1	1	1	1	1	n/a	n/a	0	0.3376695998013019	1.0	843.3799463999458	1077.9195533003658	1078.923636100255	1080.4376060003417	1081.9691814999096	1082.978653400205	n/a	n/a	1083.9855430000462	1084.9223319999874	2020-10-07 10:09:11.198868	0.0631717033974883	-0.869983867294777	-2.05555033104785	-1.25100364768044	-1.99237862765036	-2.05555033104785	-0.0631717033974883	-0.869983867294777	-2.05555033104785	-1.99237862765036	-2.05555033104785	0.869983867294777	-8.644901466842416	-5.162454639541299	-7.072398501884641	-10.309818035100728	-7.485869068776674	-7.072398501884641	-0.6944450915424861	-11.60158451875187	-2.956683051909452	-9.89802407376679	-2.3368290676591537	2	missed	0.0
241.55471839988604	7.598719000350684	nogo_punish	1.0	241.57996580004692	244.31054950039834	246.82352920016274	2.730583700351417	242.58407200034708	245.8148524002172	247.8297292003408	1.72647750005126	1.0086767999455333	1.3489556000567973	n/a	1.0	n/a	1	0	97	2	nogo_punish	1	-1	0	0	0	1	0	n/a	n/a	0	1.0	1.0	843.3799463999458	1084.9599121999927	1085.9640184002928	1087.690495900344	1089.194798800163	1090.2034756001085	n/a	n/a	1091.2096756002866	1092.5586312003434	2020-10-07 10:09:11.198868	1.82304442027645	-1.43227292625726	-0.639795486618979	-0.72444171773567	-2.46283990689543	-0.639795486618979	-1.82304442027645	-0.639795486618979	-1.43227292625726	-0.639795486618979	-2.46283990689543	0.639795486618979	-6.885028749963455	-5.724743698503783	-5.656643657455771	-9.783256105155958	-7.956330348021744	-5.656643657455771	-0.9246334722182841	-10.24900137772049	-3.363972627757032	-9.667835693090991	-1.7135516628685639	2	missed	0.0
249.1933312001638	6.43346529966243	go_punish	0.2573977001011371	249.2185786003247	250.7599083003588	253.3016473003663	1.5413297000341117	250.22464790008962	252.2930276002735	254.3080202001147	0.5352604002691805	1.0086197000928223	1.344023699872423	n/a	1.0	n/a	1	0	98	1	go_punish	1	0	-1	1	1	1	1	n/a	n/a	0	0.2573977001011371	1.0	843.3799463999458	1092.5985250002705	1093.6045943000354	1094.1398547003046	1095.6729740002193	1096.681593700312	n/a	n/a	1097.6879666000605	1099.0319902999329	2020-10-07 10:09:11.198868	0.325644970653246	-0.662126468489273	-2.05555033104785	-0.96436893957171	-1.7299053603946	-2.05555033104785	-0.325644970653246	-0.662126468489273	-2.05555033104785	-1.7299053603946	-2.05555033104785	0.662126468489273	-8.38242819958666	-4.954597240735795	-7.072398501884641	-10.023183326991997	-7.2233958015209145	-7.072398501884641	-0.90230249034799	-11.33911125149611	-2.956683051909452	-9.690166674961285	-2.3368290676591537	2	missed	0.0
255.66468690009765	6.4401742001066395	nogo_punish	1.0	255.68993430025853	257.655983700417	260.16995700029656	1.9660494001584539	256.6944871000014	259.1606910000555	261.17602520016953	0.9614966004155576	1.0092660002410412	0.9540833001956344	n/a	1.0	n/a	1	0	99	2	nogo_punish	1	-1	0	0	0	1	1	n/a	n/a	0	1.0	1.0	843.3799463999458	1099.0698807002043	1100.0744334999472	1101.0359301003627	1102.5406374000013	1103.5499034002423	n/a	n/a	1104.5559716001153	1105.510054900311	2020-10-07 10:09:11.198868	1.93917271086631	-1.43227292625726	-0.493959535540852	-0.563019749889423	-2.43313224640716	-0.493959535540852	-1.93917271086631	-0.493959535540852	-1.43227292625726	-0.493959535540852	-2.43313224640716	0.493959535540852	-6.768900459373595	-5.724743698503783	-5.510807706377643	-9.62183413730971	-7.926622687533475	-5.510807706377643	-1.0704694232964111	-10.103165426642363	-3.334264967268762	-9.521999742012865	-1.7135516628685639	2	missed	0.0
262.1427950002253	6.614180599804968	nogo_reward	1.0	262.1680424003862	264.01627669995673	266.5359459002502	1.8482342995705494	263.17292529996485	265.52268510032445	267.5432708002627	0.8433513999918887	1.0132607999257743	1.2389521999284625	n/a	1.0	n/a	1	0	100	4	nogo_reward	1	0	1	0	0	1	0	n/a	n/a	1	1.0	1.0	843.3799463999458	1105.547988800332	1106.5528716999106	1107.3962230999025	1108.9026315002702	1109.915892300196	n/a	n/a	1110.9232172002085	1112.162169400137	2020-10-07 10:09:11.198868	17.1335070518949	0.0	19.5408422122781	19.5408422122781	2.40733516038325	19.5408422122781	-17.1335070518949	19.5408422122781	0.0	19.5408422122781	2.40733516038325	7.232119851655099	8.425433881654994	-4.2924707722465225	14.52399404144131	10.482027824857813	-3.0861552807430646	14.52399404144131	5.667690892817836	9.93163632117659	1.506202439521648	10.512802005806089	-0.2812787366113038	2	missed	0.0
268.79622519994155	6.230818000156432	nogo_reward	1.0	268.8214726001024	270.2580371000804	272.7762906001881	1.436564499977976	269.82623030012473	271.76278030034155	273.78291100030765	0.43180679995566607	1.01351029984653	1.2693795999512076	n/a	1.0	n/a	1	0	101	4	nogo_reward	1	0	1	0	0	1	0	n/a	n/a	1	1.0	1.0	843.3799463999458	1112.2014190000482	1113.2061767000705	1113.6379835000262	1115.1427267002873	1116.1562370001338	n/a	n/a	1117.1628574002534	1118.4322370002046	2020-10-07 10:09:11.198868	18.59225511167	0.0	21.4092554908784	21.4092554908784	2.81700037920835	21.4092554908784	-18.59225511167	21.4092554908784	0.0	21.4092554908784	2.81700037920835	5.363706573054799	9.884181941430095	-4.2924707722465225	16.39240732004161	12.350441103458113	-2.676490061917965	16.39240732004161	3.7992776142175355	11.80004959977689	1.9158676583467478	12.38121528440639	-0.2812787366113038	2	missed	0.0
275.06350710010156	6.465158700011898	go_punish	0.227259200066328	275.08875450026244	276.8730007000265	279.4168339003809	1.784246199764084	276.0935576003976	278.40595880011097	280.4244038001634	0.7794430996289066	1.0108751002699137	1.1295094001109192	n/a	1.0	n/a	1	0	102	1	go_punish	1	0	-1	1	1	1	0	n/a	n/a	0	0.227259200066328	1.0	843.3799463999458	1118.4687009002082	1119.4735040003434	1120.2529470999723	1121.7859052000567	1122.7967803003266	n/a	n/a	1123.8043502001092	1124.93385960022	2020-10-07 10:09:11.198868	0.518022759803154	-0.508807744336575	-2.05555033104785	-0.750507239754627	-1.53752757124469	-2.05555033104785	-0.518022759803154	-0.508807744336575	-2.05555033104785	-1.53752757124469	-2.05555033104785	0.508807744336575	-8.19005041043675	-4.801278516583098	-7.072398501884641	-9.809321627174915	-7.031018012371005	-7.072398501884641	-1.055621214500688	-11.1467334623462	-2.956683051909452	-9.536847950808587	-2.3368290676591537	2	missed	0.0
281.56638680025935	7.696230699774105	nogo_punish	1.0	281.59163420042023	284.3001749003306	286.8186640003696	2.7085406999103725	282.59595170011744	285.8049170002341	287.8316554003395	1.704223200213164	1.0137470001354814	1.4562094998548218	n/a	1.0	n/a	1	0	103	2	nogo_punish	0	0	-1	0	0	1	0	n/a	n/a	-1	1.0	1.0	843.3799463999458	1124.971580600366	1125.9758981000632	1127.6801213002764	1129.18486340018	1130.1986104003154	n/a	n/a	1131.2116018002853	1132.66781130014	2020-10-07 10:09:11.198868	2.02680881674541	-1.43227292625726	-0.384892940324987	-0.441554897414201	-2.4117017570704	-0.384892940324987	-2.02680881674541	-0.384892940324987	-1.43227292625726	-0.384892940324987	-2.4117017570704	-2.465913497968743	-6.681264353494495	-5.724743698503783	-5.401741111161778	-9.50036928483449	-7.905192198196715	-5.401741111161778	-4.0303424568060064	-9.994098831426497	-3.312834477932002	-9.412933146796998	-1.7135516628685639	2	missed	0.0
289.30369069986045	7.140759699977934	nogo_reward	1.0	289.32893810002133	291.66072690021247	294.1791713000275	2.331788800191134	290.3346687001176	293.1654406003654	295.18620860017813	1.3260582000948489	1.0137306996621192	1.2834891998211333	n/a	1.0	n/a	1	0	104	4	nogo_reward	1	0	1	0	0	1	0	n/a	n/a	1	1.0	1.0	843.3799463999458	1132.708884499967	1133.7146151000634	1135.0406733001582	1136.5453870003112	1137.5591176999733	n/a	n/a	1138.566155000124	1139.849644199945	2020-10-07 10:09:11.198868	19.6489908523879	0.0	22.7458302098699	22.7458302098699	3.09683935748202	22.7458302098699	-19.6489908523879	22.7458302098699	0.0	22.7458302098699	3.09683935748202	4.027131854063299	10.940917682147996	-4.2924707722465225	17.72898203903311	13.687015822449613	-2.3966510836442945	17.72898203903311	2.4627028952260357	13.13662431876839	2.195706636620418	13.717790003397889	-0.2812787366113038	2	missed	0.0
296.47970749996625	5.879338200203847	go_punish	0.3814456998370588	296.50495490012713	298.0617635999806	300.6248894999735	1.556808699853491	297.50918190041534	299.5949309002608	301.63154700025916	0.5525816995652804	1.0299585997126997	0.7527461000718176	n/a	1.0	n/a	1	0	105	1	go_punish	1	0	-1	1	1	1	0	n/a	n/a	0	0.3814456998370588	1.0	843.3799463999458	1139.884901300073	1140.889128300361	1141.4417099999264	1142.9748773002066	1144.0048358999193	n/a	n/a	1145.011493400205	1145.7642395002767	2020-10-07 10:09:11.198868	0.660508550538338	-0.394561525732839	-2.05555033104785	-0.589305287425996	-1.39504178050951	-2.05555033104785	-0.660508550538338	-0.394561525732839	-2.05555033104785	-1.39504178050951	-2.05555033104785	0.394561525732839	-8.047564619701566	-4.6870322979793615	-7.072398501884641	-9.648119674846283	-6.888532221635825	-7.072398501884641	-1.169867433104424	-11.00424767161102	-2.956683051909452	-9.42260173220485	-2.3368290676591537	2	missed	0.0
302.3963946001604	7.356205999851227	go_punish	0.2786512998864054	302.4216420003213	305.0336581002923	307.5731313000433	2.612016099971015	303.4265795000829	306.5638099000789	308.58011170011014	1.6070786002094337	1.0093213999643922	1.1977363000623882	n/a	1.0	n/a	1	0	106	1	go_punish	1	0	-1	1	1	1	0	n/a	n/a	0	0.2786512998864054	1.0	843.3799463999458	1145.801588400267	1146.8065259000286	1148.413604500238	1149.9437563000247	1150.953077699989	n/a	n/a	1151.960058100056	1153.1577944001183	2020-10-07 10:09:11.198868	0.767102273059956	-0.30859953498073	-2.05555033104785	-0.466612244482777	-1.28844805798789	-2.05555033104785	-0.767102273059956	-0.30859953498073	-2.05555033104785	-1.28844805798789	-2.05555033104785	0.30859953498073	-7.940970897179948	-4.6010703072272525	-7.072398501884641	-9.525426631903064	-6.781938499114204	-7.072398501884641	-1.255829423856533	-10.8976539490894	-2.956683051909452	-9.336639741452743	-2.3368290676591537	2	missed	0.0
309.79353820020333	5.999188299756497	nogo_punish	1.0	309.8187856003642	311.3815667000599	313.8998201000504	1.5627810996957123	310.8236230001787	312.8866938999854	314.9060643003322	0.5579436998812071	1.0131262000650167	0.911909599788487	n/a	1.0	n/a	1	0	107	2	nogo_punish	0	0	-1	0	0	1	0	n/a	n/a	-1	1.0	1.0	843.3799463999458	1153.19873200031	1154.2035694001245	1154.7615131000057	1156.2666402999312	1157.2797664999962	n/a	n/a	1158.286010700278	1159.1979203000665	2020-10-07 10:09:11.198868	1.56061108997673	-1.43227292625726	-0.964276483275984	-1.01101291517022	-2.52488757325272	-0.964276483275984	-1.56061108997673	-0.964276483275984	-1.43227292625726	-0.964276483275984	-2.52488757325272	-1.8865299550177461	-7.147462080263175	-5.724743698503783	-5.981124654112776	-10.069827302590507	-8.018378014379035	-5.981124654112776	-3.4509589138550094	-10.573482374377495	-3.426020294114322	-9.992316689747996	-1.7135516628685639	2	missed	0.0
315.82973639992997	6.57937700022012	nogo_reward	1.0	315.85498380009085	317.5168484002352	320.0361899002455	1.6618646001443267	316.8600372001529	319.02243410004303	321.04278390016407	0.6568112000823021	1.013755800202489	1.3915769001469016	n/a	1.0	n/a	1	0	108	4	nogo_reward	1	0	1	0	0	1	0	n/a	n/a	1	1.0	1.0	843.3799463999458	1159.2349302000366	1160.2399836000986	1160.896794800181	1162.4023804999888	1163.4161363001913	n/a	n/a	1164.4227303001098	1165.8143072002567	2020-10-07 10:09:11.198868	20.423181681411	0.0	23.7133995914017	23.7133995914017	3.29021790999072	23.7133995914017	-20.423181681411	23.7133995914017	0.0	23.7133995914017	3.29021790999072	3.0595624725315	11.715108511171094	-4.2924707722465225	18.69655142056491	14.654585203981412	-2.2032725311355947	18.69655142056491	1.4951335136942367	14.10419370030019	2.389085189129118	14.685359384929688	-0.2812787366113038	2	missed	0.0
322.44512609997764	6.336439600214362	nogo_punish	1.0	322.4703735001385	323.93951770011336	326.4553115000019	1.469144199974835	323.4747629002668	325.44425259996206	327.46175500005484	0.46475479984655976	1.0110589000398704	1.345058100298047	n/a	1.0	n/a	1	0	109	2	nogo_punish	1	-1	0	0	0	1	1	n/a	n/a	0	1.0	1.0	843.3799463999458	1165.8503199000843	1166.8547093002126	1167.3194641000591	1168.8241989999078	1169.8352578999477	n/a	n/a	1170.8417014000006	1172.1867595002986	2020-10-07 10:09:11.198868	1.21223325871698	-1.43227292625726	-1.39267822760609	-1.43142074244906	-2.60491148632306	-1.39267822760609	-1.21223325871698	-1.39267822760609	-1.43227292625726	-1.39267822760609	-2.60491148632306	1.39267822760609	-7.495839911522925	-5.724743698503783	-6.409526398442882	-10.490235129869347	-8.098401927449375	-6.409526398442882	-0.17175073123117301	-11.0018841187076	-3.506044207184662	-10.420718434078102	-1.7135516628685639	2	missed	0.0
328.8215729999356	7.057644800283015	nogo_reward	1.0	328.8468204000965	331.60569640016183	334.1242283000611	2.7588760000653565	329.85202760016546	333.1107606999576	335.13118530018255	1.753668799996376	1.0134676001034677	0.7732799001969397	n/a	1.0	n/a	1	0	110	4	nogo_reward	1	0	1	0	0	1	1	n/a	n/a	1	1.0	1.0	843.3799463999458	1172.2267668000422	1173.2319740001112	1174.9856428001076	1176.4907070999034	1177.5041747000068	n/a	n/a	1178.5111317001283	1179.2844116003253	2020-10-07 10:09:11.198868	20.9966514021346	0.0	24.4220440455175	24.4220440455175	3.42539264338293	24.4220440455175	-20.9966514021346	24.4220440455175	0.0	24.4220440455175	3.42539264338293	2.350918018415701	12.288578231894695	-4.2924707722465225	19.405195874680707	15.363229658097211	-2.0680977977433845	19.405195874680707	0.786489059578438	14.812838154415989	2.524259922521328	15.394003839045487	-0.2812787366113038	2	missed	0.0
335.92223939998075	6.588317300193012	go_reward	0.2884039999917149	335.94748680014163	337.7957574003376	340.3720045001246	1.8482706001959741	336.952244900167	339.35839680023514	341.3783419001845	0.8435125001706183	1.0136076998894623	1.1574622001501211	n/a	1.0	n/a	1	0	111	3	go_reward	1	1	0	1	1	1	0	n/a	n/a	1	0.2884039999917149	1.0	843.3799463999458	1179.3274332000874	1180.3321913001128	1181.1757038002834	1182.738343200181	1183.7519509000704	n/a	n/a	1184.7582883001303	1185.9157505002804	2020-10-07 10:09:11.198868	20.7071161613567	23.859075615768	6.53378549897174	23.8705783622841	27.2409016603284	6.53378549897174	-20.7071161613567	23.859075615768	6.53378549897174	27.2409016603284	6.53378549897174	2.9138864481652007	11.999042991116797	19.566604843521475	1.516937328134949	14.811763974863812	21.747411219202085	1.516937328134949	1.3494574893279376	17.63169576922689	5.632652778110138	14.831035409295987	6.2525067623604365	2	missed	0.0
342.5571900000796	5.820522099733353	go_punish	1.0	342.58243740024045	343.9038285999559	346.41852489998564	1.3213911997154355	343.58769580023363	345.4091940000653	347.42519310023613	0.3161327997222543	1.0093308999203146	0.9777663997376749	n/a	1.0	n/a	1	0	112	1	go_punish	0	-1	0	1	0	0	0	n/a	n/a	0	1.0	1.0	843.3799463999458	1185.9623838001862	1186.9676422001794	1187.2837749999017	1188.789140400011	1189.7984712999314	n/a	n/a	1190.805139500182	1191.7829058999196	2020-10-07 10:09:11.198868	-0.84760806062582	-0.243318453655225	-2.05555033104785	-0.372366672210669	-1.20794227042203	-2.05555033104785	0.84760806062582	-2.05555033104785	-0.243318453655225	-2.05555033104785	-1.20794227042203	2.05555033104785	-9.555681230865725	-4.535789225901747	-7.072398501884641	-9.431181059630957	-6.701432711548344	-7.072398501884641	0.4911213722105867	-11.66475622214936	-2.109074991283632	-11.08359053751986	-0.5245971902665288	2	missed	0.0
348.41749359993264	5.7448583003133535	nogo_punish	1.0	348.4427410000935	349.77416890021414	352.2878944003023	1.331427900120616	349.4480528002605	351.27906470000744	353.2943474003114	0.32611609995365143	1.008829700294882	0.8932519000954926	n/a	1.0	n/a	1	0	113	2	nogo_punish	1	-1	0	0	0	1	0	n/a	n/a	0	1.0	1.0	843.3799463999458	1191.8226874000393	1192.8279992002062	1193.15411530016	1194.6590110999532	1195.667840800248	n/a	n/a	1196.6742938002571	1197.5675457003526	2020-10-07 10:09:11.198868	1.48219973025585	-1.43227292625726	-1.05112038482449	-1.08338797494909	-2.53332011508034	-1.05112038482449	-1.48219973025585	-1.05112038482449	-1.43227292625726	-1.05112038482449	-2.53332011508034	1.05112038482449	-7.2258734399840545	-5.724743698503783	-6.067968555661281	-10.142202362369378	-8.026810556206655	-6.067968555661281	-0.513308574012773	-10.660326275926	-3.434452835941942	-10.079160591296501	-1.7135516628685639	2	missed	0.0
354.1983472998254	6.385958500206243	go_punish	0.172297999728471	354.2235946999863	355.57189920032374	358.1142758000642	1.3483045003374627	355.22946540033445	357.10475070029497	359.12060490017734	0.34243379998929413	1.0095250997692347	1.4889483000151813	n/a	1.0	n/a	1	0	114	1	go_punish	1	0	-1	1	1	1	1	n/a	n/a	0	0.172297999728471	1.0	843.3799463999458	1197.603541099932	1198.6094118002802	1198.9518456002695	1200.4846971002407	1201.49422220001	n/a	n/a	1202.500551300123	1203.9894996001383	2020-10-07 10:09:11.198868	0.365108519971341	-0.243318453655225	-1.56170894633742	-0.299341019684968	-1.19660042636608	-1.56170894633742	-0.365108519971341	-0.243318453655225	-1.56170894633742	-1.19660042636608	-1.56170894633742	0.243318453655225	-8.342964650268563	-4.535789225901747	-6.578557117174212	-9.358155407105256	-6.690090867492395	-6.578557117174212	-1.321110505182038	-10.80580631746759	-2.4628416671990223	-9.271358660127238	-1.842987682948724	2	missed	0.0
360.66886050021276	7.158446099608909	go_reward	0.3875036998651922	360.69410790037364	363.4627603003755	366.0071904002689	2.7686524000018835	361.698665200267	364.99253100017086	367.01413940032944	1.764095100108534	1.0146594000980258	0.838414599653106	n/a	1.0	n/a	1	0	115	3	go_reward	1	1	0	1	1	1	0	n/a	n/a	1	0.3875036998651922	1.0	843.3799463999458	1204.0740543003194	1205.0786116002128	1206.8427067003213	1208.3724774001166	1209.3871368002146	n/a	n/a	1210.3940858002752	1211.2325003999283	2020-10-07 10:09:11.198868	21.4139347701695	24.4658849208329	6.53378549897174	24.4759913187039	27.9477202691413	6.53378549897174	-21.4139347701695	24.4658849208329	6.53378549897174	27.9477202691413	6.53378549897174	2.307077143100301	12.705861599929596	20.173414148586374	1.516937328134949	15.417176931283613	22.454229828014984	1.516937328134949	0.7426481842630379	18.33851437803979	5.632652778110138	15.437844714360887	6.2525067623604365	2	missed	0.0
367.8690069001168	7.146008799783658	nogo_reward	1.0	367.8942543002777	370.1114909001626	372.6297404002398	2.2172365998849273	368.8982104002498	371.616490600165	373.636270200368	1.2132804999127984	1.0132498000748456	1.4039928996933213	n/a	1.0	n/a	1	0	116	4	nogo_reward	1	0	1	0	0	1	0	n/a	n/a	1	1.0	1.0	843.3799463999458	1211.2742007002234	1212.2781568001956	1213.4914373001084	1214.9964370001107	1216.0096868001856	n/a	n/a	1217.0162166003138	1218.420209500007	2020-10-07 10:09:11.198868	21.4260098895201	0.0	24.9469684228553	24.9469684228553	3.52095853333515	24.9469684228553	-21.4260098895201	24.9469684228553	0.0	24.9469684228553	3.52095853333515	1.8259936410779005	12.717936719280194	-4.2924707722465225	19.930120252018508	15.888154035435011	-1.9725319077911645	19.930120252018508	0.26156468224063745	15.33776253175379	2.619825812473548	15.918928216383287	-0.2812787366113038	2	missed	0.0
375.0519048999993	7.173267500009615	nogo_reward	1.0	375.07715230016015	377.5170265003105	380.03606000030413	2.4398742001503706	376.0821390002966	379.0224409000948	381.04231500020273	1.4348875000139287	1.0136191002093256	1.2081047999670318	n/a	1.0	n/a	1	0	117	4	nogo_reward	1	0	1	0	0	1	0	n/a	n/a	1	1.0	1.0	843.3799463999458	1218.457098700106	1219.4620854002424	1220.8969729002563	1222.4023873000406	1223.41600640025	n/a	n/a	1224.4222614001485	1225.6303662001155	2020-10-07 10:09:11.198868	21.7508179569175	0.0	25.3400939953609	25.3400939953609	3.58927603844345	25.3400939953609	-21.7508179569175	25.3400939953609	0.0	25.3400939953609	3.58927603844345	1.4328680685723008	13.042744786677597	-4.2924707722465225	20.323245824524108	16.28127960794061	-1.9042144026828645	20.323245824524108	-0.13156089026496232	15.730888104259389	2.688143317581848	16.31205378888889	-0.2812787366113038	2	missed	0.0
382.26855819998286	5.921127300244052	go_reward	0.3951151999644935	382.29380560014374	383.79906400013715	386.3444342003204	1.5052583999934086	383.29874370014295	385.33129480015486	387.3519924003631	0.5003202999942005	1.013139400165528	0.8629405000247061	n/a	1.0	n/a	1	0	118	3	go_reward	1	1	0	1	1	1	0	n/a	n/a	1	0.3951151999644935	1.0	843.3799463999458	1225.6737520000895	1226.6786901000887	1227.179010400083	1228.7112412001006	1229.7243806002662	n/a	n/a	1230.7319388003089	1231.5948793003336	2020-10-07 10:09:11.198868	21.9518512277576	24.9305507822485	6.53378549897174	24.9394474925067	28.4856367267294	6.53378549897174	-21.9518512277576	24.9305507822485	6.53378549897174	28.4856367267294	6.53378549897174	1.8424112816847007	13.243778057517696	20.63808001000198	1.516937328134949	15.880633105086414	22.992146285603084	1.516937328134949	0.2779823228474376	18.87643083562789	5.632652778110138	15.902510575776487	6.2525067623604365	2	missed	0.0
388.23551850020885	6.980494000017643	go_punish	0.2678718003444373	388.26076590036973	390.30723630031594	392.84916280023754	2.0464703999462017	389.2649992001243	391.8394570001403	393.8558761002496	1.0422371001916417	1.0097058000972083	1.385383800137788	n/a	1.0	n/a	1	0	119	1	go_punish	1	0	-1	1	1	1	0	n/a	n/a	0	0.2678718003444373	1.0	843.3799463999458	1231.6407123003155	1232.64494560007	1233.6871827002617	1235.219403400086	1236.2291092001833	n/a	n/a	1237.2358225001954	1238.6212063003331	2020-10-07 10:09:11.198868	0.423647086294616	-0.193305429089762	-1.56170894633742	-0.242291593720851	-1.13806186004281	-1.56170894633742	-0.423647086294616	-0.193305429089762	-1.56170894633742	-1.13806186004281	-1.56170894633742	0.193305429089762	-8.284426083945288	-4.485776201336284	-6.578557117174212	-9.30110598114114	-6.631552301169124	-6.578557117174212	-1.371123529747501	-10.74726775114432	-2.4628416671990223	-9.221345635561773	-1.842987682948724	2	missed	0.0
395.26446950016543	6.092287499923032	go_reward	0.5412387000396848	395.2897169003263	397.0749715003187	399.61882800003514	1.7852545999924132	396.2943216999993	398.60488870041445	400.62499450007454	0.780649800319452	1.013939299620688	0.7570099001748076	n/a	1.0	n/a	1	0	120	3	go_reward	1	1	0	1	1	1	1	n/a	n/a	1	0.5412387000396848	1.0	843.3799463999458	1238.669663300272	1239.674268099945	1240.4549179002645	1241.9848351003602	1242.998774399981	n/a	n/a	1244.0049409000203	1244.761950800195	2020-10-07 10:09:11.198868	22.3651979974867	25.2897066936972	6.53378549897174	25.2975529662483	28.8989834964584	6.53378549897174	-22.3651979974867	25.2897066936972	6.53378549897174	28.8989834964584	6.53378549897174	1.483255370235998	13.657124827246795	20.99723592145068	1.516937328134949	16.238738578828013	23.405493055332084	1.516937328134949	-0.081173588601265	19.28977760535689	5.632652778110138	16.26166648722519	6.2525067623604365	2	missed	0.0
