onset	duration	trial_type	response_time	cueOnset	targetOnset	fbOnset	cueRT	firstfixOnset	secondfixOnset	waitOnset	firstfixdur	secondfixdur	waitdur	nback_fbOnset	nback_response_time	nback_targetOnset	block	wm	trial	cue	cond	is_common	outcome_go	outcome_nogo	key_correct	key_pressed	is_correct	key_correct_nback	key_pressed_nback	is_correct_nback	outcome	rt	rt_nback	time_scan	time_onset	time_isi1	time_circle	time_isi2	time_feedback	time_same	time_correct	time_iti	time_done	timestamp_scan	DV	Qgo	Qnogo	SV	Wgo	Wnogo	mDV	Qchosen	Qunchosen	Wchosen	Wunchosen	PE	DVC	QgoC	QnogoC	SVC	WgoC	WnogoC	PEC	WchosenC	WunchosenC	QchosenC	QunchosenC	run	outcome_nback	nback_targetResp
0.0	6.408904700001585	go_reward	0.3172437000030186	0.02803800000447154	1.8890012000051684	4.425618199995824	1.8609632000006968	1.0350769000074251	3.409432500004641	5.434351400007017	0.8539242999977432	1.0161856999911834	1.0025912999990396	n/a	1.0	n/a	2	0	61	2	go_reward	1	1	0	1	1	1	1	n/a	n/a	1	0.3172437000030186	1.0	2208.800803000005	2208.8288410000096	2209.8358799000125	2210.6898042000103	2212.2102355000097	2213.226421200001	n/a	n/a	2214.235154400012	2215.237745700011	2020-11-13 10:44:36.421517	17.5896955762392	17.4519426975823	0.0	17.4519426975823	17.5896955762392	0.0	-17.5896955762392	17.4519426975823	0.0	17.5896955762392	0.0	17.2923608478001	4.797634168852584	12.415430139683739	-5.05476077654234	6.246446406792524	15.351038230565782	-5.05476077654234	16.306326886277976	7.546955811438011	2.7493216425854285	6.137858627594623	1.2228107355467719	4	missed	0.0
6.4551841999928	5.772283199999947	nogo_punish	1.0	6.483222199997272	7.756465800005117	10.276241200001095	1.273243600007845	7.477018499994756	9.270070400002624	11.293322600002739	0.2794473000103608	1.006170799998472	0.9621827999944799	n/a	1.0	n/a	2	0	62	3	nogo_punish	1	-1	0	0	0	1	1	n/a	n/a	0	1.0	1.0	2208.800803000005	2215.2840252000024	2216.2778215	2216.55726880001	2218.0708734000077	2219.077044200006	n/a	n/a	2220.094125600008	2221.0563084000023	2020-11-13 10:44:36.421517	-1.30612185804637	0.0	-2.77141117202046	-2.77141117202046	-1.46528931397409	-2.77141117202046	1.30612185804637	-2.77141117202046	0.0	-2.77141117202046	-1.46528931397409	2.77141117202046	-14.098183265432986	-5.03651255789856	-7.8261719485628	-13.976907462810237	-3.7039466596475084	-7.8261719485628	1.7853772104983368	-12.814150936821651	1.2840323286113386	-14.085495242008138	1.2228107355467719	4	missed	0.0
12.27157029999944	7.5122677000035765	go_reward	0.2839992000081111	12.29960830000391	15.01423929999919	17.527497000003223	2.714630999995279	13.293854400006694	16.520454099998915	18.538448699997844	1.7203848999924958	1.0070429000043077	1.2734273000096437	n/a	1.0	n/a	2	0	63	2	go_reward	0	0	1	1	1	1	1	n/a	n/a	0	0.2839992000081111	1.0	2208.800803000005	2221.100411300009	2222.094657400012	2223.8150423000043	2225.321257100004	2226.3283000000083	n/a	n/a	2227.339251700003	2228.6126790000126	2020-11-13 10:44:36.421517	26.9821351050882	26.1875028517781	0.0	26.1875028517781	26.9821351050882	0.0	-26.9821351050882	26.1875028517781	0.0	26.9821351050882	0.0	-26.1875028517781	14.190073697701584	21.150990293879538	-5.05476077654234	14.982006560988323	24.74347775941478	-5.05476077654234	-27.173536813300224	16.93939534028701	2.7493216425854285	14.873418781790422	1.2228107355467719	4	missed	0.0
19.814897599993856	6.728585700009717	nogo_reward	1.0	19.842935599998327	21.553177099995537	24.079186300005404	1.7102414999972098	20.837223800001084	23.067079400003877	25.090220500002943	0.7159532999944531	1.0121069000015268	1.4813008000051013	n/a	1.0	n/a	2	0	64	1	nogo_reward	1	0	1	0	0	1	0	n/a	n/a	1	1.0	1.0	2208.800803000005	2228.6437386000034	2229.638026800006	2230.3539801000006	2231.867882400009	2232.8799893000105	n/a	n/a	2233.891023500008	2235.372324300013	2020-11-13 10:44:36.421517	29.4118601113319	0.0	30.5484671308463	30.5484671308463	1.13660701951439	30.5484671308463	-29.4118601113319	30.5484671308463	0.0	30.5484671308463	1.13660701951439	4.1958364145361	16.619798703945285	-5.03651255789856	25.49370635430396	19.342970840056523	-1.1020503261590286	25.49370635430396	3.2098024530139764	20.50572736604511	3.8859286620998184	19.234383060858626	1.2228107355467719	4	missed	0.0
26.588336400003755	7.201835699990625	nogo_punish	1.0	26.616374400008226	29.387310899998283	31.91320019999739	2.770936499990057	27.623478900001373	30.90031799999997	32.92847470000606	1.7638319999969099	1.0128821999974207	0.8897353999927873	n/a	1.0	n/a	2	0	65	3	nogo_punish	1	-1	0	0	0	1	0	n/a	n/a	0	1.0	1.0	2208.800803000005	2235.4171774000133	2236.4242819000065	2238.1881139000034	2239.701121000005	2240.7140032000025	n/a	n/a	2241.729277700011	2242.619013100004	2020-11-13 10:44:36.421517	-0.0753100632545497	0.0	-1.41211583091864	-1.41211583091864	-1.33680576766409	-1.41211583091864	0.0753100632545497	-1.41211583091864	0.0	-1.41211583091864	-1.33680576766409	1.41211583091864	-12.867371470641167	-5.03651255789856	-6.466876607460979	-12.617612121708417	-3.5754631133375088	-6.466876607460979	0.4260818693965165	-11.454855595719831	1.4125158749213385	-12.726199900906318	1.2228107355467719	4	missed	0.0
33.83404940000037	7.271181499992963	go_reward	0.2564342999976361	33.86208740000484	36.15291180000395	38.68120239999598	2.29082439999911	34.8701326000014	37.672813500001666	39.69229459999815	1.282779200002551	1.0083888999943156	1.4409742999996524	n/a	1.0	n/a	2	0	66	2	go_reward	0	0	1	1	1	1	0	n/a	n/a	0	0.2564342999976361	1.0	2208.800803000005	2242.66289040001	2243.6709356000065	2244.953714800009	2246.4736165000068	2247.482005400001	n/a	n/a	2248.4930976000032	2249.934071900003	2020-11-13 10:44:36.421517	13.1545482405357	13.3368896252567	0.0	13.3368896252567	13.1545482405357	0.0	-13.1545482405357	13.3368896252567	0.0	13.1545482405357	0.0	-13.3368896252567	0.3624868331490827	8.300377067358141	-5.05476077654234	2.1313933344669245	10.915890894862281	-5.05476077654234	-14.322923586778824	3.1118084757345095	2.7493216425854285	2.0228055552690236	1.2228107355467719	4	missed	0.0
41.15344749999349	7.523808400001144	nogo_punish	1.0	41.18148549999796	44.023768800005655	46.531899399997656	2.8422833000076935	42.19121590000668	45.52098899999737	47.53948930000524	1.8325528999989729	1.0109104000002844	1.1658045999938622	n/a	1.0	n/a	2	0	67	3	nogo_punish	0	0	-1	0	0	1	1	n/a	n/a	-1	1.0	1.0	2208.800803000005	2249.982288500003	2250.9920189000118	2252.8245718000107	2254.3217920000025	2255.3327024000027	n/a	n/a	2256.3402923000103	2257.506096900004	2020-11-13 10:44:36.421517	0.53147926867735	0.0	-0.74078893360734	-0.74078893360734	-1.27226820228469	-0.74078893360734	-0.53147926867735	-0.74078893360734	0.0	-0.74078893360734	-1.27226820228469	-5.1014897320878	-12.260582138709267	-5.03651255789856	-5.79554971014968	-11.946285224397116	-3.5109255479581085	-5.79554971014968	-6.087523693609923	-10.78352869840853	1.4770534403007385	-12.054873003595016	1.2228107355467719	4	missed	0.0
48.70525440000347	6.303621299986844	go_punish	0.2919651999982307	48.73329240000794	50.583348300002854	53.12331300000369	1.8500558999949135	49.73444889999564	52.10177059999887	54.135910199999216	0.8488994000072125	1.0215424000048188	0.9010034999955678	n/a	1.0	n/a	2	0	68	4	go_punish	1	0	-1	1	1	1	0	n/a	n/a	0	0.2919651999982307	1.0	2208.800803000005	2257.534095400013	2258.5352519000007	2259.384151300008	2260.902573600004	2261.924116000009	n/a	n/a	2262.9367132000043	2263.8377167	2020-11-13 10:44:36.421517	3.62355866632368	-0.0271261797740165	-4.92431593654644	-0.757526098164016	-1.30075727022276	-4.92431593654644	-3.62355866632368	-0.0271261797740165	-4.92431593654644	-1.30075727022276	-4.92431593654644	0.0271261797740165	-9.168502741062937	-5.063638737672576	-9.97907671308878	-11.963022388953792	-3.539414615896179	-9.97907671308878	-0.9589077817481069	-11.343497035023951	-2.174994293961012	-11.341210249761694	-3.7015052009996685	4	missed	0.0
55.05437689999235	6.02094919999945	nogo_punish	1.0	55.08241489999682	56.5466886000072	59.06721910000533	1.4642737000103807	56.09087860000773	58.056327900005726	60.06109800000604	0.4558099999994738	1.0108911999996053	1.0422660999902291	n/a	1.0	n/a	2	0	69	3	nogo_punish	1	-1	0	0	0	1	1	n/a	n/a	0	1.0	1.0	2208.800803000005	2263.883217900002	2264.891681600013	2265.3474916000123	2266.857130900011	2267.8680221000104	n/a	n/a	2268.861901000011	2269.9041671000014	2020-11-13 10:44:36.421517	-1.66673847940343	0.0	-3.17018484329838	-3.17018484329838	-1.50344636389496	-3.17018484329838	1.66673847940343	-3.17018484329838	0.0	-3.17018484329838	-1.50344636389496	3.17018484329838	-14.458799886790047	-5.03651255789856	-8.22494561984072	-14.375681134088156	-3.7421037095683785	-8.22494561984072	2.1841508817762563	-13.21292460809957	1.2458752786904685	-14.484268913286057	1.2228107355467719	4	missed	0.0
61.104426899997634	6.865270199996303	go_punish	0.3316357000003336	61.132464900002105	63.09767230000671	65.65044199999875	1.9652074000046014	62.137979699997686	64.62980360000847	66.65275740000698	0.9596926000090207	1.0206383999902755	1.344977699991432	n/a	1.0	n/a	2	0	70	4	go_punish	0	-1	0	1	1	1	1	n/a	n/a	-1	0.3316357000003336	1.0	2208.800803000005	2269.933267900007	2270.938782700003	2271.898475300012	2273.4306066000136	2274.451245000004	n/a	n/a	2275.453560400012	2276.7985381000035	2020-11-13 10:44:36.421517	3.66793587309704	-0.0164409369597155	-4.92431593654644	-0.409080370577444	-1.2563800634494	-4.92431593654644	-3.66793587309704	-0.0164409369597155	-4.92431593654644	-1.2563800634494	-4.92431593654644	-5.825837728735425	-9.124125534289577	-5.052953494858276	-9.97907671308878	-11.61457666136722	-3.4950374091228187	-9.97907671308878	-6.811871690257548	-11.299119828250591	-2.174994293961012	-11.330525006947394	-3.7015052009996685	4	missed	0.0
68.01386510000157	6.880390399994212	go_reward	0.2366944000095827	68.04190310000604	69.96861369999579	72.51011440000775	1.9267105999897467	69.04793679999511	71.48447740000893	73.52559540000311	0.9206769000006716	1.0256369999988237	1.3966980999971383	n/a	1.0	n/a	2	0	71	2	go_reward	1	1	0	1	1	1	0	n/a	n/a	1	0.2366944000095827	1.0	2208.800803000005	2276.842706100011	2277.8487398	2278.769416700001	2280.285280400014	2281.310917400013	n/a	n/a	2282.326398400008	2283.7230965000053	2020-11-13 10:44:36.421517	6.33697975773921	7.00745205113228	0.0	7.00745205113228	6.33697975773921	0.0	-6.33697975773921	7.00745205113228	0.0	6.33697975773921	0.0	27.73685149425012	-6.455081649647407	1.97093949323372	-5.05476077654234	-4.198044239657496	4.098322412065792	-5.05476077654234	26.750817532727996	-3.70576000706198	2.7493216425854285	-4.306632018855397	1.2228107355467719	4	missed	0.0
74.92483930000162	7.671454600000288	nogo_reward	1.0	74.9528773000061	77.7235005999978	80.25193100000706	2.770623299991712	75.96161329999495	79.24081499999784	81.26929070000233	1.7618873000028543	1.011116000009224	1.3550412000040524	n/a	1.0	n/a	2	0	72	1	nogo_reward	1	0	1	0	0	1	0	n/a	n/a	1	1.0	1.0	2208.800803000005	2283.753680300011	2284.7624163	2286.524303600003	2288.041618000003	2289.052734000012	n/a	n/a	2290.0700937000074	2291.4251349000115	2020-11-13 10:44:36.421517	31.1642802639393	0.0	32.4481757660453	32.4481757660453	1.28389550210596	32.4481757660453	-31.1642802639393	32.4481757660453	0.0	32.4481757660453	1.28389550210596	2.296127779337098	18.372218856552685	-5.03651255789856	27.393414989502965	21.242679475255528	-0.9547618435674587	27.393414989502965	1.3100938178149748	22.405436001244112	4.033217144691388	21.134091696057624	1.2228107355467719	4	missed	0.0
82.63017499999842	6.4284484999957385	nogo_reward	1.0	82.65821300000289	84.69841250000263	87.21970349999992	2.040199499999744	83.66931050000176	86.20530400000325	88.21987050000507	1.0291020000008757	1.0143994999966708	0.8667909999935546	n/a	1.0	n/a	2	0	73	1	nogo_reward	0	1	0	0	0	1	0	n/a	n/a	0	1.0	1.0	2208.800803000005	2291.459016000008	2292.470113500007	2293.4992155000077	2295.0061070000083	2296.020506500005	n/a	n/a	2297.02067350001	2297.8874645000037	2020-11-13 10:44:36.421517	32.0982806372596	0.0	33.4596447737722	33.4596447737722	1.36136413651259	33.4596447737722	-32.0982806372596	33.4596447737722	0.0	33.4596447737722	1.36136413651259	-33.4596447737722	19.30621922987298	-5.03651255789856	28.40488399722986	22.254148482982423	-0.8772932091608288	28.40488399722986	-34.44567873529432	23.416905008971007	4.110685779098018	22.14556070378452	1.2228107355467719	4	missed	0.0
89.0895994000025	6.480867199991735	nogo_reward	1.0	89.11763740000697	91.15889989999505	93.68046590000495	2.041262499988079	90.11025579999887	92.67002750000393	94.68171659999689	1.0486440999961815	1.0104384000010214	0.9167880000018158	n/a	1.0	n/a	2	0	74	1	nogo_reward	0	1	0	0	0	1	1	n/a	n/a	0	1.0	1.0	2208.800803000005	2297.918440400012	2298.911058800004	2299.9597029	2301.470830500009	2302.48126890001	n/a	n/a	2303.482519600002	2304.399307600004	2020-11-13 10:44:36.421517	16.8760022574036	0.0	16.979893477977	16.979893477977	0.103891220573398	16.979893477977	-16.8760022574036	16.979893477977	0.0	16.979893477977	0.103891220573398	-16.979893477977	4.083940850016981	-5.03651255789856	11.925132701434661	5.774397187187224	-2.1347661251000205	11.925132701434661	-17.965927439499126	6.93715371317581	2.8532128631588267	5.6658094079893235	1.2228107355467719	4	missed	0.0
95.60079319999204	5.804904000004171	nogo_reward	1.0	95.62883119999651	96.97594099999742	99.51232569999502	1.3471098000009079	96.6307008000008	98.49017570000478	100.52496550000797	0.34524019999662414	1.0221499999902335	0.9087696999927175	n/a	1.0	n/a	2	0	75	1	nogo_reward	1	0	1	0	0	1	1	n/a	n/a	1	1.0	1.0	2208.800803000005	2304.4296342000016	2305.431503800006	2305.7767440000025	2307.29097870001	2308.3131287	n/a	n/a	2309.325768500013	2310.2345382000058	2020-11-13 10:44:36.421517	9.40812338057667	0.0	8.88504350066024	8.88504350066024	-0.523079879916425	8.88504350066024	-9.40812338057667	8.88504350066024	0.0	8.88504350066024	-0.523079879916425	25.859260044722163	-3.383938026809947	-5.03651255789856	3.8302827241179003	-2.3204527901295364	-2.761737225589844	3.8302827241179003	24.873226083200038	-1.1576962641409505	2.2262417626690034	-2.4290405693274373	1.2228107355467719	4	missed	0.0
101.45127439999487	7.182500900001742	nogo_punish	1.0	101.47931239999934	103.90976229999842	106.444878099996	2.4304498999990756	102.48912060000339	105.42600490000086	107.4455821000015	1.4206416999950306	1.0188731999951415	1.2162311999995836	n/a	1.0	n/a	2	0	76	3	nogo_punish	0	0	-1	0	0	1	0	n/a	n/a	-1	1.0	1.0	2208.800803000005	2310.2801154000044	2311.2899236000085	2312.7105653000035	2314.226807900006	2315.245681100001	n/a	n/a	2316.2463851000066	2317.462616300006	2020-11-13 10:44:36.421517	-0.274197914091927	0.0	-1.63179890105013	-1.63179890105013	-1.3576009869582	-1.63179890105013	0.274197914091927	-1.63179890105013	0.0	-1.63179890105013	-1.3576009869582	-4.21047976464501	-13.066259321478544	-5.03651255789856	-6.68655967759247	-12.837295191839907	-3.596258332631619	-6.68655967759247	-5.196513726167133	-11.67453866585132	1.3917206556272286	-12.945882971037808	1.2228107355467719	4	missed	0.0
108.67902870000353	6.815314699997998	nogo_punish	1.0	108.707066700008	111.05728280000085	113.5778862000011	2.350216099992849	109.71092860000545	112.56103060000214	114.59082520000857	1.3463541999954032	1.0168555999989621	0.9315561999974307	n/a	1.0	n/a	2	0	77	3	nogo_punish	1	-1	0	0	0	1	0	n/a	n/a	0	1.0	1.0	2208.800803000005	2317.507869700013	2318.5117316000105	2319.858085800006	2321.3618336000072	2322.378689200006	n/a	n/a	2323.3916282000137	2324.323184400011	2020-11-13 10:44:36.421517	-2.08767765197666	0.0	-3.63577947974253	-3.63577947974253	-1.54810182776586	-3.63577947974253	2.08767765197666	-3.63577947974253	0.0	-3.63577947974253	-1.54810182776586	3.63577947974253	-14.879739059363278	-5.03651255789856	-8.69054025628487	-14.841275770532306	-3.786759173439279	-8.69054025628487	2.6497455182204064	-13.67851924454372	1.2012198148195685	-14.949863549730207	1.2228107355467719	4	missed	0.0
115.53869180000038	7.807667799992487	go_reward	0.2827442999987397	115.56672980000485	118.52758480000239	121.054027399995	2.9608549999975367	116.5616065000072	120.04254959999571	122.06313589999672	1.9659782999951858	1.0114777999992839	1.311261700000614	n/a	1.0	n/a	2	0	78	2	go_reward	1	1	0	1	1	1	0	n/a	n/a	1	0.2827442999987397	1.0	2208.800803000005	2324.36753280001	2325.3624095000123	2327.3283878000075	2328.843352600001	2329.8548304	n/a	n/a	2330.863938900002	2332.1752006000024	2020-11-13 10:44:36.421517	21.1942058122681	20.8149575284605	0.0	20.8149575284605	21.1942058122681	0.0	-21.1942058122681	20.8149575284605	0.0	21.1942058122681	0.0	13.929346016921901	8.402144404881481	15.778444970561939	-5.05476077654234	9.609461237670724	18.955548466594678	-5.05476077654234	12.943312055399778	11.151466047466908	2.7493216425854285	9.500873458472823	1.2228107355467719	4	missed	0.0
123.39212259999476	5.9528610999986995	nogo_punish	1.0	123.42016059999924	124.95598420000215	127.48667880000767	1.5358236000029137	124.42717650000168	126.4716225000011	128.4971095000078	0.5288077000004705	1.015056300006563	0.8759121999901254	n/a	1.0	n/a	2	0	79	3	nogo_punish	1	-1	0	0	0	1	1	n/a	n/a	0	1.0	1.0	2208.800803000005	2332.2209636000043	2333.2279795000068	2333.7567872000072	2335.272425500006	2336.2874818000128	n/a	n/a	2337.297912500013	2338.173824700003	2020-11-13 10:44:36.421517	-0.500301259132855	0.0	-1.88174557773184	-1.88174557773184	-1.38144431859899	-1.88174557773184	0.500301259132855	-1.88174557773184	0.0	-1.88174557773184	-1.38144431859899	1.88174557773184	-13.292362666519471	-5.03651255789856	-6.936506354274179	-13.087241868521616	-3.6201016642724086	-6.936506354274179	0.8957116162097165	-11.92448534253303	1.3678773239864386	-13.195829647719517	1.2228107355467719	4	missed	0.0
129.37689549999823	5.894147700004396	nogo_reward	1.0	129.4049335000027	130.90847969999595	133.44349400000692	1.5035461999932522	130.40981939999665	132.42502160000777	134.45091189999994	0.49866029999930106	1.0184723999991547	0.8481693000071573	n/a	1.0	n/a	2	0	80	1	nogo_reward	1	0	1	0	0	1	0	n/a	n/a	1	1.0	1.0	2208.800803000005	2338.205736500008	2339.2106224000017	2339.709282700001	2341.225824600013	2342.244297000012	n/a	n/a	2343.251714900005	2344.099884200012	2020-11-13 10:44:36.421517	21.3508565287315	0.0	21.8073806411618	21.8073806411618	0.456524112430308	21.8073806411618	-21.3508565287315	21.8073806411618	0.0	21.8073806411618	0.456524112430308	12.936922904220602	8.558795121344884	-5.03651255789856	16.75261986461946	10.601884350372023	-1.7821332332431106	16.75261986461946	11.950888942698478	11.764640876360609	3.2058457550157367	10.493296571174122	1.2228107355467719	4	missed	0.0
135.31499410000106	6.665414099989448	nogo_punish	1.0	135.34303210000553	137.24279689999912	139.76263680000602	1.8997647999935907	136.35272160000795	138.75710570000274	140.764721	0.8900752999911674	1.0055311000032816	1.2437251999949694	n/a	1.0	n/a	2	0	81	3	nogo_punish	1	-1	0	0	0	1	1	n/a	n/a	0	1.0	1.0	2208.800803000005	2344.1438351000106	2345.153524600013	2346.043599900004	2347.557908700008	2348.563439800011	n/a	n/a	2349.565524000005	2350.8092492	2020-11-13 10:44:36.421517	0.294943012079817	0.0	-1.00181642927432	-1.00181642927432	-1.29675944135414	-1.00181642927432	-0.294943012079817	-1.00181642927432	0.0	-1.00181642927432	-1.29675944135414	1.00181642927432	-12.497118395306801	-5.03651255789856	-6.05657720581666	-12.207312720064095	-3.5354167870275583	-6.05657720581666	0.015782467752196494	-11.044556194075511	1.4525622012312887	-12.315900499261996	1.2228107355467719	4	missed	0.0
142.0115814000019	6.246082099998603	nogo_reward	1.0	142.03961940000636	143.37108290000515	145.88438669999596	1.3314634999987902	143.04388850000396	144.87247960000286	146.88942730000463	0.32719440000118993	1.0119070999930955	1.3962742000003345	n/a	1.0	n/a	2	0	82	1	nogo_reward	1	0	1	0	0	1	1	n/a	n/a	1	1.0	1.0	2208.800803000005	2350.8404224000114	2351.844691500009	2352.1718859000102	2353.673282600008	2354.685189700001	n/a	n/a	2355.6902303000097	2357.08650450001	2020-11-13 10:44:36.421517	27.122743884353	0.0	28.0629603062482	28.0629603062482	0.940216421895201	28.0629603062482	-27.122743884353	28.0629603062482	0.0	28.0629603062482	0.940216421895201	6.6813432391342005	14.330682476966382	-5.03651255789856	23.008199529705863	16.857464015458426	-1.2984409237782177	23.008199529705863	5.695309277612077	18.02022054144701	3.6895380644806295	16.74887623626052	1.2228107355467719	4	missed	0.0
148.2849841999996	5.983025299995916	go_punish	0.6467779000086011	148.31302220000407	149.75949199999786	152.2885123000019	1.4464697999937925	149.32234220000146	151.28208580000546	153.30413499999895	0.4371497999964049	1.0064264999964507	0.9919125000010354	n/a	1.0	n/a	2	0	83	4	go_punish	1	0	-1	1	1	1	0	n/a	n/a	0	0.6467779000086011	1.0	2208.800803000005	2357.113825200009	2358.1231452000065	2358.560295000003	2360.0828888000106	2361.089315300007	n/a	n/a	2362.104938000004	2363.096850500005	2020-11-13 10:44:36.421517	0.65623699659099	-2.78151689798412	-4.92431593654644	-2.99752547437617	-4.26807893995545	-4.92431593654644	-0.65623699659099	-2.78151689798412	-4.92431593654644	-4.26807893995545	-4.92431593654644	2.78151689798412	-12.135824410795628	-7.81802945588268	-9.97907671308878	-14.203021765165946	-6.506736285628869	-9.97907671308878	1.7954829364619964	-14.310818704756642	-2.174994293961012	-14.095600967971798	-3.7015052009996685	4	missed	0.0
154.31442690000404	7.36015999999654	go_reward	0.2931896999944001	154.3424649000085	156.91910650000546	159.44643369999585	2.5766415999969468	155.34762109999474	158.42977440000732	160.46007000000145	1.5714854000107152	1.0166592999885324	1.2425549000035971	n/a	1.0	n/a	2	0	84	2	go_reward	0	0	1	1	1	1	0	n/a	n/a	0	0.2931896999944001	1.0	2208.800803000005	2363.1432679000136	2364.1484241	2365.7199095000105	2367.2305774000124	2368.247236700001	n/a	n/a	2369.2608730000065	2370.50342790001	2020-11-13 10:44:36.421517	28.4254014545565	27.5263843748181	0.0	27.5263843748181	28.4254014545565	0.0	-28.4254014545565	27.5263843748181	0.0	28.4254014545565	0.0	-27.5263843748181	15.633340047169883	22.48987181691954	-5.05476077654234	16.320888084028326	26.186744108883083	-5.05476077654234	-28.512418336340225	18.38266168975531	2.7493216425854285	16.21230030483042	1.2228107355467719	4	missed	0.0
161.70646119999583	7.336127400005353	nogo_reward	1.0	161.7344992000003	164.06854779999503	166.5911113000043	2.3340485999947305	162.74031350000632	165.58583949999593	167.60523810000495	1.3282342999887078	1.0052718000083587	1.4653885000006994	n/a	1.0	n/a	2	0	85	1	nogo_reward	0	1	0	0	0	1	0	n/a	n/a	0	1.0	1.0	2208.800803000005	2370.5353022000054	2371.5411165000114	2372.8693508	2374.386642500001	2375.3919143000094	n/a	n/a	2376.40604110001	2377.8714296000107	2020-11-13 10:44:36.421517	30.0115282995387	0.0	31.1958146415241	31.1958146415241	1.18428634198543	31.1958146415241	-30.0115282995387	31.1958146415241	0.0	31.1958146415241	1.18428634198543	-31.1958146415241	17.219466892152084	-5.03651255789856	26.141053864981764	19.990318350734327	-1.0543710036879888	26.141053864981764	-32.18184860304623	21.15307487672291	3.9336079845708585	19.881730571536423	1.2228107355467719	4	missed	0.0
169.07567269999663	7.005241799998203	nogo_reward	1.0	169.1037107000011	171.2914573000021	173.8192750000021	2.1877466000009917	170.11931470000172	172.8086317999987	174.82807499999808	1.1721426000003703	1.0106432000034147	1.2808775000012247	n/a	1.0	n/a	2	0	86	1	nogo_reward	1	0	1	0	0	1	0	n/a	n/a	1	1.0	1.0	2208.800803000005	2377.904513700006	2378.920117700007	2380.092260300007	2381.609434800004	2382.620078000007	n/a	n/a	2383.628878000003	2384.9097555000044	2020-11-13 10:44:36.421517	15.7700856045554	0.0	15.7810832460879	15.7810832460879	0.0109976415325202	15.7810832460879	-15.7700856045554	15.7810832460879	0.0	15.7810832460879	0.0109976415325202	18.963220299294502	2.978024197168782	-5.03651255789856	10.72632246954556	4.575586955298123	-2.2276597041408985	10.72632246954556	17.977186337772377	5.738343481286709	2.7603192841179487	4.466999176100222	1.2228107355467719	4	missed	0.0
176.1271076999983	6.280813899997156	nogo_punish	1.0	176.15514570000278	177.9538722000002	180.4790472000027	1.7987264999974286	177.15282570000318	179.45795630000111	181.4725842000048	0.8010464999970281	1.0210909000015818	0.9633753999951296	n/a	1.0	n/a	2	0	87	3	nogo_punish	1	-1	0	0	0	1	0	n/a	n/a	0	1.0	1.0	2208.800803000005	2384.955948700008	2385.9536287000083	2386.7546752000053	2388.258759300006	2389.279850200008	n/a	n/a	2390.27338720001	2391.236762600005	2020-11-13 10:44:36.421517	0.705919784629394	0.0	-0.546871335694528	-0.546871335694528	-1.25279112032392	-0.546871335694528	-0.705919784629394	-0.546871335694528	0.0	-0.546871335694528	-1.25279112032392	0.546871335694528	-12.086141622757223	-5.03651255789856	-5.601632112236867	-11.752367626484304	-3.4914484659973386	-5.601632112236867	-0.43916262582759547	-10.589611100495718	1.4965305222615086	-11.860955405682205	1.2228107355467719	4	missed	0.0
182.43948499999533	7.3011138000001665	nogo_reward	1.0	182.4675229999998	185.18561950000048	187.70633190000126	2.7180965000006836	183.47469600000522	186.68947520000847	188.71495419999746	1.7109234999952605	1.0168566999927862	1.053682600002503	n/a	1.0	n/a	2	0	88	1	nogo_reward	1	0	1	0	0	1	1	n/a	n/a	1	1.0	1.0	2208.800803000005	2391.268326000005	2392.2754990000103	2393.9864225000056	2395.4902782000136	2396.5071349000063	n/a	n/a	2397.5157572000026	2398.569439800005	2020-11-13 10:44:36.421517	24.540245796676	0.0	25.2665107644269	25.2665107644269	0.726264967750977	25.2665107644269	-24.540245796676	25.2665107644269	0.0	25.2665107644269	0.726264967750977	9.4777927809555	11.748184389289383	-5.03651255789856	20.21174998788456	14.061014473637124	-1.5123923779224415	20.21174998788456	8.491758819433377	15.22377099962571	3.4755866103364057	13.952426694439223	1.2228107355467719	4	missed	0.0
189.78577180000138	6.6262947999930475	go_reward	0.3154485999984899	189.81380980000586	191.47771809999585	194.02864240000827	1.6639082999899983	190.81944310000154	193.02016090000734	195.02694240000028	0.6582749999943189	1.0084815000009257	1.4131621999986237	n/a	1.0	n/a	2	0	89	2	go_reward	0	0	1	1	1	1	0	n/a	n/a	0	0.3154485999984899	1.0	2208.800803000005	2398.614612800011	2399.6202461000066	2400.278521100001	2401.8209639000124	2402.8294454000134	n/a	n/a	2403.8277454000054	2405.240907600004	2020-11-13 10:44:36.421517	13.7317537613115	13.8686749374057	0.0	13.8686749374057	13.7317537613115	0.0	-13.7317537613115	13.8686749374057	0.0	13.7317537613115	0.0	-13.8686749374057	0.9396923539248832	8.832162379507139	-5.05476077654234	2.6631786466159237	11.493096415638082	-5.05476077654234	-14.854708898927823	3.68901399651031	2.7493216425854285	2.554590867418023	1.2228107355467719	4	missed	0.0
196.45632379999734	6.461469899993972	go_reward	0.3815806999919005	196.4843618000018	198.1628654999954	200.69154339999704	1.6785036999935983	197.47992369999747	199.68296600000804	201.7012022999993	0.6829417999979341	1.008577399989008	1.2446293999964837	n/a	1.0	n/a	2	0	90	2	go_reward	1	1	0	1	1	1	0	n/a	n/a	1	0.3815806999919005	1.0	2208.800803000005	2405.285164800007	2406.2807267000026	2406.9636685000005	2408.483769000013	2409.492346400002	n/a	n/a	2410.5020053000044	2411.746634700001	2020-11-13 10:44:36.421517	6.56210647303442	7.21282452112621	0.0	7.21282452112621	6.56210647303442	0.0	-6.56210647303442	7.21282452112621	0.0	6.56210647303442	0.0	27.531479024256193	-6.229954934352198	2.1763119632276497	-5.05476077654234	-3.9926717696635663	4.323449127361001	-5.05476077654234	26.545445062734068	-3.480633291766771	2.7493216425854285	-4.101259548861467	1.2228107355467719	4	missed	0.0
202.94742319999204	6.768790900008753	go_punish	0.3167763999954331	202.97546119999652	205.44249440000613	207.97667620000766	2.4670332000096096	203.98193920000676	206.96676809999963	208.98642719999862	1.4605551999993622	1.0099081000080332	0.7578249000066535	n/a	1.0	n/a	2	0	91	4	go_punish	1	0	-1	1	1	1	0	n/a	n/a	0	0.3167763999954331	1.0	2208.800803000005	2411.7762642000016	2412.782742200012	2414.243297400011	2415.7675711000047	2416.7774792000127	n/a	n/a	2417.7872302000037	2418.5450551000104	2020-11-13 10:44:36.421517	2.15729299321348	-1.41840971704456	-4.92431593654644	-1.53975823063265	-2.76702294333296	-4.92431593654644	-2.15729299321348	-1.41840971704456	-4.92431593654644	-2.76702294333296	-4.92431593654644	1.41840971704456	-10.634768414173138	-6.4549222749431205	-9.97907671308878	-12.745254521422426	-5.005680289006379	-9.97907671308878	0.43237575552243657	-12.809762708134151	-2.174994293961012	-12.732493787032237	-3.7015052009996685	4	missed	0.0
209.76306349999504	6.587044500003685	nogo_punish	1.0	209.7911014999995	211.63474959999485	214.14629960000502	1.8436480999953346	210.79608359999884	213.14040220000697	215.1616566000016	0.8386659999960102	1.005897399998048	1.216489400001592	n/a	1.0	n/a	2	0	92	3	nogo_punish	1	-1	0	0	0	1	0	n/a	n/a	0	1.0	1.0	2208.800803000005	2418.5919045000046	2419.596886600004	2420.4355526	2421.941205200012	2422.94710260001	n/a	n/a	2423.9624596000067	2425.1789490000083	2020-11-13 10:44:36.421517	0.924200282049489	0.0	-0.305299558364359	-0.305299558364359	-1.22949984041385	-0.305299558364359	-0.924200282049489	-0.305299558364359	0.0	-0.305299558364359	-1.22949984041385	0.305299558364359	-11.867861125337129	-5.03651255789856	-5.360060334906699	-11.510795849154135	-3.468157186087269	-5.360060334906699	-0.6807344031577645	-10.34803932316555	1.5198218021715786	-11.619383628352036	1.2228107355467719	4	missed	0.0
216.40093920000072	7.4353952999954345	nogo_punish	1.0	216.4289772000052	219.2058366999995	221.7428126000018	2.776859499994316	217.43526139999494	220.7199218000028	222.75608130000273	1.770575300004566	1.0228907999990042	1.1082911999978933	n/a	1.0	n/a	2	0	93	3	nogo_punish	1	-1	0	0	0	1	0	n/a	n/a	0	1.0	1.0	2208.800803000005	2425.2297802000103	2426.2360644	2428.0066397000046	2429.520724800008	2430.543615600007	n/a	n/a	2431.556884300008	2432.6651755000057	2020-11-13 10:44:36.421517	1.04299446020417	0.0	-0.173935469631151	-0.173935469631151	-1.21692992983532	-0.173935469631151	-1.04299446020417	-0.173935469631151	0.0	-0.173935469631151	-1.21692992983532	0.173935469631151	-11.749066947182447	-5.03651255789856	-5.228696246173491	-11.379431760420927	-3.455587275508739	-5.228696246173491	-0.8120984918909724	-10.21667523443234	1.5323917127501085	-11.488019539618827	1.2228107355467719	4	missed	0.0
223.865630100001	6.363887100000284	go_punish	0.3078696000011405	223.89366810000547	225.6623989000077	228.22421759999997	1.7687308000022313	224.88694919999443	227.20673130000114	229.231921900006	0.7754497000132687	1.0174862999988363	1.025633299999754	n/a	1.0	n/a	2	0	94	4	go_punish	0	-1	0	1	1	1	0	n/a	n/a	-1	0.3078696000011405	1.0	2208.800803000005	2432.6944711000106	2433.6877521999995	2434.463201900013	2436.0075343000062	2437.025020600005	n/a	n/a	2438.032724900011	2439.058358200011	2020-11-13 10:44:36.421517	2.90063809471328	-0.744757447118126	-4.92431593654644	-0.814241949315339	-2.02367784183316	-4.92431593654644	-2.90063809471328	-0.744757447118126	-4.92431593654644	-2.02367784183316	-4.92431593654644	-5.097521218577015	-9.891423312673338	-5.781270005016687	-9.97907671308878	-12.019738240105115	-4.2623351875065785	-9.97907671308878	-6.083555180099138	-12.06641760663435	-2.174994293961012	-12.058841517105803	-3.7015052009996685	4	missed	0.0
230.27890119999938	6.374602800002776	go_reward	0.4851355999999214	230.30693920000385	231.6511064000083	234.20946300000696	1.3441672000044491	231.31150759999628	233.1868271999997	235.2194547999975	0.3395988000120269	1.022635800007265	1.4620872000091367	n/a	1.0	n/a	2	0	95	2	go_reward	1	1	0	1	1	1	0	n/a	n/a	1	0.4851355999999214	1.0	2208.800803000005	2439.107742200009	2440.1123106000014	2440.4519094000134	2441.987630200005	2443.010266000012	n/a	n/a	2444.0202578000026	2445.4823450000117	2020-11-13 10:44:36.421517	21.2761458076087	20.8883732628013	0.0	20.8883732628013	21.2761458076087	0.0	-21.2761458076087	20.8883732628013	0.0	21.2761458076087	0.0	13.855930282581102	8.484084400222082	15.851860704902737	-5.05476077654234	9.682876972011522	19.037488461935283	-5.05476077654234	12.86989632105898	11.233406042807509	2.7493216425854285	9.574289192813621	1.2228107355467719	4	missed	0.0
236.69816859999264	6.773334099998465	go_reward	0.247099000000162	236.7262065999971	239.21513189999723	241.7426197000027	2.488925300000119	237.73576589999766	240.72408480000786	242.7396126999961	1.4793659999995725	1.0185348999948474	0.7599279999994906	n/a	1.0	n/a	2	0	96	2	go_reward	1	1	0	1	1	1	0	n/a	n/a	1	0.247099000000162	1.0	2208.800803000005	2445.527009600002	2446.5365689000027	2448.0159349000023	2449.524887800013	2450.543422700008	n/a	n/a	2451.540415700001	2452.3003437000007	2020-11-13 10:44:36.421517	28.4502065828842	27.5475735282612	0.0	27.5475735282612	28.4502065828842	0.0	-28.4502065828842	27.5475735282612	0.0	28.4502065828842	0.0	7.196730017121201	15.658145175497582	22.51106097036264	-5.05476077654234	16.342077237471422	26.211549237210782	-5.05476077654234	6.210696055599078	18.40746681808301	2.7493216425854285	16.233489458273525	1.2228107355467719	4	missed	0.0
243.51576199999545	6.192830600004072	go_reward	0.2612158999982057	243.54379999999992	245.40802940000185	247.95550830000184	1.864229400001932	244.54970699999876	246.94204629999922	248.9632989999959	0.8583224000030896	1.0134620000026189	0.7733316000080777	n/a	1.0	n/a	2	0	97	2	go_reward	1	1	0	1	1	1	1	n/a	n/a	1	0.2612158999982057	1.0	2208.800803000005	2452.344603000005	2453.350510000004	2454.208832400007	2455.7428493000043	2456.756311300007	n/a	n/a	2457.764102000001	2458.537433600009	2020-11-13 10:44:36.421517	32.06483528438	30.9013706119161	0.0	30.9013706119161	32.06483528438	0.0	-32.06483528438	30.9013706119161	0.0	32.06483528438	0.0	3.842932933466301	19.272773876993384	25.86485805401754	-5.05476077654234	19.695874321126325	29.826177938706586	-5.05476077654234	2.8568989719441777	22.022095519578812	2.7493216425854285	19.58728654192842	1.2228107355467719	4	missed	0.0
249.7394351999974	7.006451199995354	nogo_reward	1.0	249.76747320000186	252.21246250000013	254.73738829999684	2.4449892999982694	250.77336490000062	253.7146160999987	255.74935110000706	1.4390975999995135	1.022772199998144	1.024573299990152	n/a	1.0	n/a	2	0	98	1	nogo_reward	1	0	1	0	0	1	0	n/a	n/a	1	1.0	1.0	2208.800803000005	2458.568276200007	2459.5741679000057	2461.013265500005	2462.515419100004	2463.538191300002	n/a	n/a	2464.550154100012	2465.5747274000023	2020-11-13 10:44:36.421517	28.7706341963403	0.0	29.849772499836	29.849772499836	1.07913830349571	29.849772499836	-28.7706341963403	29.849772499836	0.0	29.849772499836	1.07913830349571	4.894531045546401	15.978572788953683	-5.03651255789856	24.795011723293662	18.644276209046225	-1.1595190421777086	24.795011723293662	3.908497084024278	19.80703273503481	3.8284599460811384	18.53568842984832	1.2228107355467719	4	missed	0.0
256.79294909999544	6.460187699995458	nogo_punish	1.0	256.8209870999999	258.3730495000059	260.8963868999999	1.5520624000059797	257.82676409999885	259.8892609000036	261.8945484000001	0.5462854000070365	1.0071259999963331	1.3866263999952935	n/a	1.0	n/a	2	0	99	3	nogo_punish	1	-1	0	0	0	1	0	n/a	n/a	0	1.0	1.0	2208.800803000005	2465.621790100005	2466.627567100004	2467.173852500011	2468.6900639000087	2469.697189900005	n/a	n/a	2470.695351400005	2472.0819778000005	2020-11-13 10:44:36.421517	1.10907955157955	0.0	-0.100949091586817	-0.100949091586817	-1.21002864316637	-0.100949091586817	-1.10907955157955	-0.100949091586817	0.0	-0.100949091586817	-1.21002864316637	0.100949091586817	-11.682981855807068	-5.03651255789856	-5.155709868129157	-11.306445382376593	-3.448685988839789	-5.155709868129157	-0.8850848699353064	-10.143688856388007	1.5392929994190585	-11.415033161574494	1.2228107355467719	4	missed	0.0
263.28268299999763	6.531692100004875	go_punish	0.4277397999976529	263.3107210000021	264.810593600007	267.3578037999987	1.4998726000048919	264.3102479999948	266.3431216000031	268.363415300003	0.5003456000122242	1.0146821999956046	1.478997800003981	n/a	1.0	n/a	2	0	100	4	go_punish	1	0	-1	1	1	1	0	n/a	n/a	0	0.4277397999976529	1.0	2208.800803000005	2472.111524000007	2473.111051	2473.611396600012	2475.143924600008	2476.158606800004	n/a	n/a	2477.164218300008	2478.643216100012	2020-11-13 10:44:36.421517	0.244354919985371	-3.17271632167214	-4.92431593654644	-3.2132074323267	-4.67996101656107	-4.92431593654644	-0.244354919985371	-3.17271632167214	-4.92431593654644	-4.67996101656107	-4.92431593654644	3.17271632167214	-12.547706487401246	-8.2092288795707	-9.97907671308878	-14.418703723116476	-6.918618362234489	-9.97907671308878	2.1866823601500167	-14.72270078136226	-2.174994293961012	-14.486800391659816	-3.7015052009996685	4	missed	0.0
269.84361899999203	7.4806109000055585	go_punish	0.2725616000097943	269.8716569999965	272.4196652999967	274.9624333999968	2.5480083000002196	270.8788594000075	273.95477620000065	275.963863700003	1.5408058999892091	1.0076571999961743	1.3884041999990586	n/a	1.0	n/a	2	0	101	4	go_punish	1	0	-1	1	1	1	0	n/a	n/a	0	0.2725616000097943	1.0	2208.800803000005	2478.6724600000016	2479.6796624000126	2481.220468300002	2482.7555792000057	2483.763236400002	n/a	n/a	2484.764666700008	2486.153070900007	2020-11-13 10:44:36.421517	1.93108872389438	-1.63343144381108	-4.92431593654644	-1.65741289151853	-2.99322721265207	-4.92431593654644	-1.93108872389438	-1.63343144381108	-4.92431593654644	-2.99322721265207	-4.92431593654644	1.63343144381108	-10.860972683492237	-6.6699440017096405	-9.97907671308878	-12.862909182308307	-5.231884558325488	-9.97907671308878	0.6473974822889565	-13.03596697745326	-2.174994293961012	-12.947515513798757	-3.7015052009996685	4	missed	0.0
277.3700925000012	7.4293651999905705	nogo_punish	1.0	277.39813050000566	279.91442139999754	282.43636279999964	2.5162908999918727	278.40139230000295	281.4203740999951	283.44119310000724	1.5130290999945828	1.0159887000045273	1.3863025999889942	n/a	1.0	n/a	2	0	102	3	nogo_punish	1	-1	0	0	0	1	0	n/a	n/a	0	1.0	1.0	2208.800803000005	2486.1989335000108	2487.202195300008	2488.7152244000026	2490.2211771	2491.2371658000047	n/a	n/a	2492.2419961000123	2493.6282987000013	2020-11-13 10:44:36.421517	1.14658312214782	0.0	-0.059596293137381	-0.059596293137381	-1.2061794152852	-0.059596293137381	-1.14658312214782	-0.059596293137381	0.0	-0.059596293137381	-1.2061794152852	0.059596293137381	-11.645478285238797	-5.03651255789856	-5.114357069679721	-11.265092583927157	-3.4448367609586183	-5.114357069679721	-0.9264376683847424	-10.10233605793857	1.5431422273002287	-11.373680363125057	1.2228107355467719	4	missed	0.0
284.8472601999965	6.123211700003594	nogo_punish	1.0	284.875298200001	286.2937947000032	288.7927700000005	1.4184965000022203	285.8806993000039	287.7872925999991	289.81063259999837	0.41309539999929257	1.0054774000013822	1.187877300006221	n/a	1.0	n/a	2	0	103	3	nogo_punish	1	-1	0	0	0	1	0	n/a	n/a	0	1.0	1.0	2208.800803000005	2493.676101200006	2494.681502300009	2495.0945977000083	2496.588095600004	2497.5935730000056	n/a	n/a	2498.6114356000035	2499.7993129000097	2020-11-13 10:44:36.421517	1.16825914300306	0.0	-0.0357422409771146	-0.0357422409771146	-1.20400138398017	-0.0357422409771146	-1.16825914300306	-0.0357422409771146	0.0	-0.0357422409771146	-1.20400138398017	0.0357422409771146	-11.623802264383556	-5.03651255789856	-5.090503017519454	-11.241238531766891	-3.442658729653589	-5.090503017519454	-0.9502917205450088	-10.078482005778305	1.5453202586052586	-11.349826310964792	1.2228107355467719	4	missed	0.0
291.0176664000028	6.53927039999644	nogo_punish	1.0	291.04570440000725	292.8505394999961	295.3672669999951	1.8048350999888498	292.0627712999999	294.35976469999923	296.36862330000486	0.7877681999962078	1.0075022999958492	1.2163514999988365	n/a	1.0	n/a	2	0	104	3	nogo_punish	1	-1	0	0	0	1	1	n/a	n/a	0	1.0	1.0	2208.800803000005	2499.8465074000123	2500.863574300005	2501.651342500001	2503.1605677000043	2504.16807	n/a	n/a	2505.16942630001	2506.385777800009	2020-11-13 10:44:36.421517	1.18100044287833	0.0	-0.0217523612995746	-0.0217523612995746	-1.20275280417791	-0.0217523612995746	-1.18100044287833	-0.0217523612995746	0.0	-0.0217523612995746	-1.20275280417791	0.0217523612995746	-11.611060964508287	-5.03651255789856	-5.076513137841914	-11.22724865208935	-3.441410149851329	-5.076513137841914	-0.9642816002225488	-10.064492126100765	1.5465688384075185	-11.335836431287252	1.2228107355467719	4	missed	0.0
297.5866099999985	7.126044200005708	go_punish	0.3431067000055918	297.61464800000294	300.2220378000061	302.77329529999497	2.6073898000031477	298.62128940000594	301.74999440000147	303.7799918999958	1.6007484000001568	1.023300899993501	0.9607003000128316	n/a	1.0	n/a	2	0	105	4	go_punish	0	-1	0	1	1	1	0	n/a	n/a	-1	0.3431067000055918	1.0	2208.800803000005	2506.415451000008	2507.422092400011	2509.022840800011	2510.5507974000066	2511.5740983	n/a	n/a	2512.580794900001	2513.5414952000137	2020-11-13 10:44:36.421517	2.77381181285161	-0.865432029102304	-4.92431593654644	-0.879851121460591	-2.15050412369483	-4.92431593654644	-2.77381181285161	-0.865432029102304	-4.92431593654644	-2.15050412369483	-4.92431593654644	-4.976846636592836	-10.018249594535007	-5.901944587000864	-9.97907671308878	-12.085347412250368	-4.389161469368249	-9.97907671308878	-5.9628805981149595	-12.19324388849602	-2.174994293961012	-12.179516099089982	-3.7015052009996685	4	missed	0.0
304.7582656000013	6.015608499990776	go_reward	0.4715742000116734	304.7863036000058	306.25364260000106	308.80504570000676	1.4673389999952633	305.78907270000536	307.7839370000006	309.8092724000021	0.46456989999569487	1.0211087000061525	0.99263969999447	n/a	1.0	n/a	2	0	106	2	go_reward	1	1	0	1	1	1	0	n/a	n/a	1	0.4715742000116734	1.0	2208.800803000005	2513.587106600011	2514.5898757000105	2515.054445600006	2516.5847400000057	2517.605848700012	n/a	n/a	2518.610075400007	2519.6027151000017	2020-11-13 10:44:36.421517	33.9391889525819	32.6409676164443	0.0	32.6409676164443	33.9391889525819	0.0	-33.9391889525819	32.6409676164443	0.0	33.9391889525819	0.0	2.103335928938101	21.147127545195282	27.60445505854574	-5.05476077654234	21.435471325654525	31.700531606908484	-5.05476077654234	1.1173019674159776	23.89644918778071	2.7493216425854285	21.32688354645662	1.2228107355467719	4	missed	0.0
310.8211091999983	6.123221599991666	nogo_punish	1.0	310.8491472000028	312.2373408999997	314.75344420000374	1.3881936999969184	311.8667028000059	313.74549430000525	315.765450899999	0.3706380999938119	1.0079498999984935	1.2069178999954602	n/a	1.0	n/a	2	0	107	3	nogo_punish	1	-1	0	0	0	1	0	n/a	n/a	0	1.0	1.0	2208.800803000005	2519.649950200008	2520.667505800011	2521.038143900005	2522.5462973000103	2523.554247200009	n/a	n/a	2524.566253900004	2525.7731717999995	2020-11-13 10:44:36.421517	1.18860813295502	0.0	-0.013420476778154	-0.013420476778154	-1.20202860973317	-0.013420476778154	-1.18860813295502	-0.013420476778154	0.0	-0.013420476778154	-1.20202860973317	0.013420476778154	-11.603453274431597	-5.03651255789856	-5.0681812533204935	-11.218916767567931	-3.4406859554065887	-5.0681812533204935	-0.9726134847439694	-10.056160241579345	1.5472930328522585	-11.327504546765832	1.2228107355467719	4	missed	0.0
316.97665489999054	7.321553200003109	nogo_reward	1.0	317.004692899995	319.4366523000067	321.96313150000105	2.431959400011692	318.010349100005	320.9535924000088	322.97046199999795	1.426303200001712	1.0095390999922529	1.3557841000001645	n/a	1.0	n/a	2	0	108	1	nogo_reward	1	0	1	0	0	1	0	n/a	n/a	1	1.0	1.0	2208.800803000005	2525.8054959	2526.81115210001	2528.237455300012	2529.754395400014	2530.763934500006	n/a	n/a	2531.771265000003	2533.127049100003	2020-11-13 10:44:36.421517	30.8860661870864	0.0	32.1432009915523	32.1432009915523	1.25713480446586	32.1432009915523	-30.8860661870864	32.1432009915523	0.0	32.1432009915523	1.25713480446586	2.6011025538301027	18.09400477969978	-5.03651255789856	27.08844021500996	20.937704700762524	-0.9815225412075588	27.08844021500996	1.6150685923079793	22.100461226751108	4.0064564470512884	20.82911692156462	1.2228107355467719	4	missed	0.0
324.3311440999969	6.487965399996028	nogo_reward	1.0	324.35918210000136	326.3652353000075	328.8898742000024	2.0060532000061357	325.3625692000064	327.8738714000069	329.8844013000057	1.002666100001079	1.0160027999954764	0.9627461999916704	n/a	1.0	n/a	2	0	109	1	nogo_reward	1	0	1	0	0	1	0	n/a	n/a	1	1.0	1.0	2208.800803000005	2533.1599851000065	2534.1633722000115	2535.1660383000126	2536.674674400012	2537.6906772000075	n/a	n/a	2538.685204300011	2539.6479505000025	2020-11-13 10:44:36.421517	31.9776105596556	0.0	33.3263473864974	33.3263473864974	1.34873682684184	33.3263473864974	-31.9776105596556	33.3263473864974	0.0	33.3263473864974	1.34873682684184	1.4179561588849978	19.185549152268983	-5.03651255789856	28.271586609955065	22.12085109570763	-0.8899205188315786	28.271586609955065	0.4319221973628744	23.283607621696213	4.098058469427269	22.012263316509724	1.2228107355467719	4	missed	0.0
330.8495597000001	6.5652190999971936	nogo_reward	1.0	330.87759770000457	332.42684610000333	334.9514275999977	1.5492483999987599	331.8683507999963	333.93136289999575	335.95490450000307	0.5584953000070527	1.0200647000019671	1.4879122999986976	n/a	1.0	n/a	2	0	110	1	nogo_reward	0	1	0	0	0	1	1	n/a	n/a	0	1.0	1.0	2208.800803000005	2539.6784007000097	2540.6691538000014	2541.2276491000084	2542.732165900001	2543.752230600003	n/a	n/a	2544.755707500008	2546.243619800007	2020-11-13 10:44:36.421517	32.5566598862502	0.0	33.9534128561614	33.9534128561614	1.39675296991121	33.9534128561614	-32.5566598862502	33.9534128561614	0.0	33.9534128561614	1.39675296991121	-33.9534128561614	19.764598478863583	-5.03651255789856	28.898652079619062	22.747916565371625	-0.8419043757622087	28.898652079619062	-34.939446817683525	23.91067309136021	4.146074612496639	22.63932878617372	1.2228107355467719	4	missed	0.0
337.4466206999932	5.819371300007333	nogo_reward	1.0	337.4746586999977	338.79157489999534	341.3340233000058	1.3169161999976495	338.4787747999949	340.30808230000594	342.3435589000005	0.31280010000045877	1.0259409999998752	0.9504711000045063	n/a	1.0	n/a	2	0	111	1	nogo_reward	1	0	1	0	0	1	1	n/a	n/a	1	1.0	1.0	2208.800803000005	2546.275461700003	2547.2795778	2547.5923779000004	2549.108885300011	2550.134826300011	n/a	n/a	2551.1443619000056	2552.09483300001	2020-11-13 10:44:36.421517	17.1394346591045	0.0	17.2628889880824	17.2628889880824	0.123454328977837	17.2628889880824	-17.1394346591045	17.2628889880824	0.0	17.2628889880824	0.123454328977837	17.481414557300003	4.347373251717881	-5.03651255789856	12.208128211540059	6.057392697292622	-2.1152030166955815	12.208128211540059	16.495380595777878	7.220149223281208	2.8727759715632657	5.948804918094721	1.2228107355467719	4	missed	0.0
343.3102399999916	6.738368999998784	go_reward	0.4193998000118881	343.3382779999961	345.10774799999535	347.6617759000078	1.7694699999992736	344.3355686	346.6412886000039	348.66981809999606	0.7721793999953661	1.0204873000038788	1.4068288999988	n/a	1.0	n/a	2	0	112	2	go_reward	0	0	1	1	1	1	0	n/a	n/a	0	0.4193998000118881	1.0	2208.800803000005	2552.139081000001	2553.136371600005	2553.9085510000004	2555.442091600009	2556.462578900013	n/a	n/a	2557.470621100001	2558.87745	2020-11-13 10:44:36.421517	34.9363047966078	33.5671937703261	0.0	33.5671937703261	34.9363047966078	0.0	-34.9363047966078	33.5671937703261	0.0	34.9363047966078	0.0	-33.5671937703261	22.14424338922118	28.530681212427538	-5.05476077654234	22.361697479536325	32.69764745093438	-5.05476077654234	-34.553227731848224	24.89356503180661	2.7493216425854285	22.25310970033842	1.2228107355467719	4	missed	0.0
350.0970870000019	6.466724500001874	go_reward	0.356588800001191	350.1251250000064	351.80661149999696	354.3259618000011	1.6814864999905694	351.1380016000039	353.3225186000059	355.3318648999998	0.6686098999930437	1.0034431999952176	1.2599846000084653	n/a	1.0	n/a	2	0	113	2	go_reward	1	1	0	1	1	1	0	n/a	n/a	1	0.356588800001191	1.0	2208.800803000005	2558.9259280000115	2559.938804600009	2560.607414500002	2562.123321600011	2563.126764800006	n/a	n/a	2564.132667900005	2565.3926525000134	2020-11-13 10:44:36.421517	17.1491985008494	17.0410673423448	0.0	17.0410673423448	17.1491985008494	0.0	-17.1491985008494	17.0410673423448	0.0	17.1491985008494	0.0	17.7032362030376	4.357137093462784	12.004554784446238	-5.05476077654234	5.835571051555023	14.910541155175983	-5.05476077654234	16.717202241515476	7.106458736048211	2.7493216425854285	5.726983272357122	1.2228107355467719	4	missed	0.0
356.59617619999335	6.2882529000048635	nogo_reward	1.0	356.6242141999978	358.5897762999962	361.12605289999965	1.9655620999983512	357.6216176000021	360.1018654000077	362.1377304000057	0.9681586999940919	1.0241874999919673	0.7747366999969927	n/a	1.0	n/a	2	0	114	1	nogo_reward	1	0	1	0	0	1	0	n/a	n/a	1	1.0	1.0	2208.800803000005	2565.425017200003	2566.422420600007	2567.3905793000013	2568.9026684000128	2569.9268559000047	n/a	n/a	2570.938533400011	2571.713270100008	2020-11-13 10:44:36.421517	25.2943858673886	0.0	26.0811387338167	26.0811387338167	0.786752866428066	26.0811387338167	-25.2943858673886	26.0811387338167	0.0	26.0811387338167	0.786752866428066	8.6631648115657	12.502324460001981	-5.03651255789856	21.026377957274363	14.875642443026925	-1.4519044792453526	21.026377957274363	7.677130850043577	16.03839896901551	3.5360745090134946	14.767054663829024	1.2228107355467719	4	missed	0.0
362.9315663000016	5.912372399994638	go_reward	0.3188534000073559	362.95960430000605	364.52430129999993	367.0682927000021	1.5646969999938847	363.96217660000593	366.0560302999952	368.07574240000395	0.5621246999940013	1.0122624000068754	0.7962342999967404	n/a	1.0	n/a	2	0	115	2	go_reward	1	1	0	1	1	1	1	n/a	n/a	1	0.3188534000073559	1.0	2208.800803000005	2571.760407300011	2572.762979600011	2573.325104300005	2574.8568333000003	2575.869095700007	n/a	n/a	2576.876545400009	2577.672779700006	2020-11-13 10:44:36.421517	26.7296447519696	25.9514828564283	0.0	25.9514828564283	26.7296447519696	0.0	-26.7296447519696	25.9514828564283	0.0	26.7296447519696	0.0	8.792820688954102	13.937583344582984	20.914970298529738	-5.05476077654234	14.745986565638523	24.490987406296185	-5.05476077654234	7.806786727431978	16.68690498716841	2.7493216425854285	14.637398786440622	1.2228107355467719	4	missed	0.0
368.8890325999964	6.073303299999679	go_reward	0.4267006000009132	368.9170706000009	370.28644470000336	372.8470562000007	1.3693741000024602	369.9269616999959	371.8214462000037	373.85776319999513	0.35948300000745803	1.0256099999969592	1.1326107000054435	n/a	1.0	n/a	2	0	116	2	go_reward	1	1	0	1	1	1	0	n/a	n/a	1	0.4267006000009132	1.0	2208.800803000005	2577.717873600006	2578.727764700001	2579.0872477000084	2580.622249200009	2581.6478592000058	n/a	n/a	2582.6585662	2583.7911769000057	2020-11-13 10:44:36.421517	31.3372731577232	30.2299829532375	0.0	30.2299829532375	31.3372731577232	0.0	-31.3372731577232	30.2299829532375	0.0	31.3372731577232	0.0	4.514320592144902	18.545211750336584	25.193470395338938	-5.05476077654234	19.02448666244772	29.09861581204978	-5.05476077654234	3.5282866306227785	21.29453339292201	2.7493216425854285	18.915898883249824	1.2228107355467719	4	missed	0.0
374.99326999999175	6.138761800000793	go_punish	0.4165321999898879	375.0213079999962	376.4226816000014	378.9506976999987	1.4013736000051722	376.02402219999976	377.94339739999896	379.96185190000733	0.3986594000016339	1.0073002999997698	1.198217899989686	n/a	1.0	n/a	2	0	117	4	go_punish	1	0	-1	1	1	1	0	n/a	n/a	0	0.4165321999898879	1.0	2208.800803000005	2583.8221110000013	2584.824825200005	2585.2234846000065	2586.744200400004	2587.751500700004	n/a	n/a	2588.7626549000124	2589.960872800002	2020-11-13 10:44:36.421517	0.171892377792449	-3.24174078028317	-4.92431593654644	-3.25053326699429	-4.75242355875399	-4.92431593654644	-0.171892377792449	-3.24174078028317	-4.92431593654644	-4.75242355875399	-4.92431593654644	3.24174078028317	-12.620169029594168	-8.278253338181731	-9.97907671308878	-14.456029557784067	-6.991080904427409	-9.97907671308878	2.2557068187610465	-14.79516332355518	-2.174994293961012	-14.555824850270847	-3.7015052009996685	4	missed	0.0
381.1653645000042	6.6555200000002515	nogo_reward	1.0	381.1934025000087	382.8471072999969	385.3743216000007	1.6537047999881906	382.20500040000525	384.3536597000061	386.38401029999704	0.6421068999916315	1.0206618999945931	1.464912200011895	n/a	1.0	n/a	2	0	118	1	nogo_reward	1	0	1	0	0	1	0	n/a	n/a	1	1.0	1.0	2208.800803000005	2589.994205500014	2591.0058034000103	2591.647910300002	2593.154462700011	2594.175124600006	n/a	n/a	2595.184813300002	2596.649725500014	2020-11-13 10:44:36.421517	29.1948566176288	0.0	30.3070094976855	30.3070094976855	1.11215288005676	30.3070094976855	-29.1948566176288	30.3070094976855	0.0	30.3070094976855	1.11215288005676	4.437294047696902	16.402795210242182	-5.03651255789856	25.25224872114316	19.101513206895724	-1.1265044656166587	25.25224872114316	3.451260086174779	20.26426973288431	3.8614745226421885	18.99292542769782	1.2228107355467719	4	missed	0.0
387.86722829999053	6.593378100005793	nogo_punish	1.0	387.895266299995	389.45931590000737	391.98318160000827	1.5640496000123676	388.89969570000585	390.9617373000078	392.998039700004	0.5596202000015182	1.0214443000004394	1.4906046999967657	n/a	1.0	n/a	2	0	119	3	nogo_punish	1	-1	0	0	0	1	0	n/a	n/a	0	1.0	1.0	2208.800803000005	2596.6960693	2597.700498700011	2598.2601189000125	2599.762540300013	2600.7839846000134	n/a	n/a	2601.798842700009	2603.289447400006	2020-11-13 10:44:36.421517	1.19321753145117	0.0	-0.0083866433130531	-0.0083866433130531	-1.20160417476422	-0.0083866433130531	-1.19321753145117	-0.0083866433130531	0.0	-0.0083866433130531	-1.20160417476422	0.0083866433130531	-11.598843875935447	-5.03651255789856	-5.063147419855393	-11.213882934102829	-3.4402615204376388	-5.063147419855393	-0.9776473182090704	-10.051126408114243	1.5477174678212084	-11.32247071330073	1.2228107355467719	4	missed	0.0
394.4953947000031	7.098272199989879	nogo_reward	1.0	394.52343270000756	396.73330609999584	399.2646291999995	2.2098733999882825	395.5269342999968	398.2485227000002	400.26935570000296	1.206371799999033	1.016106499999296	1.3523491999944781	n/a	1.0	n/a	2	0	120	1	nogo_reward	1	0	1	0	0	1	1	n/a	n/a	1	1.0	1.0	2208.800803000005	2603.3242357000127	2604.327737300002	2605.534109100001	2607.0493257000053	2608.0654322000046	n/a	n/a	2609.070158700008	2610.4225079000025	2020-11-13 10:44:36.421517	31.1293795362855	0.0	32.4047716603274	32.4047716603274	1.2753921240419	32.4047716603274	-31.1293795362855	32.4047716603274	0.0	32.4047716603274	1.2753921240419	2.3395318850550026	18.337318128898886	-5.03651255789856	27.35001088378506	21.199275369537624	-0.9632652216315187	27.35001088378506	1.3534979235328792	22.362031895526208	4.024713766627329	21.09068759033972	1.2228107355467719	4	missed	0.0
