onset	duration	trial_type	response_time	cueOnset	targetOnset	fbOnset	cueRT	firstfixOnset	secondfixOnset	waitOnset	firstfixdur	secondfixdur	waitdur	nback_fbOnset	nback_response_time	nback_targetOnset	block	wm	trial	cue	cond	is_common	outcome_go	outcome_nogo	key_correct	key_pressed	is_correct	key_correct_nback	key_pressed_nback	is_correct_nback	outcome	rt	rt_nback	time_scan	time_onset	time_isi1	time_circle	time_isi2	time_feedback	time_same	time_correct	time_iti	time_done	timestamp_scan	DV	Qgo	Qnogo	SV	Wgo	Wnogo	mDV	Qchosen	Qunchosen	Wchosen	Wunchosen	PE	DVC	QgoC	QnogoC	SVC	WgoC	WnogoC	PEC	WchosenC	WunchosenC	QchosenC	QunchosenC	run	outcome_nback	nback_targetResp
0.0	9.823260399978608	go_punish	0.4542752997949719	0.04235770017839968	2.804960699984804	5.348639600211754	2.762602999806404	1.0475827001500875	4.3368755001574755	8.384357800008956	1.7573779998347163	1.011764100054279	1.481260300148051	7.37691710004583	1.0	6.367594400187954	2	1	1	2	go_punish	1	0	-1	1	1	1	0	n/a	0.0	-1	0.4542752997949719	1.0	1204.7508115000091	1204.7931692001875	1205.7983942001592	1207.555772199994	1209.0876870001666	1210.099451100221	1211.118405900197	1212.127728600055	1213.135169300018	1214.6164296001662	2020-11-11 13:44:41.342856	-0.430172057408687	0.0	0.0	0.0	-0.430172057408687	0.0	0.430172057408687	0.0	0.0	-0.430172057408687	0.0	0.0	-11.474745823965819	-4.842217892157563	-3.2130573320676232	-9.230539451675842	-7.407347702887698	-3.2130573320676232	-0.6726984305087756	-11.047575429460574	0.4271703945052501	-9.325667944792627	1.2703927205674395	3	missed	0.0
9.866372399963439	8.925465299980715	go_punish	1.0	9.908730100141838	12.428542900132015	14.943714900175337	2.519812799990177	10.91338080004789	13.934213100001216	17.995204900158342	1.515162100084126	1.009501800174121	0.8389904999642113	16.98821480013453	0.3460259998682886	15.955197900068015	2	1	2	2	go_punish	0	-1	0	1	0	0	0	0.0	1.0	0	1.0	0.3460259998682886	1204.7508115000091	1214.659541600151	1215.664192300057	1217.1793544001412	1218.6850246000104	1219.6945264001845	1220.7060094000772	1221.7390263001437	1222.7460164001675	1223.5850069001317	2020-11-11 13:44:41.342856	4.07872969001618	-3.14678966876795	0.0	-3.14678966876795	-4.07872969001618	0.0	-4.07872969001618	0.0	-3.14678966876795	0.0	-4.07872969001618	0.0	-6.965844076540952	-7.989007560925513	-3.2130573320676232	-12.377329120443791	-11.05590533549519	-3.2130573320676232	-0.6726984305087756	-10.617403372051887	-3.65155929551093	-9.325667944792627	-1.8763969482005105	3	correct	1.0
18.83496979996562	8.914545299950987	go_punish	1.0	18.87732750014402	20.84332810016349	23.362301300046738	1.9660006000194699	19.882408800069243	22.34853529999964	26.408296700101346	0.9609193000942469	1.0137660000470987	1.383576099993661	25.401145700132474	0.4301018000114709	24.374063000082742	2	1	3	2	go_punish	1	0	-1	1	0	0	1	1.0	1.0	-1	1.0	0.4301018000114709	1204.7508115000091	1223.6281390001532	1224.6332203000784	1225.5941396001726	1227.0993468000088	1228.113112800056	1229.124874500092	1230.1519572001416	1231.1591082001105	1232.5426843001042	2020-11-11 13:44:41.342856	3.76127239767064	-3.14678966876795	0.0	-1.10641271381655	-3.76127239767064	0.0	-3.76127239767064	0.0	-3.14678966876795	0.0	-3.76127239767064	-5.00719964765854	-7.283301368886493	-7.989007560925513	-3.2130573320676232	-10.336952165492391	-10.738448043149651	-3.2130573320676232	-5.679898078167316	-10.617403372051887	-3.33410200316539	-9.325667944792627	-1.8763969482005105	3	correct	1.0
27.80176780000329	8.407872499898076	nogo_reward	0.2823898999486118	27.84412550018169	29.704680800205097	32.248812600038946	1.8605553000234067	28.848775200080127	31.237270600162446	35.289993199985474	0.8559056001249701	1.0115419998764992	0.9620048000942916	34.28311419999227	0.9449132999870926	33.25939970021136	2	1	4	3	nogo_reward	1	0	1	0	1	0	0	0.0	1.0	0	0.2823898999486118	0.9449132999870926	1204.7508115000091	1232.5949370001908	1233.5995867000893	1234.4554923002142	1235.9880821001716	1236.999624100048	1238.0102112002205	1239.0339257000014	1240.0408046999946	1241.002809500089	2020-11-11 13:44:41.342856	-0.430172057408687	0.0	0.0	0.0	-0.430172057408687	0.0	0.430172057408687	0.0	0.0	-0.430172057408687	0.0	0.0	-11.474745823965819	-4.842217892157563	-3.2130573320676232	-9.230539451675842	-7.407347702887698	-3.2130573320676232	-0.6726984305087756	-11.047575429460574	0.4271703945052501	-9.325667944792627	1.2703927205674395	3	correct	1.0
36.254839999834076	8.383633800083771	go_punish	0.5648703998886049	36.297197700012475	37.99128830013797	40.53780540009029	1.6940906001254916	37.30140420002863	39.52441090019397	43.57949100015685	0.6898841001093388	1.0133944998963216	1.101340499939397	42.57330909999996	0.4094817000441253	41.54870640020795	2	1	5	2	go_punish	0	-1	0	1	1	1	1	1.0	1.0	-1	0.5648703998886049	0.4094817000441253	1204.7508115000091	1241.0480092000216	1242.0522157000378	1242.7420998001471	1244.2752224002031	1245.2886169000994	1246.299517900217	1247.324120600009	1248.330302500166	1249.4316430001054	2020-11-11 13:44:41.342856	-1.0053853927809	-3.14678966876795	-3.14678966876795	-3.57428436561401	-4.15217506154885	-3.14678966876795	1.0053853927809	-3.14678966876795	-3.14678966876795	-4.15217506154885	-3.14678966876795	-1.8604099788905901	-12.049959159338032	-7.989007560925513	-6.359847000835574	-12.804823817289853	-11.12935070702786	-6.359847000835574	-2.533108409399366	-14.769578433600739	-2.7196192742627	-12.472457613560577	-1.8763969482005105	3	correct	1.0
44.694557999959216	8.600850499933586	nogo_reward	1.0	44.736915700137615	47.017687600106	49.536880700150505	2.2807718999683857	45.74203249998391	48.52357010007836	52.58499740017578	1.2756551001220942	1.0133106000721455	0.7527687998954207	51.578113300027326	0.6970123997889459	50.54921209998429	2	1	6	3	nogo_reward	1	0	1	0	0	1	1	1.0	1.0	1	1.0	0.6970123997889459	1204.7508115000091	1249.4877272001468	1250.492843999993	1251.7684991001152	1253.2743816000875	1254.2876922001597	1255.3000235999934	1256.3289248000365	1257.335808900185	1258.0885777000804	2020-11-11 13:44:41.342856	0.430172057408687	0.0	0.0	0.0	-0.430172057408687	0.0	-0.430172057408687	0.0	0.0	0.0	-0.430172057408687	29.0321718085199	-10.614401709148446	-4.842217892157563	-3.2130573320676232	-9.230539451675842	-7.407347702887698	-3.2130573320676232	28.359473378011128	-10.617403372051887	-0.0030016629034369524	-9.325667944792627	1.2703927205674395	3	correct	1.0
53.337066599866375	8.035074700135738	go_punish	0.3468298001680523	53.379424300044775	54.93640510016121	57.480429799994454	1.5569808001164347	54.38386830012314	56.46955760009587	60.52177810016997	0.5525368000380695	1.0108721998985857	0.8927209000105449	59.514142100000754	0.456894600065425	58.49130760016851	2	1	7	2	go_punish	1	0	-1	1	1	1	1	1.0	1.0	0	0.3468298001680523	0.456894600065425	1204.7508115000091	1258.130235800054	1259.1346798001323	1259.6872166001704	1261.220369100105	1262.2312413000036	1263.2421191001777	1264.26495360001	1265.2725896001791	1266.1653105001897	2020-11-11 13:44:41.342856	-2.2537836347706	-4.2532023825845	-3.14678966876795	-4.43059729033367	-5.40057330353855	-3.14678966876795	2.2537836347706	-4.2532023825845	-3.14678966876795	-5.40057330353855	-3.14678966876795	4.2532023825845	-13.298357401327731	-9.095420274742063	-6.359847000835574	-13.66113674200951	-12.377748949017562	-6.359847000835574	3.5805039520757242	-16.01797667559044	-2.7196192742627	-13.578870327377128	-1.8763969482005105	3	correct	1.0
61.398141699843336	8.269400099990662	go_reward	1.0	61.440499400021736	62.910859700059746	65.42577710002661	1.4703603000380099	62.445527800126	64.41600279998966	68.46804380021035	0.46533189993374435	1.009774300036952	1.241855699802045	67.46106520015746	0.6134391000960022	66.43884590012021	2	1	8	4	go_reward	1	1	0	1	0	0	0	0.0	1.0	0	1.0	0.6134391000960022	1204.7508115000091	1266.1913109000309	1267.1963393001352	1267.661671200069	1269.1668142999988	1270.1765886000358	1271.1896574001294	1272.2118767001666	1273.2188553002195	1274.4607110000215	2020-11-11 13:44:41.342856	0.430172057408687	0.0	0.0	0.0	-0.430172057408687	0.0	-0.430172057408687	0.0	0.0	0.0	-0.430172057408687	0.0	-10.614401709148446	-4.842217892157563	-3.2130573320676232	-9.230539451675842	-7.407347702887698	-3.2130573320676232	-0.6726984305087756	-10.617403372051887	-0.0030016629034369524	-9.325667944792627	1.2703927205674395	3	correct	1.0
69.71216909983195	9.189329900080338	go_punish	0.4444883000105619	69.75452680001035	72.19379390007816	74.74322000006214	2.4392671000678092	70.75918749999255	73.72934570000507	77.78644460020587	1.4346064000856131	1.0138743000570685	1.157412099884823	76.77949540014379	0.401340400101617	75.75394770014077	2	1	9	2	go_punish	0	-1	0	1	1	1	1	1.0	1.0	-1	0.4444883000105619	0.401340400101617	1204.7508115000091	1274.5053383000195	1275.5099990000017	1276.9446054000873	1278.4801572000142	1279.4940315000713	1280.50475920015	1281.530306900153	1282.537256100215	1283.6946682000998	2020-11-11 13:44:41.342856	0.911097915630809	-1.5339074106626	-3.14678966876795	-1.61184029368996	-2.23569175313714	-3.14678966876795	-0.911097915630809	-1.5339074106626	-3.14678966876795	-2.23569175313714	-3.14678966876795	-3.47329223699594	-10.133475850926324	-6.376125302820163	-6.359847000835574	-10.842379745365802	-9.212867398616151	-6.359847000835574	-4.145990667504716	-12.853095125189027	-2.7196192742627	-10.859575355455227	-1.8763969482005105	3	correct	1.0
78.94509659986943	9.346512600081041	nogo_reward	1.0	78.98745430004783	81.56105920020491	84.08024150016718	2.573604900157079	79.99384680017829	83.06678130012006	87.12271140003577	1.5672124000266194	1.0134602000471205	1.2112555000931025	86.11541680013761	0.3966689999215305	85.09255719999783	2	1	10	3	nogo_reward	1	0	1	0	0	1	0	0.0	1.0	1	1.0	0.3966689999215305	1204.7508115000091	1283.738265800057	1284.7446583001874	1286.311870700214	1287.8175928001292	1288.8310530001763	1289.843368700007	1290.8662283001468	1291.873522900045	1293.084778400138	2020-11-11 13:44:41.342856	15.9314911681417	0.0	18.476605990098	18.476605990098	2.54511482195629	18.476605990098	-15.9314911681417	18.476605990098	0.0	18.476605990098	2.54511482195629	10.5555658184219	4.886917401584569	-4.842217892157563	15.263548658030377	9.24606653842216	-4.43206082352272	15.263548658030377	9.882867387913125	7.859202618046114	2.97228521646154	9.150938045305374	1.2703927205674395	3	correct	1.0
88.33339479984716	7.7667048999574035	go_punish	1.0	88.37575250002556	89.81062520015985	92.32917590020224	1.4348727001342922	89.38020080002025	91.31595070008188	95.37056220020168	0.43042440013960004	1.0132252001203597	0.7718951997812837	94.36391469999194	0.4291479999665171	93.33999550016597	2	1	11	2	go_punish	1	0	-1	1	0	0	1	1.0	1.0	-1	1.0	0.4291479999665171	1204.7508115000091	1293.1265640000347	1294.1310123000294	1294.561436700169	1296.066762200091	1297.0799874002114	1298.0908070001751	1299.114726200001	1300.1213737002108	1300.893268899992	2020-11-11 13:44:41.342856	1.64782588280946	-3.75167927336318	-3.14678966876795	-3.78757260017904	-4.79461555157741	-3.14678966876795	-1.64782588280946	-3.14678966876795	-3.75167927336318	-3.14678966876795	-4.79461555157741	-1.8604099788905901	-9.396747883747672	-8.593897165520742	-6.359847000835574	-13.018112051854882	-11.77179119705642	-6.359847000835574	-2.533108409399366	-13.764193040819837	-4.36744515707216	-12.472457613560577	-2.4812865527957406	3	correct	1.0
96.14574029995129	9.03059870004654	nogo_reward	1.0	96.18809800012968	98.73017920018174	101.25098320003599	2.5420812000520527	97.19336850009836	100.2370971001219	104.29127040016465	1.5368107000833788	1.0138860999140888	0.9274263000115752	103.28492870018795	0.3560097001027316	102.26214160001837	2	1	12	3	nogo_reward	1	0	1	0	0	1	1	1.0	1.0	1	1.0	0.3560097001027316	1204.7508115000091	1300.9389095001388	1301.9441800001075	1303.480990700191	1304.987908600131	1306.0017947000451	1307.0129531000275	1308.035740200197	1309.0420819001738	1309.9695082001854	2020-11-11 13:44:41.342856	21.2056812297006	0.0	24.8211016157956	24.8211016157956	3.61542038609507	24.8211016157956	-21.2056812297006	24.8211016157956	0.0	24.8211016157956	3.61542038609507	4.2110701927243	10.161107463143466	-4.842217892157563	21.608044283727978	15.59056216411976	-3.3617552593839406	21.608044283727978	3.538371762215524	14.203698243743714	4.04259078060032	15.495433671002974	1.2703927205674395	3	correct	1.0
105.2189020998776	8.168119500158355	go_punish	1.0	105.261259800056	107.10953700006917	109.63038280000933	1.8482772000131718	106.26559990015812	108.61624150001444	112.67350440006703	0.8439370999110452	1.0141412999948898	0.7558749001473188	111.66674840007909	0.6083325000945479	110.6409589999821	2	1	13	2	go_punish	1	0	-1	1	0	0	1	1.0	1.0	-1	1.0	0.6083325000945479	1204.7508115000091	1310.0120713000651	1311.0164114001673	1311.8603485000783	1313.3670530000236	1314.3811943000185	1315.3917704999913	1316.4175599000882	1317.4243159000762	1318.1801908002235	2020-11-11 13:44:41.342856	0.662796255766532	-3.75167927336318	-4.2532023825845	-4.52573865818668	-4.91599863835103	-4.2532023825845	-0.662796255766532	-4.2532023825845	-3.75167927336318	-4.2532023825845	-4.91599863835103	-0.7539972650740401	-10.3817775107906	-8.593897165520742	-7.466259714652123	-13.75627810986252	-11.89317428383004	-7.466259714652123	-1.4266956955828158	-14.870605754636387	-4.48882824384578	-13.578870327377128	-2.4812865527957406	3	correct	1.0
113.42987849982455	8.312383600044996	go_punish	0.8077823999337852	113.47223620000295	115.39134440012276	117.93240660009906	1.9191082001198083	114.47694230009802	116.92166450014315	120.97885860013776	0.9144021000247449	1.0107420999559054	0.8057611999101937	119.97154280007794	0.3030999000184238	118.94510880019516	2	1	14	2	go_punish	1	0	-1	1	1	1	0	1.0	0.0	0	0.8077823999337852	0.3030999000184238	1204.7508115000091	1318.223047700012	1319.2277538001072	1320.142155900132	1321.6724760001523	1322.6832181001082	1323.6959203002043	1324.722354300087	1325.729670100147	1326.535431300057	2020-11-11 13:44:41.342856	-0.282498565841426	-3.75167927336318	-4.68069707943055	-4.80306586152903	-4.96319564527198	-4.68069707943055	0.282498565841426	-3.75167927336318	-4.68069707943055	-4.96319564527198	-4.68069707943055	3.75167927336318	-11.327072332398558	-8.593897165520742	-7.893754411498173	-14.033605313204871	-11.94037129075099	-7.893754411498173	3.078980842854404	-15.580599017323866	-4.2535266849252995	-13.077347218155808	-3.41030435886311	3	wrong	1.0
121.77419109991752	8.14550679991953	nogo_punish	0.9628602999728172	121.81654880009592	123.1373586000409	125.68068640003935	1.320809799944982	122.82072540000081	124.6674112000037	128.7235300000757	0.3166332000400871	1.0132752000356504	1.2385255999397486	127.71622950001597	0.8524945001117885	126.69261989998654	2	1	15	1	nogo_punish	1	-1	0	0	1	0	0	0.0	1.0	-1	0.9628602999728172	0.8524945001117885	1204.7508115000091	1326.567360300105	1327.57153690001	1327.88817010005	1329.4182227000128	1330.4314979000485	1331.4434313999957	1332.4670410000251	1333.4743415000848	1334.7128671000246	2020-11-11 13:44:41.342856	-0.430172057408687	0.0	0.0	0.0	-0.430172057408687	0.0	0.430172057408687	0.0	0.0	-0.430172057408687	0.0	-5.00719964765854	-11.474745823965819	-4.842217892157563	-3.2130573320676232	-9.230539451675842	-7.407347702887698	-3.2130573320676232	-5.679898078167316	-11.047575429460574	0.4271703945052501	-9.325667944792627	1.2703927205674395	3	correct	1.0
129.94548029988096	8.815283100120496	nogo_punish	1.0	129.98783800005936	132.0347105001565	134.5489384001121	2.0468725000971517	130.99307389999717	133.5397942001	137.5933495000936	1.041636600159336	1.0091442000120878	1.209771600086242	136.5847136999946	0.7208640999160707	135.56027360004373	2	1	16	1	nogo_punish	1	-1	0	0	0	1	0	0.0	1.0	0	1.0	0.7208640999160707	1204.7508115000091	1334.7386495000685	1335.7438854000063	1336.7855220001657	1338.2906057001092	1339.2997499001212	1340.3110851000529	1341.3355252000038	1342.3441610001028	1343.553932600189	2020-11-11 13:44:41.342856	4.07872969001618	-3.14678966876795	0.0	-3.14678966876795	-4.07872969001618	0.0	-4.07872969001618	0.0	-3.14678966876795	0.0	-4.07872969001618	0.0	-6.965844076540952	-7.989007560925513	-3.2130573320676232	-12.377329120443791	-11.05590533549519	-3.2130573320676232	-0.6726984305087756	-10.617403372051887	-3.65155929551093	-9.325667944792627	-1.8763969482005105	3	correct	1.0
138.8052046999801	7.912736699916422	nogo_reward	1.0	138.8475624001585	140.26832580007613	142.78305120021105	1.4207633999176323	139.8525651001837	141.77424350008368	145.8242162000388	0.4157606998924166	1.0088077001273632	0.9360829000361264	144.81651510018855	0.6872531000990421	143.79494910012	2	1	17	3	nogo_reward	0	1	0	0	0	1	0	0.0	1.0	0	1.0	0.6872531000990421	1204.7508115000091	1343.5983739001676	1344.6033766001929	1345.0191373000853	1346.5250550000928	1347.5338627002202	1348.5457606001291	1349.5673266001977	1350.575027700048	1351.511110600084	2020-11-11 13:44:41.342856	23.1951277029068	0.0	27.2315406890275	27.2315406890275	4.03641298612069	27.2315406890275	-23.1951277029068	27.2315406890275	0.0	27.2315406890275	4.03641298612069	-27.2315406890275	12.150553936349667	-4.842217892157563	24.018483356959877	18.00100123735166	-2.9407626593583203	24.018483356959877	-27.904239119536275	16.614137316975615	4.46358338062594	17.905872744234873	1.2703927205674395	3	correct	1.0
146.7632901999168	8.236439900007326	nogo_reward	1.0	146.8056479000952	148.19806460011773	150.7167625001166	1.3924167000225225	147.81021690019406	149.70343740005046	153.7588648002129	0.3878476999236682	1.0133251000661403	1.283222999889631	152.75178640009835	0.4421663000248372	151.72798100020714	2	1	18	3	nogo_reward	1	0	1	0	0	1	0	0.0	1.0	1	1.0	0.4421663000248372	1204.7508115000091	1351.5564594001044	1352.5610284002032	1352.9488761001269	1354.4542489000596	1355.4675740001258	1356.4787925002163	1357.5025979001075	1358.509676300222	1359.7928993001117	2020-11-11 13:44:41.342856	8.5042132655734	0.0	9.74203529294745	9.74203529294745	1.23782202737405	9.74203529294745	-8.5042132655734	9.74203529294745	0.0	9.74203529294745	1.23782202737405	19.29013651557245	-2.5403605009837325	-4.842217892157563	6.5289779608798275	0.5114958412716089	-5.7393536181049605	6.5289779608798275	18.617438085063675	-0.8753680791044367	1.6649924218793	0.41636734815482335	1.2703927205674395	3	correct	1.0
155.02797619998455	9.013693399960403	go_reward	0.4911487998906523	155.07033390016295	157.07110540010035	159.6437605000101	2.0007714999374	156.07484940020368	158.629704200197	162.68823379999958	0.9962559998966753	1.0140562998130918	1.395793500123773	161.68080690014176	0.449849700089544	160.65717980009504	2	1	19	4	go_reward	1	1	0	1	1	1	0	0.0	1.0	1	0.4911487998906523	0.449849700089544	1204.7508115000091	1359.821145400172	1360.8256609002128	1361.8219169001095	1363.3805157002062	1364.3945720000193	1365.4079913001042	1366.431618400151	1367.4390453000087	1368.8348388001325	2020-11-11 13:44:41.342856	-0.430172057408687	0.0	0.0	0.0	-0.430172057408687	0.0	0.430172057408687	0.0	0.0	-0.430172057408687	0.0	29.0321718085199	-11.474745823965819	-4.842217892157563	-3.2130573320676232	-9.230539451675842	-7.407347702887698	-3.2130573320676232	28.359473378011128	-11.047575429460574	0.4271703945052501	-9.325667944792627	1.2703927205674395	3	correct	1.0
164.08600479993038	8.29884950001724	go_punish	0.4011172000318765	164.12836250010878	165.599092700053	168.19352219998837	1.470730199944228	165.13295050011948	167.1686516001355	171.2379175000824	0.4661421999335289	1.0248705998528749	1.1892945000436157	170.23090950003825	0.3148270999081433	169.2046394001227	2	1	20	2	go_punish	1	0	-1	1	1	1	0	0.0	1.0	0	0.4011172000318765	0.3148270999081433	1204.7508115000091	1368.879174000118	1369.8837620001286	1370.3499042000622	1371.9194631001446	1372.9443336999975	1373.9554509001318	1374.9817210000474	1375.9887290000916	1377.1780235001352	2020-11-11 13:44:41.342856	2.5896041239887	-1.36174050459308	-4.68069707943055	-1.76877680594378	-2.09109295544185	-4.68069707943055	-2.5896041239887	-1.36174050459308	-4.68069707943055	-2.09109295544185	-4.68069707943055	1.36174050459308	-8.454969642568432	-6.203958396750643	-7.893754411498173	-10.999316257619622	-9.06826860092086	-7.893754411498173	0.6890420740843043	-12.708496327493737	-4.2535266849252995	-10.687408449385707	-3.41030435886311	3	correct	1.0
172.4281786000356	9.401529499795288	go_punish	0.34600600018166	172.470536300214	174.9032089000102	177.44447390013374	2.4326725997962058	173.4756063001696	176.43362530018203	180.48693970008776	1.4276025998406112	1.0108485999517143	1.3851260999215356	179.47815350000747	0.2984138999599963	178.45666780020133	2	1	21	2	go_punish	1	0	-1	1	1	1	0	0.0	1.0	0	0.34600600018166	0.2984138999599963	1204.7508115000091	1377.2213478002232	1378.2264178001788	1379.6540204000194	1381.1844368001912	1382.195285400143	1383.2074793002105	1384.2289650000166	1385.237751200097	1386.6228773000184	2020-11-11 13:44:41.342856	3.58574895863085	-0.541320906689275	-4.68069707943055	-0.710873808070801	-1.0949481207997	-4.68069707943055	-3.58574895863085	-0.541320906689275	-4.68069707943055	-1.0949481207997	-4.68069707943055	0.541320906689275	-7.458824807926282	-5.383538798846837	-7.893754411498173	-9.941413259746643	-8.072123766278711	-7.893754411498173	-0.13137752381950063	-11.712351492851587	-4.2535266849252995	-9.866988851481903	-3.41030435886311	3	correct	1.0
181.8557167998515	8.947096799965948	nogo_punish	1.0	181.8980745000299	183.80414990009717	186.31836730008945	1.906075400067266	182.90260040014982	185.30918740015477	189.36004730011314	0.9015494999473503	1.0091798999346793	1.4851239998827168	188.35313820000715	0.3484986000694334	187.3286761001218	2	1	22	1	nogo_punish	1	-1	0	0	0	1	0	0.0	1.0	0	1.0	0.3484986000694334	1204.7508115000091	1386.648886000039	1387.653411900159	1388.5549614001063	1390.059998900164	1391.0691788000986	1392.079487600131	1393.1039497000163	1394.1108588001223	1395.595982800005	2020-11-11 13:44:41.342856	3.76127239767064	-3.14678966876795	0.0	-1.10641271381655	-3.76127239767064	0.0	-3.76127239767064	0.0	-3.14678966876795	0.0	-3.76127239767064	0.0	-7.283301368886493	-7.989007560925513	-3.2130573320676232	-10.336952165492391	-10.738448043149651	-3.2130573320676232	-0.6726984305087756	-10.617403372051887	-3.33410200316539	-9.325667944792627	-1.8763969482005105	3	correct	1.0
190.83221189980395	8.67744530015625	nogo_punish	1.0	190.87456959998235	193.09145290008746	195.60626780008874	2.21688330010511	191.87855640007183	194.5965036000125	198.6497376000043	1.2128965000156313	1.0097642000762335	0.9022773001343012	197.64233870012686	0.4681567000225186	196.61794989998452	2	1	23	1	nogo_punish	1	-1	0	0	0	1	0	0.0	1.0	0	1.0	0.4681567000225186	1204.7508115000091	1395.6253810999915	1396.629367900081	1397.8422644000966	1399.3473151000217	1400.357079300098	1401.3687613999937	1402.393150200136	1403.4005491000134	1404.3028264001478	2020-11-11 13:44:41.342856	3.65040709770931	-3.14678966876795	0.0	-0.427494696846055	-3.65040709770931	0.0	-3.65040709770931	0.0	-3.14678966876795	0.0	-3.65040709770931	0.0	-7.394166668847822	-7.989007560925513	-3.2130573320676232	-9.658034148521898	-10.62758274318832	-3.2130573320676232	-0.6726984305087756	-10.617403372051887	-3.22323670320406	-9.325667944792627	-1.8763969482005105	3	correct	1.0
199.53366139996797	8.798932200064883	go_reward	0.2990738998632878	199.57601910014637	201.90499900002055	204.45069000008516	2.3289798998741844	200.57954509998694	203.43656130018644	207.4916503999848	1.325453900033608	1.0141286998987198	0.8833009002264589	206.4841484001372	0.4940340998582542	205.4620291001629	2	1	24	4	go_reward	1	1	0	1	1	1	0	1.0	0.0	1	0.2990738998632878	0.4940340998582542	1204.7508115000091	1404.3268306001555	1405.330356599996	1406.6558105000297	1408.1873728001956	1409.2015015000943	1410.212840600172	1411.2349599001464	1412.242461899994	1413.1257628002204	2020-11-11 13:44:41.342856	21.0217208120543	18.476605990098	0.0	18.476605990098	21.0217208120543	0.0	-21.0217208120543	18.476605990098	0.0	21.0217208120543	0.0	10.5555658184219	9.97714704549717	13.634388097940437	-3.2130573320676232	9.24606653842216	14.04454516657529	-3.2130573320676232	9.882867387913125	10.404317440002414	0.4271703945052501	9.150938045305374	1.2703927205674395	3	wrong	1.0
208.37719159992412	8.593271299964044	nogo_reward	1.0	208.41954930010252	209.98347330000252	212.50211320002563	1.5639239998999983	209.42428670008667	211.48874639999121	215.54403980006464	0.5591865999158472	1.0133668000344187	1.4687808000019231	214.5368525001686	0.3809653001371771	213.51419100002386	2	1	25	3	nogo_reward	1	0	1	0	0	1	0	0.0	1.0	1	1.0	0.3809653001371771	1204.7508115000091	1413.1703608001117	1414.1750982000958	1414.7342848000117	1416.2395579000004	1417.2529247000348	1418.265002500033	1419.2876640001778	1420.2948513000738	1421.7636321000757	2020-11-11 13:44:41.342856	19.0821537733751	0.0	22.3030286046004	22.3030286046004	3.22087483122538	22.3030286046004	-19.0821537733751	22.3030286046004	0.0	22.3030286046004	3.22087483122538	6.729143203919502	8.037580006817969	-4.842217892157563	19.089971272532775	13.072489152924557	-3.7563008142536307	19.089971272532775	6.0564447734107265	11.685625232548512	3.64804522573063	12.977360659807772	1.2703927205674395	3	correct	1.0
217.01446600002237	7.891886699944962	go_punish	0.3943724001292139	217.05682370020077	218.33366340002976	220.88324420014396	1.2768396998289973	218.06114940019324	219.86650220002048	223.92834120010957	0.27251399983651936	1.016742000123486	1.020369200036157	222.921144900145	0.5001688001211733	221.89491090015508	2	1	26	2	go_punish	0	-1	0	1	1	1	0	0.0	1.0	-1	0.3943724001292139	0.5001688001211733	1204.7508115000091	1421.80763520021	1422.8119609002024	1423.084474900039	1424.6173137000296	1425.634055700153	1426.6457224001642	1427.6719564001542	1428.6791527001187	1429.6995219001549	2020-11-11 13:44:41.342856	3.96608914389029	-0.230496719390674	-4.68069707943055	-0.305376602804853	-0.714607935540267	-4.68069707943055	-3.96608914389029	-0.230496719390674	-4.68069707943055	-0.714607935540267	-4.68069707943055	-4.776702928267866	-7.078484622666842	-5.072714611548236	-7.893754411498173	-9.535916054480694	-7.691783581019278	-7.893754411498173	-5.449401358776642	-11.332011307592154	-4.2535266849252995	-9.556164664183301	-3.41030435886311	3	correct	1.0
224.95669739996083	7.862494800006971	nogo_reward	1.0	224.99905510013923	226.3475531002041	228.8655441000592	1.3484980000648648	226.00343720009573	227.85289170010947	231.9086963001173	0.34411590010836335	1.0126523999497294	0.9528536000289023	230.9015141001437	0.3095575000625103	229.8776323001366	2	1	27	3	nogo_reward	1	0	1	0	0	1	1	1.0	1.0	1	1.0	0.3095575000625103	1204.7508115000091	1429.7498666001484	1430.7542487001049	1431.0983646002132	1432.6037032001186	1433.6163556000683	1434.6284438001458	1435.6523256001528	1436.6595078001264	1437.6123614001554	2020-11-11 13:44:41.342856	22.5265280887287	0.0	26.4327106465773	26.4327106465773	3.90618255784864	26.4327106465773	-22.5265280887287	26.4327106465773	0.0	26.4327106465773	3.90618255784864	2.599461161942603	11.481954322171568	-4.842217892157563	23.219653314509674	17.202171194901457	-3.0709930876303706	23.219653314509674	1.9267627314338274	15.815307274525411	4.33335295235389	17.10704270178467	1.2703927205674395	3	correct	1.0
232.86547489999816	8.36345609999239	nogo_reward	1.0	232.90783260017656	234.75467230007052	237.27211950020865	1.8468396998939625	233.91257560020335	236.25937520014122	240.3119936999865	0.8420966998671702	1.0127443000674248	0.9592950001824647	239.30594150000252	0.4804224998224526	238.28278450015932	2	1	28	3	nogo_reward	1	0	1	0	0	1	0	1.0	0.0	1	1.0	0.4804224998224526	1204.7508115000091	1437.6586441001857	1438.6633871002125	1439.5054838000797	1441.0101867001504	1442.0229310002178	1443.0335960001685	1444.0567530000117	1445.0628051999956	1446.022100200178	2020-11-11 13:44:41.342856	23.7813315255532	0.0	27.9490184915875	27.9490184915875	4.16768696603427	27.9490184915875	-23.7813315255532	27.9490184915875	0.0	27.9490184915875	4.16768696603427	1.0831533169324032	12.736757758996067	-4.842217892157563	24.735961159519874	18.718479039911657	-2.8094886794447405	24.735961159519874	0.4104548864236276	17.331615119535613	4.59485736053952	18.62335054679487	1.2703927205674395	3	wrong	1.0
241.27244829991855	9.42917839996494	nogo_reward	1.0	241.31480600009695	243.79485590010881	246.31224590004422	2.4800499000118634	242.32012430019677	245.29950270010158	249.35238240007334	1.4747315999120474	1.0127431999426335	1.391601999988552	248.34609480015934	0.4250431999098509	247.32403490017168	2	1	29	3	nogo_reward	1	0	1	0	0	1	1	1.0	1.0	1	1.0	0.4250431999098509	1204.7508115000091	1446.065617500106	1447.070935800206	1448.545667400118	1450.0503142001107	1451.0630574000534	1452.0748464001808	1453.0969063001685	1454.1031939000825	1455.494795900071	2020-11-11 13:44:41.342856	24.2782124843136	0.0	28.5530131850796	28.5530131850796	4.27480070076609	28.5530131850796	-24.2782124843136	28.5530131850796	0.0	28.5530131850796	4.27480070076609	0.479158623440302	13.233638717756467	-4.842217892157563	25.339955853011976	19.322473733403758	-2.70237494471292	25.339955853011976	-0.19353980706847362	17.93560981302771	4.7019710952713405	19.227345240286972	1.2703927205674395	3	correct	1.0
250.72841099998936	8.611370499944087	nogo_punish	1.0	250.77076870016776	252.55335750011727	255.06861850013956	1.782588799949508	251.77505910000764	254.05873910011724	258.11213460005797	0.7782984001096338	1.009879400022328	1.2700046000538805	257.10467800009064	0.7108892998658121	256.0800706001464	2	1	30	1	nogo_punish	1	-1	0	0	0	1	0	0.0	1.0	0	1.0	0.7108892998658121	1204.7508115000091	1455.521580200177	1456.5258706000168	1457.3041690001264	1458.8095506001264	1459.8194300001487	1460.8308821001556	1461.8554895000998	1462.8629461000671	1464.132950700121	2020-11-11 13:44:41.342856	3.60808195438845	-3.14678966876795	0.0	-0.177394907749171	-3.60808195438845	0.0	-3.60808195438845	0.0	-3.14678966876795	0.0	-3.60808195438845	0.0	-7.436491812168683	-7.989007560925513	-3.2130573320676232	-9.407934359425013	-10.585257599867461	-3.2130573320676232	-0.6726984305087756	-10.617403372051887	-3.1809115598832	-9.325667944792627	-1.8763969482005105	3	correct	1.0
259.364243199816	7.92139060003683	go_reward	0.4648289999458939	259.4066008999944	260.97522890008986	263.52037869999185	1.5686280000954866	260.41213960014284	262.50701160007156	266.5613065001089	0.5630892999470234	1.0133670999202877	0.7666849999222904	265.5548179000616	0.3897996000014245	264.5323708001524	2	1	31	4	go_reward	1	1	0	1	1	1	0	0.0	1.0	1	0.4648289999458939	0.3897996000014245	1204.7508115000091	1464.1574124000035	1465.162951100152	1465.726040400099	1467.2578231000807	1468.271190200001	1469.2831823001616	1470.3056294000708	1471.312118000118	1472.0788030000404	2020-11-11 13:44:41.342856	28.4365220018907	24.8211016157956	0.0	24.8211016157956	28.4365220018907	0.0	-28.4365220018907	24.8211016157956	0.0	28.4365220018907	0.0	4.2110701927243	17.39194823533357	19.978883723638038	-3.2130573320676232	15.59056216411976	21.45934635641169	-3.2130573320676232	3.538371762215524	17.819118629838812	0.4271703945052501	15.495433671002974	1.2703927205674395	3	correct	1.0
267.33329600002594	8.227606199914817	go_punish	0.3003948000259697	267.37565370020434	268.93874670006335	271.51567460014485	1.563092999859009	268.38028650009096	270.5019671001937	274.55708679999225	0.5584601999723873	1.0137074999511242	1.0461731001269072	273.5500996001065	0.3305780000519007	272.52659210003935	2	1	32	2	go_punish	0	-1	0	1	1	1	0	0.0	1.0	-1	0.3003948000259697	0.3305780000519007	1204.7508115000091	1472.1264652002135	1473.1310980001	1473.6895582000725	1475.2527786002029	1476.266486100154	1477.2774036000485	1478.3009111001156	1479.3078983000014	1480.3540714001283	2020-11-11 13:44:41.342856	0.473597254576222	-3.25047360887621	-4.68069707943055	-3.28518114280992	-4.20709982485433	-4.68069707943055	-0.473597254576222	-3.25047360887621	-4.68069707943055	-4.20709982485433	-4.68069707943055	-1.7567260387823302	-10.570976511980911	-8.092691501033773	-7.893754411498173	-12.515720594485762	-11.18427547033334	-7.893754411498173	-2.429424469291106	-14.824503196906218	-4.2535266849252995	-12.576141553668837	-3.41030435886311	3	correct	1.0
275.6063455999829	8.942057499894872	nogo_reward	1.0	275.6487033001613	278.07741210004315	280.59457880002446	2.4287087998818606	276.65321610006504	279.5820675001014	283.63654790003784	1.4241959999781102	1.0125112999230623	0.9542129000183195	282.62981820013374	0.4106652000918984	281.6068012001924	2	1	33	3	nogo_reward	1	0	1	0	0	1	0	0.0	1.0	1	1.0	0.4106652000918984	1204.7508115000091	1480.3995148001704	1481.4040276000742	1482.8282236000523	1484.3328790001106	1485.3453903000336	1486.3576127002016	1487.380629700143	1488.387359400047	1489.3415723000653	2020-11-11 13:44:41.342856	24.4883407390406	0.0	28.809524040452	28.809524040452	4.32118330141143	28.809524040452	-24.4883407390406	28.809524040452	0.0	28.809524040452	4.32118330141143	0.2226477680679011	13.443766972483466	-4.842217892157563	25.596466708384376	19.57898458877616	-2.655992344067581	25.596466708384376	-0.45005066244087455	18.192120668400115	4.74835369591668	19.483856095659373	1.2703927205674395	3	correct	1.0
284.59234239999205	9.582905599847436	nogo_reward	1.0	284.63470010017045	287.24794460018165	289.7631260000635	2.6132445000112057	285.63963560014963	288.75305460020877	292.80723090004176	1.6083090000320226	1.0100713998547235	1.4103747999761254	291.8007089002058	0.3894972000271082	290.77750380011275	2	1	34	3	nogo_reward	0	1	0	0	0	1	0	0.0	1.0	0	1.0	0.3894972000271082	1204.7508115000091	1489.3855116001796	1490.3904471001588	1491.9987561001908	1493.503866100218	1494.5139375000726	1495.528315300122	1496.551520400215	1497.558042400051	1498.968417200027	2020-11-11 13:44:41.342856	24.5821160426906	0.0	28.9243250382402	28.9243250382402	4.34220899554959	28.9243250382402	-24.5821160426906	28.9243250382402	0.0	28.9243250382402	4.34220899554959	-28.9243250382402	13.537542276133468	-4.842217892157563	25.711267706172578	19.69378558656436	-2.634966649929421	25.711267706172578	-29.597023468748976	18.306921666188316	4.76937939005484	19.598657093447574	1.2703927205674395	3	correct	1.0
294.1990797999315	8.160797900054604	go_reward	0.4387737000361085	294.2414375001099	295.5723627000116	298.11864690016955	1.3309251999016851	295.2464420001488	297.1049567000009	301.16041590017267	0.3259206998627633	1.0136902001686394	1.2418194999918342	300.1538341999985	0.4798771000932902	299.130183900008	2	1	35	4	go_reward	1	1	0	1	1	1	0	0.0	1.0	1	0.4387737000361085	0.4798771000932902	1204.7508115000091	1498.992249000119	1499.997253500158	1500.3231742000207	1501.85576820001	1502.8694584001787	1503.8809954000171	1504.9046457000077	1505.9112274001818	1507.1530469001736	2020-11-11 13:44:41.342856	31.2679536751482	27.2315406890275	0.0	27.2315406890275	31.2679536751482	0.0	-31.2679536751482	27.2315406890275	0.0	31.2679536751482	0.0	1.800631119492401	20.223379908591067	22.389322796869937	-3.2130573320676232	18.00100123735166	24.290778029669188	-3.2130573320676232	1.1279326889836252	20.65055030309631	0.4271703945052501	17.905872744234873	1.2703927205674395	3	correct	1.0
302.38444339996204	8.631182000041008	go_reward	0.2553749000653624	302.42680110014044	304.2460607001558	306.79203700018115	1.8192596000153571	303.43198600015603	305.77775300014764	309.83492809999734	0.8140746999997646	1.0142840000335127	1.2230550001841038	308.82832800014876	0.2807700999546796	307.8032643001061	2	1	36	4	go_reward	1	1	0	1	1	1	0	0.0	1.0	1	0.2553749000653624	0.2807700999546796	1204.7508115000091	1507.1776126001496	1508.1827975001652	1508.996872200165	1510.5285645001568	1511.5428485001903	1512.5540758001152	1513.579139500158	1514.5857396000065	1515.8087946001906	2020-11-11 13:44:41.342856	32.4317501897845	28.2186412830455	0.0	28.2186412830455	32.4317501897845	0.0	-32.4317501897845	28.2186412830455	0.0	32.4317501897845	0.0	0.8135305254744019	21.38717642322737	23.376423390887936	-3.2130573320676232	18.988101831369658	25.45457454430549	-3.2130573320676232	0.1408320949656262	21.814346817732613	0.4271703945052501	18.892973338252872	1.2703927205674395	3	correct	1.0
311.06186799984425	8.628631200175732	nogo_reward	1.0	311.10422570002265	312.83194040018134	315.34650119999424	1.7277147001586854	312.1090054002125	314.3370656000916	318.3878528000787	0.7229349999688566	1.0094355999026448	1.345004100119695	317.38107970007695	0.3773332999553531	316.3585569001734	2	1	37	3	nogo_reward	0	1	0	0	0	1	0	0.0	1.0	0	1.0	0.3773332999553531	1204.7508115000091	1515.8550372000318	1516.8598169002216	1517.5827519001905	1519.0878771001007	1520.0973127000034	1521.1093684001826	1522.131891200086	1523.1386643000878	1524.4836684002075	2020-11-11 13:44:41.342856	9.12458491100785	0.0	10.5014155633844	10.5014155633844	1.3768306523766	10.5014155633844	-9.12458491100785	10.5014155633844	0.0	10.5014155633844	1.3768306523766	-10.5014155633844	-1.919988855549283	-4.842217892157563	7.288358231316777	1.2708761117085583	-5.600344993102411	7.288358231316777	-11.174113993893176	-0.11598780866748726	1.8040010468818501	1.1757476185917728	1.2703927205674395	3	correct	1.0
319.7361153999809	8.694741699844599	nogo_reward	1.0	319.7784731001593	321.56403550016694	324.07981720007956	1.7855624000076205	320.78324000001885	323.069938900182	327.12395150004886	0.7807955001480877	1.0098782998975366	1.3492632999550551	326.11779390019365	0.3583343999926001	325.0927961000707	2	1	38	3	nogo_reward	0	1	0	0	0	1	0	0.0	1.0	0	1.0	0.3583343999926001	1204.7508115000091	1524.5292846001685	1525.534051500028	1526.314847000176	1527.8207504001912	1528.8306287000887	1529.8436076000798	1530.8686054002028	1531.874763000058	1533.224026300013	2020-11-11 13:44:41.342856	3.87165337985006	0.0	4.18300751530075	4.18300751530075	0.311354135450685	4.18300751530075	-3.87165337985006	4.18300751530075	0.0	4.18300751530075	0.311354135450685	-4.18300751530075	-7.172920386707072	-4.842217892157563	0.9699501832331272	-5.0475319363750915	-6.665821510028326	0.9699501832331272	-4.855705945809526	-6.434395856751137	0.7385245299559351	-5.142660429491877	1.2703927205674395	3	correct	1.0
328.4599444998894	9.793281400110573	nogo_punish	1.0	328.5023022000678	331.27107780007645	333.78632950014435	2.7687756000086665	329.50708690006286	332.77590220002435	336.82812200021	1.7639909000135958	1.01042730012	1.4674615999683738	335.82119700009935	0.3147497000172734	334.79848650004715	2	1	39	1	nogo_punish	1	-1	0	0	0	1	0	0.0	1.0	0	1.0	0.3147497000172734	1204.7508115000091	1533.253113700077	1534.257898400072	1536.0218893000856	1537.5267137000335	1538.5371410001535	1539.5492980000563	1540.5720085001085	1541.5789335002191	1543.0463951001875	2020-11-11 13:44:41.342856	3.59081796821582	-3.14678966876795	0.0	-0.077932883027361	-3.59081796821582	0.0	-3.59081796821582	0.0	-3.14678966876795	0.0	-3.59081796821582	0.0	-7.453755798341312	-7.989007560925513	-3.2130573320676232	-9.308472334703202	-10.567993613694831	-3.2130573320676232	-0.6726984305087756	-10.617403372051887	-3.16364757371057	-9.325667944792627	-1.8763969482005105	3	correct	1.0
338.28224269999214	9.881159299984347	nogo_punish	1.0	338.32460040017054	341.30451200017706	343.82051470014267	2.979911600006517	339.3290119001176	342.80976309999824	346.8616873000283	1.9755001000594348	1.010751600144431	1.3440724001266062	345.85538429999724	0.3327250001020729	344.8313884001691	2	1	40	1	nogo_punish	1	-1	0	0	0	1	0	0.0	1.0	0	1.0	0.3327250001020729	1204.7508115000091	1543.0754119001797	1544.0798234001268	1546.0553235001862	1547.5605746000074	1548.5713262001518	1549.5821999001782	1550.6061958000064	1551.6124988000374	1552.956571200164	2020-11-11 13:44:41.342856	3.58339238339816	-3.14678966876795	0.0	-0.0358933268158587	-3.58339238339816	0.0	-3.58339238339816	0.0	-3.14678966876795	0.0	-3.58339238339816	0.0	-7.461181383158973	-7.989007560925513	-3.2130573320676232	-9.266432778491701	-10.56056802887717	-3.2130573320676232	-0.6726984305087756	-10.617403372051887	-3.1562219888929097	-9.325667944792627	-1.8763969482005105	3	correct	1.0
348.19598939991556	9.911023600026965	go_reward	0.3720125001855194	348.23834710009396	351.07296350016236	353.6432975002099	2.8346164000683984	349.2433115001768	352.62613800005056	356.68654340016656	1.8296519999855718	1.0171595001593232	1.4628272999543697	355.6804472000804	0.3760380002204329	354.65607110015117	2	1	41	4	go_reward	1	1	0	1	1	1	0	0.0	1.0	1	0.3720125001855194	0.3760380002204329	1204.7508115000091	1552.989158600103	1553.994123000186	1555.8237750001715	1557.3769495000597	1558.394109000219	1559.4068826001603	1560.4312587000895	1561.4373549001757	1562.90018220013	2020-11-11 13:44:41.342856	32.9387046256622	28.6475242302981	0.0	28.6475242302981	32.9387046256622	0.0	-32.9387046256622	28.6475242302981	0.0	32.9387046256622	0.0	0.3846475782218022	21.894130859105065	23.805306338140536	-3.2130573320676232	19.416984778622258	25.961528980183186	-3.2130573320676232	-0.28805085228697347	22.321301253610308	0.4271703945052501	19.321856285505472	1.2703927205674395	3	correct	1.0
358.1335654000286	8.636481900000945	nogo_punish	1.0	358.175923100207	360.01595430006296	362.5356445000507	1.8400311998559573	359.1803749999963	361.52166430000216	365.5761737001594	0.8355793000666836	1.013980200048536	1.23623130004853	364.5694722000044	0.5144740999676287	363.54650000017136	2	1	42	1	nogo_punish	0	0	-1	0	0	1	1	1.0	1.0	-1	1.0	0.5144740999676287	1204.7508115000091	1562.9267346002162	1563.9311865000054	1564.766765800072	1566.2724758000113	1567.2864560000598	1568.2973115001805	1569.3202837000135	1570.3269852001686	1571.563216500217	2020-11-11 13:44:41.342856	3.58005392817126	-3.14678966876795	0.0	-0.0172084848256447	-3.58005392817126	0.0	-3.58005392817126	0.0	-3.14678966876795	0.0	-3.58005392817126	-5.00719964765854	-7.464519838385872	-7.989007560925513	-3.2130573320676232	-9.247747936501487	-10.55722957365027	-3.2130573320676232	-5.679898078167316	-10.617403372051887	-3.1528835336660097	-9.325667944792627	-1.8763969482005105	3	correct	1.0
366.7982728998177	8.274903899990022	nogo_punish	1.0	366.8406305999961	368.34276850009314	370.8758388001006	1.5021379000970683	367.8460755001288	369.8477132001426	373.9169509001076	0.49669299996435257	1.0281255999580026	1.198583599878475	372.9105549000669	0.4973023000638932	371.8876383001916	2	1	43	1	nogo_punish	1	-1	0	0	0	1	0	1.0	0.0	0	1.0	0.4973023000638932	1204.7508115000091	1571.5914421000052	1572.596887000138	1573.0935800001023	1574.5985247001518	1575.6266503001098	1576.6384498002008	1577.661366400076	1578.6677624001168	1579.8663459999952	2020-11-11 13:44:41.342856	0.933473429621426	-3.14678966876795	-3.14678966876795	-3.15533224102321	-4.08026309838938	-3.14678966876795	-0.933473429621426	-3.14678966876795	-3.14678966876795	-3.14678966876795	-4.08026309838938	3.14678966876795	-10.111100336935706	-7.989007560925513	-6.359847000835574	-12.385871692699052	-11.05743874386839	-6.359847000835574	2.474091238259174	-13.764193040819837	-3.6530927038841297	-12.472457613560577	-1.8763969482005105	3	wrong	1.0
375.14854189986363	8.671660500112921	go_punish	1.0	375.19089960004203	376.859706700081	379.37851340021007	1.6688071000389755	376.1954122001771	378.36450650007464	382.4225029000081	0.6642944999039173	1.0140069001354277	1.440057200146839	381.41519169998355	0.4879451000597328	380.3910116001498	2	1	44	2	go_punish	1	0	-1	1	0	0	0	0.0	1.0	-1	1.0	0.4879451000597328	1204.7508115000091	1579.9417111000512	1580.9462237001862	1581.6105182000902	1583.1153180000838	1584.1293249002192	1585.141823100159	1586.1660031999927	1587.1733144000173	1588.613371600164	2020-11-11 13:44:41.342856	0.749311219758883	-4.30201095754612	-4.68069707943055	-4.31877213130956	-5.43000829918944	-4.68069707943055	-0.749311219758883	-4.68069707943055	-4.30201095754612	-4.68069707943055	-5.43000829918944	-0.3265025682279905	-10.295262546798249	-9.144228849703683	-7.893754411498173	-13.549311582985402	-12.40718394466845	-7.893754411498173	-0.9992009987367662	-15.298100451482437	-5.00283790468419	-14.006365024223177	-3.03161823697868	3	correct	1.0
383.85031059989706	8.859915799926966	nogo_punish	1.0	383.89266830007546	385.8708449001424	388.3876336000394	1.978176600066945	384.8966052001342	387.37615210004174	391.43728470010683	0.9742397000081837	1.0114814999976716	1.3152993998955935	390.4300780000631	0.4689748000819236	389.4038886001799	2	1	45	1	nogo_punish	1	-1	0	0	0	1	1	1.0	1.0	0	1.0	0.4689748000819236	1204.7508115000091	1588.6434798000846	1589.6474167001434	1590.6216564001516	1592.1269636000509	1593.1384451000486	1594.154700100189	1595.1808895000722	1596.188096200116	1597.5033956000116	2020-11-11 13:44:41.342856	2.65564094683955	-3.14678966876795	-1.10641271381655	-1.11078538970705	-3.7620536606561	-1.10641271381655	-2.65564094683955	-1.10641271381655	-3.14678966876795	-1.10641271381655	-3.7620536606561	1.10641271381655	-8.388932819717581	-7.989007560925513	-4.319470045884174	-10.341324841382892	-10.73922930613511	-4.319470045884174	0.4337142833077744	-11.723816085868437	-3.33488326615085	-10.432080658609177	-1.8763969482005105	3	correct	1.0
392.79135719989426	9.13347469992027	go_punish	0.3182359000202268	392.83371490007266	395.3057796000503	397.92839620006293	2.4720646999776363	393.8375077000819	396.8991888000164	400.970508800121	1.4682718999683857	1.0292074000465163	0.9966807998719105	399.96371060004435	0.381194100016728	398.93988410010934	2	1	46	2	go_punish	1	0	-1	1	1	1	1	1.0	1.0	0	0.3182359000202268	0.381194100016728	1204.7508115000091	1597.5845264000818	1598.588319200091	1600.0565911000594	1601.6500003000256	1602.679207700072	1603.6906956001185	1604.7145221000535	1605.7213203001302	1606.718001100002	2020-11-11 13:44:41.342856	-0.63939408084771	-4.30201095754612	-4.85809198717973	-4.71296562194356	-5.49748606802744	-4.85809198717973	0.63939408084771	-4.30201095754612	-4.85809198717973	-5.49748606802744	-4.85809198717973	4.30201095754612	-11.683967847404842	-9.144228849703683	-8.071149319247354	-13.943505073619402	-12.47466171350645	-8.071149319247354	3.629312527037344	-16.114889440079327	-4.43092159267448	-13.627678902338747	-3.58769926661229	3	correct	1.0
401.95244799996726	8.81196239986457	nogo_punish	1.0	401.99480570014566	404.0410258001648	406.5568421999924	2.046220100019127	403.00126889999956	405.5468334001489	409.59887840016745	1.03975690016523	1.0100087998434901	1.2078896998427808	408.59200639999494	0.306893500033766	407.5690215001814	2	1	47	1	nogo_punish	1	-1	0	0	0	1	1	1.0	1.0	0	1.0	0.306893500033766	1204.7508115000091	1606.7456172001548	1607.7520804000087	1608.791837300174	1610.297644900158	1611.3076537000015	1612.3198330001906	1613.342817900004	1614.3496899001766	1615.5575796000194	2020-11-11 13:44:41.342856	3.22332010541351	-3.14678966876795	-0.427494696846055	-0.429794960213368	-3.65081480225956	-0.427494696846055	-3.22332010541351	-0.427494696846055	-3.14678966876795	-0.427494696846055	-3.65081480225956	0.427494696846055	-7.821253661143622	-7.989007560925513	-3.640552028913678	-9.66033441188921	-10.62799044773857	-3.640552028913678	-0.24520373366272064	-11.044898068897943	-3.22364440775431	-9.753162641638683	-1.8763969482005105	3	correct	1.0
410.79171679983847	8.710128100123256	nogo_punish	1.0	410.83407450001687	412.49571930011734	415.0142670001369	1.6616448001004755	411.83808450004994	414.0017570001073	418.05557790002786	0.6576348000673988	1.0125100000295788	1.4886247001122683	417.04853660007916	0.3290937999263406	416.0250042001717	2	1	48	1	nogo_punish	0	0	-1	0	0	1	0	0.0	1.0	-1	1.0	0.3290937999263406	1204.7508115000091	1615.584886000026	1616.588896000059	1617.2465308001265	1618.7525685001165	1619.765078500146	1620.7758157001808	1621.7993481000883	1622.806389400037	1624.2950141001493	2020-11-11 13:44:41.342856	3.43090440654902	-3.14678966876795	-0.177394907749171	-0.178635144815872	-3.60829931429819	-0.177394907749171	-3.43090440654902	-0.177394907749171	-3.14678966876795	-0.177394907749171	-3.60829931429819	-4.829804739909369	-7.613669360008112	-7.989007560925513	-3.3904522398167942	-9.409174596491713	-10.585474959777201	-3.3904522398167942	-5.502503170418144	-10.794798279801059	-3.1811289197929398	-9.503062852541799	-1.8763969482005105	3	correct	1.0
419.56698789983034	8.557892700191815	go_punish	0.3178181000985205	419.60934560000874	421.151218800107	423.73703810013853	1.54187320009828	420.61374350008555	422.7233522001188	426.77887060004286	0.5374753000214696	1.0136859000197092	1.388367700157687	425.7712032001	0.6425471999682486	424.74853030010127	2	1	49	2	go_punish	1	0	-1	1	1	1	0	1.0	0.0	0	0.3178181000985205	0.6425471999682486	1204.7508115000091	1624.360157100018	1625.3645550000947	1625.9020303001162	1627.474163700128	1628.4878496001477	1629.4993418001104	1630.5220147001091	1631.529682100052	1632.9180498002097	2020-11-11 13:44:41.342856	2.57832810295503	-1.55778883474607	-4.85809198717973	-1.72771536744367	-2.2797638842247	-4.85809198717973	-2.57832810295503	-1.55778883474607	-4.85809198717973	-2.2797638842247	-4.85809198717973	1.55778883474607	-8.466245663602102	-6.400006726903633	-8.071149319247354	-10.958254819119512	-9.256939529703711	-8.071149319247354	0.8850904042372943	-12.897167256276587	-4.43092159267448	-10.883456779538697	-3.58769926661229	3	wrong	1.0
428.15171609981917	9.260032100137323	go_reward	0.26985720009543	428.19407379999757	430.92604090017267	433.49913450004533	2.7319671001750976	429.1988703000825	432.484788000118	436.54062690003775	1.7271706000901759	1.014346499927342	0.9134790000971407	435.53397030010797	0.4709991998970508	434.5098493001424	2	1	50	4	go_reward	1	1	0	1	1	1	0	0.0	1.0	1	0.26985720009543	0.4709991998970508	1204.7508115000091	1632.9448853000067	1633.9496818000916	1635.6768524001818	1637.2355995001271	1638.2499460000545	1639.2606608001515	1640.2847818001171	1641.291438400047	1642.204917400144	2020-11-11 13:44:41.342856	33.1703248776834	28.8431497198092	0.0	28.8431497198092	33.1703248776834	0.0	-33.1703248776834	28.8431497198092	0.0	33.1703248776834	0.0	0.1890220887107006	22.125751111126267	24.000931827651637	-3.2130573320676232	19.61261026813336	26.193149232204387	-3.2130573320676232	-0.48367634179807506	22.55292150563151	0.4271703945052501	19.517481775016574	1.2703927205674395	3	correct	1.0
437.43591489992104	7.944602099945769	go_reward	0.4112821999005973	437.47827260009944	438.8426189001184	441.4018372001592	1.3643463000189513	438.4825561000034	440.3888457000721	444.4455071000848	0.3600628001149744	1.0129915000870824	0.9773675999604166	443.4386721001938	0.2848284998908639	442.41505410009995	2	1	51	4	go_reward	1	1	0	1	1	1	0	0.0	1.0	1	0.4112821999005973	0.2848284998908639	1204.7508115000091	1642.2290841001086	1643.2333676000126	1643.5934304001275	1645.1396572000813	1646.1526487001684	1647.165865600109	1648.189483600203	1649.196318600094	1650.1736862000544	2020-11-11 13:44:41.342856	33.280501972258	28.9361190856054	0.0	28.9361190856054	33.280501972258	0.0	-33.280501972258	28.9361190856054	0.0	33.280501972258	0.0	0.09605272291450007	22.23592820570087	24.093901193447838	-3.2130573320676232	19.70557963392956	26.30332632677899	-3.2130573320676232	-0.5766457075942756	22.663098600206112	0.4271703945052501	19.610451140812774	1.2703927205674395	3	correct	1.0
445.48622089996934	8.667727999854606	nogo_reward	1.0	445.52857860014774	447.18310740007996	449.69885110016935	1.6545287999322227	446.5342037000228	448.68846500013024	452.7394940000959	0.6489037000571898	1.0103861000391134	1.4568125999064705	451.7326053001452	0.3215011002030223	450.70939279999584	2	1	52	3	nogo_reward	0	1	0	0	0	1	0	0.0	1.0	0	1.0	0.3215011002030223	1204.7508115000091	1650.279390100157	1651.285015200032	1651.933918900089	1653.4392765001394	1654.4496626001785	1655.460204300005	1656.4834168001544	1657.490305500105	1658.9471181000115	2020-11-11 13:44:41.342856	1.89288577863481	0.0	1.78567132380458	1.78567132380458	-0.107214454830235	1.78567132380458	-1.89288577863481	1.78567132380458	0.0	1.78567132380458	-0.107214454830235	-1.78567132380458	-9.151687987922323	-4.842217892157563	-1.4273860082630432	-7.444868127871262	-7.084390100309245	-1.4273860082630432	-2.4583697543133556	-8.831732048247307	0.31995593967501507	-7.539996620988047	1.2703927205674395	3	correct	1.0
454.20010989997536	9.0357935000211	go_punish	0.3253311000298708	454.24246760015376	456.5976011999883	459.1898040000815	2.3551335998345166	455.247056200169	458.16018600016855	462.23533270019107	1.350544999819249	1.0296179999129436	1.0429283999837935	461.22860190016195	0.4298956000711769	460.2030979001429	2	1	53	2	go_punish	1	0	-1	1	1	1	0	0.0	1.0	0	0.3253311000298708	0.4298956000711769	1204.7508115000091	1658.993279100163	1659.9978677001782	1661.3484126999974	1662.9109975001777	1663.9406155000906	1664.953909400152	1665.979413400171	1666.9861442002002	1668.029072600184	2020-11-11 13:44:41.342856	3.69100501458442	-0.616972677284496	-4.85809198717973	-0.691417690930244	-1.16708697259531	-4.85809198717973	-3.69100501458442	-0.616972677284496	-4.85809198717973	-1.16708697259531	-4.85809198717973	0.616972677284496	-7.353568751972713	-5.459190569442058	-8.071149319247354	-9.921957142606086	-8.14426261807432	-8.071149319247354	-0.05572575322427964	-11.784490344647198	-4.43092159267448	-9.942640622077123	-3.58769926661229	3	correct	1.0
463.26004219986476	8.266361400019605	go_reward	0.2971206000074744	463.30239990004316	465.0697763999924	467.61784660001285	1.7673764999492505	464.30754710012116	466.60323770018294	470.65981169999577	0.762229299871251	1.0146088998299092	0.9089496000669897	469.6530504000839	0.4282308998517692	468.6289003000129	2	1	54	4	go_reward	1	1	0	1	1	1	0	0.0	1.0	1	0.2971206000074744	0.4282308998517692	1204.7508115000091	1668.0532114000523	1669.0583586001303	1669.8205879000016	1671.354049200192	1672.368658100022	1673.379711800022	1674.403861900093	1675.410623200005	1676.319572800072	2020-11-11 13:44:41.342856	33.3347683217235	28.9818961323322	0.0	28.9818961323322	33.3347683217235	0.0	-33.3347683217235	28.9818961323322	0.0	33.3347683217235	0.0	0.050275676187702345	22.29019455516637	24.139678240174636	-3.2130573320676232	19.751356680656357	26.35759267624449	-3.2130573320676232	-0.6224227543210733	22.717364949671612	0.4271703945052501	19.656228187539572	1.2703927205674395	3	correct	1.0
471.55379609996453	9.46878260001563	go_reward	0.3107427000068128	471.59615380014293	474.30713209998794	476.89039870002307	2.71097829984501	472.6001236999873	475.8775526001118	479.93543050019093	1.7070084000006318	1.0128460999112576	1.1295058999676257	478.92804560018703	0.4978482001461088	477.90301300003193	2	1	55	4	go_reward	0	0	1	1	1	1	0	0.0	1.0	0	0.3107427000068128	0.4978482001461088	1204.7508115000091	1676.346965300152	1677.3509351999965	1679.057943599997	1680.628364100121	1681.6412102000322	1682.653824500041	1683.6788571001962	1684.6862420002	1685.8157479001677	2020-11-11 13:44:41.342856	33.3623275938847	29.0051495299631	0.0	29.0051495299631	33.3623275938847	0.0	-33.3623275938847	29.0051495299631	0.0	33.3623275938847	0.0	-29.0051495299631	22.317753827327568	24.162931637805535	-3.2130573320676232	19.774610078287257	26.38515194840569	-3.2130573320676232	-29.677847960471873	22.74492422183281	0.4271703945052501	19.67948158517047	1.2703927205674395	3	correct	1.0
481.05373389995634	8.14241309999511	go_reward	0.3003424999769777	481.09609160013474	482.6006490001455	485.1760454000905	1.5045574000107536	482.09994350001216	484.15430920012295	488.2201842002105	0.5007055001333356	1.0217361999675632	1.018320499919355	487.2126374000218	0.4906128000002354	486.1874457001686	2	1	56	4	go_reward	1	1	0	1	1	1	1	1.0	1.0	1	0.3003424999769777	0.4906128000002354	1204.7508115000091	1685.846903100144	1686.8507550000213	1687.3514605001546	1688.905120700132	1689.9268569000997	1690.9382572001778	1691.963448900031	1692.9709957002196	1693.989316200139	2020-11-11 13:44:41.342856	11.9248182589014	10.5406884139384	0.0	10.5406884139384	11.9248182589014	0.0	-11.9248182589014	10.5406884139384	0.0	11.9248182589014	0.0	18.4914833945815	0.8802444923442678	5.698470521780837	-3.2130573320676232	1.3101489622625575	4.947642613422389	-3.2130573320676232	17.818784964072726	1.3074148868495126	0.4271703945052501	1.215020469145772	1.2703927205674395	3	correct	1.0
489.22279399982654	9.18997020018287	nogo_punish	1.0	489.26515170000494	492.0358663001098	494.5515267001465	2.7707146001048386	490.2690742001869	493.54093220015056	497.59270570008084	1.7667920999228954	1.010594499995932	0.8624162001069635	496.58578830002807	0.3655707000289112	495.5634214000311	2	1	57	1	nogo_punish	1	-1	0	0	0	1	0	0.0	1.0	0	1.0	0.3655707000289112	1204.7508115000091	1694.015963200014	1695.019885700196	1696.786677800119	1698.2917437001597	1699.3023382001556	1700.3142329000402	1701.3365998000372	1702.34351720009	1703.205933400197	2020-11-11 13:44:41.342856	0.867981506198899	-3.14678966876795	-3.22472255179531	-3.2254063919106	-4.09270405799421	-3.22472255179531	-0.867981506198899	-3.22472255179531	-3.14678966876795	-3.22472255179531	-4.09270405799421	3.22472255179531	-10.176592260358234	-7.989007560925513	-6.437779883862934	-12.455945843586441	-11.06987970347322	-6.437779883862934	2.5520241212865344	-13.842125923847197	-3.6655336634889597	-12.550390496587937	-1.8763969482005105	3	correct	1.0
498.4420346999541	9.077165399910655	nogo_punish	1.0	498.4843924001325	500.65326160006225	503.1716246001888	2.168869199929759	499.48897350020707	502.1588086001575	506.2124583001714	1.1642880998551846	1.0128160000313073	1.349099499871727	505.20557010010816	0.4240065000485629	504.1820458001457	2	1	58	1	nogo_punish	1	-1	0	0	0	1	0	0.0	1.0	0	1.0	0.4240065000485629	1204.7508115000091	1703.2352039001416	1704.2397850002162	1705.4040731000714	1706.9096201001666	1707.922436100198	1708.9328573001549	1709.9563816001173	1710.9632698001806	1712.3123693000523	2020-11-11 13:44:41.342856	2.62546233111151	-3.14678966876795	-1.14230604063241	-1.14269090502669	-3.76776837174392	-1.14230604063241	-2.62546233111151	-1.14230604063241	-3.14678966876795	-1.14230604063241	-3.76776837174392	1.14230604063241	-8.419111435445622	-7.989007560925513	-4.355363372700033	-10.373230356702532	-10.744944017222931	-4.355363372700033	0.4696076101236343	-11.759709412684298	-3.34059797723867	-10.467973985425036	-1.8763969482005105	3	correct	1.0
507.58156639989465	8.00564970006235	go_punish	0.4557132998015731	507.62392410007305	509.01011230004974	511.5872678000014	1.3861881999766865	508.62849810021	510.56688740011305	514.6288505000994	0.38161419983975975	1.0203803998883814	1.000723300036043	513.621280200081	0.4440083999652415	512.5996922000777	2	1	59	2	go_punish	1	0	-1	1	1	1	0	0.0	1.0	0	0.4557132998015731	0.4440083999652415	1204.7508115000091	1712.3747356000822	1713.3793096002191	1713.760923800059	1715.3176989001222	1716.3380793000106	1717.3505037000868	1718.37209170009	1719.3796620001085	1720.3803853001446	2020-11-11 13:44:41.342856	4.11408043154043	-0.261624543849021	-4.85809198717973	-0.295841061311668	-0.744011555639297	-4.85809198717973	-4.11408043154043	-0.261624543849021	-4.85809198717973	-0.744011555639297	-4.85809198717973	0.261624543849021	-6.930493335016703	-5.103842436006584	-8.071149319247354	-9.52638051298751	-7.721187201118307	-8.071149319247354	-0.41107388665975464	-11.361414927691184	-4.43092159267448	-9.587292488641648	-3.58769926661229	3	correct	1.0
515.6306389998645	8.34706180007197	go_punish	0.483770800055936	515.6729967000429	517.0261882999912	519.5745428001972	1.3531915999483317	516.6767396000212	518.5640353001654	522.6155870000366	0.3494486999700257	1.0105075000317356	1.4044715000782162	521.6092122001573	0.3201981999445706	520.5858572002035	2	1	60	2	go_punish	1	0	-1	1	1	1	0	0.0	1.0	0	0.483770800055936	0.3201981999445706	1204.7508115000091	1720.423808200052	1721.4275511000303	1721.7769998000003	1723.3148468001746	1724.3253543002063	1725.3366687002126	1726.3600237001665	1727.3663985000458	1728.770870000124	2020-11-11 13:44:41.342856	4.28690771926801	-0.117195177720103	-4.85809198717973	-0.133577028713229	-0.571184267911718	-4.85809198717973	-4.28690771926801	-0.117195177720103	-4.85809198717973	-0.571184267911718	-4.85809198717973	0.117195177720103	-6.757666047289122	-4.959413069877666	-8.071149319247354	-9.364116480389072	-7.548359913390729	-8.071149319247354	-0.5555032527886726	-11.188587639963606	-4.43092159267448	-9.44286312251273	-3.58769926661229	3	correct	1.0
