onset	duration	trial_type	response_time	cueOnset	targetOnset	fbOnset	cueRT	firstfixOnset	secondfixOnset	waitOnset	firstfixdur	secondfixdur	waitdur	nback_fbOnset	nback_response_time	nback_targetOnset	block	wm	trial	cue	cond	is_common	outcome_go	outcome_nogo	key_correct	key_pressed	is_correct	key_correct_nback	key_pressed_nback	is_correct_nback	outcome	rt	rt_nback	time_scan	time_onset	time_isi1	time_circle	time_isi2	time_feedback	time_same	time_correct	time_iti	time_done	timestamp_scan	DV	Qgo	Qnogo	SV	Wgo	Wnogo	mDV	Qchosen	Qunchosen	Wchosen	Wunchosen	PE	DVC	QgoC	QnogoC	SVC	WgoC	WnogoC	PEC	WchosenC	WunchosenC	QchosenC	QunchosenC	run	outcome_nback	nback_targetResp
0.0	8.858240200206865	nogo_reward	1.0	0.03194579994305968	1.8286512000486255	4.364070100011304	1.7967054001055658	1.0371226000133902	3.3336569000966847	7.422030700137839	0.7915286000352353	1.0304131999146193	1.4681553000120857	6.414792200084548	0.4554997999221086	5.382789900060743	2	1	61	3	nogo_reward	0	1	0	0	0	1	0	0.0	1.0	0	1.0	0.4554997999221086	1790.8153663000558	1790.8473120999988	1791.8524889000691	1792.6440175001044	1794.1490232001524	1795.179436400067	1796.1981562001165	1797.2301585001403	1798.2373970001936	1799.7055523002057	2020-11-11 13:54:27.408393	1.08801065924842	0.0	0.805349419383795	0.805349419383795	-0.282661239864625	0.805349419383795	-1.08801065924842	0.805349419383795	0.0	0.805349419383795	-0.282661239864625	-0.805349419383795	-9.956563107308712	-4.842217892157563	-2.4077079126838283	-8.425190032292047	-7.259836885343636	-2.4077079126838283	-1.4780478498925707	-9.812053952668093	0.14450915464062508	-8.520318525408832	1.2703927205674395	4	correct	1.0
8.905475900042802	8.384281800128292	nogo_reward	1.0	8.937421699985862	10.357137399958447	12.87556560011626	1.4197156999725848	9.941866399953142	11.862670300062746	15.917513499967754	0.4152710000053048	1.0128953000535148	1.4041900001464	14.910624200012535	0.4194803000427782	13.886839900165796	2	1	62	3	nogo_reward	1	0	1	0	0	1	0	0.0	1.0	1	1.0	0.4194803000427782	1790.8153663000558	1799.7527880000416	1800.757232700009	1801.1725037000142	1802.6780366001185	1803.690931900172	1804.7022062002216	1805.7259905000683	1806.7328798000235	1808.13706980017	2020-11-11 13:54:27.408393	0.740141686218238	0.0	0.380068025440533	0.380068025440533	-0.360073660777705	0.380068025440533	-0.740141686218238	0.380068025440533	0.0	0.380068025440533	-0.360073660777705	28.65210378307937	-10.304432080338895	-4.842217892157563	-2.8329893066270904	-8.850471426235309	-7.337249306256716	-2.8329893066270904	27.979405352570595	-10.237335346611355	0.0670967337275451	-8.945599919352095	1.2703927205674395	4	correct	1.0
17.332383500179276	8.59464029991068	nogo_punish	1.0	17.364329300122336	19.340079399989918	21.87315470003523	1.9757500998675823	18.368156700162217	20.845394700067118	24.915512199979275	0.9719226998277009	1.0277599999681115	1.0434574000537395	23.907614700030535	0.3927184001076966	22.885471699992195	2	1	63	1	nogo_punish	1	-1	0	0	0	1	0	0.0	1.0	0	1.0	0.3927184001076966	1790.8153663000558	1808.179695600178	1809.183523000218	1810.1554457000457	1811.6607610001229	1812.688521000091	1813.700838000048	1814.7229810000863	1815.730878500035	1816.7743359000888	2020-11-11 13:54:27.408393	3.20883280503679	-3.14678966876795	-0.4447031816717	-0.44492391403132	-3.65353598670849	-0.4447031816717	-3.20883280503679	-0.4447031816717	-3.14678966876795	-0.4447031816717	-3.65353598670849	0.4447031816717	-7.835740961520342	-7.989007560925513	-3.657760513739323	-9.675463365707161	-10.6307116321875	-3.657760513739323	-0.22799524883707567	-11.062106553723588	-3.2263655922032397	-9.770371126464328	-1.8763969482005105	4	correct	1.0
25.972187200095505	8.209734299918637	go_punish	0.3077489999122917	26.004133000038564	27.730563000077154	30.33298690011725	1.7264300000385902	27.00852830009535	29.323652200168226	33.37492820015177	0.7220346999818048	1.0093346999490223	0.8389390998054296	32.36798680014908	0.391479300102219	31.34374350006715	2	1	64	2	go_punish	1	0	-1	1	1	1	0	0.0	1.0	0	0.3077489999122917	0.391479300102219	1790.8153663000558	1816.8194993000943	1817.823894600151	1818.545929300133	1820.139018500224	1821.148353200173	1822.159109800123	1823.1833531002048	1824.1902945002075	1825.029233600013	2020-11-11 13:54:27.408393	4.36167429198424	-0.0549476454621128	-4.85809198717973	-0.0630737074744031	-0.496417695195484	-4.85809198717973	-4.36167429198424	-0.0549476454621128	-4.85809198717973	-0.496417695195484	-4.85809198717973	0.0549476454621128	-6.682899474572892	-4.897165537619675	-8.071149319247354	-9.293613159150246	-7.473593340674495	-8.071149319247354	-0.6177507850466628	-11.113821067247372	-4.43092159267448	-9.38061559025474	-3.58769926661229	4	correct	1.0
34.22603120002918	7.902973500079952	go_punish	0.3914902999531477	34.25797699997224	35.819713399978355	38.36392170004501	1.5617364000061116	35.26233870000533	37.35361730004661	41.40536710014544	0.5573746999730247	1.0103043999984038	0.7555833999067545	40.39885120000713	0.4110019998624921	39.37637250008993	2	1	65	2	go_punish	1	0	-1	1	1	1	0	0.0	1.0	0	0.3914902999531477	0.4110019998624921	1790.8153663000558	1825.073343300028	1826.077705000061	1826.635079700034	1828.1689836001024	1829.1792880001008	1830.1917388001457	1831.214217500063	1832.2207334002012	1832.976316800108	2020-11-11 13:54:27.408393	4.39559298366931	-0.0267844625650585	-4.85809198717973	-0.0309432526306833	-0.462499003510413	-4.85809198717973	-4.39559298366931	-0.0267844625650585	-4.85809198717973	-0.462499003510413	-4.85809198717973	0.0267844625650585	-6.648980782887822	-4.869002354722621	-8.071149319247354	-9.261482704306525	-7.439674648989423	-8.071149319247354	-0.6459139679437171	-11.0799023755623	-4.43092159267448	-9.352452407357687	-3.58769926661229	4	correct	1.0
42.17225090018519	8.608138199895166	nogo_reward	1.0	42.20419670012825	44.20449379994534	46.72375870007113	2.0002970998170895	43.20806700014509	45.710482800146565	49.76562930014916	0.996426799800247	1.0132758999245652	1.046705599874258	48.75946129998192	0.4900847000535577	47.73509860015474	2	1	66	3	nogo_reward	1	0	1	0	0	1	0	0.0	1.0	1	1.0	0.4900847000535577	1790.8153663000558	1833.019563000184	1834.0234333002008	1835.019860100001	1836.5258491002023	1837.539125000127	1838.5504649002105	1839.5748276000377	1840.580995600205	1841.6277012000792	2020-11-11 13:54:27.408393	16.083435259823	0.0	18.6630089705191	18.6630089705191	2.57957371069614	18.6630089705191	-16.083435259823	18.6630089705191	0.0	18.6630089705191	2.57957371069614	10.3691628380008	5.038861493265866	-4.842217892157563	15.449951638451477	9.43246951884326	-4.3976019347828705	15.449951638451477	9.696464407492025	8.045605598467214	3.00674410520139	9.337341025726474	1.2703927205674395	4	correct	1.0
50.80457370006525	9.44882509997069	go_reward	0.351455699885264	50.83651950000831	53.30589279998094	55.84965220000595	2.4693732999726308	51.84123719995864	54.83657660009294	58.894318500068266	1.4646556000222972	1.0130755999130088	1.3910260999107322	57.887228999985155	0.4657429999206215	56.86261530010938	2	1	67	4	go_reward	1	1	0	1	1	1	0	0.0	1.0	1	0.351455699885264	0.4657429999206215	1790.8153663000558	1841.651885800064	1842.6566035000144	1844.1212591000367	1845.6519429001487	1846.6650185000617	1847.6779816001651	1848.702595300041	1849.709684800124	1851.1007109000348	2020-11-11 13:54:27.408393	25.9696042448531	22.6793029745117	0.0	22.6793029745117	25.9696042448531	0.0	-25.9696042448531	22.6793029745117	0.0	25.9696042448531	0.0	6.352868834008202	14.92503047829597	17.837085082354136	-3.2130573320676232	13.448763522835858	18.99242859937409	-3.2130573320676232	5.680170403499426	15.352200872801214	0.4271703945052501	13.353635029719072	1.2703927205674395	4	correct	1.0
60.308405700139474	8.511361599900056	nogo_reward	1.0	60.340351500082534	61.84400609997101	64.36310239997715	1.5036545998884776	61.34437800012529	63.35001970012672	67.41201870003715	0.4996280998457223	1.013082699850429	1.439694399945438	66.40491660009138	0.2793240998871624	65.37508160015591	2	1	68	3	nogo_reward	1	0	1	0	0	1	1	1.0	1.0	1	1.0	0.2793240998871624	1790.8153663000558	1851.1557178001383	1852.159744300181	1852.6593724000268	1854.1653860001825	1855.178468700033	1856.1904479002117	1857.2202829001471	1858.227385000093	1859.6670794000383	2020-11-11 13:54:27.408393	21.2827595355966	0.0	24.9156263545704	24.9156263545704	3.63286681897378	24.9156263545704	-21.2827595355966	24.9156263545704	0.0	24.9156263545704	3.63286681897378	4.116545453949502	10.238185769039468	-4.842217892157563	21.702569022502775	15.685086902894557	-3.3443088265052308	21.702569022502775	3.4438470234407266	14.298222982518512	4.0600372134790295	15.589958409777772	1.2703927205674395	4	correct	1.0
68.84619160019793	8.268947499804199	nogo_punish	1.0	68.87813740014099	70.57072940003127	73.08601550012827	1.6925919998902828	69.88299790001474	72.07605380006135	76.12806820007995	0.6877315000165254	1.009961700066924	1.019016699865233	75.12082280009054	0.4401621997822076	74.09804060007468	2	1	69	1	nogo_punish	1	-1	0	0	0	1	0	0.0	1.0	0	1.0	0.4401621997822076	1790.8153663000558	1859.6935037001967	1860.6983642000705	1861.386095700087	1862.891420100117	1863.901381800184	1864.9134069001304	1865.9361891001463	1866.9434345001357	1867.962451200001	2020-11-11 13:54:27.408393	3.42369878488918	-3.14678966876795	-0.185937480004427	-0.186066313013682	-3.6096362648936	-0.185937480004427	-3.42369878488918	-0.185937480004427	-3.14678966876795	-0.185937480004427	-3.6096362648936	0.185937480004427	-7.620874981667953	-7.989007560925513	-3.39899481207205	-9.416605764689525	-10.58681191037261	-3.39899481207205	-0.48676095050434864	-10.803340852056314	-3.18246587038835	-9.511605424797054	-1.8763969482005105	4	correct	1.0
77.13927570008627	9.402969500050403	go_reward	0.38768389984034	77.17122150002933	79.5934856000822	82.13695499999471	2.422264100052871	78.17698370013386	81.12556309998035	85.17778769996903	1.4165018999483436	1.0113919000143596	1.3964033001107055	84.1706404001452	0.5033146000932902	83.1480634000618	2	1	70	4	go_reward	1	1	0	1	1	1	0	0.0	1.0	1	0.38768389984034	0.5033146000932902	1790.8153663000558	1867.986587800085	1868.9923500001896	1870.408851900138	1871.940929400036	1872.9523213000505	1873.9634297001176	1874.986006700201	1875.9931540000248	1877.3895573001355	2020-11-11 13:54:27.408393	30.5571833089546	26.6169234554954	0.0	26.6169234554954	30.5571833089546	0.0	-30.5571833089546	26.6169234554954	0.0	30.5571833089546	0.0	2.415248353024502	19.512609542397467	21.774705563337836	-3.2130573320676232	17.386384003819558	23.580007663475588	-3.2130573320676232	1.7425499225157264	19.93977993690271	0.4271703945052501	17.291255510702772	1.2703927205674395	4	correct	1.0
86.5673519000411	9.194893900071975	go_reward	0.3669008000288158	86.59929769998416	88.81631519994698	91.36057410016656	2.2170174999628216	87.6039899000898	90.34719110000856	94.40573190012901	1.2123252998571843	1.0133830001580009	1.3884596999271253	93.3985609000083	0.5370081998407841	92.37324450002075	2	1	71	4	go_reward	1	1	0	1	1	1	0	0.0	1.0	1	0.3669008000288158	0.5370081998407841	1790.8153663000558	1877.41466400004	1878.4193562001456	1879.6316815000027	1881.1625574000643	1882.1759404002223	1883.1886108000765	1884.213927200064	1885.2210982001848	1886.609557900112	2020-11-11 13:54:27.408393	32.2271696213746	28.0422562928874	0.0	28.0422562928874	32.2271696213746	0.0	-32.2271696213746	28.0422562928874	0.0	32.2271696213746	0.0	0.9899155156325001	21.182595854817468	23.200038400729838	-3.2130573320676232	18.81171684121156	25.24999397589559	-3.2130573320676232	0.3172170851237245	21.60976624932271	0.4271703945052501	18.716588348094774	1.2703927205674395	4	correct	1.0
95.84287920012116	8.08719450002559	nogo_reward	1.0	95.87482500006422	97.44210680015385	99.95981350005627	1.5672818000896314	96.87934620003216	98.94721839996055	103.00231830007374	0.5627606001216918	1.012595100095723	0.9597012000160703	101.99471889995016	0.3897770999465137	100.97046830016188	2	1	72	3	nogo_reward	1	0	1	0	0	1	0	0.0	1.0	1	1.0	0.3897770999465137	1790.8153663000558	1886.69019130012	1887.694712500088	1888.2574731002096	1889.7625847000163	1890.775179800112	1891.7858346002176	1892.810085200006	1893.8176846001295	1894.7773858001456	2020-11-11 13:54:27.408393	23.2354288764286	0.0	27.2809082799567	27.2809082799567	4.04547940352812	27.2809082799567	-23.2354288764286	27.2809082799567	0.0	27.2809082799567	4.04547940352812	1.7512635285632001	12.190855109871467	-4.842217892157563	24.067850947889077	18.05036882828086	-2.931696241950891	24.067850947889077	1.0785650980544244	16.663504907904816	4.47264979803337	17.955240335164074	1.2703927205674395	4	correct	1.0
103.97384110000007	9.194134900113113	go_punish	0.3402341001201421	104.00578689994313	106.44312470010505	108.9988404000178	2.437337800161913	105.00988320005126	107.97432200005255	112.04206170002021	1.4332415000537821	1.0245183999652454	1.1578601000360322	111.03533200011634	0.4107346998061985	110.01150769996457	2	1	73	2	go_punish	1	0	-1	1	1	1	0	0.0	1.0	0	0.3402341001201421	0.4107346998061985	1790.8153663000558	1894.821153199999	1895.825249500107	1897.2584910001608	1898.7896883001083	1899.8142067000736	1900.8268740000203	1901.850698300172	1902.857428000076	1904.015288100112	2020-11-11 13:54:27.408393	4.41161497154147	-0.013505375778533	-4.85809198717973	-0.0156939860103454	-0.446477015638253	-4.85809198717973	-4.41161497154147	-0.013505375778533	-4.85809198717973	-0.446477015638253	-4.85809198717973	0.013505375778533	-6.6329587950156625	-4.855723267936096	-8.071149319247354	-9.246233437686188	-7.423652661117264	-8.071149319247354	-0.6591930547302427	-11.06388038769014	-4.43092159267448	-9.33917332057116	-3.58769926661229	4	correct	1.0
113.1951138000004	9.730514300055802	nogo_punish	1.0	113.22705959994346	115.98861819994613	118.50440640002512	2.7615586000026724	114.2313847001642	117.49394900002517	121.54675010009669	1.7572334997819326	1.0104573999999502	1.4108237999025732	120.53976249997504	0.404712300049141	119.5156785999427	2	1	74	1	nogo_punish	1	-1	0	0	0	1	0	0.0	1.0	0	1.0	0.404712300049141	1790.8153663000558	1904.0424258999992	1905.04675100022	1906.803984500002	1908.309315300081	1909.3197727000809	1910.3310448999985	1911.3551288000308	1912.3621164001524	1913.772940200055	2020-11-11 13:54:27.408393	3.50930573710011	-3.14678966876795	-0.0823055589178668	-0.0823819891470954	-3.59161129601798	-0.0823055589178668	-3.50930573710011	-0.0823055589178668	-3.14678966876795	-0.0823055589178668	-3.59161129601798	0.0823055589178668	-7.535268029457022	-7.989007560925513	-3.29536289098549	-9.312921440822937	-10.56878694149699	-3.29536289098549	-0.5903928715909088	-10.699708930969754	-3.1644409015127297	-9.407973503710494	-1.8763969482005105	4	correct	1.0
122.9723883999975	8.449166800128523	nogo_reward	1.0	123.00433419994056	124.54401529999473	127.06343049998418	1.5396811000541675	124.00850710016675	126.04973389999941	130.10451050009578	0.5355081998279729	1.013696599984769	1.3489904999732971	129.09772780002095	0.5061356001533568	128.07505790004507	2	1	75	3	nogo_reward	1	0	1	0	0	1	0	0.0	1.0	1	1.0	0.5061356001533568	1790.8153663000558	1913.8197004999963	1914.8238734002225	1915.3593816000505	1916.8651002000552	1917.87879680004	1918.8904242001008	1919.9130941000767	1920.9198768001515	1922.2688673001248	2020-11-11 13:54:27.408393	24.0271828138418	0.0	28.2451144593955	28.2451144593955	4.21793164555369	28.2451144593955	-24.0271828138418	28.2451144593955	0.0	28.2451144593955	4.21793164555369	0.7870573491244031	12.982609047284669	-4.842217892157563	25.032057127327874	19.014575007719657	-2.759243999925321	25.032057127327874	0.11435891861562741	17.627711087343613	4.64510204005894	18.91944651460287	1.2703927205674395	4	correct	1.0
131.44993400014914	8.336534400005121	nogo_punish	1.0	131.4818798000922	132.91495790006593	135.43070310004987	1.4330780999737271	132.4859182999935	134.42059310013428	138.47267720010132	0.4290396000724286	1.010109999915585	1.3457369999960065	137.46570930001326	0.3993985999841243	136.44174439995595	2	1	76	1	nogo_punish	1	-1	0	0	0	1	1	1.0	1.0	0	1.0	0.3993985999841243	1790.8153663000558	1922.297246100148	1923.3012846000493	1923.7303242001217	1925.23595940019	1926.2460694001056	1927.2571107000117	1928.281075600069	1929.288043500157	1930.633780500153	2020-11-11 13:54:27.408393	3.54561354513896	-3.14678966876795	-0.0381935901831721	-0.0382396279842772	-3.58380713532213	-0.0381935901831721	-3.54561354513896	-0.0381935901831721	-3.14678966876795	-0.0381935901831721	-3.58380713532213	0.0381935901831721	-7.498960221418172	-7.989007560925513	-3.2512509222507955	-9.268779079660119	-10.56098278080114	-3.2512509222507955	-0.6345048403256035	-10.655596962235059	-3.15663674081688	-9.363861534975799	-1.8763969482005105	4	correct	1.0
139.83083990006708	8.260564200114459	go_punish	0.3675828000996262	139.86278570001014	141.52362110000104	144.08461400005035	1.6608353999909014	140.86733000003733	143.06478579994314	147.12707810010784	0.6562910999637097	1.019828200107213	0.996271800016757	146.12065950012789	0.4881827998906374	145.0979889000298	2	1	77	2	go_punish	1	0	-1	1	1	1	0	0.0	1.0	0	0.3675828000996262	0.4881827998906374	1790.8153663000558	1930.678152000066	1931.682696300093	1932.3389874000568	1933.880152099999	1934.899980300106	1935.9133552000856	1936.9360258001836	1937.9424444001636	1938.9387162001804	2020-11-11 13:54:27.408393	4.41945291476471	-0.0070161396477734	-4.85809198717973	-0.0081972660758722	-0.438639072415015	-4.85809198717973	-4.41945291476471	-0.0070161396477734	-4.85809198717973	-0.438639072415015	-4.85809198717973	0.0070161396477734	-6.625120851792422	-4.849234031805336	-8.071149319247354	-9.238736717751713	-7.415814717894025	-8.071149319247354	-0.6656822908610023	-11.056042444466902	-4.43092159267448	-9.3326840844404	-3.58769926661229	4	correct	1.0
148.11830400000326	7.657879300182685	nogo_punish	1.0	148.15024979994632	149.48018680000655	151.99508260004222	1.3299370000602266	149.15487440000265	150.9848736000713	155.03627189993858	0.32531240000389516	1.0102089999709278	0.7718572001904249	154.02971599996113	0.3576487000100314	153.00646520010173	2	1	78	1	nogo_punish	1	-1	0	0	0	1	1	1.0	1.0	0	1.0	0.3576487000100314	1790.8153663000558	1938.965616100002	1939.9702407000584	1940.2955531000623	1941.800239900127	1942.810448900098	1943.8218315001575	1944.8450823000169	1945.8516381999943	1946.6234954001848	2020-11-11 13:54:27.408393	3.56182672806726	-3.14678966876795	-0.0184487218923458	-0.0184768511219552	-3.58027544995961	-0.0184487218923458	-3.56182672806726	-0.0184487218923458	-3.14678966876795	-0.0184487218923458	-3.58027544995961	0.0184487218923458	-7.482747038489872	-7.989007560925513	-3.231506053959969	-9.249016302797797	-10.557451095438621	-3.231506053959969	-0.6542497086164298	-10.635852093944234	-3.15310505545436	-9.344116666684974	-1.8763969482005105	4	correct	1.0
155.80497930012643	9.613831999944296	nogo_punish	1.0	155.8369251000695	158.6702440001534	161.18410450010538	2.8333189000838956	156.8414519000803	160.17479380010627	164.22697499999754	1.8287921000730876	1.009310699999105	1.2237821000162512	163.2201888000127	0.3746364000253379	162.19551510014549	2	1	79	1	nogo_punish	1	-1	0	0	0	1	0	0.0	1.0	0	1.0	0.3746364000253379	1790.8153663000558	1946.6522914001253	1947.656818200136	1949.4856103002091	1950.990160100162	1951.9994708001611	1953.0108814002012	1954.0355551000684	1955.0423413000533	1956.2661234000695	2020-11-11 13:54:27.408393	3.56938933086792	-3.14678966876795	-0.0092264123705383	-0.0092438310486578	-3.57861574323846	-0.0092264123705383	-3.56938933086792	-0.0092264123705383	-3.14678966876795	-0.0092264123705383	-3.57861574323846	0.0092264123705383	-7.475184435689212	-7.989007560925513	-3.2222837444381613	-9.239783282724499	-10.55579138871747	-3.2222837444381613	-0.6634720181382373	-10.626629784422425	-3.15144534873321	-9.334894357163165	-1.8763969482005105	4	correct	1.0
165.4458771001082	7.869337599957362	nogo_punish	1.0	165.47782290005125	166.82538840011694	169.34032170008868	1.3475655000656843	166.48252780013718	168.33081219997257	172.38513660011813	0.34286059997975826	1.0095095001161098	0.9620238998904824	171.37635929998896	0.440867600031197	170.35141770006135	2	1	80	1	nogo_punish	1	-1	0	0	0	1	1	1.0	1.0	0	1.0	0.440867600031197	1790.8153663000558	1956.293189200107	1957.297894100193	1957.6407547001727	1959.1461785000283	1960.1556880001444	1961.166784000117	1962.1917256000447	1963.200502900174	1964.1625268000644	2020-11-11 13:54:27.408393	3.57305226067186	-3.14678966876795	-0.0047575402847936	-0.0047684631501928	-3.57780980095665	-0.0047575402847936	-3.57305226067186	-0.0047575402847936	-3.14678966876795	-0.0047575402847936	-3.57780980095665	0.0047575402847936	-7.471521505885272	-7.989007560925513	-3.2178148723524167	-9.235307914826034	-10.55498544643566	-3.2178148723524167	-0.6679408902239821	-10.622160912336682	-3.1506394064514	-9.330425485077422	-1.8763969482005105	4	correct	1.0
173.36235390021443	8.462009699782811	nogo_reward	1.0	173.3942997001575	174.94986940012313	177.46875080000586	1.5555696999656448	174.3986303000711	176.45531550003216	180.51119790016674	0.5512391000520438	1.0134352999737075	1.3451114997735658	179.50395400007255	0.4580786000005901	178.48103410005592	2	1	81	3	nogo_reward	1	0	1	0	0	1	0	0.0	1.0	1	1.0	0.4580786000005901	1790.8153663000558	1964.2096660002132	1965.2139966001268	1965.765235700179	1967.270681800088	1968.2841171000616	1969.2964004001117	1970.3193203001283	1971.3265642002225	1972.671675699996	2020-11-11 13:54:27.408393	24.3682637439256	0.0	28.6620641718093	28.6620641718093	4.29380042788367	28.6620641718093	-24.3682637439256	28.6620641718093	0.0	28.6620641718093	4.29380042788367	0.3701076367106033	13.323689977368467	-4.842217892157563	25.449006839741674	19.431524720133456	-2.6833752175953407	25.449006839741674	-0.30259079379817233	18.04466079975741	4.72097082238892	19.33639622701667	1.2703927205674395	4	correct	1.0
181.85275870002806	7.889284700155031	nogo_punish	1.0	181.88470449997112	183.4467770000922	185.9655663999731	1.5620725001210758	182.88831529999175	184.95249300007708	189.00787200010427	0.5584617001004517	1.0130733998960295	0.7661172000218812	188.00174840004183	0.4429164999164641	186.97732950001978	2	1	82	1	nogo_punish	0	0	-1	0	0	1	1	1.0	1.0	-1	1.0	0.4429164999164641	1790.8153663000558	1972.7000708000269	1973.7036816000475	1974.262143300148	1975.7678593001328	1976.7809327000289	1977.7926958000755	1978.8171147000976	1979.82323830016	1980.589355500182	2020-11-11 13:54:27.408393	3.57488602996504	-3.14678966876795	-0.0025209957269339	-0.0025279267183713	-3.57740702569198	-0.0025209957269339	-3.57488602996504	-0.0025209957269339	-3.14678966876795	-0.0025209957269339	-3.57740702569198	-5.004678651931606	-7.469687736592093	-7.989007560925513	-3.215578327794557	-9.233067378394214	-10.55458267117099	-3.215578327794557	-5.6773770824403815	-10.619924367778822	-3.15023663118673	-9.328188940519562	-1.8763969482005105	4	correct	1.0
189.78751540020994	8.631187999854319	go_punish	0.2678075998555869	189.819461200153	191.60234840004705	194.16751049994514	1.7828871998940485	190.82431069994345	193.14572510006815	197.21197120007128	0.7780377001035959	1.0217853998769897	1.2386779999360442	196.20560969994426	0.4119157001841813	195.18133389996387	2	1	83	2	go_punish	1	0	-1	1	1	1	0	0.0	1.0	0	0.2678075998555869	0.4119157001841813	1790.8153663000558	1980.6348275002088	1981.6396769999992	1982.4177147001028	1983.961091400124	1984.982876800001	1985.9967002000196	1987.020976	1988.027337500127	1989.266015500063	2020-11-11 13:54:27.408393	4.42340721902053	-0.0037435004739838	-4.85809198717973	-0.0043956750895097	-0.434684768159194	-4.85809198717973	-4.42340721902053	-0.0037435004739838	-4.85809198717973	-0.434684768159194	-4.85809198717973	0.0037435004739838	-6.621166547536602	-4.845961392631547	-8.071149319247354	-9.234935126765352	-7.4118604136382045	-8.071149319247354	-0.6689549300347919	-11.052088140211081	-4.43092159267448	-9.329411445266611	-3.58769926661229	4	correct	1.0
198.44520630012244	9.061383499997191	go_reward	0.3251521000638604	198.4771521000655	201.01905390014872	203.56549210008234	2.541901800083224	199.48139260010817	202.5516739001032	206.61083110002824	1.5376613000405541	1.0138181999791414	0.9277045000344515	205.60424400004536	0.6592062001582235	204.57903280016035	2	1	84	4	go_reward	1	1	0	1	1	1	0	0.0	1.0	1	0.3251521000638604	0.6592062001582235	1790.8153663000558	1989.2925184001213	1990.296758900164	1991.8344202002045	1993.367040200159	1994.380858400138	1995.394399100216	1996.419610300101	1997.426197400084	1998.3539019001184	2020-11-11 13:54:27.408393	32.8853502971597	28.6016119513495	0.0	28.6016119513495	32.8853502971597	0.0	-32.8853502971597	28.6016119513495	0.0	32.8853502971597	0.0	0.430559857170401	21.840776530602565	23.759394059191937	-3.2130573320676232	19.37107249967366	25.908174651680685	-3.2130573320676232	-0.24213857333837463	22.267946925107807	0.4271703945052501	19.275944006556873	1.2703927205674395	4	correct	1.0
207.53391380002722	8.554106700001512	nogo_punish	1.0	207.56585959997028	209.60797520005144	212.12467260006815	2.0421156000811607	208.5704075000251	211.11346330004744	215.16597950016103	1.0375677000263295	1.0112093000207096	0.9539867998107638	214.15955290012062	0.5250001999083906	213.13601909996896	2	1	85	1	nogo_punish	1	-1	0	0	0	1	0	0.0	1.0	0	1.0	0.5250001999083906	1790.8153663000558	1998.381225900026	1999.3857738000809	2000.4233415001072	2001.9288296001032	2002.940038900124	2003.9513854000247	2004.9749192001764	2005.9813458002168	2006.9353326000276	2020-11-11 13:54:27.408393	0.930809769112122	-3.14678966876795	-3.14815873884391	-3.14816318601215	-4.07896850795603	-3.14815873884391	-0.930809769112122	-3.14815873884391	-3.14678966876795	-3.14815873884391	-4.07896850795603	3.14815873884391	-10.11376399744501	-7.989007560925513	-6.361216070911533	-12.378702637687992	-11.05614415343504	-6.361216070911533	2.4754603083351343	-13.765562110895797	-3.6517981134507798	-12.473826683636538	-1.8763969482005105	4	correct	1.0
216.1120723001659	8.455998599995382	go_reward	0.3265160999726504	216.14401810010895	217.53564819996268	220.0774004000707	1.391630099853728	217.1483504001519	219.06817930005514	223.11914840014674	0.3872977998107672	1.0092211000155658	1.4808682999575922	222.11244640010432	0.3860965999774635	221.08919950015866	2	1	86	4	go_reward	0	0	1	1	1	1	1	1.0	1.0	0	0.3265160999726504	0.3860965999774635	1790.8153663000558	2006.9593844001647	2007.9637167002077	2008.3510145000184	2009.883545600111	2010.8927667001265	2011.9045658002144	2012.92781270016	2013.9345147002025	2015.41538300016	2020-11-11 13:54:27.408393	33.1614603432351	28.8355306947455	0.0	28.8355306947455	33.1614603432351	0.0	-33.1614603432351	28.8355306947455	0.0	33.1614603432351	0.0	-28.8355306947455	22.116886576677967	23.993312802587937	-3.2130573320676232	19.60499124306966	26.184284697756087	-3.2130573320676232	-29.508229125254275	22.54405697118321	0.4271703945052501	19.509862749952873	1.2703927205674395	4	correct	1.0
224.59493670007214	8.35472370008938	nogo_punish	1.0	224.6268825000152	226.29177040001355	228.81053130002715	1.664887899998348	225.63098499993794	227.7970757000146	231.85264530009636	0.6607854000756106	1.0134556000125485	1.1289609000082237	230.84558920003474	0.416986099909991	229.8221255000683	2	1	87	1	nogo_punish	0	0	-1	0	0	1	1	1.0	1.0	-1	1.0	0.416986099909991	1790.8153663000558	2015.442248800071	2016.4463512999937	2017.1071367000693	2018.6124420000704	2019.625897600083	2020.637491800124	2021.6609555000905	2022.668011600152	2023.7969725001603	2020-11-11 13:54:27.408393	2.65422994717047	-3.14678966876795	-1.10717298416106	-1.10717586758449	-3.76140293133153	-1.10717298416106	-2.65422994717047	-1.10717298416106	-3.14678966876795	-1.10717298416106	-3.76140293133153	-3.90002666349748	-8.390343819386661	-7.989007560925513	-4.320230316228683	-10.337715319260331	-10.738578576810541	-4.320230316228683	-4.572725094006255	-11.724576356212948	-3.33423253682628	-10.432840928953688	-1.8763969482005105	4	correct	1.0
232.97480610013008	8.292916500009596	go_reward	0.3726435001008212	233.00675190007314	234.50451280013658	237.04871749994345	1.4977609000634402	234.01170180016175	236.03569160006032	240.09064260008745	0.4928109999748358	1.0130258998831323	1.2090257999952883	239.08384390012384	0.4557388999965042	238.0595905999653	2	1	88	4	go_reward	1	1	0	1	1	1	1	1.0	1.0	1	0.3726435001008212	0.4557388999965042	1790.8153663000558	2023.822118200129	2024.8270681002175	2025.3198791001923	2026.851057900116	2027.8640837999992	2028.874956900021	2029.8992102001796	2030.9060089001432	2032.1150347001385	2020-11-11 13:54:27.408393	11.8314679366057	10.4619717025141	0.0	10.4619717025141	11.8314679366057	0.0	-11.8314679366057	10.4619717025141	0.0	11.8314679366057	0.0	18.5702001060058	0.7868941700485674	5.619753810356538	-3.2130573320676232	1.2314322508382585	4.854292291126689	-3.2130573320676232	17.897501675497026	1.2140645645538122	0.4271703945052501	1.136303757721473	1.2703927205674395	4	correct	1.0
241.2959581001196	8.680452599888667	go_reward	0.3383871999103576	241.32790390006267	243.17467460012995	245.7236578001175	1.8467707000672817	242.33252479997464	244.70928600011393	248.76578440004937	0.8421498001553118	1.0143718000035733	1.2425720999019632	247.75941770011582	0.4428355998825282	246.7364275001455	2	1	89	4	go_reward	1	1	0	1	1	1	0	0.0	1.0	1	0.3383871999103576	0.4428355998825282	1790.8153663000558	2032.1432702001184	2033.1478911000304	2033.9900409001857	2035.5246523001697	2036.5390241001733	2037.5517938002013	2038.5747840001716	2039.5811507001051	2040.823722800007	2020-11-11 13:54:27.408393	25.9247442016362	22.6415091636525	0.0	22.6415091636525	25.9247442016362	0.0	-25.9247442016362	22.6415091636525	0.0	25.9247442016362	0.0	6.390662644867401	14.88017043507907	17.799291271494937	-3.2130573320676232	13.410969711976659	18.94756855615719	-3.2130573320676232	5.717964214358625	15.307340829584314	0.4271703945052501	13.315841218859873	1.2703927205674395	4	correct	1.0
250.00095380004518	9.139000599970814	go_reward	0.3632245000917464	250.03289959998824	252.38692540000193	254.93986749998294	2.3540258000136873	251.0379174000118	253.92496820003726	257.982376800152	1.3490079999901354	1.0148992999456823	1.189523399807058	256.9754348001443	0.4142330000177026	255.95093360007695	2	1	90	4	go_reward	1	1	0	1	1	1	1	1.0	1.0	1	0.3632245000917464	0.4142330000177026	1790.8153663000558	2040.848265900044	2041.8532837000675	2043.2022917000577	2044.740334500093	2045.7552338000387	2046.7662999001327	2047.7908011002	2048.7977431002078	2049.987266500015	2020-11-11 13:54:27.408393	30.5349872468602	26.5982325380531	0.0	26.5982325380531	30.5349872468602	0.0	-30.5349872468602	26.5982325380531	0.0	30.5349872468602	0.0	2.4339392704668015	19.49041348030307	21.756014645895537	-3.2130573320676232	17.36769308637726	23.55781160138119	-3.2130573320676232	1.7612408399580257	19.917583874808315	0.4271703945052501	17.272564593260473	1.2703927205674395	4	correct	1.0
259.21095010009594	9.52999550011009	nogo_reward	1.0	259.242895900039	261.723247300135	264.24138480005786	2.4803514000959694	260.24733930011325	263.2285317000933	267.2827793001197	1.4759080000217182	1.012853099964559	1.4901121000293642	266.27569469995797	0.3911307998932898	265.2530068999622	2	1	91	3	nogo_reward	1	0	1	0	0	1	0	0.0	1.0	1	1.0	0.3911307998932898	1790.8153663000558	2050.0582622000948	2051.062705600169	2052.5386136001907	2054.043898000149	2055.0567511001136	2056.068373200018	2057.0910610000137	2058.0981456001755	2059.588257700205	2020-11-11 13:54:27.408393	24.5226861783902	0.0	28.8513123514171	28.8513123514171	4.32862617302693	28.8513123514171	-24.5226861783902	28.8513123514171	0.0	28.8513123514171	4.32862617302693	0.1808594571028017	13.478112411833067	-4.842217892157563	25.638255019349476	19.620772899741258	-2.64854947245208	25.638255019349476	-0.49183897340597393	18.23390897936521	4.7557965675321805	19.525644406624473	1.2703927205674395	4	correct	1.0
268.788896900136	7.922672099899501	nogo_reward	1.0	268.8208427000791	270.1826359999832	272.7012724999804	1.3617932999040931	269.8243208001368	271.6878003999591	275.74231830006465	0.3583151998464018	1.0134721000213176	1.001196499913931	274.7357688001357	0.5440113001968712	273.71215789997996	2	1	92	3	nogo_reward	1	0	1	0	0	1	0	0.0	1.0	1	1.0	0.5440113001968712	1790.8153663000558	2059.636209000135	2060.6396871001925	2060.998002300039	2062.503166700015	2063.516638800036	2064.5275242000357	2065.5511351001915	2066.5576846001204	2067.5588811000343	2020-11-11 13:54:27.408393	24.5955942443073	0.0	28.9407950754616	28.9407950754616	4.34520083115425	28.9407950754616	-24.5955942443073	28.9407950754616	0.0	28.9407950754616	4.34520083115425	0.09137673305830063	13.551020477750168	-4.842217892157563	25.727737743393977	19.71025562378576	-2.631974814324761	25.727737743393977	-0.581321697450475	18.323391703409712	4.7723712256595	19.615127130668974	1.2703927205674395	4	correct	1.0
276.75635390006937	7.940502699930221	nogo_reward	1.0	276.78829970001243	278.2577750000637	280.7751418000553	1.469475300051272	277.7927524000406	279.7627421000507	283.817246499937	0.46502260002307594	1.0123997000046074	0.9115559000056237	282.80988730001263	0.4366871998645365	281.7863672999665	2	1	93	3	nogo_reward	1	0	1	0	0	1	1	1.0	1.0	1	1.0	0.4366871998645365	1790.8153663000558	2067.603666000068	2068.6081187000964	2069.0731413001195	2070.5781084001064	2071.590508100111	2072.6017336000223	2073.6252536000684	2074.632612799993	2075.5441686999984	2020-11-11 13:54:27.408393	24.6312846440674	0.0	28.9846255476933	28.9846255476933	4.35334090362589	28.9846255476933	-24.6312846440674	28.9846255476933	0.0	28.9846255476933	4.35334090362589	0.04754626082659996	13.586710877510267	-4.842217892157563	25.771568215625678	19.75408609601746	-2.6238347418531207	25.771568215625678	-0.6251521696821757	18.367222175641416	4.78051129813114	19.658957602900674	1.2703927205674395	4	correct	1.0
284.72162750014104	8.352872600080445	go_reward	0.3417993001639843	284.7535733000841	286.6153520999942	289.1740129000973	1.8617787999100983	285.75851380010135	288.16047360002995	292.21405609999783	0.8568382998928428	1.0135393000673503	0.8923898001667112	291.2078573999461	0.4557221999857574	290.18442340008914	2	1	94	4	go_reward	1	1	0	1	1	1	0	0.0	1.0	1	0.3417993001639843	0.4557221999857574	1790.8153663000558	2075.56893960014	2076.573880100157	2077.43071840005	2078.9758399000857	2079.989379200153	2080.999789700145	2082.023223700002	2083.0294224000536	2083.9218122002203	2020-11-11 13:54:27.408393	32.2159007653203	28.0327681123737	0.0	28.0327681123737	32.2159007653203	0.0	-32.2159007653203	28.0327681123737	0.0	32.2159007653203	0.0	0.999403696146203	21.171326998763167	23.190550220216135	-3.2130573320676232	18.802228660697857	25.238725119841288	-3.2130573320676232	0.3267052656374273	21.59849739326841	0.4271703945052501	18.70710016758107	1.2703927205674395	4	correct	1.0
293.09961250005335	8.203481000149168	go_reward	0.4755861000157892	293.1315582999964	294.48653630004264	297.04910330008715	1.3549780000462306	294.13626200007275	296.0354307999369	300.09221430006437	0.3502742999698967	1.0136725001502782	1.2428250000812113	299.085163900163	0.516107700066641	298.0608779999893	2	1	95	4	go_reward	1	1	0	1	1	1	0	0.0	1.0	1	0.4755861000157892	0.516107700066641	1790.8153663000558	2083.946924600052	2084.9516283001285	2085.3019026000984	2086.8507970999926	2087.864469600143	2088.876244300045	2089.900530200219	2090.90758060012	2092.1504056002013	2020-11-11 13:54:27.408393	32.879496200487	28.5966819797907	0.0	28.5966819797907	32.879496200487	0.0	-32.879496200487	28.5966819797907	0.0	32.879496200487	0.0	0.43548982872920305	21.834922433929865	23.754464087633135	-3.2130573320676232	19.366142528114857	25.902320555007986	-3.2130573320676232	-0.2372086017795726	22.262092828435108	0.4271703945052501	19.27101403499807	1.2703927205674395	4	correct	1.0
301.3310527000576	8.481290000025183	nogo_punish	1.0	301.3629985000007	303.26918730000034	305.78402519994415	1.9061887999996543	302.367788100149	304.77412379998714	308.82430170010775	0.901399199851312	1.009901399957016	1.0199867999181151	307.81734349997714	0.387432900024578	306.7947319999803	2	1	96	1	nogo_punish	1	-1	0	0	0	1	0	0.0	1.0	0	1.0	0.387432900024578	1790.8153663000558	2092.1783648000564	2093.183154400205	2094.084553600056	2095.589490100043	2096.5993915	2097.610098300036	2098.632709800033	2099.6396680001635	2100.6596548000816	2020-11-11 13:54:27.408393	0.577532370973304	-3.14678966876795	-3.5747152678094	-3.57471715575762	-4.1522476387827	-3.5747152678094	-0.577532370973304	-3.5747152678094	-3.14678966876795	-3.5747152678094	-4.1522476387827	3.5747152678094	-10.467041395583829	-7.989007560925513	-6.787772599877023	-12.805256607433462	-11.12942328426171	-6.787772599877023	2.902016837300624	-14.192118639861288	-3.7250772442774496	-12.900383212602026	-1.8763969482005105	4	correct	1.0
309.8849134000484	9.840771700022742	nogo_reward	1.0	309.91685919999145	312.88064740016125	315.3991698999889	2.9637882001698017	310.9215130000375	314.38586360006593	318.44173069996805	1.9591344001237303	1.0133062999229878	1.3159002000461442	317.43498659995385	0.3862270000390708	316.41278420016124	2	1	97	3	nogo_reward	1	0	1	0	0	1	0	0.0	1.0	1	1.0	0.3862270000390708	1790.8153663000558	2100.732225500047	2101.7368793000933	2103.696013700217	2105.2012299001217	2106.2145362000447	2107.228150500217	2108.2503529000096	2109.257097000024	2110.57299720007	2020-11-11 13:54:27.408393	24.6493200832958	0.0	29.0067708959749	29.0067708959749	4.35745081267919	29.0067708959749	-24.6493200832958	29.0067708959749	0.0	29.0067708959749	4.35745081267919	0.02540091254500254	13.60474631673867	-4.842217892157563	25.793713563907275	19.776231444299057	-2.619724832799821	25.793713563907275	-0.6472975179637731	18.389367523923013	4.78462120718444	19.68110295118227	1.2703927205674395	4	correct	1.0
319.753451900091	8.867151099955208	nogo_punish	1.0	319.7853977000341	321.70723280007996	324.2263374000322	1.9218351000458824	320.78965070005506	323.21356469998136	327.26691900007427	0.9175821000249016	1.0127727000508457	1.3856297999150229	326.26025060005486	0.4731062999926507	325.2370176000986	2	1	98	1	nogo_punish	0	0	-1	0	0	1	1	1.0	1.0	-1	1.0	0.4731062999926507	1790.8153663000558	2110.60076400009	2111.605017000111	2112.5225991001357	2114.028931000037	2115.041703700088	2116.0523839001544	2117.0756169001106	2118.08228530013	2119.467915100045	2020-11-11 13:54:27.408393	2.50837712480379	-3.14678966876795	-1.28405648315495	-1.28405773071099	-3.79243360795874	-1.28405648315495	-2.50837712480379	-1.28405648315495	-3.14678966876795	-1.28405648315495	-3.79243360795874	-3.72314316450359	-8.536196641753342	-7.989007560925513	-4.497113815222573	-10.514597182386831	-10.76960925343775	-4.497113815222573	-4.3958415950123655	-11.901459855206838	-3.36526321345349	-10.609724427947578	-1.8763969482005105	4	correct	1.0
328.64941670000553	7.822465800214559	go_reward	0.3841786000411957	328.6813624999486	330.0028508999385	332.5777958999388	1.321488399989903	329.68559390003793	331.5586478000041	335.6202056000475	0.31725699990056455	1.0191480999346823	0.8836227001156658	334.61372150015086	0.4935468998737633	333.59059630008414	2	1	99	4	go_reward	1	1	0	1	1	1	0	0.0	1.0	1	0.3841786000411957	0.4935468998737633	1790.8153663000558	2119.4967288000043	2120.5009602000937	2120.8182171999943	2122.37401410006	2123.3931621999945	2124.40596260014	2125.4290878002066	2126.4355719001032	2127.319194600219	2020-11-11 13:54:27.408393	33.1583557332472	28.8329149866271	0.0	28.8329149866271	33.1583557332472	0.0	-33.1583557332472	28.8329149866271	0.0	33.1583557332472	0.0	0.1992568218928028	22.113781966690066	23.990697094469535	-3.2130573320676232	19.602375534951257	26.181180087768187	-3.2130573320676232	-0.47344160861597284	22.54095236119531	0.4271703945052501	19.50724704183447	1.2703927205674395	4	correct	1.0
336.5025189002049	9.448636499932036	nogo_punish	1.0	336.53446470014796	338.9636264999863	341.4787876000628	2.4291617998383117	337.53926420002244	340.46959570003673	344.5206430000253	1.424362299963832	1.0091919000260532	1.462458200054698	343.5131574999541	0.3972614998929202	342.4889883999713	2	1	100	1	nogo_punish	1	-1	0	0	0	1	1	1.0	1.0	0	1.0	0.3972614998929202	1790.8153663000558	2127.3498310002037	2128.354630500078	2129.778992800042	2131.2849620000925	2132.2941539001185	2133.304354700027	2134.32852380001	2135.336009300081	2136.7984675001358	2020-11-11 13:54:27.408393	0.513691271946857	-3.14678966876795	-3.65236350032874	-3.65236433182546	-4.1660547722756	-3.65236350032874	-0.513691271946857	-3.65236350032874	-3.14678966876795	-3.65236350032874	-4.1660547722756	3.65236350032874	-10.530882494610275	-7.989007560925513	-6.865420832396364	-12.882903783501302	-11.14323041775461	-6.865420832396364	2.9796650698199643	-14.269766872380627	-3.7388843777703498	-12.978031445121367	-1.8763969482005105	4	correct	1.0
346.03239740012214	8.99899120000191	nogo_reward	1.0	346.0643432000652	348.39579600002617	350.91596270003356	2.331452799960971	347.0687252001371	349.9001806001179	353.96071210014634	1.327070799889043	1.0157820999156684	1.1026222999207675	352.9543543001637	0.4615471998695284	351.92961949994833	2	1	101	3	nogo_reward	1	0	1	0	0	1	0	0.0	1.0	1	1.0	0.4615471998695284	1790.8153663000558	2136.879709500121	2137.884091500193	2139.211162300082	2140.7155469001736	2141.7313290000893	2142.744985800004	2143.7697206002194	2144.776078400202	2145.878700700123	2020-11-11 13:54:27.408393	24.6586957709221	0.0	29.018273523626	29.018273523626	4.35957775270388	29.018273523626	-24.6586957709221	29.018273523626	0.0	29.018273523626	4.35957775270388	0.013898284893901547	13.614122004364969	-4.842217892157563	25.805216191558376	19.787734071950158	-2.61759789277513	25.805216191558376	-0.6588001456148741	18.40087015157411	4.78674814720913	19.692605578833373	1.2703927205674395	4	correct	1.0
355.078891800018	7.834205000195652	nogo_reward	1.0	355.1108375999611	356.5783357999753	359.09723390010186	1.4674982000142336	356.1153663001023	358.0837068001274	362.1397021000739	0.4629694998729974	1.0135270999744534	0.8053405000828207	361.1329075000249	0.5159487000200897	360.10911229997873	2	1	102	3	nogo_reward	1	0	1	0	0	1	0	0.0	1.0	1	1.0	0.5159487000200897	1790.8153663000558	2145.926203900017	2146.930732600158	2147.393702100031	2148.899073100183	2149.9126002001576	2150.9244786000345	2151.9482738000806	2152.9550684001297	2153.7604089002125	2020-11-11 13:54:27.408393	24.6636958778943	0.0	29.02439909655	29.02439909655	4.36070321865572	29.02439909655	-24.6636958778943	29.02439909655	0.0	29.02439909655	4.36070321865572	0.007772711969902701	13.619122111337166	-4.842217892157563	25.811341764482375	19.793859644874157	-2.6164724268232904	25.811341764482375	-0.664925718538873	18.40699572449811	4.78787361316097	19.69873115175737	1.2703927205674395	4	correct	1.0
362.94244160014205	9.182180600007996	nogo_punish	1.0	362.9743874000851	365.73359440010927	368.25220340001397	2.759207000024162	363.9798904999625	367.23778850003146	371.2937978000846	1.7537039001467747	1.014414899982512	0.8627702000085264	370.2865254001226	0.4766811998561024	369.26342880004086	2	1	103	1	nogo_punish	0	0	-1	0	0	1	0	0.0	1.0	-1	1.0	0.4766811998561024	1790.8153663000558	2153.789753700141	2154.7952568000183	2156.548960700165	2158.053154800087	2159.0675697000697	2160.0787951000966	2161.1018917001784	2162.1091641001403	2162.971934300149	2020-11-11 13:54:27.408393	2.4790485944322	-3.14678966876795	-1.3197883014762	-1.3197888601316	-3.7988368959084	-1.3197883014762	-2.4790485944322	-1.3197883014762	-3.14678966876795	-1.3197883014762	-3.7988368959084	-3.68741134618234	-8.565525172124932	-7.989007560925513	-4.532845633543824	-10.550328311807442	-10.776012541387411	-4.532845633543824	-4.360109776691115	-11.937191673528087	-3.37166650140315	-10.645456246268827	-1.8763969482005105	4	correct	1.0
372.1904609000776	8.378312000073493	go_punish	0.3389975999016315	372.22240670002066	374.06199560011737	376.6552661000751	1.8395889000967145	373.22707929997705	375.6348830000493	379.69823070010125	0.8349163001403213	1.0203831000258106	0.9024879999928999	378.6908840001561	0.6233969000168145	377.6666753999889	2	1	104	2	go_punish	1	0	-1	1	1	1	0	0.0	1.0	0	0.3389975999016315	0.6233969000168145	1790.8153663000558	2163.0377730000764	2164.042445600033	2164.877361900173	2166.450249300105	2167.470632400131	2168.4820417000446	2169.506250300212	2170.513597000157	2171.41608500015	2020-11-11 13:54:27.408393	4.42545770288261	-0.002046055318941	-4.85809198717973	-0.0024137933930081	-0.43263428429712	-4.85809198717973	-4.42545770288261	-0.002046055318941	-4.85809198717973	-0.43263428429712	-4.85809198717973	0.002046055318941	-6.6191160636745225	-4.844263947476504	-8.071149319247354	-9.23295324506885	-7.409809929776131	-8.071149319247354	-0.6706523751898347	-11.050037656349007	-4.43092159267448	-9.327714000111568	-3.58769926661229	4	correct	1.0
380.5987724000588	8.837599900085479	nogo_punish	1.0	380.63071820000187	383.1510058999993	385.67067570006475	2.520287699997425	381.63488629995845	384.6567341000773	388.7152172001083	1.5161196000408381	1.0139415999874473	0.7531008999790174	387.7083497000858	0.351752599934116	386.68421460012905	2	1	105	1	nogo_punish	0	0	-1	0	0	1	1	1.0	1.0	-1	1.0	0.351752599934116	1790.8153663000558	2171.4460845000576	2172.450252600014	2173.966372200055	2175.472100400133	2176.4860420001205	2177.499580900185	2178.5237160001416	2179.530583500164	2180.283684400143	2020-11-11 13:54:27.408393	0.499652792423749	-3.14678966876795	-3.66947870225955	-3.66947908041753	-4.1691314946833	-3.66947870225955	-0.499652792423749	-3.66947870225955	-3.14678966876795	-3.66947870225955	-4.1691314946833	-1.3377209453989902	-10.544920974133383	-7.989007560925513	-6.882536034327173	-12.900018532093371	-11.14630714016231	-6.882536034327173	-2.010419375907766	-14.286882074311437	-3.7419611001780497	-12.995146647052177	-1.8763969482005105	4	correct	1.0
389.5397344001103	9.506025899900123	nogo_reward	1.0	389.5716802000534	392.3060666001402	394.831591400085	2.7343864000868052	390.57671659998596	393.8105800000485	397.87976490007713	1.729350000154227	1.0210114000365138	1.197941199876368	396.872550399974	0.4275398000609129	395.84200239996426	2	1	106	3	nogo_reward	0	1	0	0	0	1	0	0.0	1.0	0	1.0	0.4275398000609129	1790.8153663000558	2180.387046500109	2181.3920829000417	2183.121432900196	2184.6259463001043	2185.646957700141	2186.65736870002	2187.6879167000297	2188.695131200133	2189.8930724000093	2020-11-11 13:54:27.408393	24.6664253176317	0.0	29.0277362238134	29.0277362238134	4.36131090618175	29.0277362238134	-24.6664253176317	29.0277362238134	0.0	29.0277362238134	4.36131090618175	-29.0277362238134	13.621851551074567	-4.842217892157563	25.814678891745775	19.797196772137557	-2.615864739297261	25.814678891745775	-29.700434654322173	18.41033285176151	4.788481300687	19.70206827902077	1.2703927205674395	4	correct	1.0
399.09530120017007	8.938194199931331	nogo_reward	1.0	399.12724700011313	401.2970311001409	403.81524950009725	2.169784100027755	400.1320740999654	402.80243699997663	406.85826340015046	1.164957000175491	1.0128125001206172	1.2071777998939979	405.8524327001064	0.5776335000991821	404.82842270005494	2	1	107	3	nogo_reward	1	0	1	0	0	1	0	0.0	1.0	1	1.0	0.5776335000991821	1790.8153663000558	2189.942613300169	2190.947440400021	2192.1123974001966	2193.6178033000324	2194.630615800153	2195.6437890001107	2196.667799000162	2197.673629700206	2198.8808075001	2020-11-11 13:54:27.408393	9.16662840210149	0.0	10.5529866701516	10.5529866701516	1.38635826805006	10.5529866701516	-9.16662840210149	10.5529866701516	0.0	10.5529866701516	1.38635826805006	18.4791851383683	-1.877945364455643	-4.842217892157563	7.339929338083977	1.3224472184757587	-5.590817377428951	7.339929338083977	17.806486707859527	-0.06441670190028681	1.81352866255531	1.2273187253589732	1.2703927205674395	4	correct	1.0
408.06009889999405	8.340319800190628	go_reward	0.3486489998176694	408.0920446999371	409.86035290011205	412.4520454001613	1.7683082001749426	409.0973453000188	411.43857460003346	415.4957799001131	0.7630076000932604	1.013470800127834	0.9365846000146121	414.4884381000884	0.5509192000608891	413.4627471000422	2	1	108	4	go_reward	1	1	0	1	1	1	0	0.0	1.0	1	0.3486489998176694	0.5509192000608891	1790.8153663000558	2198.907410999993	2199.9127116000745	2200.675719200168	2202.253940900089	2203.267411700217	2204.278113400098	2205.303804400144	2206.311146200169	2207.2477308001835	2020-11-11 13:54:27.408393	33.2816832903538	28.9371633661582	0.0	28.9371633661582	33.2816832903538	0.0	-33.2816832903538	28.9371633661582	0.0	33.2816832903538	0.0	0.0950084423617028	22.237109523796665	24.094945474000635	-3.2130573320676232	19.706623914482357	26.304507644874786	-3.2130573320676232	-0.5776899881470728	22.664279918301908	0.4271703945052501	19.61149542136557	1.2703927205674395	4	correct	1.0
416.45854440005496	9.685677400091208	go_punish	0.2817675000987947	416.490490199998	419.2602691000793	421.8650473000016	2.769778900081292	417.4949382999912	420.8399739000015	424.90674150013365	1.7653308000881225	1.0250734000001103	1.2694260999555809	423.9000275000003	0.382196799851954	422.8778312001373	2	1	109	2	go_punish	1	0	-1	1	1	1	0	0.0	1.0	0	0.2817675000987947	0.382196799851954	1790.8153663000558	2207.305856500054	2208.310304600047	2210.075635400135	2211.6553402000573	2212.6804136000574	2213.693197500193	2214.715393800056	2215.7221078001894	2216.991533900145	2020-11-11 13:54:27.408393	4.42654754455389	-0.0011430838541939	-4.85809198717973	-0.0013544857900394	-0.431544442625836	-4.85809198717973	-4.42654754455389	-0.0011430838541939	-4.85809198717973	-0.431544442625836	-4.85809198717973	0.0011430838541939	-6.618026222003242	-4.843360976011756	-8.071149319247354	-9.231893937465882	-7.408720088104847	-8.071149319247354	-0.6715553466545817	-11.048947814677723	-4.43092159267448	-9.326811028646821	-3.58769926661229	4	correct	1.0
426.1706844000146	8.44936540001072	go_reward	0.4082782999612391	426.20263019995764	427.56467690016143	430.12213600007817	1.3620467002037913	427.2065537001472	429.1087625999935	433.1660911999643	0.3581232000142336	1.0133734000846744	1.485904400004074	432.1595952999778	0.4652840001508593	431.1358437000308	2	1	110	4	go_reward	1	1	0	1	1	1	1	1.0	1.0	1	0.4082782999612391	0.4652840001508593	1790.8153663000558	2217.0179965000134	2218.021920000203	2218.380043200217	2219.9241289000493	2220.937502300134	2221.9512100000866	2222.9749616000336	2223.98145750002	2225.467361900024	2020-11-11 13:54:27.408393	33.3386234473681	28.9852267865941	0.0	28.9852267865941	33.3386234473681	0.0	-33.3386234473681	28.9852267865941	0.0	33.3386234473681	0.0	0.046945021925800745	22.294049680810968	24.143008894436537	-3.2130573320676232	19.75468733491826	26.36144780188909	-3.2130573320676232	-0.6257534085829749	22.72122007531621	0.4271703945052501	19.659558841801474	1.2703927205674395	4	correct	1.0
434.64902110002004	9.3431772000622	nogo_punish	1.0	434.6809668999631	437.25319930003025	439.76929580001206	2.5722324000671506	435.6856748000723	438.75924160005525	442.8128213000018	1.5675244999579263	1.0100541999568122	1.2113228000234812	441.80633520008996	0.340337699977681	440.7836815000046	2	1	111	1	nogo_punish	1	-1	0	0	0	1	0	0.0	1.0	0	1.0	0.340337699977681	1790.8153663000558	2225.496333200019	2226.501041100128	2228.068565600086	2229.574607900111	2230.584662100068	2231.5990478000604	2232.6217015001457	2233.6281876000576	2234.839510400081	2020-11-11 13:54:27.408393	-0.172936371096085	-3.14678966876795	-4.47506576580264	-4.47506602356633	-4.30212939470655	-4.47506576580264	0.172936371096085	-4.47506576580264	-3.14678966876795	-4.47506576580264	-4.30212939470655	4.47506576580264	-11.217510137653218	-7.989007560925513	-7.688123097870263	-13.705605475242173	-11.27930504018556	-7.688123097870263	3.802367335293864	-15.092469137854527	-3.8749590002013	-13.800733710595267	-1.8763969482005105	4	correct	1.0
444.0754402000457	9.633128100075282	go_punish	0.3169572001788765	444.10738599998876	446.72192310006403	449.3096060999669	2.6145371000752675	445.1121485000476	448.28611989994533	452.3569779000245	1.609774600016408	1.0234862000215799	1.3835362000395435	451.3488390999846	0.387994599994272	450.3219961000141	2	1	112	2	go_punish	1	0	-1	1	1	1	0	1.0	0.0	0	0.3169572001788765	0.387994599994272	1790.8153663000558	2234.9227523000445	2235.9275148001034	2237.53728940012	2239.101486200001	2240.1249724000227	2241.13736240007	2242.1642054000404	2243.1723442000803	2244.55588040012	2020-11-11 13:54:27.408393	4.42713991856976	-0.0006515798403543	-4.85809198717973	-0.0007753051664933	-0.430952068609968	-4.85809198717973	-4.42713991856976	-0.0006515798403543	-4.85809198717973	-0.430952068609968	-4.85809198717973	0.0006515798403543	-6.617433847987372	-4.842869471997917	-8.071149319247354	-9.231314756842336	-7.4081277140889785	-8.071149319247354	-0.6720468506684213	-11.048355440661856	-4.43092159267448	-9.326319524632982	-3.58769926661229	4	wrong	1.0
453.7339414001908	9.018274899804965	go_reward	0.5290339000057429	453.7658872001339	455.8141106001567	458.3905686000362	2.0482234000228345	454.77032619994134	457.37664310005493	461.4347111000684	1.0437844002153724	1.0139254999812692	1.3494509998704416	460.42740890011237	0.3669195000547915	459.40217810007744	2	1	113	4	go_reward	1	1	0	1	1	1	0	0.0	1.0	1	0.5290339000057429	0.3669195000547915	1790.8153663000558	2244.5812535001896	2245.585692499997	2246.6294769002125	2248.1920094001107	2249.205934900092	2250.217544400133	2251.242775200168	2252.250077400124	2253.5995283999946	2020-11-11 13:54:27.408393	33.3659043035281	29.0082368627686	0.0	29.0082368627686	33.3659043035281	0.0	-33.3659043035281	29.0082368627686	0.0	33.3659043035281	0.0	0.023934945751300063	22.321330536970965	24.166018970611038	-3.2130573320676232	19.77769741109276	26.388728658049086	-3.2130573320676232	-0.6487634847574756	22.748500931476208	0.4271703945052501	19.682568917975974	1.2703927205674395	4	correct	1.0
462.8313951001037	8.50656250002794	go_punish	0.3283271000254899	462.86334090004675	464.5177488999907	467.09209430008195	1.6544079999439418	463.86827380000614	466.0789004999683	470.1337745001074	0.6494750999845564	1.0131938001136405	1.236128899967298	469.1272192001343	0.4015586997848004	468.10237219999544	2	1	114	2	go_punish	0	-1	0	1	1	1	1	1.0	1.0	-1	0.3283271000254899	0.4015586997848004	1790.8153663000558	2253.6787072001025	2254.683640100062	2255.3331152000464	2256.894266800024	2257.9074606001377	2258.917738500051	2259.94258550019	2260.949140800163	2262.1852697001304	2020-11-11 13:54:27.408393	4.42746855556324	-0.000378362206677	-4.85809198717973	-0.0004519907828414	-0.430623431616485	-4.85809198717973	-4.42746855556324	-0.000378362206677	-4.85809198717973	-0.430623431616485	-4.85809198717973	-5.0068212854518634	-6.617105210993892	-4.842596254364239	-8.071149319247354	-9.230991442458683	-7.407799077095495	-8.071149319247354	-5.679519715960639	-11.048026803668373	-4.43092159267448	-9.326046306999304	-3.58769926661229	4	correct	1.0
471.38623790000565	8.885377500206232	go_punish	0.3122252998873591	471.4181836999487	473.3846750999801	475.9779597001616	1.966491400031373	472.4227412000764	474.9520676000975	479.0208259001374	0.96193389990367	1.025892100064084	1.2827353000175208	478.01378430007026	0.4475474001374095	476.99041820014827	2	1	115	2	go_punish	1	0	-1	1	1	1	0	0.0	1.0	0	0.3122252998873591	0.4475474001374095	1790.8153663000558	2262.2335500000045	2263.238107500132	2264.200041400036	2265.7674339001533	2266.7933260002173	2267.805784500204	2268.829150600126	2269.836192200193	2271.1189275002107	2020-11-11 13:54:27.408393	0.779096708616239	-3.14701318546351	-4.85809198717973	-3.14705768860139	-4.07899527856349	-4.85809198717973	-0.779096708616239	-3.14701318546351	-4.85809198717973	-4.07899527856349	-4.85809198717973	3.14701318546351	-10.265477057940894	-7.989231077621072	-8.071149319247354	-12.377597140277231	-11.056170924042501	-8.071149319247354	2.4743147549547344	-14.696398650615379	-4.43092159267448	-12.472681130256138	-3.58769926661229	4	correct	1.0
480.2977979001589	8.89253249997273	go_reward	0.3047742999624461	480.329743700102	482.180231400067	484.72122539998963	1.850487699965015	481.3351521999575	483.71203080005944	487.7658826999832	0.8450792001094669	1.009194599930197	1.456393500091508	486.7586513001006	0.360657500103116	485.73332390002906	2	1	116	4	go_reward	0	0	1	1	1	1	0	0.0	1.0	0	0.3047742999624461	0.360657500103116	1790.8153663000558	2271.1451100001577	2272.1505185000133	2272.9955977001227	2274.527397100115	2275.5365917000454	2276.548690200085	2277.5740176001564	2278.581249000039	2280.0376425001305	2020-11-11 13:54:27.408393	33.3794059092914	29.0196222410974	0.0	29.0196222410974	33.3794059092914	0.0	-33.3794059092914	29.0196222410974	0.0	33.3794059092914	0.0	-29.0196222410974	22.334832142734268	24.177404348939838	-3.2130573320676232	19.78908278942156	26.40223026381239	-3.2130573320676232	-29.692320671606176	22.76200253723951	0.4271703945052501	19.693954296304774	1.2703927205674395	4	correct	1.0
489.2162492000498	8.434083000058308	go_reward	0.3323978001717478	489.24819499999285	491.0876933999825	493.6612782999873	1.8394983999896795	490.2527231001295	492.64823219995014	496.70503860013605	0.834970299853012	1.0130461000371724	0.9772393999151063	495.6984264999628	0.2992976000532508	494.67375580011867	2	1	117	4	go_reward	1	1	0	1	1	1	0	0.0	1.0	1	0.3323978001717478	0.2992976000532508	1790.8153663000558	2280.0635613000486	2281.0680894001853	2281.9030597000383	2283.463598500006	2284.476644600043	2285.4891221001744	2286.5137928000186	2287.520404900192	2288.497644300107	2020-11-11 13:54:27.408393	11.9343906202095	10.5488173456947	0.0	10.5488173456947	11.9343906202095	0.0	-11.9343906202095	10.5488173456947	0.0	11.9343906202095	0.0	18.483354462825204	0.8898168536523681	5.7065994535371365	-3.2130573320676232	1.3182778940188573	4.95721497473049	-3.2130573320676232	17.81065603231643	1.3169872481576128	0.4271703945052501	1.2231494009020718	1.2703927205674395	4	correct	1.0
497.70031110010996	9.247251400026016	go_punish	0.2842124998569488	497.732256900053	500.4417882999405	503.0271101000253	2.70953139988751	498.73670360003644	502.0167954999488	506.06953440001234	1.7050846999040914	1.0103146000765264	0.9099739000666887	505.0630389000289	0.4519686999265104	504.0380502000917	2	1	118	2	go_punish	1	0	-1	1	1	1	0	0.0	1.0	0	0.2842124998569488	0.4519686999265104	1790.8153663000558	2288.547623200109	2289.552069900092	2291.2571545999963	2292.8321618000045	2293.842476400081	2294.8534165001474	2295.8784052000847	2296.884900700068	2297.794874600135	2020-11-11 13:54:27.408393	3.13703782972234	-1.10654688420997	-4.85809198717973	-1.10657417753219	-1.72105415745739	-4.85809198717973	-3.13703782972234	-1.10654688420997	-4.85809198717973	-1.72105415745739	-4.85809198717973	1.10654688420997	-7.907535936834792	-5.948764776367533	-8.071149319247354	-10.337113629208032	-8.698229802936401	-8.071149319247354	0.4338484537011943	-12.338457529509277	-4.43092159267448	-10.432214829002596	-3.58769926661229	4	correct	1.0
506.97617460018955	8.331228799884684	go_reward	0.4479946999344975	507.0081204001326	508.28597550000995	510.83046610001475	1.2778550998773426	508.01242309994996	509.8197945000138	513.8715248000813	0.27355240005999804	1.0106716000009328	1.4678243999360348	512.8648496000096	0.3139601999428123	511.8420280001592	2	1	119	4	go_reward	0	0	1	1	1	1	1	1.0	1.0	0	0.4479946999344975	0.3139601999428123	1790.8153663000558	2297.8234867001884	2298.8277894000057	2299.1013418000657	2300.6351608000696	2301.6458324000705	2302.657394300215	2303.6802159000654	2304.686891100137	2306.154715500073	2020-11-11 13:54:27.408393	25.9750777440693	22.6839625051448	0.0	22.6839625051448	25.9750777440693	0.0	-25.9750777440693	22.6839625051448	0.0	25.9750777440693	0.0	-22.6839625051448	14.930503977512167	17.841744612987238	-3.2130573320676232	13.45342305346896	18.997902098590288	-3.2130573320676232	-23.356660935653576	15.357674372017412	0.4271703945052501	13.358294560352174	1.2703927205674395	4	correct	1.0
515.3365123001859	8.837445499841124	go_reward	0.2928618998266756	515.3684581001289	517.6510747999419	520.2084681999404	2.282616699812934	516.372332500061	519.194048000034	523.2526496001524	1.2787422998808324	1.0144201999064535	0.9532539998176617	522.2456406999845	0.5170279000885785	521.2208517000545	2	1	120	4	go_reward	1	1	0	1	1	1	0	0.0	1.0	1	0.2928618998266756	0.5170279000885785	1790.8153663000558	2306.1838244001847	2307.187698800117	2308.4664410999976	2310.0094143000897	2311.023834499996	2312.0362180001102	2313.0610070000403	2314.068015900208	2315.021269900026	2020-11-11 13:54:27.408393	9.10847885650581	8.14303923247162	0.0	8.14303923247162	9.10847885650581	0.0	-9.10847885650581	8.14303923247162	0.0	9.10847885650581	0.0	20.889132576048283	-1.936094910051322	3.300821340314058	-3.2130573320676232	-1.0875002192042214	2.1313032110267995	-3.2130573320676232	20.21643414553951	-1.5089245155460773	0.4271703945052501	-1.1826287123210069	1.2703927205674395	4	correct	1.0
