onset	duration	trial_type	response_time	cueOnset	targetOnset	fbOnset	cueRT	firstfixOnset	secondfixOnset	waitOnset	firstfixdur	secondfixdur	waitdur	nback_fbOnset	nback_response_time	nback_targetOnset	block	wm	trial	cue	cond	is_common	outcome_go	outcome_nogo	key_correct	key_pressed	is_correct	key_correct_nback	key_pressed_nback	is_correct_nback	outcome	rt	rt_nback	time_scan	time_onset	time_isi1	time_circle	time_isi2	time_feedback	time_same	time_correct	time_iti	time_done	timestamp_scan	DV	Qgo	Qnogo	SV	Wgo	Wnogo	mDV	Qchosen	Qunchosen	Wchosen	Wunchosen	PE	DVC	QgoC	QnogoC	SVC	WgoC	WnogoC	PEC	WchosenC	WunchosenC	QchosenC	QunchosenC	run	outcome_nback	nback_targetResp
0.0	5.7991838000016145	go_reward	0.2532957999501377	0.06882779998704791	1.5440108000766628	4.096411100006662	1.475183000089615	1.0728946999879412	3.078902400098741	5.094581400044262	0.4711161000887216	1.0175086999079213	0.7734301999444	n/a	1.0	n/a	1	0	1	3	go_reward	1	1	0	1	1	1	0	n/a	n/a	1	0.2532957999501377	1.0	105.3706251999829	105.43945299996994	106.44351989997084	106.91463600005956	108.44952760008164	109.46703629998956	n/a	n/a	110.46520660002716	111.23863679997156	2019-12-27 16:54:51.985823	-0.410087871524932	0.0	0.0	0.0	-0.410087871524932	0.0	0.410087871524932	0.0	0.0	-0.410087871524932	0.0	13.1208703401455	-3.171502155868428	-1.1290167111992295	-1.0940650641034244	-2.4785546877664655	-1.362425766032369	-1.0940650641034244	12.398002197564802	-2.8139964930021133	0.3575056628663193	-2.4600510088572003	0.2369692335545482	1	missed	0.0
5.843683600076474	6.693220800021663	nogo_reward	0.6931899999035522	5.912511400063522	7.675211900030263	10.210551100084544	1.7627004999667406	6.921935399994268	9.18793360004203	11.221715799998506	0.7532765000359944	1.0226175000425144	1.3840164000866793	n/a	1.0	n/a	1	0	2	4	nogo_reward	1	0	1	0	1	0	0	n/a	n/a	0	0.6931899999035522	1.0	105.3706251999829	111.28313660004642	112.29256059997716	113.04583710001316	114.55855880002493	115.58117630006744	n/a	n/a	116.5923409999814	117.97635740006808	2019-12-27 16:54:51.985823	-0.410087871524932	0.0	0.0	0.0	-0.410087871524932	0.0	0.410087871524932	0.0	0.0	-0.410087871524932	0.0	0.0	-3.171502155868428	-1.1290167111992295	-1.0940650641034244	-2.4785546877664655	-1.362425766032369	-1.0940650641034244	-0.7228681425806981	-2.8139964930021133	0.3575056628663193	-2.4600510088572003	0.2369692335545482	1	missed	0.0
12.57465250010138	6.480711299926043	go_reward	0.3412642000475898	12.643480300088427	14.206051000044681	16.75833069998771	1.5625706999562539	13.646275100065381	15.738421600079164	17.773728800006225	0.5597758999793001	1.0199090999085456	1.3504628000082448	n/a	1.0	n/a	1	0	3	3	go_reward	0	0	1	1	1	1	1	n/a	n/a	0	0.3412642000475898	1.0	105.3706251999829	118.01410550007132	119.01690030004828	119.57667620002758	121.10904680006206	122.1289558999706	n/a	n/a	123.14435399998912	124.49481679999737	2019-12-27 16:54:51.985823	2.95228957777878	3.11675688359078	0.0	3.11675688359078	2.95228957777878	0.0	-2.95228957777878	3.11675688359078	0.0	2.95228957777878	0.0	-3.11675688359078	0.19087529343528375	1.9877401723915507	-1.0940650641034244	0.6382021958243147	1.9999516832713429	-1.0940650641034244	-3.839625026171478	0.5483809563015987	0.3575056628663193	0.6567058747335799	0.2369692335545482	1	missed	0.0
19.08907170000022	7.603367700008661	nogo_reward	1.0	19.157899499987266	21.99927140004003	24.50853350001853	2.8413719000527635	20.16506100003606	23.50398420006968	25.517785800038837	1.8342104000039683	1.0045492999488488	1.2434813999570906	n/a	1.0	n/a	1	0	4	4	nogo_reward	1	0	1	0	0	1	1	n/a	n/a	1	1.0	1.0	105.3706251999829	124.52852469997016	125.53568620001896	127.36989660002293	128.87460940005258	129.87915870000143	n/a	n/a	130.88841100002173	132.13189239997882	2019-12-27 16:54:51.985823	0.410087871524932	0.0	0.0	0.0	-0.410087871524932	0.0	-0.410087871524932	0.0	0.0	0.0	-0.410087871524932	13.1208703401455	-2.351326412818564	-1.1290167111992295	-1.0940650641034244	-2.4785546877664655	-1.362425766032369	-1.0940650641034244	12.398002197564802	-2.403908621477181	-0.052582208658612684	-2.4600510088572003	0.2369692335545482	1	missed	0.0
26.72628960001748	6.032485600095242	nogo_reward	1.0	26.79511740000453	28.374386300100014	30.90298240003176	1.5792689000954852	27.812090200022794	29.87928190000821	31.91209500003606	0.5622961000772193	1.0237005000235513	0.9155080000637099	n/a	1.0	n/a	1	0	5	4	nogo_reward	1	0	1	0	0	1	0	n/a	n/a	1	1.0	1.0	105.3706251999829	132.16574259998742	133.1827154000057	133.7450115000829	135.2499070999911	136.27360760001466	n/a	n/a	137.28272020001896	138.19822820008267	2019-12-27 16:54:51.985823	3.28122418940277	0.0	3.11675688359078	3.11675688359078	-0.164467305811997	3.11675688359078	-3.28122418940277	3.11675688359078	0.0	3.11675688359078	-0.164467305811997	10.00411345655472	0.5198099050592737	-1.1290167111992295	2.0226918194873558	0.6382021958243147	-1.1168052003194342	2.0226918194873558	9.281245313974022	0.712848262113599	0.1930383570543223	0.6567058747335799	0.2369692335545482	1	missed	0.0
32.79116870008875	6.367778899963014	nogo_reward	1.0	32.859996500075795	34.389060000074096	36.92977630009409	1.5290634999983013	33.85373020009138	35.90632589999586	37.93521920009516	0.5353297999827191	1.023450400098227	1.2925561999436468	n/a	1.0	n/a	1	0	6	4	nogo_reward	1	0	1	0	0	1	1	n/a	n/a	1	1.0	1.0	105.3706251999829	138.2306217000587	139.22435540007427	139.759685200057	141.27695109997876	142.300401500077	n/a	n/a	143.30584440007806	144.5984006000217	2019-12-27 16:54:51.985823	5.42946100440965	0.0	5.43733967546875	5.43733967546875	0.0078786710591031	5.43733967546875	-5.42946100440965	5.43733967546875	0.0	5.43733967546875	0.0078786710591031	7.683530664676749	2.668046720066154	-1.1290167111992295	4.3432746113653256	2.9587849877022845	-0.944459223448334	4.3432746113653256	6.960662522096051	3.0334310539915688	0.3653843339254224	2.9772886666115497	0.2369692335545482	1	missed	0.0
39.19807440007571	6.993008199962787	go_reward	1.0	39.26690220006276	41.25607670005411	43.774802200030535	1.9891744999913499	40.27228989999276	42.76154109998606	44.77598730009049	0.9837868000613526	1.013261100044474	1.4839230999350548	n/a	1.0	n/a	1	0	7	3	go_reward	0	0	1	1	0	0	0	n/a	n/a	1	1.0	1.0	105.3706251999829	144.63752740004566	145.64291509997565	146.626701900037	148.13216629996896	149.14542740001343	n/a	n/a	150.1466125000734	151.63053560000844	2019-12-27 16:54:51.985823	-2.08284089722414	2.32058279187798	0.0	2.32058279187798	2.08284089722414	0.0	2.08284089722414	0.0	2.32058279187798	0.0	2.08284089722414	13.1208703401455	-4.844255181567636	1.1915660806787505	-1.0940650641034244	-0.15797189588848548	1.130503002716703	-1.0940650641034244	12.398002197564802	-2.403908621477181	2.4403465600904592	-2.4600510088572003	2.5575520254325284	1	missed	0.0
46.235657400102355	7.309196799993515	nogo_punish	0.4093888999195769	46.3044852000894	48.65802580001764	51.20472170005087	2.3535405999282375	47.31168250006158	50.17944040009752	52.214071800000966	1.346343299956061	1.025281299953349	1.399610200081952	n/a	1.0	n/a	1	0	8	2	nogo_punish	1	-1	0	0	1	0	0	n/a	n/a	-1	0.4093888999195769	1.0	105.3706251999829	151.6751104000723	152.68230770004448	154.02865100000054	155.55006560008042	156.57534690003376	n/a	n/a	157.58469699998386	158.9843072000658	2019-12-27 16:54:51.985823	-0.410087871524932	0.0	0.0	0.0	-0.410087871524932	0.0	0.410087871524932	0.0	0.0	-0.410087871524932	0.0	-5.00374270831402	-3.171502155868428	-1.1290167111992295	-1.0940650641034244	-2.4785546877664655	-1.362425766032369	-1.0940650641034244	-5.726610850894718	-2.8139964930021133	0.3575056628663193	-2.4600510088572003	0.2369692335545482	1	missed	0.0
53.58266540011388	6.032115199952415	go_reward	1.0	53.65149320010093	55.14489690004848	57.67051170009654	1.4934036999475495	54.64543470006902	56.65046530007385	58.68329010007437	0.49946219997946173	1.020046400022693	1.0003182999789715	n/a	1.0	n/a	1	0	9	3	go_reward	1	1	0	1	0	0	1	n/a	n/a	0	1.0	1.0	105.3706251999829	159.02211840008383	160.0160599000519	160.51552210003138	162.02109050005674	163.04113690007944	n/a	n/a	164.05391530005727	165.05423360003624	2019-12-27 16:54:51.985823	0.838747715845835	2.32058279187798	3.11675688359078	4.85839214369934	2.27800916774494	3.11675688359078	-0.838747715845835	3.11675688359078	2.32058279187798	3.11675688359078	2.27800916774494	-3.11675688359078	-1.9226665684976612	1.1915660806787505	2.0226918194873558	2.3798374559328743	1.3256712732375031	2.0226918194873558	-3.839625026171478	0.712848262113599	2.6355148306112595	0.6567058747335799	2.5575520254325284	1	missed	0.0
59.65125810005702	7.520188300055452	nogo_reward	1.0	59.72008590004407	62.49925700004678	65.01908100000583	2.7791711000027135	60.734129999997094	64.00323939998634	66.0279502000194	1.765127000049688	1.0158416000194848	1.212324000080116	n/a	1.0	n/a	1	0	10	4	nogo_reward	1	0	1	0	0	1	0	n/a	n/a	1	1.0	1.0	105.3706251999829	165.09071110002697	166.10475519998	167.86988220002968	169.37386459996924	170.38970619998872	n/a	n/a	171.3985754000023	172.61089940008242	2019-12-27 16:54:51.985823	7.04920258283924	0.0	7.17897493557731	7.17897493557731	0.129772352738066	7.17897493557731	-7.04920258283924	7.17897493557731	0.0	7.17897493557731	0.129772352738066	5.941895404568189	4.2877882984957445	-1.1290167111992295	6.084909871473886	4.700420247810845	-0.8225655417693711	6.084909871473886	5.219027261987491	4.775066314100129	0.48727801560438533	4.71892392672011	0.2369692335545482	1	missed	0.0
67.20557390002071	7.153525300091104	nogo_reward	1.0	67.27440170000776	69.51031819998752	72.03926099999808	2.2359164999797656	68.28430400008801	71.01508060004562	73.04802930005826	1.2260141998995095	1.0241803999524564	1.3798977000406012	n/a	1.0	n/a	1	0	11	4	nogo_reward	1	0	1	0	0	1	0	n/a	n/a	1	1.0	1.0	105.3706251999829	172.64502689999065	173.6549292000709	174.88094339997042	176.38570580002852	177.40988619998097	n/a	n/a	178.41865450004116	179.79855220008176	2019-12-27 16:54:51.985823	8.27935314636067	0.0	8.49598023810969	8.49598023810969	0.216627091749013	8.49598023810969	-8.27935314636067	8.49598023810969	0.0	8.49598023810969	0.216627091749013	4.62489010203581	5.517938862017173	-1.1290167111992295	7.401915174006265	6.017425550343225	-0.735710802758424	7.401915174006265	3.9020219594551118	6.092071616632508	0.5741327546153323	6.035929229252489	0.2369692335545482	1	missed	0.0
74.39319370000158	6.784417000017129	nogo_punish	1.0	74.46202149998862	76.46421380003446	79.00327149999794	2.0021923000458344	75.46416540001519	77.97926990001	80.00404830009211	1.000048400019267	1.0240015999879404	1.2423901999136433	n/a	1.0	n/a	1	0	12	2	nogo_punish	0	0	-1	0	0	1	0	n/a	n/a	-1	1.0	1.0	105.3706251999829	179.83264669997152	180.8347905999981	181.83483900001735	183.3498950999929	184.37389669998083	n/a	n/a	185.374673500075	186.61706369998865	2019-12-27 16:54:51.985823	1.66791923647982	-1.15163673461979	0.0	-1.15163673461979	-1.66791923647982	0.0	-1.66791923647982	0.0	-1.15163673461979	0.0	-1.66791923647982	-5.00374270831402	-1.093495047863676	-2.2806534458190195	-1.0940650641034244	-3.6301914223862557	-2.620257130987257	-1.0940650641034244	-5.726610850894718	-2.403908621477181	-1.3104135736135007	-2.4600510088572003	-0.9146675010652419	1	missed	0.0
81.22208780003709	6.146094499970815	go_punish	0.7269842000678182	81.29091560002414	83.11244100006297	85.6596817000536	1.821525400038837	82.30023709998932	84.63900890003427	86.6607710000826	0.812203900073655	1.0206728000193266	0.7762390999123454	n/a	1.0	n/a	1	0	13	1	go_punish	1	0	-1	1	1	1	0	n/a	n/a	0	0.7269842000678182	1.0	105.3706251999829	186.66154080000703	187.6708622999722	188.48306620004587	190.00963410001717	191.0303069000365	n/a	n/a	192.0313962000655	192.80763529997785	2019-12-27 16:54:51.985823	-0.410087871524932	0.0	0.0	0.0	-0.410087871524932	0.0	0.410087871524932	0.0	0.0	-0.410087871524932	0.0	0.0	-3.171502155868428	-1.1290167111992295	-1.0940650641034244	-2.4785546877664655	-1.362425766032369	-1.0940650641034244	-0.7228681425806981	-2.8139964930021133	0.3575056628663193	-2.4600510088572003	0.2369692335545482	1	missed	0.0
87.40142030001152	7.234934400068624	nogo_reward	1.0	87.47024809999857	90.17198129999451	92.6899386000587	2.7017331999959424	88.46309750003275	91.6767839000095	93.69922740000763	1.708883799961768	1.0131547000491992	1.0059551000595661	n/a	1.0	n/a	1	0	14	4	nogo_reward	1	0	1	0	0	1	0	n/a	n/a	1	1.0	1.0	105.3706251999829	192.84087329998147	193.83372270001564	195.5426064999774	197.0474090999924	198.0605638000416	n/a	n/a	199.06985259999053	200.0758077000501	2019-12-27 16:54:51.985823	9.22004526632211	0.0	9.49899344318945	9.49899344318945	0.278948176867343	9.49899344318945	-9.22004526632211	9.49899344318945	0.0	9.49899344318945	0.278948176867343	3.6218768969560493	6.458630981978613	-1.1290167111992295	8.404928379086027	7.020438755422985	-0.673389717640094	8.404928379086027	2.8990087543753513	7.095084821712269	0.6364538397336623	7.03894243433225	0.2369692335545482	1	missed	0.0
94.67063430009875	7.382727099931799	nogo_punish	0.2717308000428602	94.7394621000858	97.33350380009512	99.87902029999529	2.5940417000093134	95.75568870001007	98.86422160000075	100.88771730009469	1.577815100085047	1.014798699994543	1.2344718999229087	n/a	1.0	n/a	1	0	15	2	nogo_punish	1	-1	0	0	1	0	0	n/a	n/a	-1	0.2717308000428602	1.0	105.3706251999829	200.1100873000687	201.12631389999297	202.704129000078	204.23484679998364	205.2496454999782	n/a	n/a	206.2583425000776	207.4928144000005	2019-12-27 16:54:51.985823	-0.592350703640909	-1.15163673461979	-1.15163673461979	-2.0172938909984	-1.7439874382607	-1.15163673461979	0.592350703640909	-1.15163673461979	-1.15163673461979	-1.7439874382607	-1.15163673461979	-3.85210597369423	-3.3537649879844054	-2.2806534458190195	-2.245701798723214	-4.495848578764866	-2.696325332768137	-2.245701798723214	-4.5749741162749284	-4.147896059737882	-0.7941310717534706	-3.61168774347699	-0.9146675010652419	1	missed	0.0
102.08906880009454	6.91441319999285	go_punish	1.0	102.15789660008159	104.59042780008167	107.12916470004711	2.432531200000085	103.1549940000987	106.1053440000396	108.13857350009494	1.4354337999829738	1.0238207000075192	0.9337362999795005	n/a	1.0	n/a	1	0	16	1	go_punish	1	0	-1	1	0	0	0	n/a	n/a	-1	1.0	1.0	105.3706251999829	207.52852180006448	208.5256192000816	209.96105300006457	211.4759692000225	212.49978990003	n/a	n/a	213.50919870007783	214.44293500005733	2019-12-27 16:54:51.985823	0.410087871524932	0.0	0.0	0.0	-0.410087871524932	0.0	-0.410087871524932	0.0	0.0	0.0	-0.410087871524932	-5.00374270831402	-2.351326412818564	-1.1290167111992295	-1.0940650641034244	-2.4785546877664655	-1.362425766032369	-1.0940650641034244	-5.726610850894718	-2.403908621477181	-0.052582208658612684	-2.4600510088572003	0.2369692335545482	1	missed	0.0
109.04168140003455	7.807114699971919	go_reward	0.2622404999565333	109.1105092000216	111.87818160001191	114.43414860009216	2.7676723999903174	110.1220323999878	113.41480290004986	115.4421206000261	1.7561492000241117	1.0193457000422939	1.4755032999674143	n/a	1.0	n/a	1	0	17	3	go_reward	1	1	0	1	1	1	0	n/a	n/a	1	0.2622404999565333	1.0	105.3706251999829	214.4811344000045	215.4926575999707	217.2488067999948	218.78542810003276	219.80477380007505	n/a	n/a	220.812745800009	222.2882490999764	2019-12-27 16:54:51.985823	-0.150887155642886	2.32058279187798	2.32058279187798	3.63758809441035	2.16969563623509	2.32058279187798	0.150887155642886	2.32058279187798	2.32058279187798	2.16969563623509	2.32058279187798	10.80028754826752	-2.9123014399863822	1.1915660806787505	1.2265177277745556	1.1590334066438843	1.2173577417276529	1.2265177277745556	10.077419405686822	-0.23421298524209133	2.6780884547442994	-0.1394682169792203	2.5575520254325284	1	missed	0.0
116.88201620010656	6.09568839997516	go_punish	1.0	116.95084400009361	118.3122083999915	120.84057860006578	1.3613643998978944	117.95312510000079	119.81690710003022	121.84992910001895	0.359083299990715	1.0236715000355616	1.1966033000498157	n/a	1.0	n/a	1	0	18	1	go_punish	1	0	-1	1	0	0	1	n/a	n/a	-1	1.0	1.0	105.3706251999829	222.3214692000765	223.3237502999837	223.6828335999744	225.18753230001312	226.21120380004868	n/a	n/a	227.22055430000185	228.41715760005167	2019-12-27 16:54:51.985823	-0.63535423275976	0.0	-1.15163673461979	-1.15163673461979	-0.516282501860029	-1.15163673461979	0.63535423275976	-1.15163673461979	0.0	-1.15163673461979	-0.516282501860029	-3.85210597369423	-3.396768517103256	-1.1290167111992295	-2.245701798723214	-3.6301914223862557	-1.468620396367466	-2.245701798723214	-4.5749741162749284	-3.555545356096971	-0.1587768389937097	-3.61168774347699	0.2369692335545482	1	missed	0.0
123.01456410007086	6.848381399991922	nogo_punish	1.0	123.0833919000579	125.62572800007186	128.1617293000454	2.542336100013955	124.08866540004962	127.14085060008802	129.1815254000248	1.5370626000222387	1.020878699957393	0.7502479000250162	n/a	1.0	n/a	1	0	19	2	nogo_punish	1	-1	0	0	0	1	0	n/a	n/a	0	1.0	1.0	105.3706251999829	228.4540171000408	229.45929060003252	230.99635320005476	232.5114758000709	233.5323545000283	n/a	n/a	234.5521506000077	235.30239850003272	2019-12-27 16:54:51.985823	1.51295889117614	-2.0172938909984	-1.15163673461979	-2.67308859250774	-2.66459562579593	-1.15163673461979	-1.51295889117614	-1.15163673461979	-2.0172938909984	-1.15163673461979	-2.66459562579593	1.15163673461979	-1.248455393167356	-3.1463106021976293	-2.245701798723214	-5.151643280274206	-3.616933520303367	-2.245701798723214	0.4287685920390919	-3.555545356096971	-2.3070899629296107	-3.61168774347699	-1.7803246574438518	1	missed	0.0
129.89651190000586	5.899685200070991	nogo_punish	1.0	129.9653396999929	131.40387640008706	133.93825400003698	1.4385367000941471	130.96700070006776	132.91928860009645	134.9424210001016	0.4368757000193	1.0189653999405266	0.9226038999622972	n/a	1.0	n/a	1	0	20	2	nogo_punish	1	-1	0	0	0	1	0	n/a	n/a	0	1.0	1.0	105.3706251999829	235.3359648999758	236.33762590005065	236.77450160006995	238.28991380007935	239.30887920001987	n/a	n/a	240.3130462000845	241.2356501000468	2019-12-27 16:54:51.985823	1.73275618397102	-2.0172938909984	-0.86565715637861	-2.02191909235935	-2.59841334034963	-0.86565715637861	-1.73275618397102	-0.86565715637861	-2.0172938909984	-0.86565715637861	-2.59841334034963	0.86565715637861	-1.0286581003724762	-3.1463106021976293	-1.9597222204820344	-4.500473780125816	-3.550751234857067	-1.9597222204820344	0.14278901379791187	-3.2695657778557914	-2.2409076774833108	-3.3257081652358105	-1.7803246574438518	1	missed	0.0
135.8369427000871	7.226738199940883	go_reward	0.4379903000080958	135.90577050007414	138.34334610006775	140.89558640005998	2.4375755999936075	136.91577080008574	139.8718681000173	141.90460050001275	1.42757529998201	1.023718300042674	1.2279082000022754	n/a	1.0	n/a	1	0	21	3	go_reward	1	1	0	1	1	1	0	n/a	n/a	1	0.4379903000080958	1.0	105.3706251999829	241.27639570005704	242.28639600006863	243.71397130005064	245.2424933000002	246.26621160004288	n/a	n/a	247.27522569999564	248.50313389999792	2019-12-27 16:54:51.985823	2.55755681280666	4.85839214369934	2.32058279187798	5.8614053487791	4.87813960468463	2.32058279187798	-2.55755681280666	4.85839214369934	2.32058279187798	4.87813960468463	2.32058279187798	8.26247819644616	-0.20385747153683598	3.7293754325001105	1.2265177277745556	3.3828506610126348	3.9258017101771934	1.2265177277745556	7.539610053865462	2.474230983207449	2.6780884547442994	2.3983411348421395	2.5575520254325284	1	missed	0.0
143.101215200033	6.297806199989282	nogo_punish	0.448804400046356	143.17004300002006	144.9615938999923	147.51611680001952	1.7915508999722363	144.17432210000698	146.4923867000034	148.525351600023	0.7872717999853194	1.0237301000161096	0.9424975999863534	n/a	1.0	n/a	1	0	22	2	nogo_punish	1	-1	0	0	1	0	1	n/a	n/a	-1	0.448804400046356	1.0	105.3706251999829	248.54066820000295	249.54494729998987	250.3322190999752	251.8630118999863	252.8867420000024	n/a	n/a	253.89597680000588	254.83847439999224	2019-12-27 16:54:51.985823	-1.89590306432457	-2.0172938909984	-0.655794701509338	-1.54083715472833	-2.5516977658339	-0.655794701509338	1.89590306432457	-2.0172938909984	-0.655794701509338	-2.5516977658339	-0.655794701509338	-2.98644881731562	-4.657317348668066	-3.1463106021976293	-1.7498597656127624	-4.019391842494795	-3.504035660341337	-1.7498597656127624	-3.709316959896318	-4.955606387311081	-0.29828903864301876	-4.4773448998556	-0.41882546795478987	1	missed	0.0
149.43187080009375	7.559752299915999	nogo_reward	1.0	149.5006986000808	152.118243600009	154.64432670001406	2.6175449999282137	150.5046082000481	153.62790070008487	155.66104830009863	1.6136353999609128	1.0164259999291971	1.399402599898167	n/a	1.0	n/a	1	0	23	4	nogo_reward	1	0	1	0	0	1	0	n/a	n/a	1	1.0	1.0	105.3706251999829	254.8713238000637	255.875233400031	257.4888687999919	258.99852590006776	260.01495189999696	n/a	n/a	261.0316735000815	262.4310760999797	2019-12-27 16:54:51.985823	9.94407111793033	0.0	10.2680293790634	10.2680293790634	0.323958261133061	10.2680293790634	-9.94407111793033	10.2680293790634	0.0	10.2680293790634	0.323958261133061	2.8528409610820997	7.182656833586833	-1.1290167111992295	9.173964314959974	7.789474691296935	-0.6283796333743761	9.173964314959974	2.1299728185014017	7.864120757586218	0.6814639239993803	7.807978370206199	0.2369692335545482	1	missed	0.0
157.02612810011487	5.983039499958977	go_punish	1.0	157.09495590010192	158.52359630004503	161.05210249999072	1.4286403999431059	158.10157679999247	160.028563400032	162.0613075000001	0.4220195000525564	1.0235390999587253	1.0166879000607878	n/a	1.0	n/a	1	0	24	1	go_punish	1	0	-1	1	0	0	0	n/a	n/a	-1	1.0	1.0	105.3706251999829	262.4655811000848	263.47220199997537	263.8942215000279	265.3991886000149	266.4227276999736	n/a	n/a	267.431932699983	268.4486206000438	2019-12-27 16:54:51.985823	-1.42494318735749	0.0	-2.0172938909984	-2.0172938909984	-0.592350703640909	-2.0172938909984	1.42494318735749	-2.0172938909984	0.0	-2.0172938909984	-0.592350703640909	-2.98644881731562	-4.186357471700986	-1.1290167111992295	-3.1113589551018244	-4.495848578764866	-1.5446885981483462	-3.1113589551018244	-3.709316959896318	-4.421202512475581	-0.23484504077458973	-4.4773448998556	0.2369692335545482	1	missed	0.0
163.04442640009808	7.510865199961643	go_punish	0.2830988999921828	163.11325420008512	165.6402972000651	168.18957030004822	2.527042999979983	164.11999770009425	167.16859390004538	169.20259550004272	1.5202994999708608	1.0209764000028372	1.421523900004047	n/a	1.0	n/a	1	0	25	1	go_punish	1	0	-1	1	1	1	0	n/a	n/a	0	0.2830988999921828	1.0	105.3706251999829	268.483879400068	269.49062290007714	271.010922400048	272.5392191000283	273.5601955000311	n/a	n/a	274.5732207000256	275.99474460002966	2019-12-27 16:54:51.985823	2.02578685771021	0.0	-2.67308859250774	-2.67308859250774	-0.647301734797527	-2.67308859250774	-2.02578685771021	0.0	-2.67308859250774	-0.647301734797527	-2.67308859250774	0.0	-0.7356274266332861	-1.1290167111992295	-3.7671536566111645	-5.151643280274206	-1.599639629304964	-3.7671536566111645	-0.7228681425806981	-3.051210356274708	-2.3155829296414208	-2.4600510088572003	-2.4361193589531918	1	missed	0.0
170.58991370000876	6.166393900057301	nogo_reward	1.0	170.6587414999958	172.32204950007144	174.84538960002828	1.6633080000756308	171.6658462000778	173.83696019998752	175.85029610001948	0.6562032999936491	1.008429400040768	0.9748393000336364	n/a	1.0	n/a	1	0	26	4	nogo_reward	1	0	1	0	0	1	0	n/a	n/a	1	1.0	1.0	105.3706251999829	276.0293666999787	277.0364714000607	277.69267470005434	279.2075853999704	280.2160148000112	n/a	n/a	281.2209213000024	282.195760600036	2019-12-27 16:54:51.985823	10.5047709648629	0.0	10.8614353092826	10.8614353092826	0.356664344419718	10.8614353092826	-10.5047709648629	10.8614353092826	0.0	10.8614353092826	0.356664344419718	2.2594350308628997	7.743356680519403	-1.1290167111992295	9.767370245179176	8.382880621516135	-0.595673550087719	9.767370245179176	1.5365668882822017	8.45752668780542	0.7141700072860373	8.401384300425399	0.2369692335545482	1	missed	0.0
176.79393080004957	7.349891299963929	go_reward	0.2768934000050649	176.8627586000366	179.15647440007888	181.72353760001715	2.293715800042264	177.87589590006974	180.70017430000007	182.7327556000091	1.2805785000091419	1.0233633000170812	1.4798942999914289	n/a	1.0	n/a	1	0	27	3	go_reward	1	1	0	1	1	1	0	n/a	n/a	1	0.2768934000050649	1.0	105.3706251999829	282.2333838000195	283.24652110005263	284.5270996000618	286.07079949998297	287.09416280000005	n/a	n/a	288.103380799992	289.58327509998344	2019-12-27 16:54:51.985823	4.57350568045892	6.75434497800113	2.32058279187798	7.52338091387507	6.8940884723369	2.32058279187798	-4.57350568045892	6.75434497800113	2.32058279187798	6.8940884723369	2.32058279187798	6.366525362144369	1.8120913961154241	5.625328266801901	1.2265177277745556	5.044826226108604	5.941750577829463	1.2265177277745556	5.6436572195636705	4.490179850859719	2.6780884547442994	4.29429396914393	2.5575520254325284	1	missed	0.0
184.18575020006392	6.910801999969408	go_reward	0.2998564000008628	184.25457800005097	186.72959720005753	189.27838270005304	2.4750192000065567	185.25423369999044	188.25590640003793	190.28112440009136	1.4753635000670897	1.0224763000151142	0.8842555999290198	n/a	1.0	n/a	1	0	28	3	go_reward	0	0	1	1	1	1	0	n/a	n/a	0	0.2998564000008628	1.0	105.3706251999829	289.62520320003387	290.62485889997333	292.1002224000404	293.6265316000208	294.64900790003594	n/a	n/a	295.65174960007425	296.5360052000033	2019-12-27 16:54:51.985823	6.08620486992216	8.18198814065708	2.32058279187798	8.77539407087628	8.40678766180013	2.32058279187798	-6.08620486992216	8.18198814065708	2.32058279187798	8.40678766180013	2.32058279187798	-8.18198814065708	3.3247905855786635	7.05297142945785	1.2265177277745556	6.296839383109814	7.454449767292694	1.2265177277745556	-8.904856283237777	6.0028790403229495	2.6780884547442994	5.721937131799879	2.5575520254325284	1	missed	0.0
191.13031410006806	7.322114199982025	nogo_reward	1.0	191.1991419000551	193.5312723000534	196.06556000001729	2.3321303999982774	192.20420869998634	195.04193710000254	197.0746749000391	1.3270636000670493	1.0236229000147432	1.446581199998036	n/a	1.0	n/a	1	0	29	4	nogo_reward	1	0	1	0	0	1	0	n/a	n/a	1	1.0	1.0	105.3706251999829	296.569767100038	297.57483389996924	298.9018975000363	300.41256229998544	301.4361852000002	n/a	n/a	302.445300100022	303.89188130002003	2019-12-27 16:54:51.985823	10.9415279731666	0.0	11.3220928278371	11.3220928278371	0.380564854670493	11.3220928278371	-10.9415279731666	11.3220928278371	0.0	11.3220928278371	0.380564854670493	1.7987775123083996	8.180113688823104	-1.1290167111992295	10.228027763733675	8.843538140070635	-0.571773039836944	10.228027763733675	1.0759093697277016	8.918184206359918	0.7380705175368123	8.8620418189799	0.2369692335545482	1	missed	0.0
198.49038790003397	6.751180200022645	go_reward	0.3203357000602409	198.559215700021	200.4370998000959	202.9951564000221	1.8778841000748798	199.5769403000595	201.9744522999972	203.99696120002773	0.8601595000363886	1.0207041000248864	1.3134347000159323	n/a	1.0	n/a	1	0	30	3	go_reward	0	0	1	1	1	1	1	n/a	n/a	0	0.3203357000602409	1.0	105.3706251999829	303.9298409000039	304.9475655000424	305.8077250000788	307.3450774999801	308.365781600005	n/a	n/a	309.3675864000106	310.68102110002656	2019-12-27 16:54:51.985823	3.86759361906744	6.14825929039285	2.32058279187798	6.60891680894738	6.18817641094542	2.32058279187798	-3.86759361906744	6.14825929039285	2.32058279187798	6.18817641094542	2.32058279187798	-6.14825929039285	1.1061793347239437	5.01924257919362	1.2265177277745556	4.130362121180914	5.235838516437983	1.2265177277745556	-6.871127432973548	3.784267789468239	2.6780884547442994	3.6882082815356494	2.5575520254325284	1	missed	0.0
205.28249920008238	6.189045500010252	nogo_punish	1.0	205.35132700006943	206.93060170009272	209.46559190005064	1.5792747000232907	206.36807000008412	208.44583760004025	210.48435470007826	0.5625317000086056	1.0197543000103906	1.0560178000014275	n/a	1.0	n/a	1	0	31	2	nogo_punish	1	-1	0	0	0	1	0	n/a	n/a	0	1.0	1.0	105.3706251999829	310.7219522000523	311.738695200067	312.3012269000756	313.81646280002315	314.83621710003354	n/a	n/a	315.85497990006115	316.9109977000626	2019-12-27 16:54:51.985823	2.62462529830878	-2.67308859250774	-0.655794701509338	-2.33412843381298	-3.28041999981812	-0.655794701509338	-2.62462529830878	-0.655794701509338	-2.67308859250774	-0.655794701509338	-3.28041999981812	0.655794701509338	-0.13678898603471623	-3.80210530370697	-1.7498597656127624	-4.812683121579445	-4.232757894325557	-1.7498597656127624	-0.06707344107136004	-3.059703322986519	-2.9229143369518007	-3.1158457103665382	-2.4361193589531918	1	missed	0.0
211.51078690006398	6.384242299944162	go_reward	0.4155156000051647	211.57961470005102	212.91889720002655	215.47213060001377	1.3392824999755248	212.5911697000265	214.4568231999874	216.4798468000954	0.32772750000003725	1.0153074000263587	1.4840101998997852	n/a	1.0	n/a	1	0	32	3	go_reward	1	1	0	1	1	1	1	n/a	n/a	1	0.4155156000051647	1.0	105.3706251999829	316.9502399000339	317.9617949000094	318.28952240000945	319.8274483999703	320.84275579999667	n/a	n/a	321.8504720000783	323.3344821999781	2019-12-27 16:54:51.985823	2.24572226771037	4.6550596979399	2.32058279187798	5.01471930088383	4.56630505958834	2.32058279187798	-2.24572226771037	4.6550596979399	2.32058279187798	4.56630505958834	2.32058279187798	8.4658106422056	-0.515692016633126	3.526042986740671	1.2265177277745556	2.5361646131173647	3.6139671650809033	1.2265177277745556	7.742942499624902	2.162396438111159	2.6780884547442994	2.1950086890827	2.5575520254325284	1	missed	0.0
217.9304065000033	6.766457200050354	nogo_punish	0.8436353999422863	217.99923429999035	220.0426076001022	222.5954625000013	2.0433733001118526	219.00554630008992	221.57378340000287	223.60442500002682	1.037061300012283	1.0216790999984369	1.1612665000138804	n/a	1.0	n/a	1	0	33	2	nogo_punish	1	-1	0	0	1	0	1	n/a	n/a	-1	0.8436353999422863	1.0	105.3706251999829	323.36985949997324	324.3761715000728	325.4132328000851	326.94440859998576	327.9660876999842	n/a	n/a	328.9750502000097	330.1363167000236	2019-12-27 16:54:51.985823	-2.72593836557751	-2.67308859250774	-0.500467234471398	-1.77916113914451	-3.22640560004891	-0.500467234471398	2.72593836557751	-2.67308859250774	-0.500467234471398	-3.22640560004891	-0.500467234471398	-2.3306541158062797	-5.4873526499210055	-3.80210530370697	-1.5945322985748223	-4.257715826910975	-4.178743494556347	-1.5945322985748223	-3.0535222583869777	-5.630314221526091	-0.14296157160507866	-5.13313960136494	-0.2634980009168498	1	missed	0.0
224.73636630002875	6.095275199972093	nogo_reward	1.0	224.8051941000158	226.60377710009925	229.1411558000836	1.798583000083454	225.82270490005612	228.11450950009748	230.14110420004	0.7810722000431269	1.026646299986112	0.7593650999478996	n/a	1.0	n/a	1	0	34	4	nogo_reward	1	0	1	0	0	1	0	n/a	n/a	1	1.0	1.0	105.3706251999829	330.1758192999987	331.193330100039	331.97440230008215	333.4851347000804	334.5117810000665	n/a	n/a	335.5117294000229	336.2710944999708	2019-12-27 16:54:51.985823	11.2836299320321	0.0	11.6817524307811	11.6817524307811	0.39812249874897	11.6817524307811	-11.2836299320321	11.6817524307811	0.0	11.6817524307811	0.39812249874897	1.4391179093644002	8.522215647688604	-1.1290167111992295	10.587687366677674	9.203197743014634	-0.5542153957584671	10.587687366677674	0.7162497667837021	9.277843809303917	0.7556281616152893	9.2217014219239	0.2369692335545482	1	missed	0.0
230.87086670007557	6.961564600002021	go_reward	0.2440852998988703	230.93969450006261	232.8724971000338	235.42981440003496	1.9328025999711826	231.95141880004672	234.41544030001393	236.43901130009908	0.921078299987073	1.0143741000210298	1.462247799965553	n/a	1.0	n/a	1	0	35	3	go_reward	1	1	0	1	1	1	0	n/a	n/a	1	0.2440852998988703	1.0	105.3706251999829	336.3103197000455	337.3220440000296	338.2431223000167	339.7860654999968	340.80043960001785	n/a	n/a	341.809636500082	343.27188430004753	2019-12-27 16:54:51.985823	4.41246590218955	6.66646884563139	2.32058279187798	6.94880603116328	6.73304869406753	2.32058279187798	-4.41246590218955	6.66646884563139	2.32058279187798	6.73304869406753	2.32058279187798	6.4544014945141095	1.6510516178460537	5.5374521344321606	1.2265177277745556	4.470251343396814	5.780710799560093	1.2265177277745556	5.731533351933411	4.329140072590349	2.6780884547442994	4.20641783677419	2.5575520254325284	1	missed	0.0
237.86955740000127	6.5972896000602645	nogo_punish	0.3951224000193178	237.93838519998832	239.6226829000516	242.16666160000023	1.6842977000632686	238.95085820008535	241.14288170007057	243.17603370000143	0.671824699966237	1.0237798999296501	1.3596411000471562	n/a	1.0	n/a	1	0	36	2	nogo_punish	1	-1	0	0	1	0	0	n/a	n/a	-1	0.3951224000193178	1.0	105.3706251999829	343.3090103999712	344.32148340006825	344.9933081000345	346.51350690005347	347.5372867999831	n/a	n/a	348.5466588999843	349.9063000000315	2019-12-27 16:54:51.985823	-3.2941948944783	-3.17355582697913	-0.500467234471398	-2.51755062314116	-3.7946621289497	-0.500467234471398	3.2941948944783	-3.17355582697913	-0.500467234471398	-3.7946621289497	-0.500467234471398	-1.8301868813348898	-6.055609178821796	-4.302572538178359	-1.5945322985748223	-4.996105310907625	-4.7470000234571375	-1.5945322985748223	-2.553055023915588	-6.198570750426882	-0.14296157160507866	-5.63360683583633	-0.2634980009168498	1	missed	0.0
244.50810320000164	6.025244100019336	go_reward	0.7283171000890434	244.5769309999887	246.1540770001011	248.69620570004918	1.577146000112407	245.5920401000185	247.67568650003523	249.71042410004884	0.5620369000826031	1.0205192000139505	0.8917509999591857	n/a	1.0	n/a	1	0	37	3	go_reward	1	1	0	1	1	1	1	n/a	n/a	1	0.7283171000890434	1.0	105.3706251999829	349.9475561999716	350.9626653000014	351.524702200084	353.0463117000181	354.0668309000321	n/a	n/a	355.08104930003174	355.9728002999909	2019-12-27 16:54:51.985823	6.01695512783045	8.16245434958559	2.32058279187798	8.38524237771047	8.33753791970842	2.32058279187798	-6.01695512783045	8.16245434958559	2.32058279187798	8.33753791970842	2.32058279187798	4.95841599055991	3.2555408434869535	7.03343763838636	1.2265177277745556	5.906687689944006	7.385200025200984	1.2265177277745556	4.235547847979212	5.9336292982312395	2.6780884547442994	5.702403340728389	2.5575520254325284	1	missed	0.0
250.56876810011454	6.434789099963439	nogo_punish	1.0	250.6375959001016	252.54918820003513	255.06571680004708	1.9115922999335453	251.64208650006913	254.05382410006132	256.07900280004833	0.907101699966006	1.011892699985765	0.993382200016697	n/a	1.0	n/a	1	0	38	2	nogo_punish	1	-1	0	0	0	1	1	n/a	n/a	0	1.0	1.0	105.3706251999829	356.0082211000845	357.012711700052	357.91981340001803	359.4244493000442	360.43634200003	n/a	n/a	361.4496280000312	362.4430102000479	2019-12-27 16:54:51.985823	3.72729494334555	-3.55813104572673	-0.500467234471398	-3.07304011775421	-4.22776217781694	-0.500467234471398	-3.72729494334555	-0.500467234471398	-3.55813104572673	-0.500467234471398	-4.22776217781694	0.500467234471398	0.9658806590020537	-4.68714775692596	-1.5945322985748223	-5.551594805520676	-5.180100072324377	-1.5945322985748223	-0.22240090810930013	-2.904375855948579	-3.8702565149506207	-2.960518243328598	-3.3211618121721815	1	missed	0.0
257.04420070000924	7.100243000080809	go_reward	0.2925709999399259	257.1130284999963	259.5979391000001	262.1581655000336	2.4849106000037864	258.1230174000375	261.13473190006334	263.1675611000973	1.4749216999625787	1.0234335999702466	1.0457103999797823	n/a	1.0	n/a	1	0	39	3	go_reward	1	1	0	1	1	1	1	n/a	n/a	1	0.2925709999399259	1.0	105.3706251999829	362.4836536999792	363.4936426000204	364.968564299983	366.50535710004624	367.5287907000165	n/a	n/a	368.5381863000802	369.58389670006	2019-12-27 16:54:51.985823	7.21533290368355	9.28441150575687	2.32058279187798	9.46107847733505	9.53591569556152	2.32058279187798	-7.21533290368355	9.28441150575687	2.32058279187798	9.53591569556152	2.32058279187798	3.8364588343886297	4.453918619340055	8.15539479455764	1.2265177277745556	6.982523789568585	8.583577801054084	1.2265177277745556	3.1135906918079317	7.132007074084339	2.6780884547442994	6.824360496899669	2.5575520254325284	1	missed	0.0
264.18058030004613	7.1852892000461	go_punish	0.3499413999961689	264.2494081000332	266.4274885000195	268.9716378999874	2.1780803999862997	265.2561893000966	267.94807660009246	269.9724624000955	1.1712991999228848	1.0235612998949364	1.4622348999837982	n/a	1.0	n/a	1	0	40	1	go_punish	0	-1	0	1	1	1	0	n/a	n/a	-1	0.3499413999961689	1.0	105.3706251999829	369.6200333000161	370.6268145000795	371.7981137000024	373.31870180007536	374.3422630999703	n/a	n/a	375.3430876000784	376.8053225000622	2019-12-27 16:54:51.985823	2.0919691431565	0.0	-2.67308859250774	-2.02191909235935	-0.581119449351233	-2.67308859250774	-2.0919691431565	0.0	-2.67308859250774	-0.581119449351233	-2.67308859250774	-5.00374270831402	-0.6694451411869959	-1.1290167111992295	-3.7671536566111645	-4.500473780125816	-1.5334573438586703	-3.7671536566111645	-5.726610850894718	-2.985028070828414	-2.3155829296414208	-2.4600510088572003	-2.4361193589531918	1	missed	0.0
271.39945460006123	6.936930299969447	nogo_reward	1.0	271.4682824000483	273.5241222000914	276.0394502000418	2.0558398000431453	272.4854924000101	275.0197358999867	277.0523005001014	1.03862980008131	1.0197143000551137	1.352912199916318	n/a	1.0	n/a	1	0	41	4	nogo_reward	0	1	0	0	0	1	0	n/a	n/a	0	1.0	1.0	105.3706251999829	376.8389076000312	377.856117599993	378.8947474000743	380.3903610999696	381.4100754000247	n/a	n/a	382.4229257000843	383.7758379000006	2019-12-27 16:54:51.985823	11.5530063819616	0.0	11.9640896163129	11.9640896163129	0.411083234351333	11.9640896163129	-11.5530063819616	11.9640896163129	0.0	11.9640896163129	0.411083234351333	-11.9640896163129	8.791592097618103	-1.1290167111992295	10.870024552209475	9.485534928546436	-0.5412546601561041	10.870024552209475	-12.686957758893598	9.560180994835719	0.7685888972176522	9.504038607455701	0.2369692335545482	1	missed	0.0
278.37604020000435	6.4942288000602275	go_reward	0.3510340000502765	278.4448679999914	280.18035650008824	282.7317873000866	1.7354885000968352	279.4560362000484	281.71151669998653	283.74654610001016	0.7243203000398353	1.0202706001000479	1.1925507000414655	n/a	1.0	n/a	1	0	42	3	go_reward	1	1	0	1	1	1	0	n/a	n/a	1	0.3510340000502765	1.0	105.3706251999829	383.8154931999743	384.8266614000313	385.55098170007113	387.08214189996943	388.1024125000695	n/a	n/a	389.11717129999306	390.3097220000345	2019-12-27 16:54:51.985823	8.11765561512306	10.1324913179522	2.32058279187798	10.2732445351589	10.438238407001	2.32058279187798	-8.11765561512306	10.1324913179522	2.32058279187798	10.438238407001	2.32058279187798	2.9883790221932998	5.356241330779563	9.00347460675297	1.2265177277745556	7.794689847392435	9.485900512493563	1.2265177277745556	2.265510879612602	8.03432978552382	2.6780884547442994	7.672440309094999	2.5575520254325284	1	missed	0.0
284.9093780000694	6.2475571000250625	nogo_punish	1.0	284.97820580005646	286.4815820000367	289.0100815000478	1.5033761999802664	285.981975600007	287.9875090999995	290.0140498999972	0.4996064000297338	1.0225724000483183	1.2117130000843304	n/a	1.0	n/a	1	0	43	2	nogo_punish	1	-1	0	0	0	1	0	n/a	n/a	0	1.0	1.0	105.3706251999829	390.34883100003935	391.3526007999899	391.8522072000196	393.3581342999824	394.3807067000307	n/a	n/a	395.3846750999801	396.5963881000644	2019-12-27 16:54:51.985823	3.77202922534141	-3.55813104572673	-0.384575218747596	-2.3426565418589	-4.15660444408901	-0.384575218747596	-3.77202922534141	-0.384575218747596	-3.55813104572673	-0.384575218747596	-4.15660444408901	0.384575218747596	1.0106149409979137	-4.68714775692596	-1.4786402828510203	-4.821211229625366	-5.108942338596447	-1.4786402828510203	-0.3382929238331021	-2.788483840224777	-3.7990987812226904	-2.844626227604796	-3.3211618121721815	1	missed	0.0
291.19199360010685	6.288943699910305	nogo_punish	1.0	291.2608214000939	292.60485960007645	295.1213732000906	1.344038199982549	292.276498900028	294.11969060008414	296.134439000045	0.3283607000484494	1.0016826000064611	1.415326099959202	n/a	1.0	n/a	1	0	44	2	nogo_punish	1	-1	0	0	0	1	0	n/a	n/a	0	1.0	1.0	105.3706251999829	396.6314466000768	397.6471241000109	397.97548480005935	399.49031580006704	400.4919984000735	n/a	n/a	401.5050642000279	402.9203902999871	2019-12-27 16:54:51.985823	3.80859103436752	-3.55813104572673	-0.297449245974198	-1.79886278946252	-4.10604028034172	-0.297449245974198	-3.80859103436752	-0.297449245974198	-3.55813104572673	-0.297449245974198	-4.10604028034172	0.297449245974198	1.0471767500240237	-4.68714775692596	-1.3915143100776224	-4.277417477228985	-5.058378174849157	-1.3915143100776224	-0.4254188966065001	-2.701357867451379	-3.7485346174754004	-2.757500254831398	-3.3211618121721815	1	missed	0.0
297.5148370000534	5.803426899947226	nogo_punish	1.0	297.5836648000404	298.8814864000306	301.4157409000909	1.2978215999901863	298.60029249999207	300.3918968000216	302.42462330008857	0.28119390003854505	1.0238441000693115	0.9624683998990804	n/a	1.0	n/a	1	0	45	2	nogo_punish	0	0	-1	0	0	1	1	n/a	n/a	-1	1.0	1.0	105.3706251999829	402.9542900000233	403.97091769997496	404.2521116000135	405.7625220000045	406.7863661000738	n/a	n/a	407.79524850007147	408.75771689997055	2019-12-27 16:54:51.985823	3.83831627848085	-3.55813104572673	-0.23147951804411	-1.39073285091401	-4.06979579652496	-0.23147951804411	-3.83831627848085	-0.23147951804411	-3.55813104572673	-0.23147951804411	-4.06979579652496	-4.77226319026991	1.076901994137354	-4.68714775692596	-1.3255445821475345	-3.8692875386804753	-5.022133691032397	-1.3255445821475345	-5.495131332850608	-2.6353881395212913	-3.7122901336586405	-2.6915305269013103	-3.3211618121721815	1	missed	0.0
303.3524491999997	6.379342500003986	nogo_reward	1.0	303.42127699998673	304.7881923000096	307.3169726000633	1.3669153000228675	304.4286670000292	306.293344900012	308.3214838000713	0.3595252999804188	1.0236277000512928	1.479135699919425	n/a	1.0	n/a	1	0	46	4	nogo_reward	1	0	1	0	0	1	0	n/a	n/a	1	1.0	1.0	105.3706251999829	408.7919021999696	409.7992922000121	410.1588174999925	411.6639700999949	412.6875978000462	n/a	n/a	413.6921090000542	415.1712446999736	2019-12-27 16:54:51.985823	8.8950480898941	0.0	9.07012076084705	9.07012076084705	0.175072670952951	9.07012076084705	-8.8950480898941	9.07012076084705	0.0	9.07012076084705	0.175072670952951	4.050749579298449	6.133633805550604	-1.1290167111992295	7.976055696743626	6.591566073080585	-0.7772652235544861	7.976055696743626	3.327881436717751	6.666212139369869	0.5325783338192703	6.61006975198985	0.2369692335545482	1	missed	0.0
309.7652028000448	6.4888812999706715	nogo_punish	1.0	309.83403060003184	311.4975808000891	314.033608000027	1.6635502000572728	310.8416098000016	313.0126489000395	315.04093580006156	0.6559710000875043	1.0209590999875218	1.2819760999409482	n/a	1.0	n/a	1	0	47	2	nogo_punish	1	-1	0	0	0	1	1	n/a	n/a	0	1.0	1.0	105.3706251999829	415.20465580001473	416.2122349999845	416.868206000072	418.3832741000224	419.4042332000099	n/a	n/a	420.41156100004446	421.6935370999854	2019-12-27 16:54:51.985823	2.81696983545329	-3.55813104572673	-1.33282715761352	-2.23374312684771	-4.14979699306681	-1.33282715761352	-2.81696983545329	-1.33282715761352	-3.55813104572673	-1.33282715761352	-4.14979699306681	1.33282715761352	0.05555555110979382	-4.68714775692596	-2.4268922217169444	-4.712297814614176	-5.102134887574247	-2.4268922217169444	0.6099590150328219	-3.736735779090701	-3.792291330200491	-3.7928781664707203	-3.3211618121721815	1	missed	0.0
316.2946463000262	6.744483200018294	go_reward	0.283693499979563	316.36347410001326	318.2078242000425	320.7461227000458	1.84435010002926	317.3644193999935	319.73854110005783	321.755188500043	0.8434048000490293	1.0075815999879865	1.352768799988553	n/a	1.0	n/a	1	0	48	3	go_reward	1	1	0	1	1	1	0	n/a	n/a	1	0.283693499979563	1.0	105.3706251999829	421.73409929999616	422.7350445999764	423.5784494000254	425.1091663000407	426.1167479000287	n/a	n/a	427.1258137000259	428.47858250001445	2019-12-27 16:54:51.985823	8.80226071009937	10.778314721798	2.32058279187798	10.8909584866185	11.1228435019773	2.32058279187798	-8.80226071009937	10.778314721798	2.32058279187798	11.1228435019773	2.32058279187798	2.3425556183474985	6.040846425755873	9.649298010598772	1.2265177277745556	8.412403798852035	10.170505607469863	1.2265177277745556	1.6196874757668005	8.718934880500118	2.6780884547442994	8.318263712940801	2.5575520254325284	1	missed	0.0
323.0793128000805	6.266750099952333	go_reward	0.5363354000728577	323.14814060006756	324.618223000085	327.1591688999906	1.470082400017418	324.1582610000624	326.1380492000608	328.1712986000348	0.45996200002258547	1.0211196999298409	1.2435920999851078	n/a	1.0	n/a	1	0	49	3	go_reward	0	0	1	1	1	1	0	n/a	n/a	0	0.5363354000728577	1.0	105.3706251999829	428.51876580005046	429.5288862000453	429.9888482000679	431.5086744000437	432.5297940999735	n/a	n/a	433.5419238000177	434.7855159000028	2019-12-27 16:54:51.985823	9.32542945753057	11.2735674128708	2.32058279187798	11.3641019782745	11.6460122494086	2.32058279187798	-9.32542945753057	11.2735674128708	2.32058279187798	11.6460122494086	2.32058279187798	-11.2735674128708	6.564015173187073	10.144550701671571	1.2265177277745556	8.885547290508034	10.693674354901162	1.2265177277745556	-11.996435555451498	9.242103627931417	2.6780884547442994	8.813516404013601	2.5575520254325284	1	missed	0.0
329.38105200009886	7.294507699902169	go_punish	1.0	329.4498798000859	332.2369754000101	334.76720800006296	2.787095599924214	330.46587240009103	333.751904200064	335.78202170005534	1.7711029999190941	1.0153037999989465	0.9623657999327406	n/a	1.0	n/a	1	0	50	1	go_punish	1	0	-1	1	0	0	0	n/a	n/a	-1	1.0	1.0	105.3706251999829	434.8205050000688	435.8364976000739	437.607600599993	439.1225294000469	440.13783320004586	n/a	n/a	441.15264690003823	442.115012699971	2019-12-27 16:54:51.985823	-0.880853352717346	-1.15163673461979	-2.67308859250774	-2.69247388934812	-1.79223523979039	-2.67308859250774	0.880853352717346	-2.67308859250774	-1.15163673461979	-2.67308859250774	-1.79223523979039	-2.3306541158062797	-3.6422676370608422	-2.2806534458190195	-3.7671536566111645	-5.171028577114585	-2.744573134297827	-3.7671536566111645	-3.0535222583869777	-5.076997213984921	-1.4347295769240707	-5.13313960136494	-0.9146675010652419	1	missed	0.0
336.70899070007727	6.326887900009751	nogo_punish	1.0	336.7778185000643	338.1697528000223	340.6955946000525	1.3919342999579953	337.77942660008557	339.68512580008246	341.7084870000836	0.39032619993673734	1.010468799970056	1.396219399990457	n/a	1.0	n/a	1	0	51	2	nogo_punish	1	-1	0	0	0	1	0	n/a	n/a	0	1.0	1.0	105.3706251999829	442.1484437000472	443.15005180006847	443.5403780000052	445.05575100006536	446.0662198000354	n/a	n/a	447.0791122000665	448.47533160005696	2019-12-27 16:54:51.985823	3.09232849334436	-3.55813104572673	-1.00826620762518	-1.71272116816174	-4.10059470096954	-1.00826620762518	-3.09232849334436	-1.00826620762518	-3.55813104572673	-1.00826620762518	-4.10059470096954	1.00826620762518	0.3309142090008641	-4.68714775692596	-2.1023312717286045	-4.191275855928206	-5.052932595476977	-2.1023312717286045	0.28539806504448195	-3.4121748291023613	-3.743089038103221	-3.4683172164823803	-3.3211618121721815	1	missed	0.0
343.07275750010734	6.015663399943207	nogo_punish	1.0	343.1415853000944	344.4890352000948	347.01802850002423	1.347449900000413	344.1552110000048	345.9945695000933	348.0276565999957	0.3338242000900209	1.0234589999309378	1.1295921000419185	n/a	1.0	n/a	1	0	52	2	nogo_punish	0	0	-1	0	0	1	0	n/a	n/a	-1	1.0	1.0	105.3706251999829	448.5122105000773	449.5258361999877	449.8596604000777	451.3651947000762	452.3886537000071	n/a	n/a	453.3982817999786	454.5278739000205	2019-12-27 16:54:51.985823	3.29685949205042	-3.55813104572673	-0.768624692492392	-1.32265585419609	-4.06548418454281	-0.768624692492392	-3.29685949205042	-0.768624692492392	-3.55813104572673	-0.768624692492392	-4.06548418454281	-4.2351180158216275	0.5354452077069238	-4.68714775692596	-1.8626897565958163	-3.8012105419625555	-5.017822079050247	-1.8626897565958163	-4.957986158402326	-3.172533313969573	-3.7079785216764907	-3.228675701349592	-3.3211618121721815	1	missed	0.0
349.1285238000564	6.349374999990687	go_reward	0.214625500026159	349.1973516000435	351.1767583000474	353.7297938000411	1.979406700003949	350.2049264000962	352.707967900089	354.733991999994	0.9718318999512121	1.0218258999520913	0.8127346000401872	n/a	1.0	n/a	1	0	53	3	go_reward	0	0	1	1	1	1	0	n/a	n/a	0	0.214625500026159	1.0	105.3706251999829	454.5679768000264	455.5755516000791	456.5473835000303	458.0785931000719	459.100419000024	n/a	n/a	460.1046171999769	460.91735180001706	2019-12-27 16:54:51.985823	6.36557779266544	8.53911437574727	2.32058279187798	8.61217752403843	8.68616058454342	2.32058279187798	-6.36557779266544	8.53911437574727	2.32058279187798	8.68616058454342	2.32058279187798	-8.53911437574727	3.604163508321944	7.41009766454804	1.2265177277745556	6.1336228362719645	7.733822690035984	1.2265177277745556	-9.261982518327967	6.28225196306624	2.6780884547442994	6.079063366890069	2.5575520254325284	1	missed	0.0
355.512930200086	7.096721499925479	go_punish	0.2308709999779239	355.581758000073	358.0106209000805	360.55190040008165	2.4288629000074593	356.5889275000664	359.5411077000899	361.5649178000167	1.4216934000140782	1.0107926999917254	1.1135616999818012	n/a	1.0	n/a	1	0	54	1	go_punish	1	0	-1	1	1	1	0	n/a	n/a	0	0.2308709999779239	1.0	105.3706251999829	460.9523832000559	461.9595527000493	463.3812461000634	464.9117329000728	465.92252560006455	n/a	n/a	466.9355429999996	468.0491046999814	2019-12-27 16:54:51.985823	1.33851948326808	-1.15163673461979	-3.17355582697913	-3.19978559019159	-1.83503634371105	-3.17355582697913	-1.33851948326808	-1.15163673461979	-3.17355582697913	-1.83503634371105	-3.17355582697913	1.15163673461979	-1.422894801075416	-2.2806534458190195	-4.267620891082554	-5.678340277958055	-2.787374238218487	-4.267620891082554	0.4287685920390919	-4.238944965188232	-2.8160501641128106	-3.61168774347699	-2.9365865934245816	1	missed	0.0
362.65105890005367	7.156131400028187	go_reward	0.3062955000204965	362.7198867000407	365.46622760000173	368.02485360007273	2.7463408999610124	363.7287834000308	366.9977474000771	369.0387017000467	1.7374441999709234	1.0271061999956146	0.8373164000221891	n/a	1.0	n/a	1	0	55	3	go_reward	1	1	0	1	1	1	1	n/a	n/a	1	0.3062955000204965	1.0	105.3706251999829	468.0905119000236	469.0994086000137	470.8368527999846	472.36837260006	473.3954788000556	n/a	n/a	474.4093269000296	475.2466433000518	2019-12-27 16:54:51.985823	4.18434788686017	6.51549593468185	2.32058279187798	6.57469059734913	6.50493067873815	2.32058279187798	-4.18434788686017	6.51549593468185	2.32058279187798	6.50493067873815	2.32058279187798	6.60537440546365	1.422933602516674	5.38647922348262	1.2265177277745556	4.096135909582664	5.552592784230713	1.2265177277745556	5.882506262882951	4.101022057260969	2.6780884547442994	4.055444925824649	2.5575520254325284	1	missed	0.0
369.83988630003296	6.145281000062823	go_punish	0.37634049996268	369.90871410002	371.60426350007765	374.14586390007753	1.6955494000576437	370.916619900032	373.12389070005156	375.1527939999941	0.6876436000456465	1.0219732000259683	0.9012011000887128	n/a	1.0	n/a	1	0	56	1	go_punish	1	0	-1	1	1	1	1	n/a	n/a	0	0.37634049996268	1.0	105.3706251999829	475.2793393000029	476.2872451000149	476.97488870006055	478.49451590003446	479.5164891000604	n/a	n/a	480.523419199977	481.4246203000657	2019-12-27 16:54:51.985823	1.69963063190273	-0.86565715637861	-3.17355582697913	-2.43495584065385	-1.4739251950764	-3.17355582697913	-1.69963063190273	-0.86565715637861	-3.17355582697913	-1.4739251950764	-3.17355582697913	0.86565715637861	-1.0617836524407662	-1.9946738675778395	-4.267620891082554	-4.913510528420316	-2.4262630895838373	-4.267620891082554	0.14278901379791187	-3.877833816553581	-2.8160501641128106	-3.3257081652358105	-2.9365865934245816	1	missed	0.0
376.01930790010374	7.466524299932644	nogo_reward	1.0	376.0881357000908	379.0731654000701	381.5923913000152	2.985029699979293	377.1043791000266	380.5777481000405	382.5926428000676	1.9687863000434618	1.0146431999747278	0.9620171999558238	n/a	1.0	n/a	1	0	57	4	nogo_reward	1	0	1	0	0	1	0	n/a	n/a	1	1.0	1.0	105.3706251999829	481.4587609000737	482.4750043000095	484.443790600053	485.9483733000234	486.9630164999981	n/a	n/a	487.9632680000505	488.92528520000633	2019-12-27 16:54:51.985823	9.78746014068217	0.0	10.042961824138	10.042961824138	0.255501683455856	10.042961824138	-9.78746014068217	10.042961824138	0.0	10.042961824138	0.255501683455856	3.077908516007499	7.026045856338673	-1.1290167111992295	8.948896760034575	7.5644071363715355	-0.6968362110515811	8.948896760034575	2.355040373426801	7.639053202660819	0.6130073463221752	7.5829108152808	0.2369692335545482	1	missed	0.0
383.52278750005644	5.89588329999242	go_punish	0.2837124000070616	383.5916153000435	384.9557674000971	387.5118927999865	1.3641521000536159	384.596838700003	386.4922719000606	388.5252858999884	0.35892870009411126	1.0196208999259397	0.9622127000475302	n/a	1.0	n/a	1	0	58	1	go_punish	1	0	-1	1	1	1	1	n/a	n/a	0	0.2837124000070616	1.0	105.3706251999829	488.9622405000264	489.9674638999859	490.32639260008	491.8628971000435	492.8825179999694	n/a	n/a	493.8959110999713	494.8581238000188	2019-12-27 16:54:51.985823	1.96283710894552	-0.655794701509338	-3.17355582697913	-1.86638112299277	-1.21071871803361	-3.17355582697913	-1.96283710894552	-0.655794701509338	-3.17355582697913	-1.21071871803361	-3.17355582697913	0.655794701509338	-0.798577175397976	-1.7848114127085677	-4.267620891082554	-4.344935810759235	-2.1630566125410473	-4.267620891082554	-0.06707344107136004	-3.6146273395107915	-2.8160501641128106	-3.1158457103665382	-2.9365865934245816	1	missed	0.0
389.45351930009207	6.59159809991246	nogo_reward	1.0	389.5223471000791	391.3727783000795	393.91165750008076	1.8504312000004006	390.5290474999929	392.8876787000336	394.9116234000539	0.8437308000866324	1.023978800047189	1.2023217999376925	n/a	1.0	n/a	1	0	59	4	nogo_reward	1	0	1	0	0	1	1	n/a	n/a	1	1.0	1.0	105.3706251999829	494.892972300062	495.8996726999758	496.7434035000624	498.2583039000165	499.28228270006366	n/a	n/a	500.2822486000368	501.4845703999745	2019-12-27 16:54:51.985823	10.4513628370968	0.0	10.7626625731142	10.7626625731142	0.311299736017321	10.7626625731142	-10.4513628370968	10.7626625731142	0.0	10.7626625731142	0.311299736017321	2.358207767031299	7.689948552753304	-1.1290167111992295	9.668597509010777	8.284107885347735	-0.6410381584901161	9.668597509010777	1.635339624450601	8.35875395163702	0.6688053988836403	8.302611564256999	0.2369692335545482	1	missed	0.0
396.08095520001376	6.233911100076455	nogo_punish	1.0	396.1497830000008	397.99438859999646	400.5108763000462	1.8446055999956457	397.162646300043	399.4994908000808	401.5229823000264	0.8317422999534756	1.0113854999653995	0.8607118000508649	n/a	1.0	n/a	1	0	60	2	nogo_punish	1	-1	0	0	0	1	0	n/a	n/a	0	1.0	1.0	105.3706251999829	501.5204081999837	502.5332715000259	503.36501379997935	504.8701160000637	505.8815015000291	n/a	n/a	506.8936075000093	507.75431930006016	2019-12-27 16:54:51.985823	2.40458832907874	-3.55813104572673	-1.74181653436914	-2.17993198547353	-4.14640486344789	-1.74181653436914	-2.40458832907874	-1.74181653436914	-3.55813104572673	-1.74181653436914	-4.14640486344789	1.74181653436914	-0.3568259552647559	-4.68714775692596	-2.8358815984725645	-4.658486673239995	-5.098742757955327	-2.8358815984725645	1.018948391788442	-4.145725155846321	-3.7888992005815703	-4.20186754322634	-3.3211618121721815	1	missed	0.0
