onset	duration	trial_type	response_time	cueOnset	targetOnset	fbOnset	cueRT	firstfixOnset	secondfixOnset	waitOnset	firstfixdur	secondfixdur	waitdur	nback_fbOnset	nback_response_time	nback_targetOnset	block	wm	trial	cue	cond	is_common	outcome_go	outcome_nogo	key_correct	key_pressed	is_correct	key_correct_nback	key_pressed_nback	is_correct_nback	outcome	rt	rt_nback	time_scan	time_onset	time_isi1	time_circle	time_isi2	time_feedback	time_same	time_correct	time_iti	time_done	timestamp_scan	DV	Qgo	Qnogo	SV	Wgo	Wnogo	mDV	Qchosen	Qunchosen	Wchosen	Wunchosen	PE	DVC	QgoC	QnogoC	SVC	WgoC	WnogoC	PEC	WchosenC	WunchosenC	QchosenC	QunchosenC	run	outcome_nback	nback_targetResp
0.0	8.652024299953837	nogo_reward	0.3926168999169022	0.010135999997373801	1.5746275999117643	4.129699899931438	1.5644915999143905	1.0196643999081516	3.108863699948415	7.168991899932962	0.5549632000036127	1.020836199983023	1.4931684000182486	6.16238449991215	1.0	5.15434639994055	2	1	61	4	nogo_reward	1	0	1	0	1	0	0	n/a	0.0	1	0.3926168999169022	1.0	1640.9806392000755	1640.990775200073	1642.0003035999837	1642.5552667999873	1644.089502900024	1645.110339100007	1646.134985600016	1647.1430236999877	1648.1496311000085	1649.6427995000267	2019-12-27 17:20:27.595354	2.50215396914302	4.08832705117098	1.90566054474144	4.30615395042356	4.40781451388446	1.90566054474144	-2.50215396914302	4.08832705117098	1.90566054474144	4.40781451388446	1.90566054474144	-4.08832705117098	-0.2592603152004762	2.9593103399717506	0.8115954806380157	1.827599262657095	3.4554766193770234	0.8115954806380157	-4.811195193751678	2.0039058924072792	2.2631662076077594	1.6282760423137796	2.1426297782959884	4	missed	0.0
8.695803899899829	9.236529600108042	nogo_punish	1.0	8.705939899897203	11.479393399902392	13.991106399917044	2.773453500005189	9.713139200001024	12.982371599995531	17.04311470000539	1.7662541999013683	1.0087347999215126	0.8993547999998555	16.04303019994404	0.5348102999851108	15.011422899900936	2	1	62	2	nogo_punish	1	-1	0	0	0	1	0	1.0	0.0	0	1.0	0.5348102999851108	1640.9806392000755	1649.6865790999727	1650.6937784000766	1652.460032599978	1653.963010800071	1654.9717455999926	1655.9920620999765	1657.0236694000196	1658.023753900081	1658.9231087000808	2019-12-27 17:20:27.595354	1.63379358109247	-1.71200046430691	-0.787030814050299	-1.52235378326376	-2.42082439514277	-0.787030814050299	-1.63379358109247	-0.787030814050299	-1.71200046430691	-0.787030814050299	-2.42082439514277	0.787030814050299	-1.1276207032510261	-2.8410171755061393	-1.8810958781537233	-4.000908471030225	-3.373162289650207	-1.8810958781537233	0.06416267146960086	-3.19093943552748	-2.063318732276451	-3.247081822907499	-1.4750312307523619	4	wrong	1.0
17.954817499965202	7.7677099000429735	nogo_reward	0.3931315999943763	17.964953499962576	19.347815199987963	21.896914799930528	1.382861700025387	18.968388799927197	20.88395699998364	24.95783129998017	0.37942640006076545	1.0129577999468893	0.7748321000253782	23.945914899930358	0.4247149999719113	22.915680299978703	2	1	63	4	nogo_reward	1	0	1	0	1	0	1	1.0	1.0	0	0.3931315999943763	0.4247149999719113	1640.9806392000755	1658.945592700038	1659.9490280000027	1660.3284544000635	1661.8645962000592	1662.877554000006	1663.8963195000542	1664.926554100006	1665.9384705000557	1666.713302600081	2019-12-27 17:20:27.595354	4.01440848954625	5.37985756299291	1.90566054474144	5.5688439843826	5.92006903428768	1.90566054474144	-4.01440848954625	5.37985756299291	1.90566054474144	5.92006903428768	1.90566054474144	-5.37985756299291	1.252994205202754	4.250840851793681	0.8115954806380157	3.090289296616134	4.967731139780243	0.8115954806380157	-6.102725705573609	3.516160412810499	2.2631662076077594	2.91980655413571	2.1426297782959884	4	correct	1.0
25.750608999980386	8.433477299986407	go_punish	0.5267797999549657	25.76074499997776	27.616438299999572	30.167600499931723	1.8556933000218123	26.757207099930383	29.148109599948157	33.23194839991629	0.8592312000691891	1.0194908999835661	0.9622739000478759	32.22131709998939	0.799707300029695	31.189519799896516	2	1	64	1	go_punish	1	0	-1	1	1	1	0	0.0	1.0	0	0.5267797999549657	0.799707300029695	1640.9806392000755	1666.7413842000533	1667.737846300006	1668.597077500075	1670.1287488000237	1671.1482397000073	1672.170158999972	1673.201956300065	1674.2125875999918	1675.1748615000397	2019-12-27 17:20:27.595354	1.47605811157763	-0.928985510569854	-3.48352564781801	-3.38654983903808	-2.00746753624038	-3.48352564781801	-1.47605811157763	-0.928985510569854	-3.48352564781801	-2.00746753624038	-3.48352564781801	0.928985510569854	-1.2853561727658662	-2.0580022217690837	-4.5775907119214345	-5.865104526804545	-2.959805430747817	-4.5775907119214345	0.20611736798915592	-4.411376157717561	-3.1260199849516908	-3.389036519427054	-3.2465564142634618	4	correct	1.0
34.22662579989969	8.255686100106686	go_reward	1.0	34.23676179989707	35.58779899997171	38.113299699965864	1.351037200074643	35.24433129990939	37.093828499899246	41.14750169997569	0.34346770006231964	1.0194712000666186	1.3449462000280619	40.15347459993791	0.830093799973838	39.13213649997488	2	1	65	3	go_reward	1	1	0	1	0	0	0	0.0	1.0	0	1.0	0.830093799973838	1640.9806392000755	1675.2174009999726	1676.224970499985	1676.5684382000472	1678.0744676999748	1679.0939389000414	1680.1127757000504	1681.1341138000134	1682.1281409000512	1683.4730871000793	2019-12-27 17:20:27.595354	1.46892324457707	1.15038131911107	2.73662491900877	3.06609248951872	1.26770167443169	2.73662491900877	-1.46892324457707	2.73662491900877	1.15038131911107	2.73662491900877	1.26770167443169	-2.73662491900877	-1.2924910397664262	0.021364607911840583	1.6425598549053455	0.5875378017522546	0.3153637799242529	1.6425598549053455	-3.459493061589468	0.3327162975315887	1.6252073372980094	0.2765739101515696	1.3873505526656182	4	correct	1.0
42.52405209990661	9.805311200092547	nogo_punish	1.0	42.534188099903986	45.36991439992562	47.88388659991324	2.8357263000216335	43.54287879995536	46.86284719989658	50.93048019998241	1.8270355999702588	1.0210394000166616	1.4090191000141203	49.91498519992456	0.6607315000146627	48.90129289997276	2	1	66	2	nogo_punish	1	-1	0	0	0	1	0	0.0	1.0	0	1.0	0.6607315000146627	1640.9806392000755	1683.5148272999795	1684.523518000031	1686.3505536000011	1687.843486399972	1688.8645257999888	1689.8819321000483	1690.8956244	1691.911119400058	1693.320138500072	2019-12-27 17:20:27.595354	1.70609349029141	-1.71200046430691	-0.668336465924743	-1.29513839588892	-2.37442995621615	-0.668336465924743	-1.70609349029141	-0.668336465924743	-1.71200046430691	-0.668336465924743	-2.37442995621615	0.668336465924743	-1.0553207940520861	-2.8410171755061393	-1.7624015300281675	-3.7736930836553855	-3.326767850723587	-1.7624015300281675	-0.05453167665595504	-3.0722450874019245	-2.0169242933498306	-3.1283874747819436	-1.4750312307523619	4	correct	1.0
52.357086299918365	9.272266400046647	go_punish	0.686310900026001	52.36722229991574	55.131810599938035	57.67931159993168	2.7645883000222966	53.37609869998414	56.66932019998785	60.73289059998933	1.7557118999538943	1.0099913999438286	0.9065980999730527	59.718677099910565	0.7809083999600261	58.69144629989751	2	1	67	1	go_punish	1	0	-1	1	1	1	0	1.0	0.0	0	0.686310900026001	0.7809083999600261	1640.9806392000755	1693.3478614999913	1694.3567379000597	1696.1124498000136	1697.6499594000634	1698.6599508000072	1699.672085499973	1700.699316299986	1701.7135298000649	1702.620127900038	2019-12-27 17:20:27.595354	1.72293686284768	-0.787030814050299	-3.48352564781801	-2.87591272335435	-1.76058878497033	-3.48352564781801	-1.72293686284768	-0.787030814050299	-3.48352564781801	-1.76058878497033	-3.48352564781801	0.787030814050299	-1.0384774214958161	-1.9160475252495286	-4.5775907119214345	-5.354467411120815	-2.712926679477767	-4.5775907119214345	0.06416267146960086	-4.164497406447511	-3.1260199849516908	-3.247081822907499	-3.2465564142634618	4	wrong	1.0
61.673342099995125	9.932363700005226	go_reward	1.0	61.6834780999925	64.66094159998465	67.18946439994056	2.9774634999921545	62.69866679993015	66.17729109991342	70.22522309992928	1.9622748000545016	1.0121733000271433	1.390618700068444	69.22886439994909	0.819397300016135	68.20676519989479	2	1	68	3	go_reward	1	1	0	1	0	0	0	0.0	1.0	0	1.0	0.819397300016135	1640.9806392000755	1702.664117300068	1703.6793060000057	1705.6415808000602	1707.157930299989	1708.170103600016	1709.1874043999703	1710.2095036000246	1711.2058623000048	1712.5964810000733	2019-12-27 17:20:27.595354	1.13269276314517	1.15038131911107	2.31541026044152	2.59979371693108	1.18271749729635	2.31541026044152	-1.13269276314517	2.31541026044152	1.15038131911107	2.31541026044152	1.18271749729635	-2.31541026044152	-1.6287215211983261	0.021364607911840583	1.2213451963380955	0.12123902916461438	0.23037960278891279	1.2213451963380955	-3.038278403022218	-0.08849836103566133	1.5402231601626692	-0.14464074841568042	1.3873505526656182	4	correct	1.0
71.64728369994532	8.127865700051188	go_reward	1.0	71.6574196999427	72.99905989994295	75.52502679999452	1.3416402000002563	72.6715168999508	74.5149395999033	78.57408409996424	0.3275429999921471	1.0100872000912204	1.2112013000296429	77.55985949991737	0.6346875999588519	76.54249949997757	2	1	69	3	go_reward	1	1	0	1	0	0	0	0.0	1.0	0	1.0	0.6346875999588519	1640.9806392000755	1712.6380589000182	1713.6521561000263	1713.9796991000185	1715.4955787999788	1716.50566600007	1717.523138700053	1718.540498699993	1719.5547233000398	1720.7659246000694	2019-12-27 17:20:27.595354	0.85118416026855	1.15038131911107	1.96349789498937	2.2094386752126	1.11231373472082	1.96349789498937	-0.85118416026855	1.96349789498937	1.15038131911107	1.96349789498937	1.11231373472082	-1.96349789498937	-1.9102301240749462	0.021364607911840583	0.8694328308859456	-0.2691160125538654	0.15997584021338296	0.8694328308859456	-2.686366037570068	-0.4404107264878112	1.4698193975871394	-0.4965531138678303	1.3873505526656182	4	correct	1.0
79.83030199992913	8.560639700037655	nogo_punish	1.0	79.84043799992651	81.69836369995028	84.2136587999994	1.8579257000237703	80.84879769990198	83.20386219990905	87.26670399995055	0.8495660000482985	1.0097966000903398	1.1343737000136116	86.26021699991543	0.476554200053215	85.23063739994541	2	1	70	2	nogo_punish	1	-1	0	0	0	1	0	0.0	1.0	0	1.0	0.476554200053215	1640.9806392000755	1720.821077200002	1721.8294368999775	1722.6790029000258	1724.1845013999846	1725.194298000075	1726.211276600021	1727.240856199991	1728.247343200026	1729.3817169000397	2019-12-27 17:20:27.595354	1.76691352300393	-1.71200046430691	-0.568853773936947	-1.10437464901756	-2.33576729694087	-0.568853773936947	-1.76691352300393	-0.568853773936947	-1.71200046430691	-0.568853773936947	-2.33576729694087	0.568853773936947	-0.9945007613395662	-2.8410171755061393	-1.6629188380403714	-3.5829293367840256	-3.288105191448307	-1.6629188380403714	-0.15401436864375107	-2.9727623954141285	-1.9782616340745505	-3.0289047827941475	-1.4750312307523619	4	correct	1.0
88.43398289999436	9.549025599961169	go_reward	0.5022170000011101	88.44411889999174	90.9351514999289	93.47926529997494	2.4910325999371707	89.45170269999653	92.46246259997133	96.52457319991663	1.4834487999323756	1.016802700003609	1.468571300036274	95.51530440000352	0.9688880000030622	94.49441299994942	2	1	71	3	go_reward	1	1	0	1	1	1	1	0.0	0.0	1	0.5022170000011101	0.9688880000030622	1640.9806392000755	1729.4247581000673	1730.432341900072	1731.9157907000044	1733.4431018000469	1734.4599045000505	1735.475052200025	1736.495943600079	1737.5052123999922	1738.9737837000284	2019-12-27 17:20:27.595354	-0.614956333768393	1.15038131911107	1.66880498102755	1.88190217827295	1.05384864725915	1.66880498102755	0.614956333768393	1.15038131911107	1.66880498102755	1.05384864725915	1.66880498102755	11.97048902103443	-3.3763706181118893	0.021364607911840583	0.5747399169241256	-0.5966525094935156	0.10151075275171284	0.5747399169241256	11.247620878453732	-1.3500599742180313	2.0263106438938694	-1.3096696897461302	1.9057742145820982	4	wrong	1.0
98.02506449993211	8.638619699981064	go_reward	0.666219599894248	98.03520049992949	100.08998089993838	102.64846559998136	2.0547804000088945	99.04374039999698	101.62724689999618	105.68058569997083	1.0462404999414048	1.0212186999851838	0.9932344999397174	104.6671045999974	0.7089643999934196	103.65246379992436	2	1	72	3	go_reward	1	1	0	1	1	1	0	0.0	1.0	1	0.666219599894248	0.7089643999934196	1640.9806392000755	1739.015839700005	1740.0243796000725	1741.070620100014	1742.6078861000717	1743.629104800057	1744.633103	1745.647743800073	1746.6612249000464	1747.654459399986	2019-12-27 17:20:27.595354	1.40459042495157	2.88230278778382	1.66880498102755	3.51211058615621	3.07339540597912	1.66880498102755	-1.40459042495157	2.88230278778382	1.66880498102755	3.07339540597912	1.66880498102755	10.23856755236168	-1.3568238593919262	1.7532860765845906	0.5747399169241256	1.0335558983897446	2.121057511471683	0.5747399169241256	9.515699409780982	0.669486784501939	2.0263106438938694	0.4222517789266198	1.9057742145820982	4	correct	1.0
106.70797240000661	8.749049999983981	go_reward	0.3230469999834895	106.71810840000398	108.65122339990921	111.19637589994818	1.9331149999052286	107.73053599998798	110.17214029992465	114.25479319994338	0.9206873999212348	1.0242356000235304	1.2123652000445873	113.23592879995704	0.5347641999833286	112.20853329997044	2	1	73	3	go_reward	1	1	0	1	1	1	1	1.0	1.0	1	0.3230469999834895	0.5347641999833286	1640.9806392000755	1747.6987476000795	1748.7111752000635	1749.6318625999847	1751.1527795000002	1752.1770151000237	1753.189172500046	1754.2165680000326	1755.235432400019	1756.4477976000635	2019-12-27 17:20:27.595354	3.10572470143225	4.34349156979808	1.66880498102755	4.8868094946625	4.7745296824598	1.66880498102755	-3.10572470143225	4.34349156979808	1.66880498102755	4.7745296824598	1.66880498102755	8.777378770347418	0.3443104170887539	3.2144748585988507	0.5747399169241256	2.4082548068960343	3.822191787952363	0.5747399169241256	8.05451062776672	2.370621060982619	2.0263106438938694	1.8834405609408797	1.9057742145820982	4	correct	1.0
115.49790149996966	8.521718499949202	nogo_punish	1.0	115.50803749996703	117.67932219989598	120.21553519996814	2.171284699928947	116.51772599993296	119.19551319989841	123.2704178999411	1.1615961999630144	1.02002200006973	0.7593380999751389	122.25793399999384	0.5473777999868616	121.23289310000837	2	1	74	2	nogo_punish	1	-1	0	0	0	1	0	0.0	1.0	0	1.0	0.5473777999868616	1640.9806392000755	1756.4886767000426	1757.4983652000085	1758.6599613999715	1760.176152399974	1761.1961744000437	1762.213532300084	1763.2385732000694	1764.2510571000166	1765.0103951999918	2019-12-27 17:20:27.595354	1.81819050104387	-1.71200046430691	-0.485277593213986	-0.943840188806555	-2.30346809425786	-0.485277593213986	-1.81819050104387	-0.485277593213986	-1.71200046430691	-0.485277593213986	-2.30346809425786	0.485277593213986	-0.9432237832996262	-2.8410171755061393	-1.5793426573174103	-3.4223948765730206	-3.255805988765297	-1.5793426573174103	-0.2375905493667121	-2.889186214691167	-1.9459624313915405	-2.945328602071186	-1.4750312307523619	4	correct	1.0
124.0448371999662	8.878532400005497	go_punish	1.0	124.05497319996357	126.11117289995309	128.63311890000477	2.05619969998952	125.06466649996582	127.62245669995878	131.6834278999595	1.0465063999872655	1.0106622000459993	1.2500777000095695	130.67971999989823	0.6880589000647888	129.65122739993967	2	1	75	1	go_punish	0	-1	0	1	0	0	0	0.0	1.0	0	1.0	0.6880589000647888	1640.9806392000755	1765.035612400039	1766.0453057000414	1767.0918121000286	1768.6030959000343	1769.6137581000803	1770.6318666000152	1771.6603591999738	1772.664067100035	1773.9141448000446	2019-12-27 17:20:27.595354	-1.9288841952284	-0.668336465924743	-3.48352564781801	-2.44802714286393	-1.55464145258962	-3.48352564781801	1.9288841952284	-3.48352564781801	-0.668336465924743	-3.48352564781801	-1.55464145258962	3.48352564781801	-4.690298479571896	-1.7973531771239726	-4.5775907119214345	-4.926581830630395	-2.506979347097057	-4.5775907119214345	2.760657505237312	-5.887434269295191	-1.1971357897233006	-5.94357665667521	-0.43136723237019486	4	correct	1.0
132.96670270001027	8.135307399905287	nogo_punish	1.0	132.97683870000765	134.26479029993038	136.80041169992182	1.2879515999227351	133.9842088998994	135.78042289998848	139.8683189000003	0.2805814000309965	1.0199887999333441	1.24382719991263	138.8543331999099	0.4030229001073167	137.82430869992822	2	1	76	2	nogo_punish	1	-1	0	0	0	1	1	1.0	1.0	0	1.0	0.4030229001073167	1640.9806392000755	1773.9574779000832	1774.964848099975	1775.245429500006	1776.761062100064	1777.7810508999974	1778.8049479000038	1779.8349723999854	1780.8489581000758	1782.0927852999885	2019-12-27 17:20:27.595354	1.86151637309095	-1.71200046430691	-0.414902971803207	-0.808434708516509	-2.27641934489416	-0.414902971803207	-1.86151637309095	-0.414902971803207	-1.71200046430691	-0.414902971803207	-2.27641934489416	0.414902971803207	-0.899897911252546	-2.8410171755061393	-1.5089680359066313	-3.2869893962829746	-3.228757239401597	-1.5089680359066313	-0.3079651707774911	-2.818811593280388	-1.9189136820278407	-2.874953980660407	-1.4750312307523619	4	correct	1.0
141.1259768999878	9.832959899911657	nogo_reward	0.2874471000395715	141.13611289998516	143.8888306999579	146.44557889993303	2.752717799972743	142.15383829991333	145.42602649994637	149.4993099999847	1.7349924000445753	1.019552399986651	1.4697627999121323	148.48993179993704	0.4947296000318602	147.45556749997218	2	1	77	4	nogo_reward	1	0	1	0	1	0	0	0.0	1.0	0	0.2874471000395715	0.4947296000318602	1640.9806392000755	1782.1167521000607	1783.1344774999889	1784.8694699000334	1786.406665700022	1787.4262181000086	1788.4362067000477	1789.4705710000126	1790.4799492000602	1791.9497119999724	2019-12-27 17:20:27.595354	3.04863511742357	4.56585965831499	1.90566054474144	4.73012684299393	4.95429566216501	1.90566054474144	-3.04863511742357	4.56585965831499	1.90566054474144	4.95429566216501	1.90566054474144	-4.56585965831499	0.28722083308007385	3.4368429471157604	0.8115954806380157	2.2515721552274646	4.001957767657573	0.8115954806380157	-5.288727800895688	2.550387040687829	2.2631662076077594	2.1058086494577894	2.1426297782959884	4	correct	1.0
150.9814724999012	8.772078800015152	nogo_reward	0.3473060000687837	150.99160849989858	152.8399264999896	155.37966069998197	1.8483180000910124	151.99545819999184	154.3567294999957	158.4420224999776	0.8444682999977431	1.0229311999862603	1.3216647999361157	157.4286377999233	0.5631147000240162	156.39419579994865	2	1	78	4	nogo_reward	0	1	0	0	1	0	0	0.0	1.0	1	0.3473060000687837	0.5631147000240162	1640.9806392000755	1791.972247699974	1792.9760974000674	1793.8205657000651	1795.3373687000712	1796.3602999000575	1797.3748350000242	1798.4092769999988	1799.4226617000531	1800.7443264999893	2019-12-27 17:20:27.595354	2.24068834056442	3.88384342129608	1.90566054474144	4.02688394639533	4.14634888530586	1.90566054474144	-2.24068834056442	3.88384342129608	1.90566054474144	4.14634888530586	1.90566054474144	9.23702691884942	-0.5207259437790763	2.75482671009685	0.8115954806380157	1.5483292586288644	3.1940109907984233	0.8115954806380157	8.514158776268722	1.7424402638286791	2.2631662076077594	1.4237924124388797	2.1426297782959884	4	correct	1.0
159.77896469994425	8.956341600045562	go_punish	0.4817392999539152	159.78910069994163	162.2245321999069	164.77975230000447	2.4354314999652615	160.79853279993404	163.7598472998941	167.81464439991373	1.4259993999728522	1.0199050001103842	0.9307979000734576	166.81025489990134	0.6911265000235289	165.7981985999504	2	1	79	1	go_punish	1	0	-1	1	1	1	0	0.0	1.0	0	0.4817392999539152	0.6911265000235289	1640.9806392000755	1800.7697399000172	1801.7791720000096	1803.2051713999824	1804.7404864999696	1805.76039150008	1806.778837800026	1807.7908940999769	1808.7952835999893	1809.7260815000627	2019-12-27 17:20:27.595354	1.47130739791195	-0.668336465924743	-2.95320656448184	-2.0886235192147	-1.4818991665699	-2.95320656448184	-1.47130739791195	-0.668336465924743	-2.95320656448184	-1.4818991665699	-2.95320656448184	0.668336465924743	-1.2901068864315461	-1.7973531771239726	-4.047271628585264	-4.567178206981165	-2.434237061077337	-4.047271628585264	-0.05453167665595504	-3.885807788047081	-2.595700901615521	-3.1283874747819436	-2.716237330927292	4	correct	1.0
168.76125049998473	9.16774800000735	go_punish	0.3272138999309391	168.7713864999821	171.10812729992927	173.65841199993156	2.336740799947165	169.78032609994966	172.63476529996842	176.7145751999924	1.3278011999796036	1.0236466999631375	1.224559299997054	175.70263759989757	0.5289194999495521	174.67243779997807	2	1	80	1	go_punish	0	-1	0	1	1	1	0	0.0	1.0	-1	0.3272138999309391	0.5289194999495521	1640.9806392000755	1809.7520257000576	1810.7609653000252	1812.0887665000048	1813.615404500044	1814.639051200007	1815.6530770000536	1816.683276799973	1817.695214400068	1818.919773700065	2019-12-27 17:20:27.595354	1.63158605403513	-0.568853773936947	-2.95320656448184	-1.78603198005082	-1.32162051044671	-2.95320656448184	-1.63158605403513	-0.568853773936947	-2.95320656448184	-1.32162051044671	-2.95320656448184	-4.4348889343770725	-1.1298282303083662	-1.6978704851361766	-4.047271628585264	-4.2645866678172855	-2.273958404954147	-4.047271628585264	-5.157757076957771	-3.7255291319238912	-2.595700901615521	-3.0289047827941475	-2.716237330927292	4	correct	1.0
177.97204449994	7.866778700030636	go_reward	0.3921648000832647	177.98218049993739	179.30717119993642	181.85348009993322	1.3249906999990344	178.97895389993255	180.83920909999893	184.8871279999148	0.32821730000387106	1.014270999934297	0.9618312000532114	183.8737933000084	0.7533330000005662	182.86004179995484	2	1	81	3	go_reward	1	1	0	1	1	1	0	0.0	1.0	1	0.3921648000832647	0.7533330000005662	1640.9806392000755	1818.962819700013	1819.959593100008	1820.287810400012	1821.8198483000745	1822.8341193000088	1823.8406810000304	1824.854432500084	1825.8677671999903	1826.8295984000436	2019-12-27 17:20:27.595354	4.54201574343393	5.57912680347549	1.66880498102755	6.04875078280869	6.21082072446148	1.66880498102755	-4.54201574343393	5.57912680347549	1.66880498102755	6.21082072446148	1.66880498102755	7.541743536670009	1.7806014590904335	4.450110092276261	0.5747399169241256	3.5701960950422245	5.258482829954043	0.5747399169241256	6.818875394089311	3.806912102984299	2.0263106438938694	3.11907579461829	1.9057742145820982	4	correct	1.0
185.87892759998795	9.011276099947054	nogo_punish	1.0	185.88906359998532	188.32411599997408	190.86031039990485	2.4350523999887628	186.89059949992202	189.8409153999528	193.8900792999193	1.4335165000520647	1.0193949999520555	1.0102604000130668	192.88809029990853	0.4813895999686792	191.86988999997243	2	1	82	2	nogo_punish	1	-1	0	0	0	1	0	1.0	0.0	0	1.0	0.4813895999686792	1640.9806392000755	1826.8697028000608	1827.8712386999975	1829.3047552000496	1830.8215546000283	1831.8409495999804	1832.850529200048	1833.868729499984	1834.8707184999948	1835.880978900008	2019-12-27 17:20:27.595354	1.89820269563448	-1.71200046430691	-0.35551070078985	-0.693967355643846	-2.25371339642433	-0.35551070078985	-1.89820269563448	-0.35551070078985	-1.71200046430691	-0.35551070078985	-2.25371339642433	0.35551070078985	-0.8632115887090162	-2.8410171755061393	-1.4495757648932743	-3.1725220434103116	-3.206051290931767	-1.4495757648932743	-0.3673574417908481	-2.759419322267031	-1.8962077335580108	-2.81556170964705	-1.4750312307523619	4	wrong	1.0
194.91515089990548	8.034208300057571	nogo_reward	0.3556137999985367	194.92528689990286	196.36257589992556	198.90297079994343	1.4372890000227017	195.94157819997054	197.89207689999648	201.94422820000932	0.42099769995502356	1.0108938999469501	1.015266999951109	200.9398583999132	0.5223199999891222	199.9209890000052	2	1	83	4	nogo_reward	1	0	1	0	1	0	0	0.0	1.0	0	0.3556137999985367	0.5223199999891222	1640.9806392000755	1835.9059260999784	1836.922217400046	1837.343215100001	1838.872716100072	1839.883610000019	1840.9016282000807	1841.9204975999887	1842.9248674000848	1843.940134400036	2019-12-27 17:20:27.595354	3.80514817701663	5.21675008717922	1.90566054474144	5.34152941494576	5.71080872175807	1.90566054474144	-3.80514817701663	5.21675008717922	1.90566054474144	5.71080872175807	1.90566054474144	-5.21675008717922	1.043733892673134	4.08773337597999	0.8115954806380157	2.8629747271792945	4.758470827250633	0.8115954806380157	-5.939618229759918	3.306900100280889	2.2631662076077594	2.7566990783220193	2.1426297782959884	4	correct	1.0
202.9739735999608	8.951605099951848	nogo_reward	0.3536497000604868	202.98410959995817	205.57164069998544	208.11335799994458	2.587531100027263	203.99429689999647	207.10309039999242	211.1544671999293	1.5773437999889666	1.010267599952158	0.7812474999807364	210.1484615999509	0.7025348000461236	209.13080869999249	2	1	84	4	nogo_reward	1	0	1	0	1	0	0	0.0	1.0	0	0.3536497000604868	0.7025348000461236	1640.9806392000755	1843.9647488000337	1844.974936100072	1846.552279900061	1848.083729600068	1849.09399720002	1850.111447900068	1851.1291008000264	1852.1351064000048	1852.9163538999856	2019-12-27 17:20:27.595354	2.88120721555324	4.43586904197659	1.90566054474144	4.54490980721481	4.78686776029467	1.90566054474144	-2.88120721555324	4.43586904197659	1.90566054474144	4.78686776029467	1.90566054474144	-4.43586904197659	0.11979293120974388	3.3068523307773603	0.8115954806380157	2.0663551194483447	3.834529865787233	0.8115954806380157	-5.158737184557288	2.3829591388174887	2.2631662076077594	1.9758180331193893	2.1426297782959884	4	correct	1.0
211.9547887999795	8.447203399962746	go_punish	0.5501016000052914	211.96492479997687	213.81721439992543	216.35264039994217	1.8522895999485627	212.98082229995657	215.3330142999764	219.38735350000206	0.8363920999688617	1.0196260999657625	1.0247746999375522	218.3745278998972	0.6188935999525711	217.36038410000037	2	1	85	1	go_punish	1	0	-1	1	1	1	0	0.0	1.0	0	0.5501016000052914	0.6188935999525711	1640.9806392000755	1852.9455640000524	1853.961461500032	1854.797853600001	1856.313653500052	1857.3332796000177	1858.341023300076	1859.3551670999727	1860.3679927000776	1861.3927674000151	2019-12-27 17:20:27.595354	0.891541746771668	-1.21270600362693	-2.95320656448184	-2.25811301049384	-2.06166481771018	-2.95320656448184	-0.891541746771668	-1.21270600362693	-2.95320656448184	-2.06166481771018	-2.95320656448184	1.21270600362693	-1.8698725375718281	-2.3417227148261595	-4.047271628585264	-4.736667698260305	-3.014002712217617	-4.047271628585264	0.48983786104623184	-4.465573439187361	-2.595700901615521	-3.67275701248413	-2.716237330927292	4	correct	1.0
220.42702919989802	8.91573280002899	go_punish	0.3334272999782115	220.4371651998954	222.45891809999011	224.99505429994338	2.021752900094725	221.45228629990038	223.97537399991415	228.06236849992956	1.0066318000897354	1.019680300029222	1.2905294999948183	227.04609689989616	0.7288063999731094	226.01244659989652	2	1	86	1	go_punish	1	0	-1	1	1	1	0	0.0	1.0	0	0.3334272999782115	0.7288063999731094	1640.9806392000755	1861.417804399971	1862.432925499976	1863.4395573000656	1864.9560131999897	1865.975693500019	1866.993085799972	1868.0267360999717	1869.043007700005	1870.3335372	2019-12-27 17:20:27.595354	1.14341965929043	-1.027730578837	-2.95320656448184	-1.92754500980036	-1.80978690519142	-2.95320656448184	-1.14341965929043	-1.027730578837	-2.95320656448184	-1.80978690519142	-2.95320656448184	1.027730578837	-1.6179946250530661	-2.1567472900362294	-4.047271628585264	-4.406099697566825	-2.762124799698857	-4.047271628585264	0.3048624362563018	-4.213695526668602	-2.595700901615521	-3.4877815876942	-2.716237330927292	4	correct	1.0
229.38763699994865	9.2890801000176	go_reward	0.2672650000313297	229.39777299994603	231.69007879996207	234.23584360000677	2.292305800016038	230.40367869997885	233.21253579994686	237.28623480000533	1.2864000999832115	1.0233078000599107	1.4006182999582961	236.2842899999814	0.6279180999845266	235.25142409990076	2	1	87	3	go_reward	1	1	0	1	1	1	0	0.0	1.0	1	0.2672650000313297	0.6279180999845266	1640.9806392000755	1870.3784122000216	1871.3843179000544	1872.6707180000376	1874.1931750000224	1875.2164828000823	1876.2320632999763	1877.264929200057	1878.2668740000809	1879.6674923000392	2019-12-27 17:20:27.595354	5.75749595729427	6.6264064096312	1.66880498102755	7.0331142596242	7.42630093832182	1.66880498102755	-5.75749595729427	6.6264064096312	1.66880498102755	7.42630093832182	1.66880498102755	6.494463930514299	2.996081672950774	5.497389698431971	0.5747399169241256	4.554559571857734	6.473963043814383	0.5747399169241256	5.771595787933601	5.0223923168446385	2.0263106438938694	4.166355400774	1.9057742145820982	4	correct	1.0
238.7184715999756	8.080337499966618	go_reward	0.3627403000136837	238.72860759997297	240.40868629992497	242.96408790000737	1.6800786999519914	239.73784439999145	241.94585719995644	245.99471699993614	0.6708418999335208	1.0182307000509354	0.8142281000034473	244.99126029992476	0.774676900007762	243.97676999994997	2	1	88	3	go_reward	1	1	0	1	1	1	0	0.0	1.0	1	0.3627403000136837	0.774676900007762	1640.9806392000755	1879.7092468000485	1880.718483600067	1881.3893255000005	1882.926496400032	1883.944727100083	1884.9574092000255	1885.9718995000003	1886.9753562000117	1887.7895843000151	2019-12-27 17:20:27.595354	6.7884465309441	7.51603041789322	1.66880498102755	7.86891851056318	8.45725151197164	1.66880498102755	-6.7884465309441	7.51603041789322	1.66880498102755	8.45725151197164	1.66880498102755	5.604839922252279	4.027032246600603	6.387013706693991	0.5747399169241256	5.390363822796715	7.504913617464203	0.5747399169241256	4.881971779671581	6.053342890494458	2.0263106438938694	5.05597940903602	1.9057742145820982	4	correct	1.0
246.8420722999142	8.53945120004937	go_reward	0.4773983000777662	246.85220829991158	248.31990899995412	250.8754877999893	1.467700700042542	247.85180609999247	249.8511670998996	253.92952309991256	0.4681028999616501	1.0243207000896746	1.4621364000483936	252.91413739998848	0.5014822999946773	251.88084829994477	2	1	89	3	go_reward	1	1	0	1	1	1	1	1.0	1.0	1	0.4773983000777662	0.5014822999946773	1640.9806392000755	1887.832847499987	1888.832445300068	1889.3005482000297	1890.8318062999751	1891.8561270000648	1892.8614875000203	1893.894776600064	1894.910162299988	1896.3722987000365	2019-12-27 17:20:27.595354	7.66483305133738	8.27339561234171	1.66880498102755	8.58015649376863	9.33363803236493	1.66880498102755	-7.66483305133738	8.27339561234171	1.66880498102755	9.33363803236493	1.66880498102755	4.847474727803789	4.903418766993884	7.144378901142481	0.5747399169241256	6.101601806002165	8.381300137857494	0.5747399169241256	4.12460658522309	6.92972941088775	2.0263106438938694	5.81334460348451	1.9057742145820982	4	correct	1.0
255.40867539995793	8.901071700034436	go_punish	1.0	255.4188113999553	257.9633269999172	260.50797429995146	2.544515599961869	256.4268528999528	259.48519159993157	263.5608038000064	1.53647409996438	1.0227827000198886	0.7590792999833411	262.5452067999868	0.8420407000230625	261.52239919989324	2	1	90	1	go_punish	1	0	-1	1	0	0	0	0.0	1.0	-1	1.0	0.8420407000230625	1640.9806392000755	1896.3994506000308	1897.4074921000283	1898.9439661999927	1900.465830800007	1901.488613500027	1902.5030383999688	1903.5258460000623	1904.541443000082	1905.3005223000653	2019-12-27 17:20:27.595354	-1.35401403103326	-0.873049630286119	-2.95320656448184	-1.64919018712649	-1.59919253344859	-2.95320656448184	1.35401403103326	-2.95320656448184	-0.873049630286119	-2.95320656448184	-1.59919253344859	-2.0505361438321796	-4.115428315376756	-2.0020663414853486	-4.047271628585264	-4.127744874892955	-2.551530427956027	-4.047271628585264	-2.7734042864128776	-5.357115185959021	-1.2416868705822706	-5.41325757333904	-0.6360803967315709	4	correct	1.0
264.35267479997106	8.066542899934348	nogo_punish	1.0	264.36281079996843	265.72893689991884	268.25656039989553	1.3661260999504066	265.3701185999669	267.2449061999796	271.31532809999726	0.3588182999519631	1.011654199915938	1.114025599905517	270.3025176000085	0.4470871000085026	269.2743414998986	2	1	91	2	nogo_punish	1	-1	0	0	0	1	0	0.0	1.0	0	1.0	0.4470871000085026	1640.9806392000755	1905.343450000044	1906.3507578000424	1906.7095760999944	1908.2255454000551	1909.237199599971	1910.254980699974	1911.283156800084	1912.2959673000728	1913.4099928999783	2019-12-27 17:20:27.595354	1.92933250331632	-1.71200046430691	-0.305275691706762	-0.596986288587915	-2.23460819502309	-0.305275691706762	-1.92933250331632	-0.305275691706762	-1.71200046430691	-0.305275691706762	-2.23460819502309	0.305275691706762	-0.8320817810271761	-2.8410171755061393	-1.3993407558101865	-3.0755409763543806	-3.186946089530527	-1.3993407558101865	-0.4175924508739361	-2.7091843131839433	-1.8771025321567705	-2.7653267005639623	-1.4750312307523619	4	correct	1.0
272.4433969999661	9.001430399948958	nogo_reward	0.4001009999774396	272.4535329999635	274.81737770000495	277.3728931999069	2.3638447000414544	273.45794999995246	276.36053710000124	280.41447239997774	1.3594277000524926	1.0123560999056735	1.0404909999347183	279.40167890000157	0.7542230000253767	278.38808659999654	2	1	92	4	nogo_reward	0	1	0	0	1	0	0	0.0	1.0	1	0.4001009999774396	0.7542230000253767	1640.9806392000755	1913.434172200039	1914.438589200028	1915.7980169000805	1917.3411763000768	1918.3535323999824	1919.368725800072	1920.382318100077	1921.3951116000533	1922.435602599988	2019-12-27 17:20:27.595354	2.10681643489984	3.78038090083195	1.90566054474144	3.87583300896586	4.01247697964128	1.90566054474144	-2.10681643489984	3.78038090083195	1.90566054474144	4.01247697964128	1.90566054474144	9.340489439313549	-0.6545978494436562	2.6513641896327202	0.8115954806380157	1.3972783211993947	3.0601390851338426	0.8115954806380157	8.617621296732851	1.6085683581640984	2.2631662076077594	1.3203298919747497	2.1426297782959884	4	correct	1.0
281.468922299915	8.06134360004171	nogo_reward	1.0	281.47905829991237	282.9146799999289	285.45381889992836	1.4356217000165543	282.485495299916	284.4309521999676	288.4843697999604	0.429184700012911	1.0228666999607867	1.056032099993672	287.4774061999053	1.0	286.4687959000005	2	1	93	4	nogo_reward	1	0	1	0	0	1	0	n/a	0.0	1	1.0	1.0	1640.9806392000755	1922.459697499988	1923.4661344999915	1923.8953192000045	1925.411591400043	1926.434458100004	1927.449435100076	1928.4580453999808	1929.465009000036	1930.5210411000296	2019-12-27 17:20:27.595354	-3.69821765890672	5.13455151325016	1.90566054474144	5.21825055107537	5.60387820364816	1.90566054474144	3.69821765890672	1.90566054474144	5.13455151325016	1.90566054474144	5.60387820364816	11.215209795404059	-6.459631943250216	4.0055348020509305	0.8115954806380157	2.739695863308904	4.651540309140723	0.8115954806380157	10.492341652823361	-0.4982480767357411	5.9613838665144785	-0.5543904641157602	5.371520746804708	4	missed	0.0
289.57368869998004	9.697279799962644	go_reward	0.3877062998944893	289.5838246999774	292.19663459993876	294.76346359995637	2.6128098999613485	290.5910808999324	293.74062599998456	297.8039709998993	1.6055537000063396	1.0228375999718082	1.4771335000407362	296.8013767999364	0.5163108999840915	295.7791339999533	2	1	94	3	go_reward	1	1	0	1	1	1	0	0.0	1.0	1	0.3877062998944893	0.5163108999840915	1640.9806392000755	1930.564463900053	1931.571720100008	1933.1772738000143	1934.72126520006	1935.744102800032	1936.7597732000288	1937.782016000012	1938.7846101999748	1940.2617437000156	2019-12-27 17:20:27.595354	8.41146269269076	8.91956012434164	1.66880498102755	9.18671192048508	10.0802676737183	1.66880498102755	-8.41146269269076	8.91956012434164	1.66880498102755	10.0802676737183	1.66880498102755	4.2013102158038595	5.6500484083472635	7.7905434131424105	0.5747399169241256	6.708157232718614	9.127929779210863	0.5747399169241256	3.4784420732231616	7.676359052241119	2.0263106438938694	6.4595091154844395	1.9057742145820982	4	correct	1.0
299.295195799903	8.82674819999329	nogo_reward	1.0	299.3053317999004	301.2223014999181	303.75536539999325	1.9169697000177166	300.3166030999273	302.7380853999641	306.78729929996166	0.905698399990797	1.0172800000291318	1.3447806999320164	305.7905969999265	0.912805800093338	304.76960589992837	2	1	95	4	nogo_reward	1	0	1	0	0	1	1	0.0	0.0	1	1.0	0.912805800093338	1640.9806392000755	1940.285970999976	1941.2972423000028	1942.2029406999936	1943.7187246000396	1944.7360046000688	1945.750245100004	1946.771236200002	1947.7679385000372	1949.1127191999692	2019-12-27 17:20:27.595354	-2.28917653543832	5.13455151325016	3.51252719553075	6.3498991695779	5.80170373096908	3.51252719553075	2.28917653543832	3.51252719553075	5.13455151325016	3.51252719553075	5.80170373096908	9.60834314461475	-5.0505908197818155	4.0055348020509305	2.418462131427326	3.8713444818114344	4.849365836461643	2.418462131427326	8.885475002034052	1.108618574053569	6.159209393835399	1.05247618667355	5.371520746804708	4	wrong	1.0
308.14420370000835	8.468730299966637	nogo_reward	1.0	308.1543397000057	309.81755559996236	312.3329680999741	1.66321589995664	309.1573519000085	311.31937319994927	315.3800318998981	0.6602036999538541	1.0135949000248274	1.2430381000742727	314.36727669998095	0.5194966999115422	313.35381339990977	2	1	96	4	nogo_reward	1	0	1	0	0	1	0	0.0	1.0	1	1.0	0.5194966999115422	1640.9806392000755	1949.1349789000813	1950.137991100084	1950.798194800038	1952.3000124000248	1953.3136073000496	1954.3344525999853	1955.3479159000565	1956.3606710999736	1957.603709200048	2019-12-27 17:20:27.595354	-1.09649056159703	5.13455151325016	4.87058319382329	7.30611787669676	5.96707375542032	4.87058319382329	1.09649056159703	4.87058319382329	5.13455151325016	4.87058319382329	5.96707375542032	8.25028714632221	-3.857904845940526	4.0055348020509305	3.7765181297198653	4.827563188930295	5.014735860912883	3.7765181297198653	7.527419003741511	2.4666745723461085	6.324579418286639	2.4105321849660895	5.371520746804708	4	correct	1.0
316.661899999948	8.282326300046634	nogo_punish	1.0	316.67203599994536	318.4569359999148	320.9932973999528	1.7848999999694115	317.67604339995887	319.9724914999681	324.03243549994636	0.7808925999559051	1.0208058999846799	0.9219268000456395	323.0193544999929	0.7247664999449626	322.00066189991776	2	1	97	2	nogo_punish	1	-1	0	0	0	1	0	0.0	1.0	0	1.0	0.7247664999449626	1640.9806392000755	1957.652675200021	1958.6566826000344	1959.4375751999903	1960.9531307000436	1961.9739366000283	1962.9813010999933	1963.9999937000684	1965.013074700022	1965.9350015000675	2019-12-27 17:20:27.595354	1.9558021410435	-1.71200046430691	-0.262693433356261	-0.514641665486139	-2.21849557439976	-0.262693433356261	-1.9558021410435	-0.262693433356261	-1.71200046430691	-0.262693433356261	-2.21849557439976	0.262693433356261	-0.8056121432999961	-2.8410171755061393	-1.3567584974596854	-2.9931963532526042	-3.170833468907197	-1.3567584974596854	-0.4601747092244371	-2.6666020548334424	-1.8609899115334407	-2.7227444422134615	-1.4750312307523619	4	correct	1.0
324.9698047999991	8.630846399930078	go_punish	0.3342441000277176	324.9799407999965	327.2001944999213	329.7364806999685	2.220253699924797	325.97864989994537	328.7118367999792	332.77252399991244	1.221544599975914	1.0246438999893144	0.8382632000141257	331.7577670000028	0.7854332999559119	330.74988339992683	2	1	98	1	go_punish	0	-1	0	1	1	1	0	0.0	1.0	-1	0.3342441000277176	0.7854332999559119	1640.9806392000755	1965.960580000072	1966.959289100021	1968.1808336999968	1969.6924760000547	1970.717119900044	1971.7305226000024	1972.7384062000783	1973.753163199988	1974.591426400002	2019-12-27 17:20:27.595354	1.53745360097148	-0.873049630286119	-3.23692705753892	-2.14167533175919	-1.69947345656744	-3.23692705753892	-1.53745360097148	-0.873049630286119	-3.23692705753892	-1.69947345656744	-3.23692705753892	-4.1306930780279005	-1.223960683372016	-2.0020663414853486	-4.330992121642344	-4.620230019525655	-2.651811351074877	-4.330992121642344	-4.853561220608599	-4.103382078044621	-2.8794213946726006	-3.3331006391433196	-2.9999578239843716	4	correct	1.0
333.64608239999507	8.063482499914016	nogo_punish	1.0	333.65621839999244	335.1609264999861	337.6906429999508	1.5047080999936497	334.6613696999848	336.6766574999781	340.7494528999084	0.49955680000130087	1.013985499972705	0.9702479999980369	339.73484639998037	0.4361371999839321	338.70519649994094	2	1	99	2	nogo_punish	0	0	-1	0	0	1	1	1.0	1.0	-1	1.0	0.4361371999839321	1640.9806392000755	1974.636857600068	1975.6420089000603	1976.1415657000616	1977.6572967000536	1978.6712822000263	1979.6858357000165	1980.715485600056	1981.730092099984	1982.700340099982	2019-12-27 17:20:27.595354	1.97835508407622	-1.71200046430691	-0.22652080756649	-0.444575224048863	-2.20487589164271	-0.22652080756649	-1.97835508407622	-0.22652080756649	-1.71200046430691	-0.22652080756649	-2.20487589164271	-4.77722190074753	-0.783059200267276	-2.8410171755061393	-1.3205858716699144	-2.9231299118153284	-3.157213786150147	-1.3205858716699144	-5.500090043328228	-2.630429429043671	-1.8473702287763905	-2.6865718164236903	-1.4750312307523619	4	correct	1.0
341.733847699943	9.29388700006507	nogo_reward	1.0	341.7439836999404	344.26077109994367	346.78865669993684	2.5167874000032953	342.7466157999588	345.7655972999055	349.8256305999821	1.51415529998485	1.023059400031343	1.2122401000233367	348.81838690000563	0.4313571999082342	347.8020745998949	2	1	100	4	nogo_reward	1	0	1	0	0	1	0	0.0	1.0	1	1.0	0.4313571999082342	1640.9806392000755	1982.724622900016	1983.7272550000343	1985.2414103000192	1986.746236499981	1987.7692959000124	1988.7827137999705	1989.7990261000812	1990.8062698000576	1992.018509900081	2019-12-27 17:20:27.595354	-0.0846817772125792	5.13455151325016	6.02096451293436	8.11597246840966	6.10564629014694	6.02096451293436	0.0846817772125792	6.02096451293436	5.13455151325016	6.02096451293436	6.10564629014694	7.099905827211139	-2.8460960615560755	4.0055348020509305	4.926899448830936	5.6374177806431955	5.153308395639503	4.926899448830936	6.377037684630441	3.617055891457179	6.463151953013259	3.56091350407716	5.371520746804708	4	correct	1.0
351.0565693000094	8.44220289995451	go_punish	1.0	351.0667053000068	353.0420025999192	355.57046839990653	1.9752972999124268	352.0827632999285	354.549484599964	358.6338187999788	0.9592392999907133	1.0209837999425417	0.8750893999824711	357.6201782999565	0.5477879999671131	356.58748489990853	2	1	101	1	go_punish	0	-1	0	1	0	0	0	0.0	1.0	0	1.0	0.5477879999671131	1640.9806392000755	1992.0473445000823	1993.063402500004	1994.0226417999947	1995.5301238000395	1996.551107599982	1997.568124099984	1998.600817500032	1999.6144580000544	2000.4895474000368	2019-12-27 17:20:27.595354	-0.856032290763729	-1.47081567201702	-3.23692705753892	-2.5557408912132	-2.38089476677519	-3.23692705753892	0.856032290763729	-3.23692705753892	-1.47081567201702	-3.23692705753892	-2.38089476677519	3.23692705753892	-3.617446575107225	-2.5998323832162495	-4.330992121642344	-5.034295578979665	-3.333232661282627	-4.330992121642344	2.514058914958222	-5.640835679016101	-2.0233891039088707	-5.69697806639612	-1.2338464384624719	4	correct	1.0
359.544746199972	8.735168899991095	go_reward	1.0	359.55488219996937	361.36178129992936	363.89042670000345	1.8068990999599919	360.5504230000081	362.8737658999164	366.9307081999725	0.8113582999212667	1.0166608000870383	1.3593428999879507	365.92142989998683	0.6955896000145003	364.90891399991256	2	1	102	3	go_reward	1	1	0	1	0	0	0	1.0	0.0	0	1.0	0.6955896000145003	1640.9806392000755	2000.535521400045	2001.5310622000836	2002.342420500005	2003.854405099992	2004.871065900079	2005.889553199988	2006.9020691000624	2007.911347400048	2009.270690300036	2019-12-27 17:20:27.595354	-9.0489193194024	9.47202420710306	1.66880498102755	9.70510058103448	10.7177243004299	1.66880498102755	9.0489193194024	1.66880498102755	9.47202420710306	1.66880498102755	10.7177243004299	-1.66880498102755	-11.810333603745896	8.34300749590383	0.5747399169241256	7.226545893268016	9.765386405922463	0.5747399169241256	-2.391673123608248	-0.7351036404496312	11.07522996329622	-0.7912460278296503	9.708993440657608	4	wrong	1.0
368.3233787999484	9.2277951999572	go_reward	0.3572107000509277	368.33351479994576	371.04229739995253	373.57855509989895	2.7087826000067707	369.3406475000086	372.55474309995725	376.6252864999692	1.701649899943959	1.0238119999416995	0.9360234999337536	375.61255530000176	0.6013427999569103	374.59908889990766	2	1	103	3	go_reward	1	1	0	1	1	1	0	0.0	1.0	1	0.3572107000509277	0.6013427999569103	1640.9806392000755	2009.3141540000213	2010.321286700084	2012.022936600028	2013.5353823000328	2014.5591942999745	2015.5797280999832	2016.5931945000773	2017.6059257000447	2018.5419491999785	2019-12-27 17:20:27.595354	9.03202878215853	9.47202420710306	1.42146672514001	8.24341097368724	10.4534955072985	1.42146672514001	-9.03202878215853	9.47202420710306	1.42146672514001	10.4534955072985	1.42146672514001	3.64884613304244	6.270614497815034	8.34300749590383	0.3274016610365855	5.764856285920775	9.501157612791063	0.3274016610365855	2.925977990461742	8.04958688582132	1.7789723880063293	7.011973198245859	1.658435958694558	4	correct	1.0
377.5944177999627	8.844113699975196	go_reward	0.3507354999892413	377.60455379996006	379.3686250000028	381.9070998999525	1.7640712000427357	378.60403499996755	380.8928337999389	384.9553952999413	0.7645900000352412	1.0142661000136286	1.493272199993953	383.94296019989997	0.5471683999057859	382.91428099991754	2	1	104	3	go_reward	1	1	0	1	1	1	1	1.0	1.0	1	0.3507354999892413	0.5471683999057859	1640.9806392000755	2018.5851930000356	2019.584674200043	2020.3492642000783	2021.8734730000144	2022.887739100028	2023.894920199993	2024.9235993999755	2025.9360345000168	2027.4293067000108	2019-12-27 17:20:27.595354	9.62234321673882	9.94536375499914	1.42146672514001	8.92322905825756	11.0438099418788	1.42146672514001	-9.62234321673882	9.94536375499914	1.42146672514001	11.0438099418788	1.42146672514001	3.17550658514636	6.860928932395323	8.81634704379991	0.3274016610365855	6.444674370491095	10.091472047371363	0.3274016610365855	2.452638442565662	8.63990132040162	1.7789723880063293	7.485312746141939	1.658435958694558	4	correct	1.0
386.4806292999999	8.579272200004198	go_reward	0.4430137999588623	386.4907652999973	387.9914298999356	390.528120899922	1.5006645999383181	387.49033339996845	389.5142505998956	393.57659559999615	0.5010964999671614	1.0138703000263831	1.4934419000053367	392.56148519995645	0.6022663998883218	391.53718729992397	2	1	105	3	go_reward	1	1	0	1	1	1	1	1.0	1.0	1	0.4430137999588623	0.6022663998883218	1640.9806392000755	2027.4714045000728	2028.470972600044	2028.9720691000111	2030.4948897999711	2031.5087600999975	2032.5178264999995	2033.542124400032	2034.5572348000717	2036.050676700077	2019-12-27 17:20:27.595354	10.1268062033261	10.3517455608304	1.42146672514001	9.49970822994917	11.5482729284661	1.42146672514001	-10.1268062033261	10.3517455608304	1.42146672514001	11.5482729284661	1.42146672514001	2.7691247793150993	7.365391918982603	9.22272884963117	0.3274016610365855	7.021153542182706	10.595935033958662	0.3274016610365855	2.0462566367344013	9.144364306988919	1.7789723880063293	7.8916945519732	1.658435958694558	4	correct	1.0
395.08538359997306	7.788967299974047	go_punish	1.0	395.09551959997043	396.4595280999781	398.9871914999094	1.3640085000076851	396.104840599932	397.9675302999094	402.0251131999537	0.3546875000461114	1.0196611999999732	0.8593736999907833	401.02134869992733	0.7118822999764234	400.00554819998797	2	1	106	1	go_punish	0	-1	0	1	0	0	0	0.0	1.0	0	1.0	0.7118822999764234	1640.9806392000755	2036.076158800046	2037.0854798000075	2037.4401673000536	2038.948169499985	2039.967830699985	2040.9861874000635	2042.0019879000029	2043.0057524000292	2043.86512610002	2019-12-27 17:20:27.595354	-0.446460355336396	-1.47081567201702	-2.75019841191268	-2.17731615095803	-2.30373805657628	-2.75019841191268	0.446460355336396	-2.75019841191268	-1.47081567201702	-2.75019841191268	-2.30373805657628	2.75019841191268	-3.207874639679892	-2.5998323832162495	-3.8442634760161045	-4.655870838724495	-3.256075951083717	-3.8442634760161045	2.027330269331982	-5.154107033389861	-1.9462323937099608	-5.21024942076988	-1.2338464384624719	4	correct	1.0
402.89772010000866	9.531019399990328	nogo_reward	1.0	402.90785610000603	405.67311719991244	408.2041104999371	2.765261099906411	403.9065028999469	407.1790114999749	411.25834119995125	1.7666142999655676	1.0250989999622107	1.1805343000451103	410.2453938999679	0.6057473999680951	409.21671389997937	2	1	107	4	nogo_reward	1	0	1	0	0	1	0	0.0	1.0	1	1.0	0.6057473999680951	1640.9806392000755	2043.8884953000816	2044.8871421000224	2046.653756399988	2048.1596507000504	2049.1847497000126	2050.197353100055	2051.2260331000434	2052.238980400027	2053.419514700072	2019-12-27 17:20:27.595354	0.775567385318678	5.13455151325016	6.99760675597674	8.80342711531098	6.22203937065806	6.99760675597674	-0.775567385318678	6.99760675597674	5.13455151325016	6.99760675597674	6.22203937065806	6.123263584168759	-1.9858468990248181	4.0055348020509305	5.903541691873316	6.3248724275445145	5.269701476150623	5.903541691873316	5.400395441588061	4.593698134499559	6.579545033524379	4.53755574711954	5.371520746804708	4	correct	1.0
412.4715025000039	8.204555099946901	nogo_punish	1.0	412.4816385000013	413.8439761999766	416.38163329998497	1.3623376999753418	413.4956128000049	415.3612160999328	419.4115071999845	0.34836339997173127	1.0204172000521794	1.2746863999636844	418.4047754999483	1.0	417.39613909996115	2	1	108	2	nogo_punish	1	-1	0	0	0	1	0	n/a	0.0	0	1.0	1.0	1640.9806392000755	2053.462277700077	2054.4762520000804	2054.824615400052	2056.3418553000083	2057.3622725000605	2058.3767783000367	2059.385414700024	2060.39214640006	2061.6668328000237	2019-12-27 17:20:27.595354	1.41730894539016	-1.71200046430691	-0.923156750347642	-1.11225947842183	-2.34046569573781	-0.923156750347642	-1.41730894539016	-0.923156750347642	-1.71200046430691	-0.923156750347642	-2.34046569573781	0.923156750347642	-1.3441053389533362	-2.8410171755061393	-2.0172218144510663	-3.5908141661882955	-3.292803590245247	-2.0172218144510663	0.2002886077669439	-3.327065371824823	-1.9829600328714907	-3.383207759204842	-1.4750312307523619	4	missed	0.0
420.7021969999189	8.955198200069844	go_punish	0.8025752999819815	420.71233299991627	422.6839595999336	425.22740109998267	1.9716266000173164	421.720896899933	424.20544619997963	428.2519680999685	0.9630627000005916	1.0219549000030383	1.4155631000176072	427.2532366999658	1.0	426.24505639995914	2	1	109	1	go_punish	1	0	-1	1	1	1	0	n/a	0.0	-1	0.8025752999819815	1.0	1640.9806392000755	2061.692972199992	2062.7015361000085	2063.664598800009	2065.186085400055	2066.208040300058	2067.2256956000347	2068.2338759000413	2069.232607300044	2070.6481704000616	2019-12-27 17:20:27.595354	0.102670573309766	-1.47081567201702	-2.34208396924026	-1.85937596314539	-2.23941339593049	-2.34208396924026	-0.102670573309766	-1.47081567201702	-2.34208396924026	-2.23941339593049	-2.34208396924026	1.47081567201702	-2.65874371103373	-2.5998323832162495	-3.4361490333436846	-4.337930650911856	-3.191751290437927	-3.4361490333436846	0.7479475294363219	-4.643322017407671	-1.9845783063739408	-3.93086668087422	-2.105114735685712	4	missed	0.0
429.6814004000041	8.729533699923195	nogo_reward	1.0	429.6915364000015	431.43681059998926	433.9709082999034	1.7452741999877617	430.7025479999138	432.9474958999781	437.0272441999987	0.7342626000754535	1.0234123999252915	1.3938258999260142	436.01470529998187	0.4786919000325724	434.9856998999603	2	1	110	4	nogo_reward	1	0	1	0	0	1	0	0.0	1.0	1	1.0	0.4786919000325724	1640.9806392000755	2070.672175600077	2071.6831871999893	2072.417449800065	2073.9281351000536	2074.951547499979	2075.966339100036	2076.9953445000574	2078.007883400074	2079.4017093	2019-12-27 17:20:27.595354	1.50853964869477	5.13455151325016	7.82857113024407	9.38828682750696	6.3200314815493	7.82857113024407	-1.50853964869477	7.82857113024407	5.13455151325016	7.82857113024407	6.3200314815493	5.292299209901429	-1.2528746356487261	4.0055348020509305	6.7345060661406455	6.909732139740495	5.367693587041863	6.7345060661406455	4.569431067320731	5.424662508766889	6.677537144415619	5.36852012138687	5.371520746804708	4	correct	1.0
438.4559164999516	8.19589079997968	go_reward	0.3560810000635683	438.466052499949	440.1503890999593	442.7022985999938	1.6843366000102833	439.4620065999916	441.6882535999175	445.7463684999384	0.6883824999677017	1.014045000076294	0.9155747999902815	444.73324029997457	0.395212100003846	443.7201619999255	2	1	111	3	go_reward	0	0	1	1	1	1	0	0.0	1.0	0	0.3560810000635683	0.395212100003846	1640.9806392000755	2079.4466917000245	2080.442645800067	2081.131028300035	2082.668892799993	2083.6829378000693	2084.700801200001	2085.71387950005	2086.727007700014	2087.642582500004	2019-12-27 17:20:27.595354	10.5588552202834	10.701347362298	1.42146672514001	9.98973209017255	11.9803219454234	1.42146672514001	-10.5588552202834	10.701347362298	1.42146672514001	11.9803219454234	1.42146672514001	-10.701347362298	7.797440935939903	9.57233065109877	0.3274016610365855	7.511177402406085	11.027984050915963	0.3274016610365855	-11.424215504878697	9.57641332394622	1.7789723880063293	8.241296353440799	1.658435958694558	4	correct	1.0
446.6930388999169	8.74618410004723	go_reward	0.41890519997105	446.7031748999143	448.4674720999319	451.01483829994686	1.7642972000176087	447.7014291000087	449.99949169997126	454.0596746999072	0.7660429999232292	1.0153465999756008	1.3896843000543413	453.04533519991674	0.6642293999902904	452.01932389999274	2	1	112	3	go_reward	1	1	0	1	1	1	0	0.0	1.0	1	0.41890519997105	0.6642293999902904	1640.9806392000755	2087.68381409999	2088.682068300084	2089.4481113000074	2090.980130900047	2091.9954775000224	2092.9999631000683	2094.0259743999923	2095.0403138999827	2096.429998200037	2019-12-27 17:20:27.595354	8.68773505005205	9.09704050709586	1.42146672514001	8.50158819077046	10.1092017751921	1.42146672514001	-8.68773505005205	9.09704050709586	1.42146672514001	10.1092017751921	1.42146672514001	4.023829833049639	5.926320765708553	7.968023795896631	0.3274016610365855	6.023033503003996	9.156863880684663	0.3274016610365855	3.300961690468941	7.705293153714918	1.7789723880063293	6.63698949823866	1.658435958694558	4	correct	1.0
455.48116189998086	8.090548999956809	go_reward	0.5205625999951735	455.49129789997824	457.0367084000027	459.5789153999649	1.5454105000244454	456.5010543999965	458.55919019994326	462.6296126999655	0.5356540000061614	1.0197252000216395	0.9522341999695527	461.6257404999342	0.7680105000035837	460.59656479989644	2	1	113	3	go_reward	0	0	1	1	1	1	1	1.0	1.0	0	0.5205625999951735	0.7680105000035837	1640.9806392000755	2096.4719371000538	2097.481693600072	2098.017347600078	2099.539829400019	2100.5595546000404	2101.577203999972	2102.6063797000097	2103.610251900041	2104.5624861000106	2019-12-27 17:20:27.595354	9.36123560879252	9.65610708168183	1.42146672514001	9.15694333658671	10.7827023339325	1.42146672514001	-9.36123560879252	9.65610708168183	1.42146672514001	10.7827023339325	1.42146672514001	-9.65610708168183	6.599821324449023	8.5270903704826	0.3274016610365855	6.6783886488202455	9.830364439425063	0.3274016610365855	-10.378975224262527	8.37879371245532	1.7789723880063293	7.1960560728246294	1.658435958694558	4	correct	1.0
463.5981469999531	8.471121200011112	go_punish	0.820755900000222	463.60828299995046	465.08467959996824	467.63601549994155	1.4763966000177788	464.6168477999745	466.61647919996176	470.68939109996427	0.46783179999374624	1.0195362999797908	1.3900130999973044	469.6887810999765	0.6544077000580728	468.66111869993665	2	1	114	1	go_punish	1	0	-1	1	1	1	0	0.0	1.0	0	0.820755900000222	0.6544077000580728	1640.9806392000755	2104.588922200026	2105.59748700005	2106.0653188000438	2107.5971184000373	2108.616654700017	2109.641757900012	2110.669420300052	2111.67003030004	2113.060043400037	2019-12-27 17:20:27.595354	-0.494569636958376	-1.97469389766317	-2.34208396924026	-2.3190289867748	-2.83665360619864	-2.34208396924026	0.494569636958376	-1.97469389766317	-2.34208396924026	-2.83665360619864	-2.34208396924026	1.97469389766317	-3.255983921301872	-3.1037106088623996	-3.4361490333436846	-4.797583674541265	-3.788991500706077	-3.4361490333436846	1.2518257550824718	-5.240562227675821	-1.9845783063739408	-4.43474490652037	-2.105114735685712	4	correct	1.0
472.09613749990217	9.405902900034562	go_punish	0.386141899973154	472.10627349989954	474.57343779993244	477.1253245999105	2.4671643000328913	473.11548599996604	476.10510169994086	480.15912609989755	1.457951799966395	1.0202228999696672	1.353050300036557	479.1463415999897	0.4765587999718264	478.13289179990534	2	1	115	1	go_punish	1	0	-1	1	1	1	0	0.0	1.0	0	0.386141899973154	0.4765587999718264	1640.9806392000755	2113.086912699975	2114.0961252000416	2115.554077000008	2117.0857409000164	2118.105963799986	2119.113530999981	2120.126980800065	2121.139765299973	2122.4928156000096	2019-12-27 17:20:27.595354	-0.123741041301909	-1.67304524763261	-2.34208396924026	-1.97836269123285	-2.46582501054217	-2.34208396924026	0.123741041301909	-1.67304524763261	-2.34208396924026	-2.46582501054217	-2.34208396924026	1.67304524763261	-2.885155325645405	-2.80206195883184	-3.4361490333436846	-4.456917378999315	-3.418162905049607	-3.4361490333436846	0.950177105051912	-4.869733632019351	-1.9845783063739408	-4.133096256489811	-2.105114735685712	4	correct	1.0
481.5303243999367	8.10748420003847	go_punish	1.0	481.5404603999341	483.0898928999668	485.62953009991907	1.549432500032708	482.53836020000745	484.60571619996335	488.67007279989775	0.5515326999593526	1.0238138999557123	0.9778718000748086	487.65120029996615	0.5517986000049859	486.63874079997186	2	1	116	1	go_punish	1	0	-1	1	0	0	1	0.0	0.0	-1	1.0	0.5517986000049859	1640.9806392000755	2122.5210996000096	2123.518999400083	2124.0705321000423	2125.586355400039	2126.6101692999946	2127.6193800000474	2128.6318395000417	2129.6507119999733	2130.628583800048	2019-12-27 17:20:27.595354	-0.186185914113889	-1.42087072388231	-2.34208396924026	-1.69177349883654	-2.15589805512637	-2.34208396924026	0.186185914113889	-2.34208396924026	-1.42087072388231	-2.34208396924026	-2.15589805512637	-2.6616587390737596	-2.947600198457385	-2.5498874350815397	-3.4361490333436846	-4.1703281866030055	-3.108235949633807	-3.4361490333436846	-3.3845268816544576	-4.745992590717441	-1.7983923922600504	-4.8021349780974605	-1.1839014903277618	4	wrong	1.0
489.6634194999931	8.488898699986748	nogo_reward	1.0	489.67355549999047	491.3385530000087	493.8579790999647	1.6649975000182167	490.68293959996663	492.8335354999872	496.91216169996187	0.655613400042057	1.0244435999775305	1.2502925000153482	495.89962739998055	0.6305188999976963	494.8718885999406	2	1	117	4	nogo_reward	1	0	1	0	0	1	0	0.0	1.0	1	1.0	0.6305188999976963	1640.9806392000755	2130.654194700066	2131.663578800042	2132.319192200084	2133.8141747000627	2134.8386183000403	2135.852527800016	2136.880266600056	2137.8928009000374	2139.1430934000527	2019-12-27 17:20:27.595354	2.13439309061268	5.13455151325016	8.53711473989627	9.88695755377087	6.4027216492836	8.53711473989627	-2.13439309061268	8.53711473989627	5.13455151325016	8.53711473989627	6.4027216492836	4.58375560024923	-0.6270211937308163	4.0055348020509305	7.443049675792845	7.408402866004405	5.450383754776163	7.443049675792845	3.860887457668532	6.133206118419088	6.760227312149919	6.077063731039069	5.371520746804708	4	correct	1.0
498.1956482999956	9.456708299927413	nogo_punish	1.0	498.20578429999296	500.63423619989726	503.15448089991696	2.428451899904303	499.21317569992925	502.13943389989436	506.2163765999726	1.4210604999680072	1.015047000022605	1.4461159999477786	505.2030325999949	0.5462903999723494	504.1693169999635	2	1	118	2	nogo_punish	0	0	-1	0	0	1	0	0.0	1.0	-1	1.0	0.5462903999723494	1640.9806392000755	2139.1864235000685	2140.193814900005	2141.614875399973	2143.12007309997	2144.1351200999925	2145.149956200039	2146.1836718000704	2147.197015800048	2148.643131799996	2019-12-27 17:20:27.595354	1.52425529637052	-1.71200046430691	-0.782289188091922	-0.946611017428478	-2.30654448446244	-0.782289188091922	-1.52425529637052	-0.782289188091922	-1.71200046430691	-0.782289188091922	-2.30654448446244	-4.221453520222098	-1.237158987972976	-2.8410171755061393	-1.8763542521953465	-3.4251657051949436	-3.258882378969877	-1.8763542521953465	-4.944321662802796	-3.1861978095691033	-1.9490388215961207	-3.2423401969491223	-1.4750312307523619	4	correct	1.0
507.69249059993285	8.380350499995984	nogo_punish	1.0	507.7026265999302	509.280493499944	511.81724509992637	1.5778669000137597	508.7186337999301	510.7966074999422	514.8858055999735	0.5618597000138834	1.020637599984184	1.197171499952674	513.8732427000068	0.4874248000560328	512.8351369999582	2	1	119	2	nogo_punish	1	-1	0	0	0	1	0	0.0	1.0	0	1.0	0.4874248000560328	1640.9806392000755	2148.6832658000058	2149.6992730000056	2150.2611327000195	2151.7772467000177	2152.797884300002	2153.8157762000337	2154.8538819000823	2155.866444800049	2157.0636163000017	2019-12-27 17:20:27.595354	1.03345736696647	-1.71200046430691	-1.39197713684489	-1.53504525003956	-2.42543450381136	-1.39197713684489	-1.03345736696647	-1.39197713684489	-1.71200046430691	-1.39197713684489	-2.42543450381136	1.39197713684489	-1.7279569173770262	-2.8410171755061393	-2.4860422009483143	-4.013599937806026	-3.377772398318797	-2.4860422009483143	0.669108994264192	-3.795885758322071	-2.0679288409450405	-3.85202814570209	-1.4750312307523619	4	correct	1.0
516.1005578999172	8.282241299981251	go_punish	1.0	516.1106938999146	517.6798800999532	520.2000086999033	1.56918620003853	517.1182144999043	519.1858402999351	523.2279749999288	0.5616656000488547	1.0141683999681845	1.1649601999670267	522.2265820999164	0.8772846999345347	521.2051561999833	2	1	120	1	go_punish	1	0	-1	1	0	0	0	0.0	1.0	-1	1.0	0.8772846999345347	1640.9806392000755	2157.09133309999	2158.09885369998	2158.6605193000287	2160.1664795000106	2161.180647899979	2162.185795400059	2163.207221299992	2164.2086142000044	2165.3735743999714	2019-12-27 17:20:27.595354	-0.471818090166244	-1.42087072388231	-2.72650693782406	-2.17752002344826	-2.25468884765782	-2.72650693782406	0.471818090166244	-2.72650693782406	-1.42087072388231	-2.72650693782406	-2.25468884765782	-2.27723577048996	-3.23323237450974	-2.5498874350815397	-3.8205720019274843	-4.656074711214726	-3.207026742165257	-3.8205720019274843	-3.000103913070658	-5.130415559301241	-1.8971831847915008	-5.18655794668126	-1.1839014903277618	4	correct	1.0
