onset	duration	trial_type	response_time	cueOnset	targetOnset	fbOnset	cueRT	firstfixOnset	secondfixOnset	waitOnset	firstfixdur	secondfixdur	waitdur	nback_fbOnset	nback_response_time	nback_targetOnset	block	wm	trial	cue	cond	is_common	outcome_go	outcome_nogo	key_correct	key_pressed	is_correct	key_correct_nback	key_pressed_nback	is_correct_nback	outcome	rt	rt_nback	time_scan	time_onset	time_isi1	time_circle	time_isi2	time_feedback	time_same	time_correct	time_iti	time_done	timestamp_scan	DV	Qgo	Qnogo	SV	Wgo	Wnogo	mDV	Qchosen	Qunchosen	Wchosen	Wunchosen	PE	DVC	QgoC	QnogoC	SVC	WgoC	WnogoC	PEC	WchosenC	WunchosenC	QchosenC	QunchosenC	run	outcome_nback	nback_targetResp
0.0	6.8049185001291335	go_reward	0.2968349999282509	0.011806099908881151	2.422467299970549	4.966677200049389	2.410661200061668	1.0069400998768288	3.9509385998828748	5.979669800028432	1.4155272000937202	1.0157386001665145	0.8370548000095823	n/a	1.0	n/a	2	0	61	1	go_reward	0	0	1	1	1	1	0	n/a	n/a	0	0.2968349999282509	1.0	2040.2447588001376	2040.2565649000464	2041.2516989000144	2042.667226100108	2044.1956974000204	2045.211436000187	n/a	n/a	2046.224428600166	2047.0614834001756	2020-06-02 10:49:20.526386	13.1162517272041	18.0822972121403	0.0	18.0781905641876	13.1162517272041	0.0	-13.1162517272041	18.0822972121403	0.0	13.1162517272041	0.0	-18.0822972121403	6.6325359540815185	15.35747082742563	-2.1832734293741165	12.524186233110322	10.792054010701328	-2.1832734293741165	-18.899751493574463	7.620658267704367	0.9881223136228464	12.444943954610938	0.7292534434405747	4	missed	0.0
6.834289300022419	6.028462900081649	go_reward	0.3014803000260144	6.846095399931301	8.396867600037012	10.938937899889652	1.5507722001057118	7.85269899992295	9.919626099989046	11.952997299842764	0.5441686001140624	1.0193117999006063	0.9215610001701862	n/a	1.0	n/a	2	0	62	1	go_reward	0	0	1	1	1	1	0	n/a	n/a	0	0.3014803000260144	1.0	2040.2447588001376	2047.0908542000689	2048.0974578000605	2048.6416264001746	2050.1643849001266	2051.183696700027	n/a	n/a	2052.1977560999803	2053.1193171001505	2020-06-02 10:49:20.526386	5.77540247638048	8.49787617675	0.0	8.49541010167534	5.77540247638048	0.0	-5.77540247638048	8.49787617675	0.0	5.77540247638048	0.0	-8.49787617675	-0.7083132967421015	5.773049792035327	-2.1832734293741165	2.9414057705980614	3.451204759877709	-2.1832734293741165	-9.315330458184162	0.2798090168807468	0.9881223136228464	2.860522919220636	0.7292534434405747	4	missed	0.0
12.892389199929084	6.373453300213441	go_reward	0.2265004999935627	12.904195299837966	14.819620099850226	17.357797499979142	1.9154248000122607	13.909313000040356	16.3345816000367	18.376736399950232	0.9103070998098701	1.0232158999424428	0.9009122001011747	n/a	1.0	n/a	2	0	63	1	go_reward	1	1	0	1	1	1	1	n/a	n/a	1	0.2265004999935627	1.0	2040.2447588001376	2053.1489540999755	2054.154071800178	2055.064378899988	2056.5793404001743	2057.6025563001167	n/a	n/a	2058.621495200088	2059.522407400189	2020-06-02 10:49:20.526386	2.51507630608257	4.20595814743652	0.0	4.20445604109943	2.51507630608257	0.0	-2.51507630608257	4.20595814743652	0.0	2.51507630608257	0.0	14.179470088403182	-3.968639467040011	1.4811317627218479	-2.1832734293741165	-1.3495482899778484	0.1908785895797993	-2.1832734293741165	13.36201580696902	-2.980517153417163	0.9881223136228464	-1.4313951100928435	0.7292534434405747	4	missed	0.0
19.311724200146045	6.114041299792007	go_punish	0.247688400093466	19.323530300054927	21.011623099912185	23.565045899944607	1.6880927998572588	20.31579059991077	22.542160799959447	24.56926620006584	0.6958325000014156	1.0228850999851602	0.868305399781093	n/a	1.0	n/a	2	0	64	3	go_punish	0	-1	0	1	1	1	0	n/a	n/a	-1	0.247688400093466	1.0	2040.2447588001376	2059.5682891001925	2060.5605494000483	2061.2563819000497	2062.786919600097	2063.809804700082	n/a	n/a	2064.8140250002034	2065.6823303999845	2020-06-02 10:49:20.526386	3.56981862402697	-0.116543220751456	-4.29522996061371	-0.133442695305394	-0.725411336586735	-4.29522996061371	-3.56981862402697	-0.116543220751456	-4.29522996061371	-0.725411336586735	-4.29522996061371	-5.691158927881644	-2.9138971490956114	-2.8413696054661277	-6.478503389987827	-5.687447026382673	-3.0496090530895055	-6.478503389987827	-6.508613209315807	-6.221004796086468	-3.307107646990864	-5.7538964782808195	-3.5659765171731355	4	missed	0.0
25.455353100085404	6.0174827999435365	go_reward	0.2609128002077341	25.467159199994285	27.03833279991545	29.59000519989081	1.571173599921167	26.47286930005089	28.572654299903434	30.60025390004762	0.5654634998645633	1.0173508999873775	0.8843880998902023	n/a	1.0	n/a	2	0	65	1	go_reward	1	1	0	1	1	1	1	n/a	n/a	1	0.2609128002077341	1.0	2040.2447588001376	2065.711918000132	2066.7176281001884	2067.283091600053	2068.817413100041	2069.8347640000284	n/a	n/a	2070.845012700185	2071.7294008000754	2020-06-02 10:49:20.526386	8.41964320792638	11.8891267224341	0.0	11.8881997021184	8.41964320792638	0.0	-8.41964320792638	11.8891267224341	0.0	8.41964320792638	0.0	6.4963015134056015	1.9359274348037996	9.164300337719428	-2.1832734293741165	6.334195371041121	6.09544549142361	-2.1832734293741165	5.678847231971439	2.924049748426648	0.9881223136228464	6.251773464904736	0.7292534434405747	4	missed	0.0
31.50288260006323	7.285015299916267	go_reward	0.3098861000034958	31.514688699972112	34.271237599896494	36.82071390002989	2.7565488999243826	32.52047670003981	35.79763819999084	37.83754469989822	1.7507608998566866	1.023075700039044	0.9621592999901623	n/a	1.0	n/a	2	0	66	1	go_reward	1	1	0	1	1	1	0	n/a	n/a	1	0.3098861000034958	1.0	2040.2447588001376	2071.7594475001097	2072.7652355001774	2074.515996400034	2076.0423970001284	2077.0654727001674	n/a	n/a	2078.082303500036	2079.044462800026	2020-06-02 10:49:20.526386	10.9744181213072	15.2420730651091	0.0	15.2414939739172	10.9744181213072	0.0	-10.9744181213072	15.2420730651091	0.0	10.9744181213072	0.0	3.143355170730601	4.4907023481846196	12.517246680394429	-2.1832734293741165	9.687489642839921	8.650220404804429	-2.1832734293741165	2.325900889296438	5.478824661807468	0.9881223136228464	9.604719807579738	0.7292534434405747	4	missed	0.0
38.83222700003512	6.319681599969044	nogo_reward	1.0	38.844033099944	40.1835246998819	42.70581329986476	1.339491599937901	39.85650979983643	41.685770399868716	43.720613399986405	0.3270149000454694	1.0200428999960423	1.4431012999266386	n/a	1.0	n/a	2	0	67	2	nogo_reward	0	1	0	0	0	1	0	n/a	n/a	0	1.0	1.0	2040.2447588001376	2079.0887919000816	2080.101268599974	2080.4282835000195	2081.9305292000063	2082.9505721000023	n/a	n/a	2083.965372200124	2085.4084735000506	2020-06-02 10:49:20.526386	23.3522883991166	0.0	18.3236774246516	18.3236774246516	-5.02861097446502	18.3236774246516	-23.3522883991166	18.3236774246516	0.0	18.3236774246516	-5.02861097446502	-18.3236774246516	16.86857262599402	-2.724826384714672	16.14040399527748	12.76967309357432	-7.352808690967791	16.14040399527748	-19.141131706085762	12.828083965151865	-4.040488660842174	12.686324167122237	0.7292534434405747	4	missed	0.0
45.19715579994977	6.523352400166459	go_punish	0.2949125000741333	45.20896189985865	46.764412499964465	49.31161109986738	1.5554506001058144	46.2046380999966	48.29774770001018	50.330153499963444	0.5597743999678642	1.0138633998572004	1.4021608000616652	n/a	1.0	n/a	2	0	68	3	go_punish	1	0	-1	1	1	1	0	n/a	n/a	0	0.2949125000741333	1.0	2040.2447588001376	2085.453720699996	2086.449396900134	2087.009171300102	2088.5425065001477	2089.556369900005	n/a	n/a	2090.574912300101	2091.9770731001627	2020-06-02 10:49:20.526386	1.38421058548077	-2.97272031637536	-4.29522996061371	-2.98304323280331	-2.91101937513294	-4.29522996061371	-1.38421058548077	-2.97272031637536	-4.29522996061371	-2.91101937513294	-4.29522996061371	2.97272031637536	-5.099505187641811	-5.697546701090031	-6.478503389987827	-8.537047563880588	-5.235217091635711	-6.478503389987827	2.1552660349411976	-8.406612834632673	-3.307107646990864	-8.610073573904723	-3.5659765171731355	4	missed	0.0
51.764643900095734	7.277591099963047	nogo_reward	1.0	51.776450000004616	54.30561339994915	56.83281219983496	2.5291633999445366	52.77140989992745	55.808767499868054	57.84205510001652	1.5342035000217038	1.0240446999669075	1.211985999951139	n/a	1.0	n/a	2	0	69	2	nogo_reward	1	0	1	0	0	1	1	n/a	n/a	1	1.0	1.0	2040.2447588001376	2092.021208800142	2093.016168700065	2094.5503722000867	2096.0535263000056	2097.0775709999725	n/a	n/a	2098.086813900154	2099.298799900105	2020-06-02 10:49:20.526386	11.3856962222133	0.0	8.62889250243001	8.62889250243001	-2.75680371978327	8.62889250243001	-11.3856962222133	8.62889250243001	0.0	8.62889250243001	-2.75680371978327	9.756535733409692	4.901980449090718	-2.724826384714672	6.445619073055893	3.0748881713527307	-5.081001436286041	6.445619073055893	8.939081451975529	3.1332990429302763	-1.7686814061604235	2.991539244900646	0.7292534434405747	4	missed	0.0
59.08404470002256	6.301513799931854	nogo_reward	1.0	59.09585079993144	60.46869509993144	62.993423799984384	1.372844299999997	60.11280640005157	61.97109679994196	64.00407049991213	0.3558886998798698	1.0223270000424236	1.393294099951163	n/a	1.0	n/a	2	0	70	2	nogo_reward	1	0	1	0	0	1	0	n/a	n/a	1	1.0	1.0	2040.2447588001376	2099.340609600069	2100.357565200189	2100.713453900069	2102.2158556000795	2103.238182600122	n/a	n/a	2104.2488293000497	2105.642123400001	2020-06-02 10:49:20.526386	17.9871075224302	0.0	13.998621647727	13.998621647727	-3.98848587470316	13.998621647727	-17.9871075224302	13.998621647727	0.0	13.998621647727	-3.98848587470316	4.386806588112702	11.50339174930762	-2.724826384714672	11.815348218352883	8.44461731664972	-6.31268359120593	11.815348218352883	3.569352306678539	8.503028188227265	-3.0003635610803134	8.361268390197637	0.7292534434405747	4	missed	0.0
65.4174021000506	6.27844429994002	go_reward	0.2256509999278932	65.42920819995948	67.34738989989296	69.88337609986752	1.9181816999334842	66.4377337000335	68.8651465000587	70.89434639993146	0.9096561998594552	1.0182295998088193	0.813306099968031	n/a	1.0	n/a	2	0	71	1	go_reward	1	1	0	1	1	1	0	n/a	n/a	1	0.2256509999278932	1.0	2040.2447588001376	2105.673967000097	2106.682492500171	2107.5921487000305	2109.1099053001963	2110.128134900005	n/a	n/a	2111.139105200069	2111.952411300037	2020-06-02 10:49:20.526386	12.1509412150053	16.7970140929257	0.0	16.7966482486305	12.1509412150053	0.0	-12.1509412150053	16.7970140929257	0.0	12.1509412150053	0.0	1.5884141429140008	5.667225441882719	14.072187708211029	-2.1832734293741165	11.242643917553222	9.82674349850253	-2.1832734293741165	0.7709598614798383	6.655347755505567	0.9881223136228464	11.159660835396338	0.7292534434405747	4	missed	0.0
71.74100510007679	5.78343419986777	go_punish	0.291385899996385	71.75281119998567	73.2286910999103	75.76440560002834	1.475879899924621	72.7616281998346	74.75482379994378	76.77769539994256	0.46706290007568896	1.009581800084561	0.7585499999108833	n/a	1.0	n/a	2	0	72	3	go_punish	1	0	-1	1	1	1	0	n/a	n/a	0	0.291385899996385	1.0	2040.2447588001376	2111.9975700001232	2113.006386999972	2113.473449900048	2114.9995826000813	2116.009164400166	n/a	n/a	2117.02245420008	2117.781004199991	2020-06-02 10:49:20.526386	2.56841475049106	-1.43090138867297	-4.29522996061371	-1.43729242288181	-1.72681521012265	-4.29522996061371	-2.56841475049106	-1.43090138867297	-4.29522996061371	-1.72681521012265	-4.29522996061371	1.43090138867297	-3.915301022631521	-4.155727773387642	-6.478503389987827	-6.991296753959088	-4.051012926625421	-6.478503389987827	0.6134471072388075	-7.222408669622383	-3.307107646990864	-7.068254646202333	-3.5659765171731355	4	missed	0.0
77.5677962999323	7.075659300200641	go_punish	0.2688679001294076	77.57960239984118	79.73836079984926	82.28978909994498	2.1587584000080824	78.5753708998675	81.27012189989932	83.30238340003439	1.162989899981767	1.0196672000456601	1.3528783000074327	n/a	1.0	n/a	2	0	73	3	go_punish	1	0	-1	1	1	1	0	n/a	n/a	0	0.2688679001294076	1.0	2040.2447588001376	2117.8243611999787	2118.820129700005	2119.983119599987	2121.514880700037	2122.5345479000825	n/a	n/a	2123.547142200172	2124.9000205001794	2020-06-02 10:49:20.526386	3.10860301701006	-0.72183466392974	-4.29522996061371	-0.72584073983542	-1.18662694360364	-4.29522996061371	-3.10860301701006	-0.72183466392974	-4.29522996061371	-1.18662694360364	-4.29522996061371	0.72183466392974	-3.375112756112521	-3.446661048644412	-6.478503389987827	-6.279845070912699	-3.510824660106411	-6.478503389987827	-0.0956196175044225	-6.682220403103373	-3.307107646990864	-6.359187921459103	-3.5659765171731355	4	missed	0.0
84.67316190013639	6.685782199958339	go_reward	0.2409326999913901	84.68496800004527	86.46742499992274	89.00545089994625	1.7824569998774678	85.69021239993185	87.9832345999314	90.01857799990125	0.7772125999908894	1.0222163000148612	1.352172200102359	n/a	1.0	n/a	2	0	74	1	go_reward	1	1	0	1	1	1	0	n/a	n/a	1	0.2409326999913901	1.0	2040.2447588001376	2124.929726800183	2125.9349712000694	2126.7121838000603	2128.227993400069	2129.250209700084	n/a	n/a	2130.263336800039	2131.615509000141	2020-06-02 10:49:20.526386	12.7200612842867	17.5534755760055	0.0	17.553242014981	12.7200612842867	0.0	-12.7200612842867	17.5534755760055	0.0	12.7200612842867	0.0	0.8319526598342009	6.236345511164119	14.828649191290829	-2.1832734293741165	11.99923768390372	10.39586356778393	-2.1832734293741165	0.014498378400038314	7.224467824786967	0.9881223136228464	11.916122318476138	0.7292534434405747	4	missed	0.0
91.40442869998537	7.811978900106169	go_punish	0.4572994001209736	91.41623479989426	94.18662519985833	96.7241674000395	2.7703903999640715	92.42317419988126	95.71320119989127	97.73182259988994	1.7634509999770671	1.010966200148232	1.4963911001104861	n/a	1.0	n/a	2	0	75	3	go_punish	0	-1	0	1	1	1	1	n/a	n/a	-1	0.4572994001209736	1.0	2040.2447588001376	2131.660993600032	2132.667933000019	2134.431383999996	2135.957960000029	2136.968926200177	n/a	n/a	2137.9765814000275	2139.472972500138	2020-06-02 10:49:20.526386	3.36874848154111	-0.378141056494516	-4.29522996061371	-0.380681114955417	-0.926481479072592	-4.29522996061371	-3.36874848154111	-0.378141056494516	-4.29522996061371	-0.926481479072592	-4.29522996061371	-5.429561092138584	-3.114967291581471	-3.102967441209188	-6.478503389987827	-5.934685446032695	-3.250679195575363	-6.478503389987827	-6.247015373572747	-6.422074938572325	-3.307107646990864	-6.015494314023879	-3.5659765171731355	4	missed	0.0
99.24723300011806	7.730072599835694	go_reward	0.3754650000482797	99.25903910002694	102.03391999984183	104.5818739999088	2.774880899814889	100.25903169997059	103.5657462999227	105.58329909993358	1.774888299871236	1.0161276999861002	1.4058125999290496	n/a	1.0	n/a	2	0	76	1	go_reward	1	1	0	1	1	1	1	n/a	n/a	1	0.3754650000482797	1.0	2040.2447588001376	2139.5037979001645	2140.503790500108	2142.2786787999794	2143.8105051000603	2144.8266328000464	n/a	n/a	2145.828057900071	2147.2338705	2020-06-02 10:49:20.526386	13.0066716812965	17.9362058239697	0.0	17.9360552473788	13.0066716812965	0.0	-13.0066716812965	17.9362058239697	0.0	13.0066716812965	0.0	0.4492224118700001	6.52295590817392	15.21137943925503	-2.1832734293741165	12.382050916301521	10.68247396479373	-2.1832734293741165	-0.36823186956416243	7.511078221796768	0.9881223136228464	12.298852566440338	0.7292534434405747	4	missed	0.0
107.02166760014347	6.271856399951503	nogo_reward	1.0	107.03347370005235	108.36570169986248	110.90063999989093	1.3322279998101294	108.03976519987941	109.8777119999288	111.90542159997881	0.3259364999830723	1.0229279999621212	1.3999085000250489	n/a	1.0	n/a	2	0	77	2	nogo_reward	1	0	1	0	0	1	0	n/a	n/a	1	1.0	1.0	2040.2447588001376	2147.27823250019	2148.284524000017	2148.6104605	2150.1224708000664	2151.1453988000285	n/a	n/a	2152.1501804001164	2153.5500889001414	2020-06-02 10:49:20.526386	20.8261054956816	0.0	16.2951196420509	16.2951196420509	-4.53098585363063	16.2951196420509	-20.8261054956816	16.2951196420509	0.0	16.2951196420509	-4.53098585363063	2.0903085937888015	14.342389722559018	-2.724826384714672	14.111846212676783	10.74111531097362	-6.8551835701334	14.111846212676783	1.272854312354639	10.799526182551165	-3.542863540007783	10.657766384521537	0.7292534434405747	4	missed	0.0
113.32464340003185	6.95959180011414	go_reward	0.2867056000977754	113.33644949994073	115.76965090003864	118.31287529994756	2.4332014000979143	114.33045809995451	117.2891301000493	119.33185329986759	1.439192800084129	1.0237451998982579	0.9641880001872778	n/a	1.0	n/a	2	0	78	1	go_reward	1	1	0	1	1	1	1	n/a	n/a	1	0.2867056000977754	1.0	2040.2447588001376	2153.5812083000783	2154.575216900092	2156.014409700176	2157.533888900187	2158.557634100085	n/a	n/a	2159.576612100005	2160.5408001001924	2020-06-02 10:49:20.526386	13.1559919770908	18.1363714270848	0.0	18.1362734563509	13.1559919770908	0.0	-13.1559919770908	18.1363714270848	0.0	13.1559919770908	0.0	0.24905680875490077	6.672276203968218	15.411545042370129	-2.1832734293741165	12.582269125273621	10.83179426058803	-2.1832734293741165	-0.5683974726792618	7.660398517591067	0.9881223136228464	12.499018169555438	0.7292534434405747	4	missed	0.0
120.32923269993603	6.699164800113067	nogo_reward	1.0	120.34103879984491	122.13345149997645	124.6731497000435	1.7924127001315355	121.35428879992128	123.65030439989664	125.69351170002506	0.7791627000551671	1.0228453001468552	1.346691899932921	n/a	1.0	n/a	2	0	79	2	nogo_reward	1	0	1	0	0	1	1	n/a	n/a	1	1.0	1.0	2040.2447588001376	2160.5857975999825	2161.599047600059	2162.378210300114	2163.895063200034	2164.917908500181	n/a	n/a	2165.9382705001626	2167.2849624000955	2020-06-02 10:49:20.526386	22.1270500432791	0.0	17.3427267660594	17.3427267660594	-4.78432327721966	17.3427267660594	-22.1270500432791	17.3427267660594	0.0	17.3427267660594	-4.78432327721966	1.042701469780301	15.64333427015652	-2.724826384714672	15.159453336685283	11.788722434982121	-7.108520993722431	15.159453336685283	0.22524718834613844	11.847133306559666	-3.7962009635968137	11.705373508530037	0.7292534434405747	4	missed	0.0
127.0595188001173	6.653400799957581	go_reward	0.3738838999997824	127.07132490002618	128.9252524999904	131.4760286998942	1.8539275999642086	128.08519769995496	130.45235010003694	132.48240830004238	0.840054800035432	1.0236785998572486	1.2423173999413848	n/a	1.0	n/a	2	0	80	1	go_reward	1	1	0	1	1	1	1	n/a	n/a	1	0.3738838999997824	1.0	2040.2447588001376	2167.3160837001637	2168.3299565000925	2169.170011300128	2170.6971089001745	2171.7207875000317	n/a	n/a	2172.72716710018	2173.9694845001213	2020-06-02 10:49:20.526386	13.2360939633019	18.2440968542416	0.0	18.2440325599207	13.2360939633019	0.0	-13.2360939633019	18.2440968542416	0.0	13.2360939633019	0.0	0.14133138159809988	6.75237819017932	15.51927046952693	-2.1832734293741165	12.690028228843422	10.911896246799131	-2.1832734293741165	-0.6761228998360627	7.740500503802168	0.9881223136228464	12.606743596712239	0.7292534434405747	4	missed	0.0
133.74120209994658	6.740258800099127	nogo_punish	1.0	133.75300819985546	135.75086659984686	138.27282499987655	1.9978583999914008	134.75986119988352	137.2529500999956	139.2873831000186	0.9910053999633419	1.0198748998809606	1.2058838999359978	n/a	1.0	n/a	2	0	81	4	nogo_punish	1	-1	0	0	0	1	0	n/a	n/a	0	1.0	1.0	2040.2447588001376	2173.997766999993	2175.004620000021	2175.9956253999844	2177.497708900133	2178.517583800014	n/a	n/a	2179.532141900156	2180.738025800092	2020-06-02 10:49:20.526386	4.8822329498703	-4.29522996061371	-0.0444382820118558	-0.0451264631549292	-4.92667123188215	-0.0444382820118558	-4.8822329498703	-0.0444382820118558	-4.29522996061371	-0.0444382820118558	-4.92667123188215	0.0444382820118558	-1.6014828232522813	-7.020056345328382	-2.227711711385972	-5.599130794232208	-7.2508689483849205	-2.227711711385972	-0.7730159994223067	-5.540031741511589	-3.938548918259303	-5.681791539541219	-3.5659765171731355	4	missed	0.0
140.52718179998897	5.916545700049028	go_punish	0.4278201998677104	140.53898789989785	141.89845199999422	144.43614350003213	1.3594641000963748	141.54203379992418	143.4163460999264	145.44418250001058	0.35641820007003844	1.0197974001057446	1.0113510999362916	n/a	1.0	n/a	2	0	82	3	go_punish	1	0	-1	1	1	1	0	n/a	n/a	0	0.4278201998677104	1.0	2040.2447588001376	2180.7837467000354	2181.7867926000617	2182.143210800132	2183.661104900064	2184.6809023001697	n/a	n/a	2185.688941300148	2186.7002924000844	2020-06-02 10:49:20.526386	1.27941821630272	-3.10913345871524	-4.29522996061371	-3.11076121254335	-3.01581174431099	-4.29522996061371	-1.27941821630272	-3.10913345871524	-4.29522996061371	-3.01581174431099	-4.29522996061371	3.10913345871524	-5.204297556819862	-5.833959843429912	-6.478503389987827	-8.664765543620629	-5.340009460813761	-6.478503389987827	2.291679177281077	-8.511405203810723	-3.307107646990864	-8.746486716244604	-3.5659765171731355	4	missed	0.0
146.4890151999423	6.081520300125703	go_punish	0.2108477000147104	146.50082129985117	148.06433069985383	150.58699159999446	1.5635094000026584	147.50665490003325	149.5861374998933	151.60089850006648	0.5576757998205721	1.0008541001011508	0.9814430999103934	n/a	1.0	n/a	2	0	83	3	go_punish	1	0	-1	1	1	1	0	n/a	n/a	0	0.2108477000147104	1.0	2040.2447588001376	2186.7455800999887	2187.751413700171	2188.3090894999914	2189.830896300031	2190.831750400132	n/a	n/a	2191.845657300204	2192.8271004001144	2020-06-02 10:49:20.526386	2.51222022907857	-1.50403583713522	-4.29522996061371	-1.50508934259704	-1.78300973153514	-4.29522996061371	-2.51222022907857	-1.50403583713522	-4.29522996061371	-1.78300973153514	-4.29522996061371	1.50403583713522	-3.971495544044011	-4.228862221849892	-6.478503389987827	-7.059093673674319	-4.107207448037911	-6.478503389987827	0.6865815557010575	-7.278603191034873	-3.307107646990864	-7.141389094664583	-3.5659765171731355	4	missed	0.0
152.6193455001337	6.174978900002316	nogo_reward	1.0	152.63115160004259	154.29968909989134	156.8272247000134	1.6685374998487532	153.63559870002814	155.80794789991364	157.8412607999055	0.6640903998631984	1.0192768000997603	0.9648697001393884	n/a	1.0	n/a	2	0	84	2	nogo_reward	0	1	0	0	0	1	0	n/a	n/a	0	1.0	1.0	2040.2447588001376	2192.87591040018	2193.8803575001657	2194.544447900029	2196.052706700051	2197.071983500151	n/a	n/a	2198.086019600043	2199.0508893001825	2020-06-02 10:49:20.526386	22.7535143335046	0.0	17.8453642522716	17.8453642522716	-4.90815008123305	17.8453642522716	-22.7535143335046	17.8453642522716	0.0	17.8453642522716	-4.90815008123305	-17.8453642522716	16.26979856038202	-2.724826384714672	15.662090822897484	12.291359921194323	-7.23234779773582	15.662090822897484	-18.662818533705764	12.349770792771867	-3.920027767610203	12.208010994742239	0.7292534434405747	4	missed	0.0
158.83412869996368	7.093656599987298	nogo_reward	1.0	158.84593479987257	161.46338579989947	163.98832720005908	2.617451000026904	159.8546625999736	162.96553839999274	164.99218709999718	1.608723199925862	1.022788800066337	0.9474042998626828	n/a	1.0	n/a	2	0	85	2	nogo_reward	1	0	1	0	0	1	0	n/a	n/a	1	1.0	1.0	2040.2447588001376	2199.09069360001	2200.099421400111	2201.708144600037	2203.2102972001303	2204.2330860001966	n/a	n/a	2205.2369459001347	2206.1843501999974	2020-06-02 10:49:20.526386	11.0695396205239	0.0	8.37688171338674	8.37688171338674	-2.69265790713713	8.37688171338674	-11.0695396205239	8.37688171338674	0.0	8.37688171338674	-2.69265790713713	10.00854652245296	4.585823847401318	-2.724826384714672	6.193608284012624	2.8228773823094624	-5.0168556236399	6.193608284012624	9.191092241018797	2.881288253887008	-1.7045355935142834	2.7395284558573776	0.7292534434405747	4	missed	0.0
165.95617450005352	7.277345800073817	nogo_punish	1.0	165.9679805999624	168.46576249995292	170.9971489000602	2.497781899990514	166.98327589989663	169.97292990004667	172.00560109992534	1.4824866000562906	1.0242190000135452	1.2397253001108766	n/a	1.0	n/a	2	0	86	4	nogo_punish	1	-1	0	0	0	1	0	n/a	n/a	0	1.0	1.0	2040.2447588001376	2206.2127394001	2207.228034700034	2208.7105213000905	2210.217688700184	2211.2419077001978	n/a	n/a	2212.250359900063	2213.490085200174	2020-06-02 10:49:20.526386	4.90491497427526	-4.29522996061371	-0.0264187121934775	-0.0268721615679983	-4.93133368646874	-0.0264187121934775	-4.90491497427526	-0.0264187121934775	-4.29522996061371	-0.0264187121934775	-4.93133368646874	0.0264187121934775	-1.578800798847321	-7.020056345328382	-2.209692141567594	-5.5808764926452765	-7.255531402971511	-2.209692141567594	-0.7910355692406851	-5.52201217169321	-3.9432113728458935	-5.66377196972284	-3.5659765171731355	4	missed	0.0
173.2795690000055	6.2646451999899	go_punish	0.2387832999229431	173.29137509991438	174.94948249985487	177.48855279991426	1.6581073999404907	174.2960473999849	176.47608900000364	178.5028933999131	0.6534350998699665	1.0124637999106199	1.0531268999911845	n/a	1.0	n/a	2	0	87	3	go_punish	1	0	-1	1	1	1	0	n/a	n/a	0	0.2387832999229431	1.0	2040.2447588001376	2213.536133900052	2214.5408062001225	2215.1942412999924	2216.720847800141	2217.733311600052	n/a	n/a	2218.7476522000507	2219.800779100042	2020-06-02 10:49:20.526386	3.0777118713749	-0.762004114073912	-4.29522996061371	-0.762692295216985	-1.21751808923881	-4.29522996061371	-3.0777118713749	-0.762004114073912	-4.29522996061371	-1.21751808923881	-4.29522996061371	0.762004114073912	-3.406003901747681	-3.486830498788584	-6.478503389987827	-6.316696626294263	-3.541715805741581	-6.478503389987827	-0.055450167360250546	-6.713111548738543	-3.307107646990864	-6.3993573716032754	-3.5659765171731355	4	missed	0.0
179.589434900088	6.729949899949588	nogo_reward	1.0	179.6012409999969	181.65004729991847	184.17856070003495	2.04880629992158	180.61073739989683	183.15937249991134	185.1966158000289	1.0393099000216353	1.0191882001236081	1.1345750999175834	n/a	1.0	n/a	2	0	88	2	nogo_reward	0	1	0	0	0	1	0	n/a	n/a	0	1.0	1.0	2040.2447588001376	2219.8459998001345	2220.8554962000344	2221.894806100056	2223.404131300049	2224.4233195001725	n/a	n/a	2225.4413746001665	2226.575949700084	2020-06-02 10:49:20.526386	17.8156169542244	0.0	13.8621695107122	13.8621695107122	-3.95344744351223	13.8621695107122	-17.8156169542244	13.8621695107122	0.0	13.8621695107122	-3.95344744351223	-13.8621695107122	11.331901181101818	-2.724826384714672	11.678896081338083	8.308165179634921	-6.277645160015001	11.678896081338083	-14.679623792146362	8.366576051212466	-2.9653251298893837	8.224816253182837	0.7292534434405747	4	missed	0.0
186.34920760011278	7.547198999905959	go_reward	0.2434610999189317	186.36101370002166	188.87951310002222	191.42115910002053	2.5184994000005645	187.36673599993833	190.39703139988728	192.42491619987436	1.5127771000838948	1.0241277001332492	1.4832965000532568	n/a	1.0	n/a	2	0	89	1	go_reward	1	1	0	1	1	1	0	n/a	n/a	1	0.2434610999189317	1.0	2040.2447588001376	2226.605772500159	2227.611494800076	2229.12427190016	2230.641790200025	2231.665917900158	n/a	n/a	2232.669675000012	2234.152971500065	2020-06-02 10:49:20.526386	13.2801785319048	18.3035484962723	0.0	18.3035059594328	13.2801785319048	0.0	-13.2801785319048	18.3035484962723	0.0	13.2801785319048	0.0	0.0818797395674018	6.796462758782219	15.578722111557628	-2.1832734293741165	12.749501628355523	10.955980815402029	-2.1832734293741165	-0.7355745418667607	7.784585072405068	0.9881223136228464	12.666195238742937	0.7292534434405747	4	missed	0.0
193.92435580003053	6.734342100099184	nogo_punish	1.0	193.9361618999394	195.7947161998602	198.31008129986026	1.8585542999207973	194.94341639988147	197.29675409989454	199.32401059987046	0.8512997999787331	1.0133271999657154	1.3464934001681286	n/a	1.0	n/a	2	0	90	4	nogo_punish	1	-1	0	0	0	1	0	n/a	n/a	0	1.0	1.0	2040.2447588001376	2234.180920700077	2235.188175200019	2236.0394749999978	2237.541512900032	2238.554840099998	n/a	n/a	2239.568769400008	2240.915262800176	2020-06-02 10:49:20.526386	4.91809564875038	-4.29522996061371	-0.0159629779871846	-0.01626419561161	-4.93405862673756	-0.0159629779871846	-4.91809564875038	-0.0159629779871846	-4.29522996061371	-0.0159629779871846	-4.93405862673756	0.0159629779871846	-1.5656201243722014	-7.020056345328382	-2.199236407361301	-5.5702685266888885	-7.258256343240331	-2.199236407361301	-0.8014913034469779	-5.5115564374869175	-3.9459363131147134	-5.653316235516548	-3.5659765171731355	4	missed	0.0
200.68859799997858	6.148163800127804	go_reward	0.3297858000732958	200.70040409988746	202.37215099995979	204.92856230004713	1.6717469000723213	201.70373449986823	203.90647209994518	205.9332125999506	0.6684165000915527	1.0220902001019567	0.9153553000646752	n/a	1.0	n/a	2	0	91	1	go_reward	1	1	0	1	1	1	1	n/a	n/a	1	0.3297858000732958	1.0	2040.2447588001376	2240.945162900025	2241.948493300006	2242.6169098000973	2244.1512309000827	2245.1733211001847	n/a	n/a	2246.177971400088	2247.093326700153	2020-06-02 10:49:20.526386	13.3049978084498	18.3371001836955	0.0	18.3370718258129	13.3049978084498	0.0	-13.3049978084498	18.3371001836955	0.0	13.3049978084498	0.0	0.04832805214419977	6.8212820353272186	15.61227379898083	-2.1832734293741165	12.78306749473562	10.980800091947028	-2.1832734293741165	-0.7691262292899628	7.809404348950067	0.9881223136228464	12.699746926166139	0.7292534434405747	4	missed	0.0
206.88263770006574	6.501893499866128	go_punish	1.0	206.89444379997462	208.61550890002422	211.1427664998921	1.7210651000496	207.89938179985643	210.12452099984534	212.15321779996225	0.716127100167796	1.0182455000467598	1.2431194998785031	n/a	1.0	n/a	2	0	92	3	go_punish	1	0	-1	1	0	0	0	n/a	n/a	-1	1.0	1.0	2040.2447588001376	2247.139202600112	2248.144140599994	2248.860267700162	2250.369279799983	2251.3875253000297	n/a	n/a	2252.3979766001	2253.6410960999783	2020-06-02 10:49:20.526386	-3.35139055057226	-0.400682244675809	-4.29522996061371	-0.40113569405033	-0.943839410041449	-4.29522996061371	3.35139055057226	-4.29522996061371	-0.400682244675809	-4.29522996061371	-0.943839410041449	-1.51247218801939	-9.835106323694841	-3.125508629390481	-6.478503389987827	-5.9551400251276085	-3.2680371265442196	-6.478503389987827	-2.329926469453553	-9.790823420113444	0.044282903581397415	-9.932583218143073	0.32857119876476576	4	missed	0.0
213.42879260005407	5.974469499895349	nogo_reward	1.0	213.44059869996295	214.8538985999769	217.38052430003904	1.4132999000139534	214.43488590000266	216.35751269990647	218.39043749985262	0.41901269997424606	1.0230116001325769	1.0246307000056731	n/a	1.0	n/a	2	0	93	2	nogo_reward	1	0	1	0	0	1	0	n/a	n/a	1	1.0	1.0	2040.2447588001376	2253.6853575001005	2254.67964470014	2255.0986574001145	2256.602271500044	2257.6252831001766	n/a	n/a	2258.63519629999	2259.659826999996	2020-06-02 10:49:20.526386	8.73275828379091	0.0	6.49967185503349	6.49967185503349	-2.23308642875742	6.49967185503349	-8.73275828379091	6.49967185503349	0.0	6.49967185503349	-2.23308642875742	11.88575638080621	2.2490425106683283	-2.724826384714672	4.316398425659374	0.945667523956212	-4.557284145260191	4.316398425659374	11.068302099372048	1.0040783955337576	-1.2449641151345734	0.8623185975041272	0.7292534434405747	4	missed	0.0
219.43116060015768	7.516329899895936	nogo_punish	1.0	219.44296670006656	222.3954904000277	224.9373403999491	2.952523699961148	220.44526609987975	223.9129742998632	225.93994439998664	1.9502243001479656	1.0243661000858992	1.019352199975856	n/a	1.0	n/a	2	0	94	4	nogo_punish	0	0	-1	0	0	1	0	n/a	n/a	-1	1.0	1.0	2040.2447588001376	2259.687725500204	2260.6900249000173	2262.6402492001653	2264.1577331000008	2265.1820992000867	n/a	n/a	2266.184703200124	2267.2040554001	2020-06-02 10:49:20.526386	4.92588963376351	-4.29522996061371	-0.0097887235587294	-0.0099903479513893	-4.93567835732224	-0.0097887235587294	-4.92588963376351	-0.0097887235587294	-4.29522996061371	-0.0097887235587294	-4.93567835732224	-5.797913425074371	-1.5578261393590713	-7.020056345328382	-2.193062152932846	-5.563994679028668	-7.25987607382501	-2.193062152932846	-6.6153677065085335	-5.505382183058463	-3.947556043699393	-5.647141981088093	-3.5659765171731355	4	missed	0.0
226.9757255001457	7.345193999819912	nogo_punish	1.0	226.98753160005458	229.55974499997706	232.0991193999073	2.572213399922475	227.98364660004222	231.07829279988096	233.10484559997053	1.5760983999348355	1.0208266000263393	1.227879999903962	n/a	1.0	n/a	2	0	95	4	nogo_punish	1	-1	0	0	0	1	0	n/a	n/a	0	1.0	1.0	2040.2447588001376	2267.232290400192	2268.22840540018	2269.8045038001146	2271.3230516000185	2272.343878200045	n/a	n/a	2273.349604400108	2274.577484400012	2020-06-02 10:49:20.526386	1.34128118929218	-4.29522996061371	-2.91079724762132	-2.91093317908313	-4.2520784369135	-2.91079724762132	-1.34128118929218	-2.91079724762132	-4.29522996061371	-2.91079724762132	-4.2520784369135	2.91079724762132	-5.142434583830401	-7.020056345328382	-5.094070676995436	-8.464937510160409	-6.576276153416271	-5.094070676995436	2.0933429661871576	-8.406390707121053	-3.2639561232906535	-8.548150505150684	-3.5659765171731355	4	missed	0.0
234.36983290011972	5.6131279999390244	nogo_reward	1.0	234.3816390000286	235.66979499999456	238.20777039998234	1.2881559999659657	235.39948999998182	237.18536209990293	239.21911129984096	0.2703050000127405	1.0224083000794053	0.7756557001266629	n/a	1.0	n/a	2	0	96	2	nogo_reward	1	0	1	0	0	1	0	n/a	n/a	1	1.0	1.0	2040.2447588001376	2274.626397800166	2275.6442488001194	2275.914553800132	2277.4301209000405	2278.45252920012	n/a	n/a	2279.4638700999785	2280.239525800105	2020-06-02 10:49:20.526386	16.6580321669006	0.0	12.9353148261842	12.9353148261842	-3.72271734071642	12.9353148261842	-16.6580321669006	12.9353148261842	0.0	12.9353148261842	-3.72271734071642	5.450113409655501	10.17431639377802	-2.724826384714672	10.752041396810084	7.381310495106922	-6.0469150572191905	10.752041396810084	4.632659128221338	7.439721366684467	-2.7345950270935733	7.297961568654837	0.7292534434405747	4	missed	0.0
240.02933960012138	6.247285299934447	go_punish	0.6671402999199927	240.04114570003026	241.52502649999246	244.06313250004337	1.4838807999622077	241.05860899994218	243.04241469991462	245.07492060004756	0.4664175000502837	1.0207178001287502	1.2135103999171406	n/a	1.0	n/a	2	0	97	3	go_punish	1	0	-1	1	1	1	0	n/a	n/a	0	0.6671402999199927	1.0	2040.2447588001376	2280.285904500168	2281.3033678000797	2281.76978530013	2283.287173500052	2284.307891300181	n/a	n/a	2285.319679400185	2286.5331898001023	2020-06-02 10:49:20.526386	4.68828763348399	-0.400682244675809	-4.99270062251394	-3.12232901297798	-0.304412989029952	-4.99270062251394	-4.68828763348399	-0.400682244675809	-4.99270062251394	-0.304412989029952	-4.99270062251394	0.400682244675809	-1.7954281396385916	-3.125508629390481	-7.175974051888057	-8.676333344055259	-2.6286107055327226	-7.175974051888057	-0.41677203675835356	-5.800006448529685	-4.004578308891094	-6.038035502205172	-4.263447179073365	4	missed	0.0
246.3042361000546	6.091205799952604	nogo_punish	1.0	246.31604219996348	247.710394300055	250.23696799995446	1.3943521000915098	247.32261539995693	249.22119689988926	251.2421631999316	0.3877789000980556	1.0157711000651943	1.16508479998447	n/a	1.0	n/a	2	0	98	4	nogo_punish	0	0	-1	0	0	1	0	n/a	n/a	-1	1.0	1.0	2040.2447588001376	2286.560801000101	2287.5673742000945	2287.9551531001925	2289.465955700027	2290.481726800092	n/a	n/a	2291.486922000069	2292.6520068000536	2020-06-02 10:49:20.526386	3.20787588515739	-4.29522996061371	-1.39434583431148	-1.39443809774284	-4.60222171946887	-1.39434583431148	-3.20787588515739	-1.39434583431148	-4.29522996061371	-1.39434583431148	-4.60222171946887	-4.413356314321621	-3.275839887965191	-7.020056345328382	-3.5776192636855964	-6.948442428820119	-6.926419435971641	-3.5776192636855964	-5.230810595755783	-6.889939293811213	-3.614099405846024	-7.031699091840843	-3.5659765171731355	4	missed	0.0
252.43969779997065	6.51077990001113	nogo_reward	1.0	252.45150389987953	253.95373349986062	256.4740579999054	1.5022295999810922	253.45597560005285	255.45005910005443	257.4843313000167	0.4977578998077661	1.0239988998509943	1.4779524998739362	n/a	1.0	n/a	2	0	99	2	nogo_reward	1	0	1	0	0	1	0	n/a	n/a	1	1.0	1.0	2040.2447588001376	2292.696262700017	2293.7007344001904	2294.198492299998	2295.694817900192	2296.718816800043	n/a	n/a	2297.7290901001543	2299.207042600028	2020-06-02 10:49:20.526386	20.135461096496	0.0	15.7439976342638	15.7439976342638	-4.39146346223225	15.7439976342638	-20.135461096496	15.7439976342638	0.0	15.7439976342638	-4.39146346223225	2.6414306015759	13.65174532337342	-2.724826384714672	13.560724204889684	10.189993303186522	-6.71566117873502	13.560724204889684	1.8239763201417374	10.248404174764069	-3.403341148609403	10.106644376734437	0.7292534434405747	4	missed	0.0
258.99647390004225	7.018675700063341	go_punish	0.0838675000704824	259.0082799999511	260.9942121999345	263.5223284000533	1.985932199983381	260.0148199000398	262.51414319989294	264.5355068999345	0.9793922998946982	1.0081852001603693	1.4914488000799793	n/a	1.0	n/a	2	0	100	3	go_punish	1	0	-1	1	1	1	0	n/a	n/a	0	0.0838675000704824	1.0	2040.2447588001376	2299.2530388000887	2300.2595787001774	2301.238971000072	2302.7589020000305	2303.767087200191	n/a	n/a	2304.780265700072	2306.271714500152	2020-06-02 10:49:20.526386	4.4981154149759	-0.217314750722263	-4.99270062251394	-1.51174277151829	-0.494585207538037	-4.99270062251394	-4.4981154149759	-0.217314750722263	-4.99270062251394	-0.494585207538037	-4.99270062251394	0.217314750722263	-1.985600358146681	-2.942141135436935	-7.175974051888057	-7.0657471025955685	-2.8187829240408075	-7.175974051888057	-0.6001395307118995	-5.99017866703777	-4.004578308891094	-5.854668008251626	-4.263447179073365	4	missed	0.0
266.0587580001445	7.241796899819747	go_punish	0.2102818000130355	266.0705641000534	268.29450990003556	270.8356435999742	2.2239457999821752	267.0782776998824	269.8129700999709	271.8549931999298	1.216232200153172	1.0226735000032932	1.457367799943313	n/a	1.0	n/a	2	0	101	3	go_punish	0	-1	0	1	1	1	0	n/a	n/a	-1	0.2102818000130355	1.0	2040.2447588001376	2306.315322900191	2307.32303650002	2308.539268700173	2310.0577289001085	2311.080402400112	n/a	n/a	2312.0997520000674	2313.5571198000107	2020-06-02 10:49:20.526386	4.41716148872233	-0.121024231143215	-4.99270062251394	-0.766578391239877	-0.575539133791606	-4.99270062251394	-4.41716148872233	-0.121024231143215	-4.99270062251394	-0.575539133791606	-4.99270062251394	-5.686677917489885	-2.066554284400251	-2.845850615857887	-7.175974051888057	-6.320582722317155	-2.899736850294377	-7.175974051888057	-6.504132198924048	-6.071132593291339	-4.004578308891094	-5.758377488672578	-4.263447179073365	4	missed	0.0
273.3451658999545	6.564086799975485	nogo_reward	1.0	273.3569719998634	275.33224719995656	277.8652126998643	1.975275200093165	274.36612719995924	276.84247029991843	278.87606979999714	0.9661199999973178	1.0227423999458551	1.0449889998417348	n/a	1.0	n/a	2	0	102	2	nogo_reward	1	0	1	0	0	1	0	n/a	n/a	1	1.0	1.0	2040.2447588001376	2313.601730800001	2314.610886000097	2315.577006000094	2317.087229100056	2318.109971500002	n/a	n/a	2319.1208286001347	2320.1658175999764	2020-06-02 10:49:20.526386	21.7568776628406	0.0	17.0479572007547	17.0479572007547	-4.70892046208587	17.0479572007547	-21.7568776628406	17.0479572007547	0.0	17.0479572007547	-4.70892046208587	1.3374710350850023	15.27316188971802	-2.724826384714672	14.864683771380582	11.49395286967742	-7.033118178588641	14.864683771380582	0.5200167536508398	11.552363741254965	-3.7207981484630235	11.410603943225336	0.7292534434405747	4	missed	0.0
279.9529584001282	7.378033299930394	nogo_reward	1.0	279.96476450003706	282.4299755999825	284.95463899988704	2.4652110999454635	280.9625317999164	283.9318850999705	285.95750349992863	1.4674438000661212	1.0227538999165517	1.3852943000388223	n/a	1.0	n/a	2	0	103	2	nogo_reward	1	0	1	0	0	1	0	n/a	n/a	1	1.0	1.0	2040.2447588001376	2320.2095233001746	2321.207290600054	2322.67473440012	2324.176643900108	2325.1993978000246	n/a	n/a	2326.202262300066	2327.587556600105	2020-06-02 10:49:20.526386	22.5497234209348	0.0	17.6833702266125	17.6833702266125	-4.86635319432223	17.6833702266125	-22.5497234209348	17.6833702266125	0.0	17.6833702266125	-4.86635319432223	0.7020580092272013	16.06600764781222	-2.724826384714672	15.500096797238383	12.129365895535221	-7.190550910825	15.500096797238383	-0.11539627220696125	12.187776767112766	-3.878230880699383	12.046016969083137	0.7292534434405747	4	missed	0.0
287.3629910999441	6.6088017001748085	go_reward	0.3457854001317173	287.374797199853	289.2251663999634	291.7740966000126	1.8503692001104355	288.3842116999442	290.7591174999254	292.78652149997674	0.8409547000192106	1.0149791000872028	1.1970774000510573	n/a	1.0	n/a	2	0	104	1	go_reward	0	0	1	1	1	1	0	n/a	n/a	0	0.3457854001317173	1.0	2040.2447588001376	2327.6195559999906	2328.628970500082	2329.469925200101	2331.003876300063	2332.01885540015	n/a	n/a	2333.0312803001143	2334.2283577001654	2020-06-02 10:49:20.526386	13.319257842357	18.3564187693754	0.0	18.3563997272194	13.319257842357	0.0	-13.319257842357	18.3564187693754	0.0	13.319257842357	0.0	-18.3564187693754	6.835542069234419	15.631592384660728	-2.1832734293741165	12.802395396142122	10.99506012585423	-2.1832734293741165	-19.17387305080956	7.823664382857268	0.9881223136228464	12.719065511846036	0.7292534434405747	4	missed	0.0
294.0007221000267	6.386825500056148	nogo_punish	1.0	294.01252819993556	295.3599147999196	297.8886309000666	1.34738659998402	295.0188776999714	296.8761147998746	298.9026070998518	0.3410370999481529	1.0125161001919878	1.4967466001398861	n/a	1.0	n/a	2	0	105	4	nogo_punish	1	-1	0	0	0	1	0	n/a	n/a	0	1.0	1.0	2040.2447588001376	2334.257287000073	2335.263636500109	2335.604673600057	2337.120873600012	2338.133389700204	n/a	n/a	2339.1473658999894	2340.6441125001293	2020-06-02 10:49:20.526386	0.477540305731176	-4.29522996061371	-3.60462113359553	-3.6046841573117	-4.0821614393267	-3.60462113359553	-0.477540305731176	-3.60462113359553	-4.29522996061371	-3.60462113359553	-4.0821614393267	3.60462113359553	-6.006175467391405	-7.020056345328382	-5.7878945629696466	-9.158688488388979	-6.40635915582947	-5.7878945629696466	2.7871668521613673	-9.100214593095263	-3.094039125703853	-9.241974391124893	-3.5659765171731355	4	missed	0.0
300.41771350009344	6.5950378000270575	go_reward	0.2645946000702679	300.4295196000023	302.24858190002874	304.8049784000034	1.8190623000264168	301.4261894999074	303.78181029995926	305.8151787000245	0.8223924001213163	1.0231681000441313	1.2093787000048906	n/a	1.0	n/a	2	0	106	1	go_reward	1	1	0	1	1	1	1	n/a	n/a	1	0.2645946000702679	1.0	2040.2447588001376	2340.67427840014	2341.670948300045	2342.4933407001663	2344.026569100097	2345.049737200141	n/a	n/a	2346.059937500162	2347.269316200167	2020-06-02 10:49:20.526386	5.88615255159528	8.64797215747891	0.0	8.647959283112	5.88615255159528	0.0	-5.88615255159528	8.64797215747891	0.0	5.88615255159528	0.0	9.737456078360792	-0.5975632215273015	5.923145772764237	-2.1832734293741165	3.0939549520347214	3.561954835092509	-2.1832734293741165	8.920001796926629	0.39055909209554684	0.9881223136228464	3.010618899949546	0.7292534434405747	4	missed	0.0
307.05839280015766	6.8478763999883085	go_punish	0.3011460998095572	307.07019890006654	309.4028997998687	311.9394565999976	2.3327008998021483	308.07795759989017	310.9176773999354	312.9590030999391	1.3249421999785227	1.0217792000621557	0.9590722001157701	n/a	1.0	n/a	2	0	107	3	go_punish	0	-1	0	1	1	1	0	n/a	n/a	-1	0.3011460998095572	1.0	2040.2447588001376	2347.314957700204	2348.3227164000277	2349.6476586000063	2351.162436200073	2352.184215400135	n/a	n/a	2353.2037619000766	2354.1628341001924	2020-06-02 10:49:20.526386	2.16103026349008	-2.97368484250913	-4.99270062251394	-3.30815067724933	-2.83167035902386	-4.99270062251394	-2.16103026349008	-2.97368484250913	-4.99270062251394	-2.83167035902386	-4.99270062251394	-2.8340173061239704	-4.322685509632501	-5.698511227223802	-7.175974051888057	-8.862155008326608	-5.15586807552663	-7.175974051888057	-3.6514715875581327	-8.327263818523592	-4.004578308891094	-8.611038100038494	-4.263447179073365	4	missed	0.0
313.93545940006175	6.539250900037132	nogo_punish	1.0	313.9472654999706	316.01031069993064	318.54109079996147	2.0630451999600155	314.9642996999903	317.52184939989843	319.5517480999699	1.0460109999403358	1.0192414000630379	0.9347683000378311	n/a	1.0	n/a	2	0	108	4	nogo_punish	1	-1	0	0	0	1	0	n/a	n/a	0	1.0	1.0	2040.2447588001376	2354.192024300108	2355.209058500128	2356.255069500068	2357.766608200036	2358.785849600099	n/a	n/a	2359.7965069001075	2360.7312752001453	2020-06-02 10:49:20.526386	2.75735345126706	-4.29522996061371	-1.75531355814003	-1.75535686806555	-4.51266700940709	-1.75531355814003	-2.75735345126706	-1.75531355814003	-4.29522996061371	-1.75531355814003	-4.51266700940709	1.75531355814003	-3.7263623218555213	-7.020056345328382	-3.938586987514147	-7.3093611991428284	-6.8368647259098605	-3.938586987514147	0.9378592767058676	-7.250907017639763	-3.5245446957842432	-7.3926668156693935	-3.5659765171731355	4	missed	0.0
320.5025671999899	6.031076699960977	nogo_punish	1.0	320.5143732998988	322.01419049990386	324.5296893999914	1.4998172000050545	321.5168461999858	323.5170630998912	325.54005399998346	0.49734429991804063	1.0126263001002371	1.0053959998763276	n/a	1.0	n/a	2	0	109	4	nogo_punish	1	-1	0	0	0	1	0	n/a	n/a	0	1.0	1.0	2040.2447588001376	2360.7591321000364	2361.7616050001234	2362.2589493000414	2363.7618219000287	2364.774448200129	n/a	n/a	2365.784812800121	2366.7902087999973	2020-06-02 10:49:20.526386	3.82451008268073	-4.29522996061371	-0.893660660256104	-0.893690592207842	-4.71817074293683	-0.893660660256104	-3.82451008268073	-0.893660660256104	-4.29522996061371	-0.893660660256104	-4.71817074293683	0.893660660256104	-2.6592056904418513	-7.020056345328382	-3.0769340896302206	-6.447694923285121	-7.042368459439601	-3.0769340896302206	0.07620637882194148	-6.389254119755837	-3.7300484293139835	-6.531013917785467	-3.5659765171731355	4	missed	0.0
326.56525760004274	7.297446300042793	go_reward	0.2622677001636475	326.5770636999516	328.93184749991656	331.47596539999427	2.3547837999649346	327.5806070000401	330.4593897999732	332.49084830004745	1.3512404998764396	1.0165756000210422	1.3836616999469697	n/a	1.0	n/a	2	0	110	1	go_reward	0	0	1	1	1	1	0	n/a	n/a	0	0.2622677001636475	1.0	2040.2447588001376	2366.821822500089	2367.8253658001777	2369.176606300054	2370.704148600111	2371.720724200132	n/a	n/a	2372.735607100185	2374.119268800132	2020-06-02 10:49:20.526386	10.0184723907614	14.0099565116796	0.0	14.0099477507374	10.0184723907614	0.0	-10.0184723907614	14.0099565116796	0.0	10.0184723907614	0.0	-14.0099565116796	3.534756617638818	11.28513012696493	-2.1832734293741165	8.455943419660121	7.6942746742586285	-2.1832734293741165	-14.827410793113764	4.522878931261666	0.9881223136228464	8.372603254150238	0.7292534434405747	4	missed	0.0
333.89076890004776	6.711500799981877	nogo_punish	1.0	333.90257499995664	336.18796149990544	338.7175455999102	2.2853864999487996	334.90955229988344	337.69853589986474	339.71951319999084	1.278409200021997	1.0190097000454443	0.8945625999476761	n/a	1.0	n/a	2	0	111	4	nogo_punish	1	-1	0	0	0	1	1	n/a	n/a	0	1.0	1.0	2040.2447588001376	2374.147333800094	2375.154311100021	2376.432720300043	2377.9432947000023	2378.9623044000477	n/a	n/a	2379.9642720001284	2380.858834600076	2020-06-02 10:49:20.526386	4.34909030778266	-4.29522996061371	-0.47160822256212	-0.471629020095182	-4.82069853034478	-0.47160822256212	-4.34909030778266	-0.47160822256212	-4.29522996061371	-0.47160822256212	-4.82069853034478	0.47160822256212	-2.134625465339921	-7.020056345328382	-2.6548816519362366	-6.02563335117246	-7.1448962468475505	-2.6548816519362366	-0.34584605887204256	-5.9672016820618525	-3.8325762167219333	-6.108961480091483	-3.5659765171731355	4	missed	0.0
340.63036320009246	7.817622900009155	nogo_punish	1.0	340.64216930000134	343.4724965000066	345.99085749988467	2.8303272000052857	341.64738159999274	344.96660409984247	346.9976600999946	1.8251149000138867	1.0242534000421983	1.4621321000158787	n/a	1.0	n/a	2	0	112	4	nogo_punish	0	0	-1	0	0	1	0	n/a	n/a	-1	1.0	1.0	2040.2447588001376	2380.886928100139	2381.8921404001303	2383.717255300144	2385.21136289998	2386.2356163000222	n/a	n/a	2387.242418900132	2388.704551000148	2020-06-02 10:49:20.526386	4.61725554077289	-4.29522996061371	-0.256458746977004	-0.256473271162957	-4.87371428774989	-0.256458746977004	-4.61725554077289	-0.256458746977004	-4.29522996061371	-0.256458746977004	-4.87371428774989	-5.551243401656096	-1.8664602323496915	-7.020056345328382	-2.4397321763511206	-5.810477602240235	-7.197912004252661	-2.4397321763511206	-6.368697683090259	-5.752052206476737	-3.8855919741270437	-5.893812004506367	-3.5659765171731355	4	missed	0.0
348.4942056001162	7.550269600003958	go_punish	0.2873581999447196	348.50601170002506	351.21150089986645	353.75671259989053	2.705489199841395	349.51037669996754	352.7360338000583	354.7662547999064	1.7011241998989135	1.0206787998322397	1.2900265001226217	n/a	1.0	n/a	2	0	113	3	go_punish	1	0	-1	1	1	1	0	n/a	n/a	0	0.2873581999447196	1.0	2040.2447588001376	2388.7507705001626	2389.755135500105	2391.456259700004	2392.980792600196	2394.001471400028	n/a	n/a	2395.011013600044	2396.3010401001666	2020-06-02 10:49:20.526386	1.08901363168155	-4.33534690653567	-4.99270062251394	-4.51422727941671	-3.90368699083239	-4.99270062251394	-1.08901363168155	-4.33534690653567	-4.99270062251394	-3.90368699083239	-4.99270062251394	4.33534690653567	-5.394702141441031	-7.060173291250342	-7.175974051888057	-10.068231610493989	-6.227884707335161	-7.175974051888057	3.5178926251015072	-9.399280450332123	-4.004578308891094	-9.972700164065033	-4.263447179073365	4	missed	0.0
356.08910390012875	6.666814799886197	go_punish	0.2931932001374662	356.10091000003763	357.941003300017	360.4883899998388	1.840093299979344	357.09861660003685	359.4656493000223	361.4993694999723	0.8423866999801248	1.0227406998164952	1.2683552999515086	n/a	1.0	n/a	2	0	114	3	go_punish	0	-1	0	1	1	1	0	n/a	n/a	-1	0.2931932001374662	1.0	2040.2447588001376	2396.345668800175	2397.3433754001744	2398.1857621001545	2399.71040810016	2400.7331487999763	n/a	n/a	2401.74412830011	2403.0124836000614	2020-06-02 10:49:20.526386	2.77478415909939	-2.11175088204675	-4.99270062251394	-2.21005236169524	-2.21791646341455	-4.99270062251394	-2.77478415909939	-2.11175088204675	-4.99270062251394	-2.21791646341455	-4.99270062251394	-3.6959512665863503	-3.708931614023191	-4.836577266761422	-7.175974051888057	-7.7640566927725185	-4.542114179917321	-7.175974051888057	-4.513405548020513	-7.713509922914283	-4.004578308891094	-7.749104139576113	-4.263447179073365	4	missed	0.0
362.80201280000597	7.383514000103332	nogo_reward	1.0	362.81381889991485	365.2379741000475	367.7715871999974	2.4241552001326454	363.81854829983854	366.7472550000532	368.7827749999708	1.4194258002089555	1.0243321999441832	1.4145579000473845	n/a	1.0	n/a	2	0	115	2	nogo_reward	1	0	1	0	0	1	0	n/a	n/a	1	1.0	1.0	2040.2447588001376	2403.0585777000524	2404.063307099976	2405.482732900185	2406.9920138001908	2408.016346000135	n/a	n/a	2409.0275338001084	2410.4420917001557	2020-06-02 10:49:20.526386	22.9527716515289	0.0	18.0054857090342	18.0054857090342	-4.94728594249464	18.0054857090342	-22.9527716515289	18.0054857090342	0.0	18.0054857090342	-4.94728594249464	0.37994252680550034	16.469055878406316	-2.724826384714672	15.822212279660084	12.451481377956922	-7.27148365899741	15.822212279660084	-0.4375117546286622	12.509892249534467	-3.959163628871793	12.368132451504838	0.7292534434405747	4	missed	0.0
370.230162899941	6.069057499989867	nogo_reward	1.0	370.24196899984986	371.674857700011	374.20126529992626	1.4328887001611292	371.2470619999806	373.1782112999356	375.21152430004463	0.42779570003040135	1.0230539999906796	1.0995021997950971	n/a	1.0	n/a	2	0	116	2	nogo_reward	1	0	1	0	0	1	0	n/a	n/a	1	1.0	1.0	2040.2447588001376	2410.4867277999874	2411.491820800118	2411.9196165001485	2413.422970100073	2414.446024100064	n/a	n/a	2415.456283100182	2416.5557852999773	2020-06-02 10:49:20.526386	23.1644913110305	0.0	18.1743051822328	18.1743051822328	-4.99018612879774	18.1743051822328	-23.1644913110305	18.1743051822328	0.0	18.1743051822328	-4.99018612879774	0.21112305360690087	16.68077553790792	-2.724826384714672	15.991031752858683	12.620300851155521	-7.314383845300511	15.991031752858683	-0.6063312278272617	12.678711722733066	-4.0020638151748935	12.536951924703438	0.7292534434405747	4	missed	0.0
376.3468609000554	5.8588610999286175	nogo_reward	1.0	376.35866699996427	377.9232900000645	380.4480399000465	1.564623000100255	377.3705215000084	379.4252327999568	381.45946419984125	0.5527685000561178	1.0228071000897216	0.7580639000516385	n/a	1.0	n/a	2	0	117	2	nogo_reward	1	0	1	0	0	1	1	n/a	n/a	1	1.0	1.0	2040.2447588001376	2416.603425800102	2417.615280300146	2418.168048800202	2419.6699916000944	2420.692798700184	n/a	n/a	2421.704222999979	2422.4622869000304	2020-06-02 10:49:20.526386	23.278899620213	0.0	18.2653575268799	18.2653575268799	-5.01354209333318	18.2653575268799	-23.278899620213	18.2653575268799	0.0	18.2653575268799	-5.01354209333318	0.12007070895980121	16.79518384709042	-2.724826384714672	16.082084097505785	12.711353195802621	-7.33773980983595	16.082084097505785	-0.6973835724743613	12.769764067380166	-4.025419779710333	12.628004269350537	0.7292534434405747	4	missed	0.0
382.25193220004417	6.221692099934444	go_punish	0.3699228998739272	382.26373829995305	383.61622809991263	386.1567158000546	1.352489799959585	383.26879889983707	385.1361004000066	387.16779499989957	0.34742920007556677	1.0206154000479728	1.3176353999879211	n/a	1.0	n/a	2	0	118	3	go_punish	1	0	-1	1	1	1	0	n/a	n/a	0	0.3699228998739272	1.0	2040.2447588001376	2422.5084971000906	2423.5135576999746	2423.86098690005	2425.380859200144	2426.401474600192	n/a	n/a	2427.412553800037	2428.730189200025	2020-06-02 10:49:20.526386	1.33333479507895	-3.97972207584317	-4.99270062251394	-4.03503507447334	-3.65936582743499	-4.99270062251394	-1.33333479507895	-3.97972207584317	-4.99270062251394	-3.65936582743499	-4.99270062251394	3.97972207584317	-5.150380978043631	-6.704548460557842	-7.175974051888057	-9.589039405550619	-5.983563543937761	-7.175974051888057	3.162267794409008	-9.154959286934723	-4.004578308891094	-9.617075333372533	-4.263447179073365	4	missed	0.0
388.5053572999311	6.569945499999449	go_reward	0.2674147000070661	388.51716339984	390.2827609998642	392.835023700027	1.7655976000241935	389.5200300998988	391.81028159987204	393.8429455999287	0.7627308999653906	1.024742100154981	1.2441632999107242	n/a	1.0	n/a	2	0	119	1	go_reward	1	1	0	1	1	1	0	n/a	n/a	1	0.2674147000070661	1.0	2040.2447588001376	2428.7619221999776	2429.7647889000364	2430.5275198000018	2432.0550404000096	2433.0797825001646	n/a	n/a	2434.0877044000663	2435.331867699977	2020-06-02 10:49:20.526386	4.32771316956484	6.58219881129153	0.0	6.58219281267708	4.32771316956484	0.0	-4.32771316956484	6.58219881129153	0.0	4.32771316956484	0.0	11.80322942454817	-2.1560026035577415	3.857372426576858	-2.1832734293741165	1.028188481599802	2.003515453062069	-2.1832734293741165	10.985775143114008	-1.1678802899348932	0.9881223136228464	0.9448455537621667	0.7292534434405747	4	missed	0.0
395.1057311000766	7.055655600037426	go_reward	0.2507784001063555	395.11753719998546	397.8503379998731	400.39354830002435	2.7328007998876274	396.1228225999514	399.3745225998575	401.40433739987225	1.7275153999216855	1.0190257001668215	0.7688554001506418	n/a	1.0	n/a	2	0	120	1	go_reward	1	1	0	1	1	1	0	n/a	n/a	1	0.2507784001063555	1.0	2040.2447588001376	2435.362296000123	2436.367581400089	2438.0950968000107	2439.619281399995	2440.638307100162	n/a	n/a	2441.64909620001	2442.4179516001604	2020-06-02 10:49:20.526386	9.24739110440242	12.9823953786783	0.0	12.9823912472793	9.24739110440242	0.0	-9.24739110440242	12.9823953786783	0.0	9.24739110440242	0.0	5.403032857161401	2.7636753312798383	10.257568993963627	-2.1832734293741165	7.428386916202022	6.923193387899649	-2.1832734293741165	4.585578575727238	3.7517976449026866	0.9881223136228464	7.3450421211489365	0.7292534434405747	4	missed	0.0
