onset	duration	trial_type	response_time	cueOnset	targetOnset	fbOnset	cueRT	firstfixOnset	secondfixOnset	waitOnset	firstfixdur	secondfixdur	waitdur	nback_fbOnset	nback_response_time	nback_targetOnset	block	wm	trial	cue	cond	is_common	outcome_go	outcome_nogo	key_correct	key_pressed	is_correct	key_correct_nback	key_pressed_nback	is_correct_nback	outcome	rt	rt_nback	time_scan	time_onset	time_isi1	time_circle	time_isi2	time_feedback	time_same	time_correct	time_iti	time_done	timestamp_scan	DV	Qgo	Qnogo	SV	Wgo	Wnogo	mDV	Qchosen	Qunchosen	Wchosen	Wunchosen	PE	DVC	QgoC	QnogoC	SVC	WgoC	WnogoC	PEC	WchosenC	WunchosenC	QchosenC	QunchosenC	run	outcome_nback	nback_targetResp
0.0	6.867058899952099	nogo_punish	0.4754947000183165	0.04674930009059608	1.9747687000781298	4.505591799970716	1.9280193999875337	1.0655881001148373	3.491853900020942	5.503870100015774	0.9091805999632925	1.0137378999497741	1.4099381000269204	n/a	1.0	n/a	2	0	1	4	nogo_punish	1	-1	0	0	1	0	0	n/a	n/a	-1	0.4754947000183165	1.0	1538.6481252000667	1538.6948745001573	1539.7137133001816	1540.6228939001448	1542.1399791000877	1543.1537170000374	n/a	n/a	1544.1519953000825	1545.5619334001094	2020-06-02 10:40:58.937160	-0.643057239426247	0.0	0.0	0.0	-0.643057239426247	0.0	0.643057239426247	0.0	0.0	-0.643057239426247	0.0	-5.8077021486331	-7.126773012548828	-2.724826384714672	-2.1832734293741165	-5.554004331077278	-2.967254955929018	-2.1832734293741165	-6.625156430067263	-6.13865069892598	0.9881223136228464	-5.637353257529363	0.7292534434405747	3	missed	0.0
6.946613899897784	6.894410900073126	go_punish	0.2784122000448406	6.99336319998838	8.84871089993976	11.388749500038102	1.8553476999513805	8.008452099980786	10.368278699926805	12.393625800032169	0.8402587999589741	1.0204708001112976	1.4941483000293374	n/a	1.0	n/a	2	0	2	3	go_punish	1	0	-1	1	1	1	0	n/a	n/a	0	0.2784122000448406	1.0	1538.6481252000667	1545.641488400055	1546.6565773000475	1547.4968361000065	1549.0164038999935	1550.0368747001048	n/a	n/a	1551.0417510000989	1552.5358993001282	2020-06-02 10:40:58.937160	-0.643057239426247	0.0	0.0	0.0	-0.643057239426247	0.0	0.643057239426247	0.0	0.0	-0.643057239426247	0.0	0.0	-7.126773012548828	-2.724826384714672	-2.1832734293741165	-5.554004331077278	-2.967254955929018	-2.1832734293741165	-0.8174542814341625	-6.13865069892598	0.9881223136228464	-5.637353257529363	0.7292534434405747	3	missed	0.0
13.90013620001264	6.504619899904355	go_reward	0.3516636998392641	13.946885500103235	15.430545600131381	17.975198300089687	1.4836601000281462	14.964282900094986	16.94988110009558	18.982708200113848	0.46626270003639547	1.025317199994106	1.4687971998937428	n/a	1.0	n/a	2	0	3	1	go_reward	1	1	0	1	1	1	0	n/a	n/a	1	0.3516636998392641	1.0	1538.6481252000667	1552.59501070017	1553.6124081001617	1554.078670800198	1555.5980063001623	1556.6233235001564	n/a	n/a	1557.6308334001806	1559.0996306000743	2020-06-02 10:40:58.937160	-0.643057239426247	0.0	0.0	0.0	-0.643057239426247	0.0	0.643057239426247	0.0	0.0	-0.643057239426247	0.0	18.3854282358397	-7.126773012548828	-2.724826384714672	-2.1832734293741165	-5.554004331077278	-2.967254955929018	-2.1832734293741165	17.567973954405538	-6.13865069892598	0.9881223136228464	-5.637353257529363	0.7292534434405747	3	missed	0.0
20.4311889000237	6.479950199835002	go_reward	1.0	20.477938200114295	22.52242700010538	25.04360909992829	2.044488799991086	21.48374529997818	24.024066700134426	26.057667799992487	1.0386817001271993	1.0195423997938633	0.9002205999568105	n/a	1.0	n/a	2	0	4	1	go_reward	1	1	0	1	0	0	0	n/a	n/a	0	1.0	1.0	1538.6481252000667	1559.126063400181	1560.131870500045	1561.170552200172	1562.6721919002011	1563.691734299995	n/a	n/a	1564.7057930000592	1565.606013600016	2020-06-02 10:40:58.937160	-6.79839295070346	9.71977359910588	0.0	9.71977359910588	6.79839295070346	0.0	6.79839295070346	0.0	9.71977359910588	0.0	6.79839295070346	0.0	-13.282108723826042	6.994947214391208	-2.1832734293741165	4.165769268028601	4.474195234200689	-2.1832734293741165	-0.8174542814341625	-5.495593459499733	7.786515264326306	-5.637353257529363	10.449027042546454	3	missed	0.0
26.93822110001929	6.3637943000067025	go_reward	0.3713746999856084	26.984970400109887	28.46680189995095	31.024520799983293	1.4818314998410642	28.001188300084323	30.001043600030243	32.027143199928105	0.46561359986662865	1.0234771999530494	1.3216215001884848	n/a	1.0	n/a	2	0	5	1	go_reward	1	1	0	1	1	1	1	n/a	n/a	1	0.3713746999856084	1.0	1538.6481252000667	1565.6330956001766	1566.649313500151	1567.1149271000177	1568.649168800097	1569.67264600005	n/a	n/a	1570.6752683999948	1571.9968899001833	2020-06-02 10:40:58.937160	8.02627107834246	9.71977359910588	0.0	4.36454111098163	8.02627107834246	0.0	-8.02627107834246	9.71977359910588	0.0	8.02627107834246	0.0	8.665654636733821	1.542555305219878	6.994947214391208	-2.1832734293741165	-1.1894632200956483	5.702073361839688	-2.1832734293741165	7.848200355299658	2.5306776188427262	0.9881223136228464	4.082420341576516	0.7292534434405747	3	missed	0.0
33.3307341998443	5.915868000127375	go_reward	0.3175830999389291	33.3774834999349	34.72564950003289	37.25955930002965	1.34816600009799	34.3840445000676	36.242951600113884	38.26829760009423	0.34160499996528415	1.0166076999157667	1.025053899968043	n/a	1.0	n/a	2	0	6	1	go_reward	1	1	0	1	1	1	1	n/a	n/a	1	0.3175830999389291	1.0	1538.6481252000667	1572.0256087000016	1573.0321697001343	1573.3737747000996	1574.8910768001806	1575.9076845000964	n/a	n/a	1576.916422800161	1577.941476700129	2020-06-02 10:40:58.937160	10.6527276934541	14.0843147100875	0.0	11.7963847690312	10.6527276934541	0.0	-10.6527276934541	14.0843147100875	0.0	10.6527276934541	0.0	4.3011135257522	4.169011920331519	11.35948832537283	-2.1832734293741165	6.242380437953921	8.32852997695133	-2.1832734293741165	3.483659244318037	5.157134233954367	0.9881223136228464	8.446961452558138	0.7292534434405747	3	missed	0.0
39.27517069992609	6.302592300111428	nogo_punish	1.0	39.32192000001669	40.65373319992818	43.1702990999911	1.331813199911494	40.328339700121205	42.15018370002508	44.18415919994004	0.32539349980697807	1.0201153999660164	1.4403531001880765	n/a	1.0	n/a	2	0	7	4	nogo_punish	1	-1	0	0	0	1	0	n/a	n/a	0	1.0	1.0	1538.6481252000667	1577.9700452000834	1578.976464900188	1579.301858399995	1580.7983089000918	1581.8184243000578	n/a	n/a	1582.8322844000068	1584.2726375001948	2020-06-02 10:40:58.937160	2.86319259131917	-2.9047130446313	0.0	-2.9047130446313	-2.86319259131917	0.0	-2.86319259131917	0.0	-2.9047130446313	0.0	-2.86319259131917	0.0	-3.6205231818034114	-5.6295394293459715	-2.1832734293741165	-8.458717375708579	-5.187390307821941	-2.1832734293741165	-0.8174542814341625	-5.495593459499733	-1.8750702776963233	-5.637353257529363	-2.1754596011907252	3	missed	0.0
45.606822799891006	6.288645799970482	go_reward	0.2718622998800128	45.6535720999816	47.38634470012039	49.93548159999773	1.7327726001387873	46.660261099925265	48.91544910008088	50.93394710007124	0.7260836001951247	1.0200324999168515	1.0082707998808473	n/a	1.0	n/a	2	0	8	1	go_reward	1	1	0	1	1	1	1	n/a	n/a	1	0.2718622998800128	1.0	1538.6481252000667	1584.3016973000483	1585.308386299992	1586.034469900187	1587.5635743001476	1588.5836068000644	n/a	n/a	1589.582072300138	1590.5903431000188	2020-06-02 10:40:58.937160	11.9308647900385	16.1609258800128	0.0	15.1184690286256	11.9308647900385	0.0	-11.9308647900385	16.1609258800128	0.0	11.9308647900385	0.0	2.2245023558268997	5.447149016915919	13.43609949529813	-2.1832734293741165	9.564464697548322	9.606667073535728	-2.1832734293741165	1.4070480743927372	6.435271330538767	0.9881223136228464	10.523572622483439	0.7292534434405747	3	missed	0.0
51.95542340003885	7.44328000000678	go_punish	0.8885776000097394	52.00217270012945	54.54968570009805	57.09141130000353	2.5475129999686033	53.0127344999928	56.07197350007482	58.099852400133386	1.5369512001052499	1.0194377999287099	1.3456003000028431	n/a	1.0	n/a	2	0	9	3	go_punish	1	0	-1	1	1	1	0	n/a	n/a	0	0.8885776000097394	1.0	1538.6481252000667	1590.6502979001962	1591.6608597000595	1593.1978109001648	1594.7200987001415	1595.7395365000702	n/a	n/a	1596.7479776002	1598.093577900203	2020-06-02 10:40:58.937160	-0.643057239426247	0.0	0.0	0.0	-0.643057239426247	0.0	0.643057239426247	0.0	0.0	-0.643057239426247	0.0	0.0	-7.126773012548828	-2.724826384714672	-2.1832734293741165	-5.554004331077278	-2.967254955929018	-2.1832734293741165	-0.8174542814341625	-6.13865069892598	0.9881223136228464	-5.637353257529363	0.7292534434405747	3	missed	0.0
59.42738249991089	7.374282000120729	go_reward	0.2548687001690268	59.47413180000149	62.23836830002256	64.79615970002487	2.7642365000210702	60.482009700033586	63.777825700119365	65.81585870007984	1.756358599988971	1.0183339999055079	1.032555100042373	n/a	1.0	n/a	2	0	10	1	go_reward	1	1	0	1	1	1	1	n/a	n/a	1	0.2548687001690268	1.0	1538.6481252000667	1598.1222570000682	1599.1301349001003	1600.8864935000893	1602.425950900186	1603.4442849000916	n/a	n/a	1604.4639839001466	1605.496539000189	2020-06-02 10:40:58.937160	12.5778014870618	17.1950801985509	0.0	16.6955865677867	12.5778014870618	0.0	-12.5778014870618	17.1950801985509	0.0	12.5778014870618	0.0	1.1903480372887998	6.094085713939219	14.47025381383623	-2.1832734293741165	11.141582236709423	10.253603770559028	-2.1832734293741165	0.37289375585463724	7.082208027562067	0.9881223136228464	11.557726941021539	0.7292534434405747	3	missed	0.0
66.87612419994548	7.062677599955123	nogo_reward	0.2668683999218046	66.92287350003608	68.94620519992895	71.49944359995425	2.0233316998928785	67.91616649995558	70.4793595999945	72.51273580011912	1.0300386999733746	1.020083999959752	1.4728152998720816	n/a	1.0	n/a	2	0	11	2	nogo_reward	1	0	1	0	1	0	0	n/a	n/a	0	0.2668683999218046	1.0	1538.6481252000667	1605.5709987001028	1606.5642917000223	1607.5943303999957	1609.1274848000612	1610.147568800021	n/a	n/a	1611.1608610001858	1612.633676300058	2020-06-02 10:40:58.937160	-0.643057239426247	0.0	0.0	0.0	-0.643057239426247	0.0	0.643057239426247	0.0	0.0	-0.643057239426247	0.0	0.0	-7.126773012548828	-2.724826384714672	-2.1832734293741165	-5.554004331077278	-2.967254955929018	-2.1832734293741165	-0.8174542814341625	-6.13865069892598	0.9881223136228464	-5.637353257529363	0.7292534434405747	3	missed	0.0
73.9777080998756	6.039084800053388	nogo_reward	1.0	74.0244573999662	75.5329921999944	78.05840920005016	1.508534800028201	75.03560580010526	77.03492580004968	79.07002079999097	0.49738639988913746	1.0234834000004867	0.9935214000286123	n/a	1.0	n/a	2	0	12	2	nogo_reward	1	0	1	0	0	1	0	n/a	n/a	1	1.0	1.0	1538.6481252000667	1612.672582600033	1613.683731000172	1614.181117400061	1615.6830510001164	1616.7065344001169	n/a	n/a	1617.7181460000577	1618.7116674000863	2020-06-02 10:40:58.937160	0.643057239426247	0.0	0.0	0.0	-0.643057239426247	0.0	-0.643057239426247	0.0	0.0	0.0	-0.643057239426247	18.3854282358397	-5.840658533696335	-2.724826384714672	-2.1832734293741165	-5.554004331077278	-2.967254955929018	-2.1832734293741165	17.567973954405538	-5.495593459499733	0.3450650741965994	-5.637353257529363	0.7292534434405747	3	missed	0.0
80.05985519988462	6.758128700079169	nogo_reward	1.0	80.10660449997522	81.95689869998023	84.47772570000961	1.8502942000050098	81.1143889001105	83.46036339993589	85.48510179994628	0.8425097998697311	1.017362300073728	1.37963140010811	n/a	1.0	n/a	2	0	13	2	nogo_reward	1	0	1	0	0	1	1	n/a	n/a	1	1.0	1.0	1538.6481252000667	1618.754729700042	1619.7625141001772	1620.605023900047	1622.1084886000026	1623.1258509000763	n/a	n/a	1624.133227000013	1625.512858400121	2020-06-02 10:40:58.937160	12.6411542475083	0.0	9.71977359910588	9.71977359910588	-2.92138064840242	9.71977359910588	-12.6411542475083	9.71977359910588	0.0	9.71977359910588	-2.92138064840242	8.665654636733821	6.157438474385719	-2.724826384714672	7.536500169731763	4.165769268028601	-5.245578364905191	7.536500169731763	7.848200355299658	4.224180139606147	-1.9332583347795733	4.082420341576516	0.7292534434405747	3	missed	0.0
86.84798579988978	6.663764599943761	go_reward	0.2817919000517577	86.89473509998038	88.89232799992897	91.43880359991454	1.997592899948586	87.89990440011024	90.41658079996705	92.44928820012137	0.9924235998187214	1.0222227999474853	1.1092114998027682	n/a	1.0	n/a	2	0	14	1	go_reward	1	1	0	1	1	1	0	n/a	n/a	1	0.2817919000517577	1.0	1538.6481252000667	1625.542860300047	1626.548029600177	1627.5404531999957	1629.0647060000338	1630.0869287999813	n/a	n/a	1631.097413400188	1632.2066248999909	2020-06-02 10:40:58.937160	12.9165369762834	17.7297408863247	0.0	17.4803961517896	12.9165369762834	0.0	-12.9165369762834	17.7297408863247	0.0	12.9165369762834	0.0	0.6556873495150022	6.4328212031608185	15.004914501610028	-2.1832734293741165	11.92639182071232	10.59233925978063	-2.1832734293741165	-0.16176693191916036	7.420943516783667	0.9881223136228464	12.092387628795336	0.7292534434405747	3	missed	0.0
93.53943749982864	7.113249500049278	nogo_punish	1.0	93.58618679991923	96.1014135000296	98.63591710012406	2.515226700110361	94.58836270007305	97.61882889992557	99.64617269998416	1.5130507999565452	1.0170882001984864	1.0532635999843478	n/a	1.0	n/a	2	0	15	4	nogo_punish	0	0	-1	0	0	1	0	n/a	n/a	-1	1.0	1.0	1538.6481252000667	1632.234311999986	1633.2364879001398	1634.7495387000963	1636.2669540999923	1637.2840423001908	n/a	n/a	1638.2942979000509	1639.3475615000352	2020-06-02 10:40:58.937160	3.21273718552265	-2.9047130446313	0.0	-1.39051691598241	-3.21273718552265	0.0	-3.21273718552265	0.0	-2.9047130446313	0.0	-3.21273718552265	-5.8077021486331	-3.2709785875999313	-5.6295394293459715	-2.1832734293741165	-6.944521247059688	-5.53693490202542	-2.1832734293741165	-6.625156430067263	-5.495593459499733	-2.2246148718998033	-5.637353257529363	-2.1754596011907252	3	missed	0.0
100.69493929995224	6.786039900034666	nogo_reward	1.0	100.74168860004283	102.61351980012842	105.1393601000309	1.8718312000855803	101.75076880003326	104.12384010013193	106.14475410012528	0.8627510000951588	1.0155199998989701	1.382974399952218	n/a	1.0	n/a	2	0	16	2	nogo_reward	1	0	1	0	0	1	0	n/a	n/a	1	1.0	1.0	1538.6481252000667	1639.3898138001096	1640.3988940001	1641.2616450001951	1642.7719653001986	1643.7874853000976	n/a	n/a	1644.792879300192	1646.1758537001442	2020-06-02 10:40:58.937160	18.0561406398271	0.0	14.0843147100875	14.0843147100875	-3.97182592973959	14.0843147100875	-18.0561406398271	14.0843147100875	0.0	14.0843147100875	-3.97182592973959	4.3011135257522	11.572424866704518	-2.724826384714672	11.901041280713384	8.530310379010222	-6.296023646242361	11.901041280713384	3.483659244318037	8.588721250587767	-2.9837036161167436	8.446961452558138	0.7292534434405747	3	missed	0.0
107.50795809994452	6.7346952999942005	nogo_punish	0.2216228998731821	107.55470740003511	109.3984368999952	111.94033750006929	1.8437294999600908	108.5571101999376	110.9173059000168	112.95240900013619	0.841326700057607	1.0230316000524908	1.336993699893128	n/a	1.0	n/a	2	0	17	4	nogo_punish	1	-1	0	0	1	0	1	n/a	n/a	-1	0.2216228998731821	1.0	1538.6481252000667	1646.2028326001018	1647.2052354000043	1648.046562100062	1649.5654311000835	1650.588462700136	n/a	n/a	1651.600534200203	1652.937527900096	2020-06-02 10:40:58.937160	0.212407559473877	-2.9047130446313	-2.9047130446313	-3.60218370653153	-2.69230548515742	-2.9047130446313	-0.212407559473877	-2.9047130446313	-2.9047130446313	-2.69230548515742	-2.9047130446313	-2.9029891040018003	-6.271308213648704	-5.6295394293459715	-5.087986474005417	-9.156188037608809	-5.016503201660191	-5.087986474005417	-3.7204433854359626	-8.187898944657153	-1.9165907310084536	-8.542066302160663	-2.1754596011907252	3	missed	0.0
114.27001359988958	6.130026600090787	nogo_punish	1.0	114.31676289998018	116.13490379997529	118.66173520009033	1.8181408999951145	115.32474750000983	117.64143060008064	119.67197560006753	0.8101562999654561	1.0203046000096947	0.7748139000034371	n/a	1.0	n/a	2	0	18	4	nogo_punish	0	0	-1	0	0	1	0	n/a	n/a	-1	1.0	1.0	1538.6481252000667	1652.964888100047	1653.9728727000766	1654.783029000042	1656.2895558001474	1657.309860400157	n/a	n/a	1658.3201008001342	1659.0949147001377	2020-06-02 10:40:58.937160	0.923803981562898	-4.29522996061371	-2.9047130446313	-4.65845838387842	-3.82851702619419	-2.9047130446313	-0.923803981562898	-2.9047130446313	-4.29522996061371	-2.9047130446313	-3.82851702619419	-2.9029891040018003	-5.559911791559683	-7.020056345328382	-5.087986474005417	-10.212462714955699	-6.152714742696961	-5.087986474005417	-3.7204433854359626	-8.400306504131033	-2.8403947125713436	-8.542066302160663	-3.5659765171731355	3	missed	0.0
120.44488810002781	7.743097299942974	nogo_reward	1.0	120.4916374001184	123.45758190006018	125.98944670008495	2.96594449994177	121.50363010005094	124.96472700010054	126.99164770008065	1.9539518000092357	1.0247196999844164	1.2430869999807328	n/a	1.0	n/a	2	0	19	2	nogo_reward	1	0	1	0	0	1	0	n/a	n/a	1	1.0	1.0	1538.6481252000667	1659.1397626001851	1660.1517553001177	1662.105707100127	1663.6128522001673	1664.6375719001517	n/a	n/a	1665.6397729001474	1666.882859900128	2020-06-02 10:40:58.937160	20.6429581779834	0.0	16.1609258800128	16.1609258800128	-4.48203229797057	16.1609258800128	-20.6429581779834	16.1609258800128	0.0	16.1609258800128	-4.48203229797057	2.2245023558268997	14.159242404860818	-2.724826384714672	13.977652450638685	10.606921548935523	-6.806230014473341	13.977652450638685	1.4070480743927372	10.665332420513067	-3.4939099843477237	10.523572622483439	0.7292534434405747	3	missed	0.0
128.21791589981876	6.548217800213024	go_reward	0.2588981001172215	128.26466519990936	130.05727190012112	132.59481110004708	1.7926067002117634	129.27836559992284	131.5748455999419	133.59955990011804	0.7789063001982868	1.0199655001051724	1.2133231000043452	n/a	1.0	n/a	2	0	20	1	go_reward	0	0	1	1	1	1	0	n/a	n/a	0	0.2588981001172215	1.0	1538.6481252000667	1666.912790399976	1667.9264907999896	1668.7053971001878	1670.2229708000086	1671.2429363001138	n/a	n/a	1672.2476851001848	1673.461008200189	2020-06-02 10:40:58.937160	13.0991894913557	18.0150568395635	0.0	17.8862221934359	13.0991894913557	0.0	-13.0991894913557	18.0150568395635	0.0	13.0991894913557	0.0	-18.0150568395635	6.615473718233119	15.290230454848828	-2.1832734293741165	12.33221786235862	10.774991774852928	-2.1832734293741165	-18.832511120997662	7.603596031855967	0.9881223136228464	12.377703582034137	0.7292534434405747	3	missed	0.0
134.80991670000367	6.698291499866173	nogo_reward	1.0	134.85666600009426	137.20140359993093	139.73241659998894	2.3447375998366624	135.86657240008935	138.7129408000037	140.74945409991778	1.3348311998415738	1.01947579998523	0.8055034000426531	n/a	1.0	n/a	2	0	21	2	nogo_reward	0	1	0	0	0	1	1	n/a	n/a	0	1.0	1.0	1538.6481252000667	1673.504791200161	1674.514697600156	1675.8495287999976	1677.3610660000704	1678.3805418000557	n/a	n/a	1679.3975792999845	1680.2030827000272	2020-06-02 10:40:58.937160	21.9353476567562	0.0	17.1950801985509	17.1950801985509	-4.74026745820533	17.1950801985509	-21.9353476567562	17.1950801985509	0.0	17.1950801985509	-4.74026745820533	-17.1950801985509	15.451631883633619	-2.724826384714672	15.011806769176784	11.641075867473623	-7.064465174708101	15.011806769176784	-18.012534479985064	11.699486739051167	-3.7521451445824834	11.557726941021539	0.7292534434405747	3	missed	0.0
141.5506291999484	6.5887179998678675	nogo_reward	1.0	141.59737850003899	143.15702709998004	145.6986700000707	1.559648599941056	142.60220380011015	144.67461839993484	146.70805909996852	0.554823299869895	1.0240516001358628	1.47803739993833	n/a	1.0	n/a	2	0	22	2	nogo_reward	1	0	1	0	0	1	0	n/a	n/a	1	1.0	1.0	1538.6481252000667	1680.2455037001057	1681.2503290001769	1681.8051523000468	1683.3227436000016	1684.3467952001374	n/a	n/a	1685.3561843000352	1686.8342216999736	2020-06-02 10:40:58.937160	10.6071577499665	0.0	8.00996728721886	8.00996728721886	-2.59719046274767	8.00996728721886	-10.6071577499665	8.00996728721886	0.0	8.00996728721886	-2.59719046274767	10.375460948620841	4.123441976843919	-2.724826384714672	5.826693857844743	2.4559629561415814	-4.921388179250441	5.826693857844743	9.558006667186678	2.514373827719127	-1.6090681491248233	2.3726140296894966	0.7292534434405747	3	missed	0.0
148.21145499986596	6.121459300164133	go_punish	1.0	148.25820429995656	149.94165679998696	152.46569139999337	1.6834525000303984	149.2569816999603	151.4437047999818	153.46900340006687	0.6846751000266522	1.0219866000115871	0.910660200053826	n/a	1.0	n/a	2	0	23	3	go_punish	1	0	-1	1	0	0	0	n/a	n/a	-1	1.0	1.0	1538.6481252000667	1686.9063295000233	1687.905106900027	1688.5897820000537	1690.0918300000485	1691.11381660006	n/a	n/a	1692.1171286001336	1693.0277888001874	2020-06-02 10:40:58.937160	0.643057239426247	0.0	0.0	0.0	-0.643057239426247	0.0	-0.643057239426247	0.0	0.0	0.0	-0.643057239426247	-5.8077021486331	-5.840658533696335	-2.724826384714672	-2.1832734293741165	-5.554004331077278	-2.967254955929018	-2.1832734293741165	-6.625156430067263	-5.495593459499733	0.3450650741965994	-5.637353257529363	0.7292534434405747	3	missed	0.0
154.3805162999779	6.262188700027764	go_punish	0.2880313999485224	154.4272656000685	155.9351387999484	158.46165770012885	1.5078731998798958	155.43785430002026	157.45301029994152	159.47672910010442	0.49728449992812784	1.0086474001873285	1.2127251999918371	n/a	1.0	n/a	2	0	24	3	go_punish	1	0	-1	1	1	1	0	n/a	n/a	0	0.2880313999485224	1.0	1538.6481252000667	1693.0753908001352	1694.085979500087	1694.583264000015	1696.1011355000082	1697.1097829001956	n/a	n/a	1698.1248543001711	1699.337579500163	2020-06-02 10:40:58.937160	2.94623349794342	0.0	-2.9047130446313	-2.9047130446313	0.041520453312122	-2.9047130446313	-2.94623349794342	0.0	-2.9047130446313	0.041520453312122	-2.9047130446313	0.0	-3.537482275179161	-2.724826384714672	-5.087986474005417	-8.458717375708579	-2.282677263190649	-5.087986474005417	-0.8174542814341625	-5.454073006187611	-1.9165907310084536	-5.637353257529363	-2.1754596011907252	3	missed	0.0
160.67547239991836	6.149168800096959	go_reward	0.4685968998819589	160.72222170000896	162.05654420005158	164.61521119996905	1.3343225000426173	161.73120729997777	163.59358220011927	165.6264283999335	0.32533690007380756	1.0216289998497814	1.2449621001724154	n/a	1.0	n/a	2	0	25	1	go_reward	1	1	0	1	1	1	0	n/a	n/a	1	0.4685968998819589	1.0	1538.6481252000667	1699.3703469000757	1700.3793325000445	1700.7046694001183	1702.241707400186	1703.2633364000358	n/a	n/a	1704.2745536000002	1705.5195157001726	2020-06-02 10:40:58.937160	5.75879821356373	8.45176454756872	0.0	8.38319330841385	5.75879821356373	0.0	-5.75879821356373	8.45176454756872	0.0	5.75879821356373	0.0	9.93366368827098	-0.7249175595588513	5.726938162854048	-2.1832734293741165	2.829188977336571	3.434600497060959	-2.1832734293741165	9.116209406836818	0.263204754063997	0.9881223136228464	2.8144112900393568	0.7292534434405747	3	missed	0.0
166.85229429998435	7.430440699914243	nogo_punish	1.0	166.89904360007495	169.61673299991526	172.15986100002192	2.71768939984031	167.9070003000088	171.14128830004483	173.17229550005868	1.7097326999064535	1.018572699977085	1.157188799930509	n/a	1.0	n/a	2	0	26	4	nogo_punish	1	-1	0	0	0	1	0	n/a	n/a	0	1.0	1.0	1538.6481252000667	1705.5471688001417	1706.5551255000755	1708.264858199982	1709.7894135001116	1710.8079862000886	n/a	n/a	1711.8204207001254	1712.977609500056	2020-06-02 10:40:58.937160	-0.596390457427077	-4.29522996061371	-4.29522996061371	-5.18787161343667	-3.69883950318663	-4.29522996061371	0.596390457427077	-4.29522996061371	-4.29522996061371	-4.29522996061371	-3.69883950318663	4.29522996061371	-7.080106230549658	-7.020056345328382	-6.478503389987827	-10.741875944513948	-6.023037219689401	-6.478503389987827	3.4777756791795476	-9.790823420113444	-2.7107171895637836	-9.932583218143073	-3.5659765171731355	3	missed	0.0
174.31269829999678	7.408715799916308	go_reward	0.1814041999168694	174.35944760008738	176.98262119991705	179.51805720012635	2.62317359982967	175.3753414999228	178.50020379992202	180.5263487000484	1.6072796999942511	1.0178534002043307	1.2418146999552846	n/a	1.0	n/a	2	0	27	1	go_reward	1	1	0	1	1	1	1	n/a	n/a	1	0.1814041999168694	1.0	1538.6481252000667	1713.007572800154	1714.0234666999895	1715.6307463999838	1717.1483289999887	1718.166182400193	n/a	n/a	1719.1744739001151	1720.4162886000704	2020-06-02 10:40:58.937160	9.94335570379752	13.8949071036492	0.0	13.8574506940084	9.94335570379752	0.0	-9.94335570379752	13.8949071036492	0.0	9.94335570379752	0.0	4.490521132190501	3.459639930674939	11.170080718934528	-2.1832734293741165	8.30344636293112	7.6191579872947495	-2.1832734293741165	3.6730668507563387	4.447762244297787	0.9881223136228464	8.257553846119837	0.7292534434405747	3	missed	0.0
181.76951589994133	6.611526299966499	nogo_reward	1.0	181.81626520003192	184.05235909996577	186.58799290005118	2.2360938999338487	182.83183140004985	185.5627305000089	187.5894808000885	1.2205276999159196	1.0252624000422657	0.8383106999099255	n/a	1.0	n/a	2	0	28	2	nogo_reward	1	0	1	0	0	1	0	n/a	n/a	1	1.0	1.0	1538.6481252000667	1720.4643904000986	1721.4799566001166	1722.7004843000325	1724.2108557000756	1725.236118100118	n/a	n/a	1726.2376060001552	1727.0759167000651	2020-06-02 10:40:58.937160	17.5485207708046	0.0	13.6505157285819	13.6505157285819	-3.89800504222272	13.6505157285819	-17.5485207708046	13.6505157285819	0.0	13.6505157285819	-3.89800504222272	4.7349125072578016	11.06480499768202	-2.724826384714672	11.467242299207783	8.09651139750462	-6.222202758725491	11.467242299207783	3.917458225823639	8.154922269082167	-2.9098827285998734	8.013162471052535	0.7292534434405747	3	missed	0.0
188.42437259992585	6.926870200084522	go_punish	0.2759922998957336	188.47112190001644	190.43697419995442	192.99318549991585	1.9658522999379784	189.47088719997578	191.9705924000591	194.00392480008304	0.9660869999786428	1.0225930998567492	1.3940673000179231	n/a	1.0	n/a	2	0	29	3	go_punish	0	-1	0	1	1	1	0	n/a	n/a	-1	0.2759922998957336	1.0	1538.6481252000667	1727.1192471000832	1728.1190124000425	1729.0850994000211	1730.6187176001258	1731.6413106999826	n/a	n/a	1732.6520500001498	1734.0461173001677	2020-06-02 10:40:58.937160	2.59668890373994	0.0	-2.9047130446313	-1.39051691598241	-0.308024140891353	-2.9047130446313	-2.59668890373994	0.0	-2.9047130446313	-0.308024140891353	-2.9047130446313	-5.8077021486331	-3.887026869382641	-2.724826384714672	-5.087986474005417	-6.944521247059688	-2.6322218573941236	-5.087986474005417	-6.625156430067263	-5.803617600391086	-1.9165907310084536	-5.637353257529363	-2.1754596011907252	3	missed	0.0
195.3789721999783	7.17971169995144	nogo_punish	1.0	195.4257215000689	197.8950597001242	200.4098730001133	2.46933820005529	196.42228990001604	199.3971005000642	201.4121878000442	1.4727698001081535	1.0127725000490955	1.1932453999761492	n/a	1.0	n/a	2	0	30	4	nogo_punish	1	-1	0	0	0	1	0	n/a	n/a	0	1.0	1.0	1538.6481252000667	1734.0738467001356	1735.0704151000828	1736.543184900191	1738.045225700131	1739.05799820018	n/a	n/a	1740.060313000111	1741.253558400087	2020-06-02 10:40:58.937160	2.22697518477696	-4.29522996061371	-2.08798757788264	-2.5589275289875	-4.3149627626596	-2.08798757788264	-2.22697518477696	-2.08798757788264	-4.29522996061371	-2.08798757788264	-4.3149627626596	2.08798757788264	-4.256740588345622	-7.020056345328382	-4.271261007256756	-8.112931860064778	-6.639160479162371	-4.271261007256756	1.2705332964484775	-7.583581037382373	-3.3268404490367534	-7.725340835412004	-3.5659765171731355	3	missed	0.0
202.60730849998072	6.643567099934444	go_punish	0.294371800031513	202.6540578000713	204.32173980004177	206.87226990005001	1.6676819999704549	203.66025710012764	205.84953289991245	207.88232570001855	0.6614826999141314	1.0227370001375675	1.4152991999872029	n/a	1.0	n/a	2	0	31	3	go_punish	0	-1	0	1	1	1	1	n/a	n/a	-1	0.294371800031513	1.0	1538.6481252000667	1741.302183000138	1742.3083823001944	1742.9698650001085	1744.4976580999792	1745.5203951001167	n/a	n/a	1746.5304509000853	1747.9457501000725	2020-06-02 10:40:58.937160	0.212407559473877	-2.9047130446313	-2.9047130446313	-3.60218370653153	-2.69230548515742	-2.9047130446313	-0.212407559473877	-2.9047130446313	-2.9047130446313	-2.69230548515742	-2.9047130446313	-2.9029891040018003	-6.271308213648704	-5.6295394293459715	-5.087986474005417	-9.156188037608809	-5.016503201660191	-5.087986474005417	-3.7204433854359626	-8.187898944657153	-1.9165907310084536	-8.542066302160663	-2.1754596011907252	3	missed	0.0
209.29525700001977	7.25942729995586	nogo_reward	1.0	209.34200630011037	211.70577439991757	214.23078250000253	2.363768099807203	210.3576619999949	213.20777569990605	215.24643200007267	1.3481123999226838	1.023006800096482	1.3550015999935567	n/a	1.0	n/a	2	0	32	2	nogo_reward	1	0	1	0	0	1	0	n/a	n/a	1	1.0	1.0	1538.6481252000667	1747.990131500177	1749.0057872000616	1750.3538995999843	1751.8559008999728	1752.8789077000692	n/a	n/a	1753.8945572001394	1755.249558800133	2020-06-02 10:40:58.937160	20.5735244085621	0.0	16.0949269767493	16.0949269767493	-4.47859743181283	16.0949269767493	-20.5735244085621	16.0949269767493	0.0	16.0949269767493	-4.47859743181283	2.2905012590904015	14.08980863543952	-2.724826384714672	13.911653547375183	10.54092264567202	-6.8027951483156	13.911653547375183	1.473046977656239	10.599333517249566	-3.490475118189983	10.457573719219937	0.7292534434405747	3	missed	0.0
216.5961726999376	6.194538099924102	nogo_reward	1.0	216.6429220000282	218.41547030000947	220.95716099999845	1.7725482999812812	217.6526397000996	219.9345412000548	221.9757982001172	0.7628305999098757	1.0226197999436408	0.8616618998350987	n/a	1.0	n/a	2	0	33	2	nogo_reward	1	0	1	0	0	1	0	n/a	n/a	1	1.0	1.0	1538.6481252000667	1755.291047200095	1756.3007649001663	1757.0635955000762	1758.5826664001215	1759.6052862000652	n/a	n/a	1760.623923400184	1761.485585300019	2020-06-02 10:40:58.937160	21.9787019553231	0.0	17.2252938960928	17.2252938960928	-4.75340805923032	17.2252938960928	-21.9787019553231	17.2252938960928	0.0	17.2252938960928	-4.75340805923032	1.1601343397469002	15.494986182200519	-2.724826384714672	15.042020466718684	11.671289565015522	-7.07760577573309	15.042020466718684	0.3426800583127376	11.729700436593067	-3.765285745607473	11.587940638563438	0.7292534434405747	3	missed	0.0
222.8186123999767	6.128944299882278	nogo_punish	1.0	222.8653617000673	224.52582340012304	227.05653790012002	1.6604617000557482	223.8724420000799	226.03710830002092	228.06804349995218	0.6533814000431448	1.0194296000991017	0.9262624999973923	n/a	1.0	n/a	2	0	34	4	nogo_punish	1	-1	0	0	0	1	0	n/a	n/a	0	1.0	1.0	1538.6481252000667	1761.513486900134	1762.5205672001466	1763.1739486001898	1764.6852335000876	1765.7046631001867	n/a	n/a	1766.716168700019	1767.6424312000163	2020-06-02 10:40:58.937160	3.55209147604201	-4.29522996061371	-1.06069908516495	-1.31671578284715	-4.61279056120696	-1.06069908516495	-3.55209147604201	-1.06069908516495	-4.29522996061371	-1.06069908516495	-4.61279056120696	1.06069908516495	-2.931624297080571	-7.020056345328382	-3.2439725145390668	-6.8707201139244285	-6.936988277709731	-3.2439725145390668	0.2432448037307875	-6.556292544664683	-3.624668247584114	-6.6980523426943135	-3.5659765171731355	3	missed	0.0
228.97433359990828	5.6633647999260575	nogo_punish	1.0	229.02108289999887	230.38205030001677	232.90824409993365	1.3609674000178984	230.02575949998572	231.88461049995385	233.91765010007657	0.3562908000310472	1.023633599979803	0.7667975998483598	n/a	1.0	n/a	2	0	35	4	nogo_punish	0	0	-1	0	0	1	0	n/a	n/a	-1	1.0	1.0	1538.6481252000667	1767.6692081000656	1768.6738847000524	1769.0301755000835	1770.5327357000206	1771.5563693000004	n/a	n/a	1772.5657753001433	1773.3325728999916	2020-06-02 10:40:58.937160	4.20454070827181	-4.29522996061371	-0.558399414187443	-0.701198268556659	-4.76294012245925	-0.558399414187443	-4.20454070827181	-0.558399414187443	-4.29522996061371	-0.558399414187443	-4.76294012245925	-5.249302734445657	-2.2791750648507714	-7.020056345328382	-2.7416728435615596	-6.255202599633938	-7.087137838962021	-2.7416728435615596	-6.06675701587982	-6.053992873687176	-3.7748178088364037	-6.195752671716806	-3.5659765171731355	3	missed	0.0
234.66483469982632	7.036445800215006	nogo_punish	1.0	234.7115839999169	236.9912286000324	239.52140270010568	2.279644600115489	235.71869660005905	238.5066980000122	240.52100870013237	1.2725319999733529	1.014704700093489	1.227021099999547	n/a	1.0	n/a	2	0	36	4	nogo_punish	1	-1	0	0	0	1	1	n/a	n/a	0	1.0	1.0	1538.6481252000667	1773.3597091999836	1774.3668218001258	1775.6393538000991	1777.154823200079	1778.1695279001724	n/a	n/a	1779.169133900199	1780.3961550001986	2020-06-02 10:40:58.937160	0.949108285572681	-4.29522996061371	-3.20759556339417	-3.28905145761655	-4.15670384896685	-3.20759556339417	-0.949108285572681	-3.20759556339417	-4.29522996061371	-3.20759556339417	-4.15670384896685	3.20759556339417	-5.5346074875499	-7.020056345328382	-5.3908689927682865	-8.843055788693828	-6.480901565469621	-5.3908689927682865	2.390141281960007	-8.703189022893902	-3.1685815353440034	-8.844948820923534	-3.5659765171731355	3	missed	0.0
241.7459280998446	6.488812700146809	go_punish	0.3582058998290449	241.7926773999352	243.21791350003332	245.77279440010898	1.4252361000981182	242.79877509991638	244.7476464000065	246.78278160002083	0.4191384001169354	1.0251480001024902	1.4987085000611842	n/a	1.0	n/a	2	0	37	3	go_punish	0	-1	0	1	1	1	0	n/a	n/a	-1	0.3582058998290449	1.0	1538.6481252000667	1780.440802600002	1781.446900299983	1781.8660387001	1783.3957716000732	1784.4209196001757	n/a	n/a	1785.4309068000875	1786.9296153001487	2020-06-02 10:40:58.937160	-0.923803981562898	-4.29522996061371	-2.9047130446313	-4.65845838387842	-3.82851702619419	-2.9047130446313	0.923803981562898	-4.29522996061371	-2.9047130446313	-3.82851702619419	-2.9047130446313	-1.51247218801939	-7.407519754685479	-7.020056345328382	-5.087986474005417	-10.212462714955699	-6.152714742696961	-5.087986474005417	-2.329926469453553	-9.324110485693923	-1.9165907310084536	-9.932583218143073	-2.1754596011907252	3	missed	0.0
248.2788533999119	6.000043000094593	nogo_reward	1.0	248.3256027000025	249.86691060010344	252.38666180009022	1.5413079001009464	249.3264796000442	251.36008070013486	253.38901970000006	0.5404310000592432	1.026581099955365	0.9366260000970215	n/a	1.0	n/a	2	0	38	2	nogo_reward	1	0	1	0	0	1	0	n/a	n/a	1	1.0	1.0	1538.6481252000667	1786.9737279000692	1787.974604800111	1788.5150358001702	1790.0082059002016	1791.034787000157	n/a	n/a	1792.0371449000668	1792.9737709001638	2020-06-02 10:40:58.937160	22.664830872264	0.0	17.7752411851724	17.7752411851724	-4.88958968709164	17.7752411851724	-22.664830872264	17.7752411851724	0.0	17.7752411851724	-4.88958968709164	0.6101870506672995	16.181115099141422	-2.724826384714672	15.591967755798285	12.221236854095123	-7.213787403594411	15.591967755798285	-0.20726723076686304	12.279647725672667	-3.901467373468794	12.137887927643039	0.7292534434405747	3	missed	0.0
254.32023559999652	6.756098399870098	go_punish	1.0	254.36698490008712	256.3583488999866	258.87156839994736	1.9913639998994768	255.37611380009912	257.8555880000349	259.8753301999534	0.9822350998874754	1.0159803999124506	1.2477531000038198	n/a	1.0	n/a	2	0	39	3	go_punish	1	0	-1	1	0	0	1	n/a	n/a	-1	1.0	1.0	1538.6481252000667	1793.0151101001538	1794.0242390001658	1795.0064741000533	1796.5037132001016	1797.519693600014	n/a	n/a	1798.52345540002	1799.771208500024	2020-06-02 10:40:58.937160	1.49159712045557	-4.99270062251394	-2.9047130446313	-5.18787161343667	-4.39631016508686	-2.9047130446313	-1.49159712045557	-2.9047130446313	-4.99270062251394	-2.9047130446313	-4.39631016508686	-2.9029891040018003	-4.992118652667012	-7.717527007228612	-5.087986474005417	-10.741875944513948	-6.720507881589631	-5.087986474005417	-3.7204433854359626	-8.400306504131033	-3.408187851464014	-8.542066302160663	-4.263447179073365	3	missed	0.0
261.12320069991983	6.922986299963668	go_punish	0.2570854998193681	261.16995000001043	263.0940155000426	265.6304498000536	1.9240655000321567	262.17480619996786	264.6118358001113	266.63344210013724	0.9192093000747263	1.0186139999423176	1.459494199836854	n/a	1.0	n/a	2	0	40	3	go_punish	1	0	-1	1	1	1	0	n/a	n/a	0	0.2570854998193681	1.0	1538.6481252000667	1799.8180752000771	1800.8229314000346	1801.7421407001093	1803.259961000178	1804.2785750001203	n/a	n/a	1805.281567300204	1806.7410615000408	2020-06-02 10:40:58.937160	-0.0326257712077582	-4.99270062251394	-4.29522996061371	-5.4636405736188	-4.32785573182146	-4.29522996061371	0.0326257712077582	-4.99270062251394	-4.29522996061371	-4.32785573182146	-4.29522996061371	4.99270062251394	-6.51634154433034	-7.717527007228612	-6.478503389987827	-11.017644904696079	-6.652053448324231	-6.478503389987827	4.175246341079777	-9.823449191321192	-3.307107646990864	-10.630053880043302	-3.5659765171731355	3	missed	0.0
268.073381999973	5.778095199959353	nogo_punish	1.0	268.1201313000636	269.4017813999669	271.9192687999457	1.281650099903345	269.129566000076	270.89884590008296	272.93636850011535	0.2722153998909107	1.0204228998627514	0.9618579999075791	n/a	1.0	n/a	2	0	41	4	nogo_punish	1	-1	0	0	0	1	0	n/a	n/a	0	1.0	1.0	1538.6481252000667	1806.7682565001303	1807.7776912001427	1808.0499066000336	1809.5469711001497	1810.5673940000124	n/a	n/a	1811.584493700182	1812.5463517000896	2020-06-02 10:40:58.937160	2.98925477469603	-4.29522996061371	-1.55907415058204	-1.6064712348632	-4.54832892527806	-1.55907415058204	-2.98925477469603	-1.55907415058204	-4.29522996061371	-1.55907415058204	-4.54832892527806	1.55907415058204	-3.4944609984265513	-7.020056345328382	-3.7423475799561565	-7.160475565940478	-6.872526641780831	-3.7423475799561565	0.7416198691478775	-7.054667610081773	-3.5602066116552136	-7.196427408111403	-3.5659765171731355	3	missed	0.0
273.8799741000403	5.877094299998362	nogo_punish	1.0	273.92672340013087	275.5001604999418	278.028289699927	1.573437099810917	274.939003800042	277.0053673000077	279.0442405999636	0.5611566998998114	1.0229223999192527	0.7595771001656431	n/a	1.0	n/a	2	0	42	4	nogo_punish	0	0	-1	0	0	1	0	n/a	n/a	-1	1.0	1.0	1538.6481252000667	1812.5748486001976	1813.5871290001087	1814.1482857000085	1815.6534925000744	1816.6764148999937	n/a	n/a	1817.6923658000303	1818.451942900196	2020-06-02 10:40:58.937160	3.9422514907706	-4.29522996061371	-0.793403695188783	-0.821478410127258	-4.73565518595939	-0.793403695188783	-3.9422514907706	-0.793403695188783	-4.29522996061371	-0.793403695188783	-4.73565518595939	-5.014298453444318	-2.5414642823519813	-7.020056345328382	-2.9766771245628996	-6.375482741204537	-7.05985290246216	-2.9766771245628996	-5.831752734878481	-6.2889971546885155	-3.747532872336543	-6.430756952718146	-3.5659765171731355	3	missed	0.0
279.8016957999207	6.397587199928466	nogo_reward	1.0	279.8484451000113	281.5155708999373	284.03987010009564	1.6671257999259979	280.8623377000913	283.02128170011565	285.03754039993487	0.6532331998459995	1.0185883999799898	1.2084919000049013	n/a	1.0	n/a	2	0	43	2	nogo_reward	1	0	1	0	0	1	0	n/a	n/a	1	1.0	1.0	1538.6481252000667	1818.496570300078	1819.510462900158	1820.163696100004	1821.6694069001824	1822.6879953001624	n/a	n/a	1823.6856656000016	1824.8941575000065	2020-06-02 10:40:58.937160	23.0137648007709	0.0	18.0541027436519	18.0541027436519	-4.959662057119	18.0541027436519	-23.0137648007709	18.0541027436519	0.0	18.0541027436519	-4.959662057119	0.3313254921878013	16.530049027648317	-2.724826384714672	15.870829314277783	12.500098412574621	-7.283859773621771	15.870829314277783	-0.48612878924636127	12.558509284152166	-3.9715397434961535	12.416749486122537	0.7292534434405747	3	missed	0.0
286.2250190998891	7.654011799954105	nogo_punish	1.0	286.2717683999797	289.0222287001088	291.55769070005	2.7504603001291343	287.2736895000562	290.53797299996927	292.57160959998123	1.748539200052619	1.0197177000807187	1.3541705999525675	n/a	1.0	n/a	2	0	44	4	nogo_punish	1	-1	0	0	0	1	1	n/a	n/a	0	1.0	1.0	1538.6481252000667	1824.9198936000464	1825.921814700123	1827.6703539001755	1829.186098200036	1830.2058159001167	n/a	n/a	1831.219734800048	1832.5739054000005	2020-06-02 10:40:58.937160	0.821222369930568	-4.29522996061371	-3.32363898188799	-3.34053845644193	-4.14486135181856	-3.32363898188799	-0.821222369930568	-3.32363898188799	-4.29522996061371	-3.32363898188799	-4.14486135181856	3.32363898188799	-5.6624934031920136	-7.020056345328382	-5.506912411262107	-8.894542787519208	-6.4690590683213305	-5.506912411262107	2.5061847004538276	-8.819232441387722	-3.156739038195713	-8.960992239417353	-3.5659765171731355	3	missed	0.0
293.90880430000834	7.24631919991225	go_reward	0.2718450999818742	293.95555360009894	296.780078999931	299.3133090001061	2.824525399832055	294.9607299000493	298.2895657001063	300.3181533999741	1.8193490998817197	1.0237432999997509	0.88371940003708	n/a	1.0	n/a	2	0	45	1	go_reward	1	1	0	1	1	1	0	n/a	n/a	1	0.2718450999818742	1.0	1538.6481252000667	1832.6036788001657	1833.608855100116	1835.4282041999977	1836.937690900173	1837.9614342001728	n/a	n/a	1838.9662786000408	1839.849998000078	2020-06-02 10:40:58.937160	11.7240914434419	16.2332907030209	0.0	16.2123538686499	11.7240914434419	0.0	-11.7240914434419	16.2332907030209	0.0	11.7240914434419	0.0	2.152137532818802	5.2403756703193185	13.508464318306228	-2.1832734293741165	10.65834953757262	9.39989372693913	-2.1832734293741165	1.3346832513846396	6.228497983942167	0.9881223136228464	10.595937445491536	0.7292534434405747	3	missed	0.0
301.2216912000438	6.321058299858578	nogo_reward	1.0	301.2684405001344	302.8392763999293	305.3670763000848	1.570835899794929	302.2772681999488	304.34921050001844	306.3775234001223	0.5620081999804825	1.0178658000663745	1.2119753998706528	n/a	1.0	n/a	2	0	46	2	nogo_reward	1	0	1	0	0	1	0	n/a	n/a	1	1.0	1.0	1538.6481252000667	1839.916565700201	1840.9253934000155	1841.487401599996	1842.9973357000852	1844.0152015001515	n/a	n/a	1845.025648600189	1846.2376240000597	2020-06-02 10:40:58.937160	23.1973968017409	0.0	18.2005072927273	18.2005072927273	-4.99688950901361	18.2005072927273	-23.1973968017409	18.2005072927273	0.0	18.2005072927273	-4.99688950901361	0.18492094311240237	16.713681028618318	-2.724826384714672	16.017233863353184	12.64650296165002	-7.321087225516381	16.017233863353184	-0.6325333383217602	12.704913833227565	-4.008767195390764	12.563154035197936	0.7292534434405747	3	missed	0.0
307.5701525998302	6.02895350009203	nogo_punish	1.0	307.6169018999208	308.9759744000621	311.5033561999444	1.3590725001413375	308.61855740007013	310.48568670009286	312.5046300000977	0.3574169999919832	1.0176694998515359	1.141225399915129	n/a	1.0	n/a	2	0	47	4	nogo_punish	1	-1	0	0	0	1	0	n/a	n/a	0	1.0	1.0	1538.6481252000667	1846.2650270999875	1847.2666826001368	1847.6240996001288	1849.1338119001596	1850.151481400011	n/a	n/a	1851.1527552001644	1852.2939806000795	2020-06-02 10:40:58.937160	2.92450900751502	-4.29522996061371	-1.61860785212013	-1.62893076854808	-4.54311685963515	-1.61860785212013	-2.92450900751502	-1.61860785212013	-4.29522996061371	-1.61860785212013	-4.54311685963515	1.61860785212013	-3.559206765607561	-7.020056345328382	-3.8018812814942464	-7.182935099625358	-6.867314576137921	-3.8018812814942464	0.8011535706859674	-7.114201311619863	-3.5549945460123036	-7.255961109649493	-3.5659765171731355	3	missed	0.0
313.63078109989874	6.24158290005289	go_reward	0.3531023000832647	313.67753039998934	315.0819761001037	317.63243329990655	1.4044457001143655	314.6947041999083	316.61547870002687	318.6424960999284	0.38727190019540103	1.016954599879682	1.276617200113833	n/a	1.0	n/a	2	0	48	1	go_reward	1	1	0	1	1	1	0	n/a	n/a	1	0.3531023000832647	1.0	1538.6481252000667	1852.325655600056	1853.342829399975	1853.7301013001704	1855.2636039000936	1856.2805584999733	n/a	n/a	1857.290621299995	1858.567238500109	2020-06-02 10:40:58.937160	12.5340189614347	17.3052643783526	0.0	17.293317457356	12.5340189614347	0.0	-12.5340189614347	17.3052643783526	0.0	12.5340189614347	0.0	1.0801638574871006	6.050303188312119	14.58043799363793	-2.1832734293741165	11.739313126278722	10.20982124493193	-2.1832734293741165	0.2627095760529381	7.0384255019349675	0.9881223136228464	11.667911120823238	0.7292534434405747	3	missed	0.0
319.91795349982567	7.387195900082588	go_punish	0.2515409998595714	319.96470279991627	322.3982911000494	324.9466870999893	2.433588300133124	320.9666325999424	323.9266673000534	325.95307189994537	1.4316585001070052	1.0200197999358807	1.3988268000534845	n/a	1.0	n/a	2	0	49	3	go_punish	1	0	-1	1	1	1	0	n/a	n/a	0	0.2515409998595714	1.0	1538.6481252000667	1858.612827999983	1859.614757800009	1861.046416300116	1862.57479250012	1863.594812300056	n/a	n/a	1864.601197100012	1866.0000239000656	2020-06-02 10:40:58.937160	1.86148645740799	-2.45121600114736	-4.29522996061371	-2.70723269882956	-2.43374350320572	-4.29522996061371	-1.86148645740799	-2.45121600114736	-4.29522996061371	-2.43374350320572	-4.29522996061371	2.45121600114736	-4.622229315714591	-5.176042385862032	-6.478503389987827	-8.261237029906837	-4.75794121970849	-6.478503389987827	1.6337617197131975	-7.929336962705452	-3.307107646990864	-8.088569258676724	-3.5659765171731355	3	missed	0.0
327.34836729988433	7.253334300127108	go_punish	0.2474393998272717	327.3951165999749	329.821374099934	332.35768199991435	2.4262574999590925	328.3915659999477	331.3383997001222	333.37378489994444	1.4298080999863032	1.0192822997921667	1.2746660001575947	n/a	1.0	n/a	2	0	50	3	go_punish	1	0	-1	1	1	1	0	n/a	n/a	0	0.2474393998272717	1.0	1538.6481252000667	1866.0432418000416	1867.0396912000144	1868.4694993000007	1869.986524900189	1871.005807199981	n/a	n/a	1872.0219101000112	1873.2965761001687	2020-06-02 10:40:58.937160	2.74253682884224	-1.25587007608767	-4.29522996061371	-1.39866893045689	-1.55269313177146	-4.29522996061371	-2.74253682884224	-1.25587007608767	-4.29522996061371	-1.55269313177146	-4.29522996061371	1.25587007608767	-3.741178944280341	-3.980696460802342	-6.478503389987827	-6.952673261534168	-3.876890848274231	-6.478503389987827	0.43841579465350744	-7.048286591271193	-3.307107646990864	-6.893223333617033	-3.5659765171731355	3	missed	0.0
334.63098749984033	6.850178700173501	go_reward	0.2750468999147415	334.6777367999309	337.094005499966	339.6238818999848	2.4162687000350616	335.67461400013417	338.601229100022	340.6283438999669	1.4193914998318178	1.0226527999627706	0.8995716001375058	n/a	1.0	n/a	2	0	51	1	go_reward	1	1	0	1	1	1	0	n/a	n/a	1	0.2750468999147415	1.0	1538.6481252000667	1873.3258619999976	1874.3227392002009	1875.7421307000327	1877.2493543000887	1878.2720071000515	n/a	n/a	1879.2764691000336	1880.1760407001711	2020-06-02 10:40:58.937160	12.9221538977902	17.8223279120646	0.0	17.8153825746574	12.9221538977902	0.0	-12.9221538977902	17.8223279120646	0.0	12.9221538977902	0.0	0.5631003237750996	6.438438124667618	15.09750152734993	-2.1832734293741165	12.26137824358012	10.59795618128743	-2.1832734293741165	-0.254353957659063	7.426560438290466	0.9881223136228464	12.184974654535239	0.7292534434405747	3	missed	0.0
341.5101940999739	7.245953399920836	nogo_punish	1.0	341.5569434000645	344.29448319994844	346.8221573000774	2.7375397998839617	342.56302050012164	345.80270220013335	347.8243412000593	1.7314626998268068	1.0194550999440253	0.9785555999260396	n/a	1.0	n/a	2	0	52	4	nogo_punish	1	-1	0	0	0	1	0	n/a	n/a	0	1.0	1.0	1538.6481252000667	1880.2050686001312	1881.2111457001884	1882.9426084000152	1884.4508274002	1885.470282500144	n/a	n/a	1886.472466400126	1887.451022000052	2020-06-02 10:40:58.937160	3.90839910748207	-4.29522996061371	-0.824956474968036	-0.831347509176872	-4.7333555824501	-0.824956474968036	-3.90839910748207	-0.824956474968036	-4.29522996061371	-0.824956474968036	-4.7333555824501	0.824956474968036	-2.575316665640511	-7.020056345328382	-3.0082299043421523	-6.385351840254151	-7.057553298952871	-3.0082299043421523	0.007502193533873491	-6.320549934467769	-3.7452332688272536	-6.462309732497399	-3.5659765171731355	3	missed	0.0
348.8081092999787	7.722774399909667	go_punish	0.2459491000045091	348.8548586000693	351.631051999982	354.17572239995934	2.7761933999126995	349.86578759993427	353.1558306000661	355.18212280003377	1.7652644000477267	1.0198917998932302	1.3955101999451927	n/a	1.0	n/a	2	0	53	3	go_punish	1	0	-1	1	1	1	0	n/a	n/a	0	0.2459491000045091	1.0	1538.6481252000667	1887.502983800136	1888.513912800001	1890.2791772000487	1891.8039558001328	1892.823847600026	n/a	n/a	1893.8302480001005	1895.2257582000457	2020-06-02 10:40:58.937160	3.1732268200671	-0.666110942027588	-4.29522996061371	-0.747566836249973	-1.1220031405466	-4.29522996061371	-3.1732268200671	-0.666110942027588	-4.29522996061371	-1.1220031405466	-4.29522996061371	0.666110942027588	-3.310488953055481	-3.39093732674226	-6.478503389987827	-6.301571167327252	-3.4462008570493707	-6.478503389987827	-0.15134333940657452	-6.617596600046333	-3.307107646990864	-6.303464199556951	-3.5659765171731355	3	missed	0.0
356.5559846998658	6.829628100152831	nogo_punish	1.0	356.6027339999564	358.3889697000852	360.9229250999633	1.7862357001288274	357.604779999936	359.90446879994124	361.9384391000492	0.7841897001492271	1.0184563000220805	1.4939230000600219	n/a	1.0	n/a	2	0	54	4	nogo_punish	1	-1	0	0	0	1	1	n/a	n/a	0	1.0	1.0	1538.6481252000667	1895.2508592000231	1896.2529052000027	1897.037094900152	1898.552594000008	1899.57105030003	n/a	n/a	1900.586564300116	1902.080487300176	2020-06-02 10:40:58.937160	4.39230816885147	-4.29522996061371	-0.436128374301616	-0.440134450207295	-4.82843654315309	-0.436128374301616	-4.39230816885147	-0.436128374301616	-4.29522996061371	-0.436128374301616	-4.82843654315309	0.436128374301616	-2.0914076042711116	-7.020056345328382	-2.6194018036757325	-5.9941387812845734	-7.15263425965586	-2.6194018036757325	-0.38132590713254655	-5.931721833801349	-3.840314229530243	-6.07348163183098	-3.5659765171731355	3	missed	0.0
363.4301145998759	5.969912000000704	go_punish	0.4833696000277996	363.4768638999665	364.917684199987	367.4712281001264	1.4408203000205049	364.4805352000981	366.45044029993005	368.4845418999903	0.43714899988890465	1.0207878001963309	0.9622339999768883	n/a	1.0	n/a	2	0	55	3	go_punish	1	0	-1	1	1	1	1	n/a	n/a	0	0.4833696000277996	1.0	1538.6481252000667	1902.1249891000332	1903.1286604001648	1903.5658094000537	1905.0985654999968	1906.119353300193	n/a	n/a	1907.132667100057	1908.094901100034	2020-06-02 10:40:58.937160	3.39231947131041	-0.363728225522353	-4.29522996061371	-0.411125309803513	-0.902910489303298	-4.29522996061371	-3.39231947131041	-0.363728225522353	-4.29522996061371	-0.902910489303298	-4.29522996061371	0.363728225522353	-3.0913963018121713	-3.0885546102370247	-6.478503389987827	-5.965129640880791	-3.2271082058060685	-6.478503389987827	-0.45372605591180953	-6.398503948803031	-3.307107646990864	-6.001081483051716	-3.5659765171731355	3	missed	0.0
369.4286586998496	6.917644000146311	nogo_punish	1.0	369.4754079999402	371.9503806999421	374.47190070012607	2.4749727000018993	370.48182819993235	373.45243329997174	375.4859680999068	1.4685525000097641	1.0194674001543262	0.907083900179714	n/a	1.0	n/a	2	0	56	4	nogo_punish	1	-1	0	0	0	1	1	n/a	n/a	0	1.0	1.0	1538.6481252000667	1908.123533200007	1909.129953399999	1910.5985059000088	1912.1005585000385	1913.1200259001928	n/a	n/a	1914.1340932999735	1915.0411772001532	2020-06-02 10:40:58.937160	4.64002135129614	-4.29522996061371	-0.237706423206029	-0.24024648166693	-4.87772777450217	-0.237706423206029	-4.64002135129614	-0.237706423206029	-4.29522996061371	-0.237706423206029	-4.87772777450217	0.237706423206029	-1.8436944218264415	-7.020056345328382	-2.4209798525801456	-5.794250812744209	-7.201925491004941	-2.4209798525801456	-0.5797478582281336	-5.7332998827057615	-3.8896054608793236	-5.875059680735392	-3.5659765171731355	3	missed	0.0
376.3751754998232	6.725250500021048	nogo_punish	1.0	376.42192479991377	378.59684189991094	381.1056427999861	2.174917099997174	377.4272779999301	380.10687969997525	382.12007050006605	1.169563899980858	0.9987631000108195	1.0271047998687663	n/a	1.0	n/a	2	0	57	4	nogo_punish	1	-1	0	0	0	1	0	n/a	n/a	0	1.0	1.0	1538.6481252000667	1915.0700499999805	1916.0754031999968	1917.2449670999777	1918.755004900042	1919.7537680000528	n/a	n/a	1920.7681957001328	1921.7953005000015	2020-06-02 10:40:58.937160	4.77109694781811	-4.29522996061371	-0.132981421662416	-0.134609175490522	-4.90407836948053	-0.132981421662416	-4.77109694781811	-0.132981421662416	-4.29522996061371	-0.132981421662416	-4.90407836948053	0.132981421662416	-1.712618825304471	-7.020056345328382	-2.3162548510365326	-5.6886135065678	-7.228276085983301	-2.3162548510365326	-0.6844728597717465	-5.628574881162149	-3.9159560558576834	-5.770334679191779	-3.5659765171731355	3	missed	0.0
383.1280416999946	6.060653500025637	nogo_punish	1.0	383.1747910000852	384.73671630001627	387.2638044001069	1.5619252999310902	384.17564269993454	386.2504831000697	388.27137430012226	0.5610736000817269	1.0133213000372052	0.964070199988555	n/a	1.0	n/a	2	0	58	4	nogo_punish	1	-1	0	0	0	1	1	n/a	n/a	0	1.0	1.0	1538.6481252000667	1921.822916200152	1922.8237679000013	1923.384841500083	1924.8986083001364	1925.9119296001736	n/a	n/a	1926.919499500189	1927.8835697001775	2020-06-02 10:40:58.937160	4.84243905488604	-4.29522996061371	-0.0761044688718532	-0.0771579743336765	-4.91854352375789	-0.0761044688718532	-4.84243905488604	-0.0761044688718532	-4.29522996061371	-0.0761044688718532	-4.91854352375789	0.0761044688718532	-1.6412767182365409	-7.020056345328382	-2.25937789824597	-5.631162305410955	-7.242741240260661	-2.25937789824597	-0.7413498125623094	-5.571697928371586	-3.9304212101350435	-5.7134577264012165	-3.5659765171731355	3	missed	0.0
389.2348265999467	6.9079990000459475	go_punish	0.2782664000988006	389.2815759000373	391.863772300072	394.3980974999722	2.582196400034718	390.2949968001342	393.38995390012883	395.4116336000152	1.5687754999378285	1.008143599843379	0.7779413000680506	n/a	1.0	n/a	2	0	59	3	go_punish	1	0	-1	1	1	1	0	n/a	n/a	0	0.2782664000988006	1.0	1538.6481252000667	1927.929701100104	1928.943122000201	1930.5118975001387	1932.0380791001955	1933.046222700039	n/a	n/a	1934.059758800082	1934.83770010015	2020-06-02 10:40:58.937160	3.50751791808878	-0.203644561128697	-4.29522996061371	-0.231719276067172	-0.787712042524928	-4.29522996061371	-3.50751791808878	-0.203644561128697	-4.29522996061371	-0.787712042524928	-4.29522996061371	0.203644561128697	-2.976197855033801	-2.928470945843369	-6.478503389987827	-5.78572360714445	-3.1119097590276987	-6.478503389987827	-0.6138097203054655	-6.28330550202466	-3.307107646990864	-5.84099781865806	-3.5659765171731355	3	missed	0.0
396.18506159982667	5.837453600018989	nogo_reward	1.0	396.23181089991726	397.5967852999456	400.0996272000484	1.364974400028359	397.2391927000133	399.09833860001527	401.1066215001049	0.3575925999323317	1.0012886000331491	0.9626429998313597	n/a	1.0	n/a	2	0	60	2	nogo_reward	1	0	1	0	0	1	0	n/a	n/a	1	1.0	1.0	1538.6481252000667	1934.879936099984	1935.88731790008	1936.2449105000123	1937.746463800082	1938.7477524001151	n/a	n/a	1939.7547467001716	1940.717389700003	2020-06-02 10:40:58.937160	23.2969285823369	0.0	18.2797030974228	18.2797030974228	-5.01722548491409	18.2797030974228	-23.2969285823369	18.2797030974228	0.0	18.2797030974228	-5.01722548491409	0.10572513841690068	16.81321280921432	-2.724826384714672	16.096429668048685	12.725698766345522	-7.341423201416861	16.096429668048685	-0.7117291430172619	12.784109637923066	-4.0291031712912435	12.642349839893438	0.7292534434405747	3	missed	0.0
